time_ms,ax,ay,az,gx,gy,gz
0,-0.9244438605118303,0.20105825638729632,0.13046873417664395,-0.5539441904581641,-0.47932912690175355,-1.112220439148614
10,-0.9183637712094334,0.2086330573720412,0.14330734417361082,-2.594969341444558,-1.9833211109956554,-2.5331174783303663
20,-0.8955779977031664,0.23061595898919932,0.16045527198143317,-2.812127068978816,-2.0142283916724497,-2.4258225852132984
30,-0.8653896770930993,0.2543730190987887,0.18958009099346904,-2.414710488178125,-2.1642578824374743,-2.0836624642442936
40,-0.8854630284693454,0.23151425552157825,0.17333028911061332,-0.04474262845933652,-0.5376059210225672,-0.004978663533117045
50,-0.8944206060869208,0.2376752090321308,0.1623793693262286,4.540026794024769,4.162792483965796,4.322129709718686
60,-0.8934925591327939,0.23633160439448478,0.1641456916336628,0.4375628026627547,0.28531360346649337,-0.23960020196006207
70,-0.9082776592596449,0.21797076522229897,0.15225159119108939,1.3658037607833617,2.065831140034302,1.110268553081174
80,-0.903864140130325,0.2204956902293889,0.15644588968189935,-0.9405225645248181,0.6970387017108499,-0.3713809872548992
90,-0.8821898484952383,0.23943656788227388,0.17517754936003577,0.6576985858376423,2.2726508689894196,1.7930889116578967
100,-0.9173653552270272,0.19876129058171638,0.13663275825729043,-5.0992065402203846,-5.138007386652239,-4.092133790189056
110,-0.8789654642349336,0.24017876651660322,0.17223465854708742,1.4178132255262428,0.00846741717698063,2.5935259663346373
120,-0.9012008469683032,0.2291124592982137,0.15580894991229174,2.82127133695277,3.3296364924861495,3.161676304924997
130,-0.875361084425218,0.2554522036151656,0.18018456008019132,-2.0311774625702324,-0.41359159505735466,-2.0999015095000706
140,-0.8714622436286162,0.25554010826357126,0.18144726261954808,1.9162761408506126,4.494488098574141,2.1188442135844032
150,-0.926144842847077,0.19923538205353603,0.12829773293714217,0.2472632264596979,4.38206967722127,1.2519087099808721
160,-0.9039307166604145,0.21778734713669165,0.1503673462563774,-5.048694654386345,0.19098554260961764,-3.27154398422579
170,-0.9093019891187076,0.2041646204233161,0.14848189177730925,-2.6544789431062616,-0.5801523674948155,-1.0565109031071123
180,-0.932619074121117,0.18892311476449292,0.12832231511735237,-0.9137254936497707,-1.780575051252282,0.791841370471801
190,-0.9156183245218875,0.23254095386167134,0.153191126142706,-6.360314820030437,-1.7006308813635658,5.619544506357826
200,-0.8669628334846377,0.3140673128555117,0.23803859100882804,-20.83729311963,-4.821365050423012,9.289172211078322
210,-1.0175682835327553,0.17710212378424514,0.19552642342967916,-22.096161260544548,-4.878900212861892,16.722141316796908
220,-1.1347511878673433,0.20367795445036968,0.28636010557267727,-2.241923701827313,-23.23669327739558,29.27788976633367
230,-1.0638452593141783,0.19328544815549614,0.19763524717183562,12.757150572630504,-22.281449300330163,42.460026677628996
240,-0.9227572013905261,0.17245311197365856,0.11442608885538018,14.071256586489659,-21.25645080553297,40.49983566797205
250,-0.7693574085763764,0.19138606629572913,0.1185174924133104,4.187580637914835,-22.060729842549577,22.971431793660898
260,-0.689608640531572,0.24275468980554818,0.1421575245072404,1.9694680595812275,-5.961789704487938,10.147787284873507
270,-0.6849636351459818,0.402044062361562,0.13735166145447292,-6.722115120288925,16.78874978145178,4.981698398090846
280,-0.7353935934377086,0.3222318305188652,0.1447960834190416,-10.306872849730997,26.430326357378412,-0.6940878626173146
290,-0.8115930043035975,0.24242792078029918,0.14063561226529392,-16.535110896272887,27.34470360467757,-10.3928273774659
300,-0.7963148340019185,0.30729337809592905,0.24449496838785473,-16.17094341304375,31.442562514694647,-13.030869092306975
310,-0.9574313981446382,0.22495348823404374,0.19090631411499806,-15.571788106903767,30.931523949359796,-14.027599311491446
320,-1.019907703069415,0.2922872017029018,0.18121471025316896,-12.015382845110125,21.26525494353907,-10.255902146000976
330,-0.978841199451099,0.25804853935608835,0.20168278888065705,-9.105577363263354,19.692597137047997,1.9802866687492369
340,-0.9308066024705214,0.23040441736424166,0.19747363736105675,-10.769013737607242,7.18531792768904,2.4096331308267738
350,-0.890408546244774,0.1983763684755941,0.2432412565795704,-4.481378248540198,1.8774525555796682,5.774227825501073
360,-0.8832883106669666,0.11966139677252101,0.33756483288455325,-2.8410469981696775,-5.51262557742381,-0.21268880610514884
370,-0.9748910929832155,-0.06701001382691793,0.28842409541200603,0.023204268879531975,-17.546348025811344,-20.001845239718893
380,-1.0624504478108021,-0.3057952003756409,0.43329061158587767,-4.628948237731637,-15.839778748448662,-23.772667714184873
390,-0.8745092497450593,-0.2722463448044342,0.2988580793857063,13.81529009359061,-21.57192822481597,-50.80874485720794
400,-0.7887268898446673,0.06351974681978581,0.12983406485627308,22.631027724166497,-26.627875685732953,-58.828785287557416
410,-0.8187100270491176,0.5132876835434911,0.11377092742390543,26.870212710007618,-13.503392145701998,-26.315225935521273
420,-0.8548851360464484,0.3981541432163502,0.02424936611105565,44.153735762530815,11.167632880734235,8.574749445539442
430,-0.9291919110862302,0.30468001023343716,0.11985952315806615,42.2651097737835,5.20482507781753,1.349811313709657
440,-0.7979213626174436,0.5189818320774197,-0.1335682811593313,-5.267568217029086,42.80542279093449,-0.609262233107738
450,-0.7607206621443273,0.49576772770444993,0.08679018358089727,-34.869264676486864,62.68509059986855,7.603116033049469
460,-0.6816589319280023,0.4198726642800393,0.12317239984745143,-29.90007252053364,54.25165127112095,20.500216466959206
470,-0.3367800731586823,0.7174986266891119,-1.0650614879729212,10.191159950469771,53.250676935405245,43.22445791810788
480,-0.8347480080242956,0.2885580463388653,-0.12541257762349445,-7.01210376001185,24.10384075362329,21.94601929863062
490,-0.8973942859460692,0.17206955675381885,0.13125652299347124,4.075147745461236,12.298494083586386,7.685045719604862
500,-0.89735726762535,0.13519192634359878,0.1597606610067804,18.979137839450978,6.242750910200185,11.159482586875855
510,-0.910837444302986,0.09438602566373941,0.1496614846963164,24.39710431809955,1.9904879937541147,21.661388596285008
520,-1.0040247028509786,-0.0650972772914633,0.10437480015002146,30.13075281894453,7.221520664075605,34.19004059929886
530,-0.9681171644564788,-0.17899794328715501,0.1474704426817626,43.128009348605445,-12.447035512163799,12.18304063479628
540,-0.8821347910791849,-0.16148700093653834,0.3390501334734815,44.7071970319937,-4.249724795529683,8.344387545499778
550,-0.8687648731011601,0.06101110510942122,0.36448505131879905,30.311388934600338,-0.11436921967039204,6.7491972584327895
560,-0.9085857374126942,0.3266608361833531,0.16516810437914542,22.497117648235005,-1.4456277017620214,7.293889031336428
570,-0.8224673736049566,0.5798216187603863,0.02738816280616448,23.50752393310754,-9.112960199423208,3.325230279276443
580,-0.8763376185389419,0.32404267243020657,0.10397503326118515,18.83044022319023,-2.289105185280874,0.6344608922053284
590,-0.8681803211037629,0.33516754783149677,0.14484722978395703,22.460480234070896,-3.4516523517588693,-11.577976464647355
600,-0.8639489187256861,0.30791690510928266,0.1497786329238224,31.820165289340625,0.5033168556338299,-11.417060228229005
610,-0.8876875376946809,0.26314953275621306,0.12257298155551224,25.059381310567776,-5.393746710568883,-18.201677682082394
620,-0.9005904635911903,0.26126032788493603,0.11274461609989321,20.71610305477272,-1.4282906393517816,-15.937577292155963
630,-0.9055203403944571,0.28322327142472375,0.11121438603887046,9.969874387412933,-0.7336740701638584,-19.40288041700658
640,-0.8938409645259261,0.22720937095109722,0.11358657927282188,10.59578489935902,10.430332820612785,4.685004516532869
650,-0.901766006591737,0.23615016793289367,0.10981478063028718,13.143503091209093,14.313417173456719,16.534825119726225
660,-0.8863612597036109,0.2975263319674639,0.12960495864092536,10.727413061997115,14.685826632568144,16.32341851278558
670,-0.8880021785465083,0.3124855565283877,0.12192210056196016,4.255656796842459,16.042232371671933,9.920446857689905
680,-0.8727341714734627,0.2727211429797335,0.11497057663071351,-6.231497096624466,15.832549555376776,-0.338998136153728
690,-0.8249305528438021,0.27455541680527884,0.14191828067464188,6.269244799456968,20.841987862477257,2.245330912092275
700,-0.8346919742850604,0.2449244108613845,0.15370371119098783,-6.1959241287958315,12.574000157074309,-7.141268721131823
710,-0.8851895671690215,0.2567638641449679,0.10438824107557336,-5.641295534949337,15.35090905284751,2.4713032628677656
720,-0.8720637797357838,0.34079092362986996,0.112773857142932,-20.254459678339792,8.461565681341572,-1.9287463418182795
730,-0.9054236263322237,0.3162052867008852,0.09179961724641778,-37.37262774981264,12.470586385729154,-9.682526434501241
740,-0.8675454358793726,0.35685698360012585,0.14319592795762906,-64.96462954754078,11.315552125224766,-22.489496598415784
750,-0.8635786382259061,0.19479107797681378,0.08519482104150278,-61.52315813790507,4.333316335646798,-27.559365612849977
760,-0.857736898484915,0.19784013334054723,0.06419045635671228,-17.56826275984485,2.6074705668720117,-4.065366729124674
770,-0.8763935815649984,0.24920983176884537,0.06142895190872447,15.320934723610879,0.8495973058553319,22.026806163239137
780,-0.8995594545760939,0.2816798394754406,0.07374068312843765,10.557843774160553,6.734594060150473,34.06989880197175
790,-0.9158413217197507,0.3117049711333297,0.05950015466428176,-48.717470860559395,7.951771559599253,-3.910037633673335
800,-0.8933261556440237,0.30248696605182795,0.08578307346258633,-71.03766552900353,7.850445674835926,-15.7500899601408
810,-0.8596380676718471,0.22996306414274242,0.09976919056657654,-69.58295122504414,1.9805558171867599,-24.82218297056059
820,-0.8931871903316041,0.18325274633302388,0.047308022864330966,-43.528323228664625,-0.6113017087342787,-18.513473621725957
830,-0.8695673840988561,0.27727980853773726,0.0735802568302947,-12.44174317304571,-2.178278024199626,-2.62635657685065
840,-0.8678553499177117,0.27251935886180434,0.11087178765311376,1.9328902343205758,-1.4322233546231853,13.978343606971732
850,-0.8948600264492748,0.268458452036248,0.08504557956166907,-3.567422689322945,-6.737907750801682,14.64118322619517
860,-0.8693106445480694,0.337787556709341,0.12532326450898473,-42.16671420105062,-3.317505645040408,-23.40068275196603
870,-0.9542952053678554,0.2292480457849656,0.04039484862720826,-69.6438273765163,-4.379751929446296,-53.05823016337329
880,-0.9213375068100369,0.17153025397560182,0.06487581800406476,-58.291713465997326,-3.7806291982144336,-51.580415101199776
890,-0.92257262856712,0.07575132434958007,0.06294439320301216,-16.229403267425816,-6.287945625236602,-30.558279840715063
900,-0.8976567443548951,0.19500883555712048,0.07043214761154573,13.095695403883985,-8.508247038042828,-5.238156027198598
910,-0.8826290570633087,0.22640341017646487,0.11184810339245273,15.760505065941263,-3.978953173901757,9.324864759224342
920,-0.8882368672430899,0.24509776047594845,0.11755584744626332,11.419663435449944,-3.565276779538538,10.082171498827137
930,-0.8888270613890917,0.2614591077408959,0.11821592762653492,-3.428389823119484,-5.84870207562916,-6.276725586455789
940,-0.8906167402539931,0.24728525749153554,0.12038235010664941,-23.185082054917974,-5.2901861749504695,-30.503739027646436
950,-0.9224433163605451,0.19913049827738194,0.0863936902755954,-15.550105948395837,-8.164503300498144,-32.828131527410534
960,-0.9264149432647006,0.15515233101218526,0.08686199316175328,-5.638387837804491,-8.572601365612183,-27.939306061276667
970,-0.8920514828077479,0.18054125388623077,0.1281267194580095,5.9490996951111725,-4.860254164999178,-16.492600614322264
980,-0.9108518025742165,0.16443076479539653,0.11359450365116971,7.771716157021589,-4.945037999523098,-9.26243749721528
990,-0.9294402952092101,0.15000871292280235,0.0954888553280345,6.986136179878834,-2.5109549374714715,-1.1238088129317867
1000,-0.8813133001976382,0.21891667590609884,0.14524238421042088,9.356496186388991,0.8719283184436113,7.826631480518632
1010,-0.871008788739636,0.24255153943248983,0.16080052940588968,9.116724605061144,2.9781723800623707,7.3011020248483325
1020,-0.8681674078471102,0.25400426500581524,0.15655159870743698,4.83102607287204,3.7997059155682757,5.281366780023836
1030,-0.8967449237839321,0.23055687844665754,0.11934226116017595,2.3220302085248727,5.882493533295082,4.894189429974151
1040,-0.8889568268830882,0.2505625579100932,0.12084379900679856,-4.758725640940666,3.2051152230470397,-0.23067286148008037
1050,-0.8743565013231197,0.29599656800981705,0.1293354721944296,-18.845772643881585,-3.961631034277032,-10.691152726074556
1060,-0.9117408622088591,0.22147691953223175,0.08611752332676965,-21.349109820410245,-4.242522826290081,-13.403116608656195
1070,-0.8799559931134775,0.22743958987943613,0.1280888477213924,-17.611926974833928,-7.021799848278924,-13.9275124481269
1080,-0.8976709476528063,0.20072126117928463,0.11697158920307749,0.1795243960305098,-4.550277133654433,0.7020493147983295
1090,-0.8824102158353675,0.22354830001300677,0.13087288326709065,12.055550995217281,-6.224371009833826,10.836078931509585
1100,-0.8940417683388121,0.23023753444364378,0.11537093903543068,15.980461524728993,-2.7885568583269262,13.04687003353101
1110,-0.8789447235625297,0.2548783696869833,0.14817111613298728,14.574280718685324,-0.949045346911515,10.549769395744574
1120,-0.8959552552766004,0.2506873409981665,0.12679246899668536,6.5395461364164404,-3.06848730766848,1.3865772871271416
1130,-0.9281320943758814,0.21090567703332638,0.09535006279283953,-5.105699575620601,-7.5154400445683915,-9.721169418833062
1140,-0.8698672267705262,0.25104960680651633,0.15721269482770941,-5.168597162706199,-0.7155712606508327,-8.098075650101759
1150,-0.9182200930778744,0.18496915603318254,0.10907477463578752,-7.247286931719166,0.6531042571750327,-7.482891959400731
1160,-0.8730513840504859,0.20679072033346452,0.14996347195749266,-2.5057863500965545,-1.6186119096718272,3.2344500404235967
1170,-0.9009305780965097,0.1820380522830213,0.12134938308343443,5.701999174098082,1.673670388455978,16.539242243893664
1180,-0.8725005471076109,0.22419962911457883,0.14842413601182772,7.44752295117618,-1.2467884735103945,20.50967212869809
1190,-0.8710258822914801,0.24671945024378605,0.14871331626515166,6.558499287282156,-2.823889470507611,20.454299244438356
1200,-0.88759036314595,0.2523521445378696,0.13324847933626435,5.3390373363361485,0.43640265488629515,19.30200673426893
1210,-0.8944852748394683,0.25820673743033956,0.1329594849920327,3.929050410499117,5.869061373157527,16.227369749564986
1220,-0.893469422375467,0.2526221266136719,0.1302792383125398,-5.440717618557416,-1.1547684689761526,3.4315120779754738
1230,-0.9361538982193621,0.19732485164741909,0.08144223036957057,-0.07735581484272651,-0.2834523200810617,1.39139012338856
1240,-0.8937300501876215,0.2357378128153925,0.12465774778119143,2.061005353616166,-2.043061865511219,-0.8874434703195142
1250,-0.9220732468625354,0.20862608652660689,0.10248614653394385,2.0516672860224263,-3.965952686067293,-2.0513420126834694
1260,-0.8928913794776338,0.23016670535581063,0.13385496772991176,4.7948608558337495,-3.870381060054843,-1.3566878299604168
1270,-0.9165537560673519,0.2086751806413778,0.10343043873852005,4.966833598509674,-3.1497640737852253,-0.22896247264465014
1280,-0.9182214144498105,0.20338614287695767,0.1011481612657644,3.0388619669009675,-3.776535487160643,-0.9414679423867746
1290,-0.8621124939339905,0.25861607944576737,0.15695978583525708,2.3043999087762694,-4.738542891466086,-1.386498280514758
1300,-0.874406872015222,0.2503619101769967,0.14947952326860914,4.612015119256707,-0.741603214865124,2.1038187165716637
1310,-0.9014647440228315,0.2293566953171248,0.13435808445986397,0.6066727148655207,1.677536560090609,1.92966231265577
1320,-0.8909257692390214,0.23212627389716842,0.13328410708081428,-0.1681940633869845,1.5291087402729024,3.7201566002883464
1330,-0.9022484807886063,0.21328576914211572,0.12756552857667247,-1.5830661179139316,-2.1799519028249703,4.270334884753262
1340,-0.8832873143929992,0.22894345565888813,0.14068993025986293,0.904881531255914,-2.9659235667704347,7.174173959752679
1350,-0.9074734593379886,0.21489180202328625,0.1126489102909862,4.806988447444339,-1.3120064852910471,11.001614150238458
1360,-0.8784106648148,0.26404864798859046,0.14778187352528457,7.335298328556161,1.647395052598221,13.809549428893504
1370,-0.897395103250896,0.24012075203476904,0.12203247804406059,2.7373596894319974,1.046790977735854,9.260960989034698
1380,-0.9029426082614742,0.22726516460645274,0.11958288674271597,1.5969233267362715,2.788373716426993,4.106200875603832
1390,-0.8934002267200408,0.24113959551187378,0.12968809951541688,2.7707794377881987,3.6302545529904133,3.9258929334776123
1400,-0.9042533169018889,0.23179426384159738,0.11903461962804793,2.1360083876047393,2.7231262175448676,3.4406629340247608
1410,-0.8856071712141268,0.24659025522953232,0.1387236361729799,0.052598148764002844,2.2129532799624845,2.274003540789006
1420,-0.9040551905394003,0.2329325601904393,0.12093342444798534,-1.5189373456421236,3.461622993353924,2.788930100635838
1430,-0.8849110497469458,0.25330244556403897,0.13122768903056897,-4.6563526211890265,0.9021982238622597,0.058667670211002276
1440,-0.8704979549657073,0.27580494252259113,0.14278938020316864,-7.043000658549964,-1.9615782328953748,-2.897167085024283
1450,-0.9096597712522908,0.23885493180206144,0.10693682105037441,1.8233346020056562,1.1533886056303433,2.062483811325254
1460,-0.8967325816313712,0.24618529498616937,0.12455906862845316,8.672959164231749,1.685275052041344,4.159836554684651
1470,-0.8803971918160394,0.255285664628127,0.13975805761731103,2.338046243079731,-2.5269346711161678,-2.813207681194518
1480,-0.8988575174308968,0.24162864929402514,0.11420743215143586,2.254068287990052,1.612532480193087,-1.5643117468540164
1490,-0.8862261752748845,0.26223101522513087,0.13895340367683895,-0.9446154840739522,3.112371527957376,-2.4502838429766562
1500,-0.8852983481907999,0.26014836595324103,0.1398246447795414,-7.052822620891152,-0.47879875055901705,-7.167908135236426
1510,-0.8726232102975414,0.259632816903409,0.14640793748447165,-8.761059994798156,-2.340634448076446,-8.210385649640834
1520,-0.9058679186466783,0.21244548085479534,0.11543994841357724,-3.915245478652244,-0.6253369300641146,-2.3731929914970418
1530,-0.9159030753999148,0.21184570755845544,0.11187065491295256,5.133108602634318,-1.0266852947091598,9.670608322175932
1540,-0.9007203547527617,0.23679922574559642,0.12501844097814704,6.13532548607827,-0.5274178400823831,11.284248921203709
1550,-0.912063077068686,0.23024026885582152,0.10894597173321155,7.171603913804506,2.2285452337974903,11.576380046008397
1560,-0.8807171122411561,0.2670692410820857,0.1374475402591952,0.8036564983167205,-1.797154503914715,3.7129763712914485
1570,-0.915274574081369,0.2384511777448422,0.10368786533212596,-2.1183495942806574,-2.2757971419222587,-0.8431486564002606
1580,-0.8456187680464519,0.2979238555006182,0.1739672809018001,-2.775869312020277,-0.12666874088244848,-2.599035426024154
1590,-0.8692369683765868,0.2718386614491837,0.14912407287867618,-2.8717483437943345,-0.5025490432629027,-3.619520681107071
1600,-0.8947636614493464,0.24548975424539796,0.12622075906369581,-3.851589876655122,-0.25879843328629126,-3.2342630402114123
1610,-0.8765665063453834,0.26178332873724963,0.14420606920407456,-1.4176848098964863,2.4375388319764517,0.005146101124056113
1620,-0.9262024634746076,0.2063508325195257,0.0933040083881023,-3.668274192748699,-1.2163752683390998,-2.814932558317462
1630,-0.8436955986554344,0.2768519137349458,0.18427182220213018,-1.2040709615296175,-0.1994188979703504,-0.5755179462090403
1640,-0.9036090541489399,0.22155662388603262,0.11550568585529959,-2.336226754796318,-2.5176688317632454,-1.0851432437277515
1650,-0.8945939942040098,0.2351536600346384,0.12844901946206716,2.6332423462105554,1.9002455826557685,4.664990913205976
1660,-0.9307315751641103,0.20597534240422335,0.09672756004732955,0.19197867477668362,-0.17944789596063893,2.943725860694535
1670,-0.884830246446684,0.2573097733399166,0.1403813291154067,0.451320559449378,0.5275426508612746,1.9629354330318007
1680,-0.9161688511067653,0.22412429029708023,0.09920511774355277,-0.9279569345338391,-1.5545040158815764,-4.381902590890634
1690,-0.8929161663456444,0.24803212713898798,0.12986312529834884,2.1853250359666827,0.48296486949822937,-2.5419632044350506
1700,-0.9078540409874057,0.22503735431836316,0.11955508108619176,-0.39245860270401733,-3.9333698799950456,-5.97121208101374
1710,-0.9174638568713886,0.2179033718653099,0.11174691615194865,-2.066577662217365,-5.366400014213289,-6.917291263361358
1720,-0.9102382216978626,0.22887654728784831,0.11775675465175975,0.6103033569028288,-0.8770950791066465,-2.8067121414215523
1730,-0.8900051608992904,0.2436437997169955,0.13497547409635724,-0.06131804325801671,0.3350680289489202,-2.5706094176853966
1740,-0.9196492788703484,0.21652415794936847,0.10679827504219389,-1.9505201038982505,-0.8934226099445519,-4.27049143652345
1750,-0.908652379835085,0.21799014425977736,0.1190041821592895,0.05573636969088902,2.63535753834892,1.6094569401721293
1760,-0.8806806757056285,0.24514943764545283,0.1450261788354319,-1.1661217619647255,1.8193133710324347,2.8259360309788777
1770,-0.8416909552403878,0.28730601357110197,0.18220465837362887,-2.2448976097697555,0.08615416915044061,2.634597140249454
1780,-0.8826791202198377,0.24674829240692128,0.14064807117453323,-4.704496958145353,-3.373265335208089,0.1565743097239043
1790,-0.9077976996093918,0.21557318326990071,0.11154073519952687,-0.7007353035444222,0.6604717369211479,3.9728525701219586
1800,-0.8992741023038339,0.23804605160132325,0.11741198108161358,2.958458555341765,2.7847225931930026,6.287171229201435
1810,-0.8929915095817997,0.2451109613067318,0.12776688663910193,0.8479292468431523,-0.4222814797011081,3.156580098532528
1820,-0.9021737431006976,0.23278366692647298,0.12362412149213764,1.470042453472203,0.34072349251939515,3.0500039830491046
1830,-0.8771581192220345,0.25635295239491784,0.1488541543298948,1.4556873135151864,1.1389729903876098,2.643329479137875
1840,-0.8863854775443936,0.24771193549259257,0.13118356011827773,-1.6155464779767146,-2.226603674330505,-0.3660308086617563
1850,-0.8778479628471059,0.26479761343292035,0.15344048458021825,2.3631084785879555,0.5580991982736025,2.6681920885263466
1860,-0.9008721292226048,0.2404854899247873,0.1270202617035452,3.7274517811370984,2.567925840397685,3.768689263302531
1870,-0.86613163933643,0.27171565094109473,0.1591752157041316,-1.3901497880543916,-0.8028945153014133,-0.1468974183224958
1880,-0.8954467168531187,0.23782248113555146,0.13061967778576045,-4.227008382164202,-2.3399894948521336,-1.3044190538019482
1890,-0.9120474172752282,0.2157785840770798,0.11358358950503754,-0.9522768216784243,0.28413945596323953,2.7885486153673558
1900,-0.8499526675830833,0.29043227334826516,0.17810485377046353,-3.0238475854859734,-2.567434032171712,3.8761825363626796
1910,-0.9292844181759604,0.2157297337060539,0.09645456359846893,2.336679194945646,2.7309691863751118,9.349732294882624
1920,-0.9073399356915566,0.24174126016541253,0.11554107731777667,1.890841621208099,2.527695050903766,7.617396215730703
1930,-0.9059010574532971,0.24516595452254103,0.1168155773022243,3.2237125736650714,4.230403697724294,7.228597901922622
1940,-0.8442513319526886,0.30537074863321984,0.18184854599128392,-1.598415611051777,-0.26079674854773427,0.7842283551756402
1950,-0.8559412495805999,0.2954604391939503,0.1709709065088773,-0.5591381883067505,0.7627343255823148,-0.17268100828085575
1960,-0.8628632383921596,0.2856012321833572,0.15791562017852573,-2.537890323936844,-2.3032467593609214,-4.611011868028591
1970,-0.8992985602758887,0.2417196193598976,0.12518681447924337,-0.9846544012191445,-1.0268561714850937,-2.908886650136924
1980,-0.8433326466588169,0.29301217587561945,0.18269042736364532,-3.0239519843175016,-2.9957924876727495,-3.6925728850988166
1990,-0.8841706789273419,0.25421516734382504,0.13754097971084128,-0.22036220458821032,-0.23136340387495877,0.15016811349046294
2000,-0.8749696181115598,0.2690831176699212,0.15251637067873183,0.06491462731523312,-0.0636620066975232,1.2174858855604844
2010,-0.892747847453919,0.25014012720580947,0.13714234835641642,2.0795592516438486,1.115216925790583,3.1237655182745363
2020,-0.8951591823986601,0.24889588421166836,0.1346924021368143,0.14350213490255181,-0.6920606604572203,1.5270930719572946
2030,-0.898091851767387,0.24555123444641272,0.1293224588566374,1.2092526867102686,0.8526837728582176,3.0161639777718703
2040,-0.8972490663960311,0.24404135812659264,0.12638887928789444,-0.19518049405084537,0.01366515039966909,1.8303933123740994
2050,-0.8779939695264908,0.26190323707775276,0.14247127469066656,-1.3345941350877415,-0.4894641021060939,0.5002885091527117
2060,-0.8866802670217501,0.25035309258756616,0.13345319803895966,1.7166955643999704,0.3990918330112528,1.8939880337892052
2070,-0.8943158356069524,0.24981671898659225,0.12974880466685315,1.6215050284548609,0.4886346363103396,2.2903103303053145
2080,-0.8612460674547311,0.2863402799210059,0.16210603033209803,3.2956928919242543,1.9391743709208291,3.6492198132446747
2090,-0.9495432210252484,0.19665435023545044,0.0716764161032554,1.5901045679589376,0.08522221825914575,1.1977337956884422
2100,-0.881555635652684,0.26264317205880444,0.14216983884463127,-0.11440763660693765,-0.3690488876183422,-0.2150489241607818
2110,-0.8739163460893354,0.2683131704192901,0.1440470956989095,0.7747668123359427,0.12465402069354281,0.3534091254796562
2120,-0.8660256476946998,0.27848352668092735,0.1517519096344478,-2.134806690831909,-1.484306670327939,-1.5288816478826521
2130,-0.8918096682469935,0.24978169447383294,0.1265411031780013,-1.4610391456060596,-1.0619506465661666,-0.7637183698081813
2140,-0.8864434615798826,0.25163435936522577,0.13187458345507053,5.024141846181668,3.699158580352831,4.783852145593458
2150,-0.8692706893068722,0.2703306486674173,0.1484557387720642,1.3246263688523343,-2.134339764350509,-0.21191551883132909
2160,-0.8611014493504769,0.28413337820739965,0.15744509554624914,3.5643972927714307,-0.8662949107173936,1.7303031994553
2170,-0.8953180913029205,0.24590979972012345,0.12279724966037572,3.27278685290215,-0.19370063408011984,1.4739667438642607
2180,-0.8847960103601143,0.25865978889073477,0.13514239014056303,3.7396817112006264,0.4613292439656257,1.8499794699446226
2190,-0.8563060100509696,0.2897066985852072,0.1630476255693473,1.5782909699942789,0.27298088455030367,0.9659543837380682
2200,-0.9312462215508348,0.21547127003426958,0.08518538423458247,-0.7963437427920199,1.2020670020424298,0.6749808683698767
2210,-0.9078044246989312,0.24440372108650987,0.1116468492159689,-4.426892299268949,-3.450461400350613,-3.9259008924721943
2220,-0.8605081636694283,0.28161633898447275,0.15423127453920876,3.481696374774143,1.9604193323675327,2.2155372474413655
2230,-0.8674070244916775,0.27611620679528975,0.1475203521506109,3.3367488770177847,1.0343595551738192,1.4111092245189079
2240,-0.8820571847725852,0.2664537542898777,0.13624004713344148,-0.3896184704936463,-2.522514093063887,-2.833141859134974
2250,-0.9037625862634335,0.24748920490327037,0.1163613544757683,-2.6556099319243835,-4.308430890848078,-5.572455379256083
2260,-0.9065169412976501,0.24207285305828372,0.1080920525735796,-0.8818939253942866,-2.0104640254442927,-3.42159554971499
2270,-0.8991378952908263,0.24275762619039323,0.11230609051984415,-3.0488841241992675,-0.6064003033061733,-0.9059004155268955
2280,-0.8594132254298724,0.2840514338052208,0.15831034291875984,3.7315423966182077,4.911245520846473,5.727715409315735
2290,-0.9034088102477029,0.24014331561702537,0.11764985944686013,0.8737345498257477,0.6645042924298907,1.838102444153347
2300,-0.8871267137386244,0.2567596363171296,0.1326969638896981,-3.272115241227951,-3.930364929467155,-3.3383344476177017
2310,-0.9036463735826822,0.24434945861079785,0.1145625131852588,-0.5336546313053342,-1.112410321434558,-1.7374394158403332
2320,-0.8729586374951109,0.26955478461788057,0.15438188780334844,0.03437059946458594,0.017997048061676263,-1.011890721405831
2330,-0.9028997958257494,0.24626470135669964,0.11968805377354827,0.12661029527719803,0.38691625694934556,-0.48532801224904276
2340,-0.8948518018228505,0.2555136222247737,0.12619453775698636,-3.285660580037244,-2.9424458370729494,-3.318042532374883
2350,-0.9269486793706095,0.22156957281795428,0.0937361222884644,-0.585784027724757,-0.7753825416493263,-0.3466803032518802
2360,-0.9262983458841004,0.22058889697943646,0.09305207847442717,-0.8907666550782591,-2.135103412326158,-0.8004360893621482
2370,-0.8926336423021223,0.2472940642016523,0.13235609214066973,-1.7328743804021323,-2.8555780881980883,-1.2561259317925
2380,-0.9191403706267285,0.22241802640903066,0.09675508136435981,2.75698642063052,0.19056498797850613,2.1770888738613583
2390,-0.8481391708424756,0.29483105603246557,0.16896503241349006,4.125268468995751,1.6837006802275059,3.290632928515688
2400,-0.9306760369179582,0.2187943915555817,0.08739069364789609,3.3547210657538074,2.153794630883731,2.840960768690966
2410,-0.9068604108244608,0.24959634765858363,0.10794467755031927,1.1259068126163536,1.6526906160923094,1.1334115355506154
2420,-0.8896373641367067,0.25542714052075893,0.12649013028754072,-3.0939155794438773,-0.7758635472771752,-2.6453460523662073
