time_ms,ax,ay,az,gx,gy,gz
0,-0.807313382944957,0.06614603572151334,0.6322465401696096,-1.4011693764553466,-0.16811263034544494,-0.5447555277841586
10,-0.8280485173267086,0.039933027609967156,0.6100622023924874,-1.3305632781848549,0.0938996219066992,-0.49332100786488686
20,-0.8092276203195836,0.05284466646284403,0.6325860693819215,3.7931607261173252,4.858639238946724,4.2017846646994546
30,-0.8397504313481384,0.028890536628378406,0.6099169950676174,1.9424985836865352,0.900884226625442,0.3480483122495194
40,-0.7993737952539566,0.057938249829302915,0.6383577476859926,-1.8086125083516404,-1.1626480740191945,-0.7890689108386123
50,-0.8138589675798202,0.05250912292972825,0.6314066909597371,-0.5604940204292703,0.7961923024900672,0.06891654780175649
60,-0.808002851219065,0.062281650712277335,0.632412300726725,-0.39435769198602205,0.701609210921614,0.006602170529635881
70,-0.7831731924486832,0.07892760178610835,0.6560978931206938,1.4353482655783165,2.2164049648369275,1.567960193673153
80,-0.808531484615605,0.05364688362914484,0.6226009960901064,1.8889821484613842,1.3187762235061418,1.2357521893160743
90,-0.8444641845152465,0.03601440900781493,0.594947694170072,1.4287946379486764,-0.3061931996028482,-0.30763185560653084
100,-0.7879170715912435,0.08432481032761321,0.6512727828881711,0.2662962862953894,-0.5219426810007006,-0.9326639605473974
110,-0.8067971092873839,0.047511196511922836,0.6346998160418817,-1.398158294455911,-1.419345783506051,-1.4821910870968527
120,-0.8236811467929208,0.04263321666356765,0.6202870660617226,-0.18049267606863903,0.36114011457119294,0.6277440963327645
130,-0.8054295912977644,0.06901879667047325,0.6339937400449206,0.03509633479253385,0.5800665825875169,0.6905316828371199
140,-0.7975329265230878,0.07716238247572747,0.6452649300073221,0.03594152556860086,1.5574241282750083,1.3702834229604284
150,-0.7984819888901107,0.07108159716256707,0.6440002746258464,-0.91253658504781,0.5876465269847818,0.020160297298441376
160,-0.8193539780217529,0.042460323621800286,0.6243347910023404,3.7928814948878498,1.407620481009947,2.0044255797974517
170,-0.8149949684104434,0.05001985858527523,0.6305344290672419,2.842811568752916,-2.7651320023693264,-0.9672734648079104
180,-0.7919986006965154,0.07700795179961349,0.6537363862648551,7.544044833320155,-0.5964821140360388,2.482908565790962
190,-0.8110909554918745,0.0625242430278409,0.6519624633924466,11.679768916500633,-0.998534748036146,3.0669756691738055
200,-0.8175645617638548,0.05384054743496934,0.659162318193457,5.247269955954765,0.08825214449961694,7.792825609978268
210,-0.8089761807002747,0.08505534118601023,0.7477140880022733,3.671092836303186,-2.336984795020001,9.06310282480914
220,-0.7863695741443919,0.10832806593978754,0.8210656631520393,11.186397890616341,-23.497853213530085,-3.575166061300096
230,-0.785066667221415,0.13888798329382346,0.7261290934865686,12.684154311163875,-42.53405670004563,-11.487292583729397
240,-0.7135915412862499,0.17744935752292837,0.6518387222903173,11.555893384467634,-40.975087722297665,-3.113644076603158
250,-0.6781904737135768,0.10924930682133231,0.5919337273750747,4.6782087838242195,-39.40636154747823,-0.9927916446077494
260,-0.7139466328344066,0.07470800101519762,0.5161121195719963,6.0649763606540565,-29.212397615193314,3.76868082737386
270,-0.6494911876751849,0.17858791734341561,0.5975337718207713,7.309421084250713,-17.93314898797958,10.53058276796121
280,-0.7096565199472493,0.13740747395069217,0.5871797061553359,-5.765196937089867,-13.225647858378037,8.185273801630224
290,-0.7551642474813196,0.1024628905079255,0.5972920740683901,-16.139839171462846,-2.7135585034050336,4.955343225133998
300,-0.7684650989350652,0.06681052321159317,0.6723020482120143,-21.282386200307663,1.2525065009804202,-1.1401375523485495
310,-0.8265718300213349,0.016803820197425618,0.683569650069999,-20.37071772762045,1.027938763154609,-5.836609053767784
320,-0.772836684691662,0.060055224766179,0.7268086743437128,-13.631889102901848,3.7065666985963936,-4.50637837170089
330,-0.773544130693238,0.017691742188413705,0.7053135021623428,-13.699369641614116,2.624821508646039,-9.067621498550299
340,-0.794739282911831,-0.030167792757730242,0.7498085939231766,-11.4796883061528,-2.254029134180979,-11.492788062296642
350,-0.7606006873296369,-0.06318926589557755,0.8247241077031995,-5.11608847744497,-9.478295049104315,-8.727427092772063
360,-0.8027307116316063,0.19126856939302567,0.6422821823829973,-1.4094704052844098,-3.8883811628569207,-0.6932873423758799
370,-0.880927019409649,0.1676238849171495,0.5379187027748195,-3.341830811348216,-5.079983605858718,-7.427291578939328
380,-1.0118006426650323,0.13779903977883542,0.3413872872431205,-0.2764913726451921,5.3107593048786335,-9.783801345407614
390,-0.9925843392909923,0.15401982375357,0.41842203606483164,-1.3377390385120613,28.064689285099135,-15.118883693934906
400,-0.744125610373312,-0.1249789729100838,1.0564212140332978,-3.5945788176412306,41.767936094834106,-23.334632935077835
410,-0.8410990147147254,0.3606902085622092,-0.31183855613031186,4.617030717272309,43.28628481409319,14.804082886874564
420,-0.5055285065165187,0.03974332295835841,1.278576863966307,50.77342548745368,2.236221351788969,2.1431400684802693
430,-0.6992976241875402,0.15671756122822164,0.6583090227594394,-19.106357661160526,28.51512628106111,15.160667541600711
440,-0.6742209998131131,0.0035618008944378107,0.8490635932830304,4.6136824992381245,2.2458751180668375,5.618494039190144
450,-0.7626489417480604,0.07960506557744586,0.6665649969414387,-0.6366969107291595,5.298411963357014,11.202574132466948
460,-0.8020539154988183,0.04543517218222839,0.6390418569469402,0.2242940411009819,4.934998083371727,10.722499043556896
470,-0.8052180171797293,0.08031194132447299,0.6364759766374224,-1.259996060987627,-3.365113830666989,-2.3075168726129425
480,-0.8080918476098374,0.06345139604350519,0.6181841305236732,1.047380170310254,-3.0221099048515434,-0.9387219761046738
490,-0.8207464574815332,0.06759606668291684,0.6089940111699955,5.087044326281804,-0.879751066088454,2.4755859431257075
500,-0.8073782433005086,0.09065115147204467,0.6182130138721159,1.442160567726997,-1.9851737646657361,1.2274561470950587
510,-0.8421438840070423,0.050525195261190016,0.5990157425275847,1.6551639204643778,-0.946321750972636,1.005940384129417
520,-0.7884713237265668,0.09275701780526967,0.6458598363403627,-0.8152698902436429,0.30005280321632183,1.3378835635696984
530,-0.8069666902150605,0.05947810154279767,0.6541437635275026,1.0943238902627122,-2.8930484771779836,-2.6342286165303053
540,-0.7882529680090763,0.10691203916889458,0.6387876239697154,-0.7282341766413364,-2.644898000845876,-3.1291816305764244
550,-0.8011898927387254,0.09499610430166405,0.6340301236104231,-1.6952516340466046,-1.579421836447177,-2.368452840847977
560,-0.80079424686861,0.08367102475224267,0.6318471486816956,0.5929936353879551,0.9971679160135601,0.2684669226882457
570,-0.7930263055834487,0.08467163408298291,0.6419908291543686,-1.040818680234307,-2.0860889897758446,-2.4191495291761727
580,-0.8162115651695936,0.0474018717566727,0.6186287830529981,2.5817421388645423,-0.6672440761802773,-0.07978656197386114
590,-0.782051532625957,0.0929897767079626,0.6560718258363811,1.2669558516492492,0.3123179019622133,-0.8710126992503444
600,-0.7949157352879374,0.08413059618618703,0.6423195389007066,-2.8750908245617426,-2.284410354262491,-4.458237506047364
610,-0.7857873895713895,0.08930657168423782,0.6547838188547747,-2.40933398755933,-0.3166971618789572,-2.9177754085524175
620,-0.8111490690766031,0.06389692799993818,0.634135463773408,-0.20959794234868567,1.3255802983277967,-1.3039444687619768
630,-0.8076926585439321,0.06838083974734399,0.6313646629989869,-1.199794639716249,-0.5472360856550647,-2.4174408817292274
640,-0.7843683644222242,0.09542683157148427,0.6486479156716121,0.6716097230112675,0.7874292644225451,-0.30501545250947504
650,-0.8130429322013593,0.0673060206268875,0.6284871503209557,-2.179776407418364,-2.234164388894793,-3.4965187946870246
660,-0.8076409640596836,0.06384722021957125,0.6348511256062651,-1.585253948708882,-1.0489879589989641,-2.5779498393426308
670,-0.8002788330308667,0.06819078589631666,0.6372455186374983,-0.5365431437116568,1.1170846403527832,-0.01930895048582837
680,-0.820594251883257,0.04971458796344924,0.620003976493351,-2.097446470717917,-0.48574054684240386,-1.2245415790273537
690,-0.8044450988821944,0.06743073982875539,0.6353325743878344,-0.5584858338966541,0.5483419963992986,0.17357996957774252
700,-0.8002753637205122,0.07636359988777901,0.6396261622483089,-1.9026329868525431,-1.3606783158162088,-1.7296196942506499
710,-0.8149406798111296,0.05974063865928835,0.6313197551593795,-1.3575593441830762,-1.3047766391515057,-1.9912552082467754
720,-0.8155468670375876,0.05997382435713669,0.6328547552535575,3.990766523363827,3.629858777946179,2.5871262879591983
730,-0.8396733711418596,0.04362505932739816,0.6037697405370402,0.09772703893313595,-0.46706766952125855,-1.3176618452837798
740,-0.8298805919980714,0.05148263623875882,0.605032575188072,-1.802795829505683,-2.214624138389487,-2.374754275820534
750,-0.8225717511810174,0.05165562037535579,0.6091055597172839,1.1656330243422774,0.5609556548796162,0.5763069151625925
760,-0.8174178798242047,0.05928074140401781,0.6205415835233308,0.08357981139366188,-0.44428557801251845,-1.143203938875869
770,-0.8355405438562863,0.04468360089151381,0.6028240186759269,-0.16265097774271536,-0.16061255900020344,-1.1026308780610792
780,-0.802642208687917,0.07144843498926154,0.6302451123188741,-1.4763762168044345,-1.4319425971199822,-1.2596638099459436
790,-0.8108196284200458,0.0617095088531549,0.630679473295492,-0.3068729163589289,-0.11222000512919428,0.3477690443697734
800,-0.8007264281115858,0.06709747928524684,0.6439898720756145,0.14699333336367837,0.6664192873087599,0.9409480184206139
810,-0.8053191328379167,0.06032161369603542,0.6279453641566134,1.9766470184279432,1.9931201821220386,1.9227040468970833
820,-0.7816652347129341,0.09380998110090734,0.6562175487990102,1.8615329626271817,1.097691541594199,0.27818822315077935
830,-0.8092422580221168,0.06734796116188406,0.629927537720655,-0.2608976456103934,-0.06272521023073152,-0.6438374267979502
840,-0.8183337172373167,0.05270483613524139,0.6131933254117534,-4.2516988847039725,-3.0320655613268124,-3.233415192233755
850,-0.8076122621502148,0.06086864238822503,0.631325288969555,-0.817106345327266,-0.3092180451581739,-0.3349903416377241
860,-0.8253126497915539,0.047211609835472915,0.6130803503447959,-1.2711126226377354,-0.5619466292060631,-0.5079589151051269
870,-0.8279469195592322,0.040757310136469355,0.6046334159644271,-2.8719365961245202,-1.604475590523796,-1.7335249287169743
880,-0.8111855191084224,0.057810754308705595,0.6269101706466716,-0.9931683305972183,-1.360375868739761,-0.9733456921002681
890,-0.7993445962919651,0.07490437731345138,0.6362958104026847,2.4532939746221634,0.932842683164717,1.139561611869816
900,-0.8298053409619301,0.045964231097790076,0.606609531899513,-0.4708303095482185,0.5803685344884868,-0.6068166419783683
910,-0.832070455547125,0.04486729617139115,0.6020909919254226,-3.176207587410233,-1.701719736387,-2.6071325149882156
920,-0.7966760951328026,0.07321037038474007,0.6435597183828535,0.9321361005508084,0.486459217587635,0.5792082452890353
930,-0.8035023547687894,0.06228569677689608,0.6281523034720596,4.273640461659396,2.3427626286108327,3.8148917433584266
940,-0.8006364218676141,0.07454918702088727,0.635077703026601,4.132041645130121,2.0375373687175915,3.6370830550546414
950,-0.7907110299699328,0.09466669387126306,0.6408397874282518,0.33348366558695997,-1.8713298192812649,-0.5375095871574325
960,-0.8139532952938695,0.06784477254202288,0.6238197357197163,-0.9907926704258936,0.742433447081779,-1.0213281207066955
