time_ms,ax,ay,az,gx,gy,gz
0,-0.6729082140122133,0.055377298869494315,0.45560946853592615,-4.100336903763489,-1.6897405489131399,-3.4898958542767966
10,-0.6833218789353729,0.04079122790823749,0.4402049909716511,1.2270390826071067,1.4559578998227325,0.8573711844763527
20,-0.6552793677904275,0.07041246086176857,0.46890233280019084,3.2790372666275127,2.423223232867955,2.670383210252246
30,-0.6474479384072567,0.08221217438000782,0.4787993428938856,0.664871106576846,-0.7409025506876039,-0.1744306525722612
40,-0.661696567657547,0.06969779794147957,0.4668750224979634,1.4787549776983318,1.330519322937604,1.1288817532825828
50,-0.6872513398773898,0.040429805170065405,0.43955471899458265,-1.3901542273793788,0.32368794269165996,-0.855164625955749
60,-0.6789674705850178,0.040841420627392204,0.437391296911335,-1.646037869559838,-1.2942614167815405,-1.5400060575170555
70,-0.6553722644340696,0.06681867572188055,0.4689349252949391,1.8908831214119073,1.5533890940191748,2.050112647819551
80,-0.6812663629405981,0.048491906598325994,0.4423678200799141,-0.02727617280957806,-1.3630834070188826,-0.884050620544628
90,-0.655262240481624,0.07875072914641845,0.46953503492570553,4.383985162333819,2.428289657435851,2.594021989530833
100,-0.6595260360733294,0.07503318425923963,0.4653279370533829,1.8471400949067993,0.31991280326912613,0.28013970940360905
110,-0.6588967439566954,0.073324028898583,0.4636700256105964,1.6130244985802153,1.3442933008510731,1.0451484337342505
120,-0.6662346632637302,0.05945929410403656,0.4517804133760808,-2.8937785862370715,-1.8960007595794892,-2.5184805049932617
130,-0.6549285322310854,0.05524931377754398,0.45569366892037816,1.3607252532774887,2.8170479131034107,2.8260627845989164
140,-0.6532477239391324,0.06832390069628808,0.4751463594751895,-2.244612415551698,-1.5862207132191566,-0.6189647338633073
150,-0.6507963810659319,0.0725252113243054,0.47363313826947456,3.28735597271404,1.9212086580851142,3.646592880945902
160,-0.6705711968991495,0.058037679984705055,0.45375757011535156,2.0538061781166568,-0.08777063277479125,1.81598074794268
170,-0.6722358441289381,0.06156633496768607,0.4574456555214064,0.23941945262663733,-1.8866245490619502,0.028181297649074732
180,-0.6775959716249939,0.06496721670045433,0.472245479817153,3.1069870624942864,-1.3478806873606368,2.6561309158205697
190,-0.7069759200538205,0.046696297542886324,0.5095915785519103,10.753488497958354,-0.7385128389991493,9.89537741420531
200,-0.7096236653377965,-0.0205362037858353,0.6893379550039009,6.406587185781549,-8.085835274937162,10.414438380943988
210,-0.8234226567288334,-0.11710047186709686,0.6257513757693531,12.216110021716206,-29.446265016249196,-3.8861041971630743
220,-0.771452073764149,-0.09581338941935574,0.6567903651933725,9.416191920897415,-51.37985637477785,-21.079413032984014
230,-0.7188040155978797,-0.009501481618759439,0.5821880114610344,10.036492853977384,-57.7684296446178,-25.39932000353144
240,-0.6433566941958829,0.12715007341359688,0.4884176711188202,6.088054660511289,-57.635710698624706,-23.316134812802222
250,-0.5732660260666962,0.15350362250654304,0.40081302274823577,-0.9339114017979273,-45.25434997231924,-14.193734581432173
260,-0.4541507937303136,0.03261318686677336,0.3362525651243572,-11.639513750676173,-9.870384303235484,-3.752517000070107
270,-0.5126988343573807,0.09461750401988878,0.3529494252831142,-24.53769296878931,-1.8986268559332322,-9.036079821338552
280,-0.5718759641348998,0.10745051825673825,0.3224282821546232,-30.248191057188905,9.138724581145185,-10.354486588777604
290,-0.5365253409003762,0.14403305424947088,0.3826721635025185,-30.694689389852932,19.495063687149877,-8.156090544143797
300,-0.5935650993759122,0.11455192933446041,0.3810185208777964,-30.13604245917176,27.56550896222713,-4.858067575170932
310,-0.6233351253541615,0.1690712546945251,0.41864742617484885,-27.378936496111244,34.70053525375927,2.0770490816150486
320,-0.6593676464038801,0.203721335948896,0.463104216528064,-24.91284733020337,33.79488037234386,8.820409387356273
330,-0.8289119125210169,-0.036229334315068445,0.5924162035381012,-31.40117290486162,6.108806026179929,-1.236595166315945
340,-0.6798581839341029,-0.03027879153050853,0.5308920523598617,-16.37483437150483,5.279086341952949,-2.927705534484089
350,-0.6104451191555298,0.03472195551070308,0.49839891117484697,-12.59780641427168,-4.007345443889941,-3.211032872411484
360,-0.6287221413984156,0.04744094160915118,0.4913219450392736,-3.4979338515164566,-2.9559876768050306,2.3151050245457006
370,-0.6518629949545441,0.02094100185439937,0.5163706073992834,1.3943508099055824,-1.331526133211788,5.065270983579019
380,-0.6873557340956158,-0.050248236628455456,0.48892530917805127,1.6457913354166185,-1.4825824089830957,7.0362376746657675
390,-0.6201880932671844,-0.010716718271153265,0.5101098188226827,0.5123465088322243,-4.1913471429819324,7.83996639287028
400,-0.4506430633121159,-0.11464348955288428,0.7329541012459179,-4.116458555446584,-27.77283974226688,5.22420704894919
410,-0.17067774965791557,-0.1425768480637028,0.8505579351067853,20.045207473674573,-38.16049099408522,0.7864149789619257
420,-0.5403051291557459,-0.2843486798074197,0.6745809647265469,16.844106042348983,-38.46941272433129,-14.92559910947269
430,-0.8288428090859802,-0.1719826777473873,0.39394196451380953,8.541678752903172,-31.195958965611005,-21.588534337594712
440,-0.7703547400684368,0.042112032254023025,0.38795541977464854,1.0124307392240055,-22.129635170886658,-17.18447592462707
450,-0.6157569651750309,-0.014709895984797092,0.6390283453241221,-19.91512741564566,-22.343029662913967,-19.088413813874084
460,-0.4961892234510769,-0.058715230088953616,0.13310638369671518,-49.853066915473846,-33.12379328712422,-33.5639713699321
470,-0.4645518275438977,-0.25075424915519845,0.45399865581838034,-17.695147360548603,-27.645052777454747,-46.22060170359135
480,-0.6959498114811649,0.17123249463198484,0.21031025653469365,1.777098961885033,-10.981826576513214,-39.972966071731626
490,-0.6889076937201332,0.2760378217935504,0.36421051492213585,10.446459292639055,1.2284383172709719,-18.937345822514807
500,-0.6517457024841714,0.23588773243866928,0.48647406223206224,11.760752390990222,4.0377363799381145,-11.223084836239018
510,-0.736784302187273,0.2670527553989254,0.3378562672672982,25.93288716049215,8.22491699582066,-11.706850343238468
520,-0.7100477577042935,0.2808188586467822,0.4018719884715002,48.51819193396491,8.103226688051594,-5.374002984048426
530,-0.7020918575029971,0.08684963631810785,0.3143533979751133,21.59564319821876,13.048277228587713,-3.9589842531993376
540,-0.6185207743548408,-0.10917603407333107,0.3675893662557105,27.98229603042767,19.12153580080207,-16.77125548447953
550,-0.704391700785092,0.055990307288583785,0.39367285935868823,25.583558030145422,19.056924405730985,-11.185978016212486
560,-0.7532626225116886,0.17295944714522318,0.3259376074942029,14.65657333324955,22.474122581609862,0.30818201025348774
570,-0.7010661788700305,0.18099518487872265,0.32588473780525723,9.46234091101533,25.6497259769705,6.913936815162915
580,-0.6108750905177976,0.16738993116959083,0.4944784035806161,18.73699368533008,23.215239043252083,8.163332092405938
590,-0.5651793617648719,0.028089301864401048,0.5751318174481286,25.228479187044584,20.38497092261759,11.959477265889257
600,-0.5946831456072544,0.07033412975638263,0.5277414212460291,20.67957201456703,26.431640467711905,18.16290740856586
610,-0.5964236607711458,-0.09151419056452585,0.6666387043332127,8.003302855338024,17.762100425168676,13.852762665495815
620,-0.5099395783322135,-0.1956911781360625,0.9712494660810963,-11.456992192830656,12.595416760077663,13.384608354680639
630,-0.4817448403330623,-0.1846919117749622,1.0796792246515292,-22.66282458215747,17.716042601722968,20.929792560020417
640,-0.5888255621741879,-0.175701024527197,0.8283725951380464,-12.867460816069386,18.11066248881789,23.851496060914
650,-0.6447178024813935,-0.20649502486115756,0.5501274836113048,20.727124084078618,3.830113217467315,14.793130290023738
660,-0.5996093395753118,-0.2410236819631613,0.7046363608572657,-2.096919216198783,-16.24468564644868,-11.250033320808923
670,-0.6341860548660483,0.20862990468496365,0.46344842713795487,-23.495965102004604,-2.8364374490518447,7.6529294442942755
680,-0.5607583589480384,0.06122014308448048,0.6472841399910411,-59.196664589720505,6.228109148936376,17.946357714463023
690,-0.5660590082809411,0.016823206147024844,0.6116355922303436,-52.18658277373102,9.300151469304438,17.71925055540184
700,-0.6295274391470737,-0.07515849879941051,0.5094750085769828,-25.066599895101767,3.814711504173142,5.184277588126228
710,-0.6174773498942818,-0.24806435485577139,0.6044969245822226,-8.874014390216775,-0.10907781652786747,-5.620102134706668
720,-0.6634226746462921,-0.020289480696241365,0.45060520857458836,-9.981467127240515,-1.483769773035216,-6.491189540319764
730,-0.6766561330020959,-0.007841969619042407,0.46641598511737464,-9.755806282115516,-1.653436766054452,-3.048212580535172
740,-0.638139595443818,-0.01757193768426457,0.5001605283106104,-5.276514517910612,0.024483826802156328,-0.29430352987724784
750,-0.6360678117730925,-0.049316616224051084,0.5372537354962257,7.4878813827158925,-1.0146974100294477,0.456770597081957
760,-0.5182874705094678,-0.2601263721517916,0.6539610712064834,12.140379207588712,-12.440827970501507,-11.397710827607673
770,-0.520785633724628,-0.3007669814372235,0.5012543854614746,14.347181019967378,-18.246250896542964,-23.769982068734052
780,-0.8524849430569678,0.17024373993123887,-0.0635582377365582,20.01806564753653,-7.498841321759692,-24.882800266642846
790,-0.7510531233663175,0.19533285775692807,0.2989627365277428,18.15361615431205,3.5086205211022414,-17.556800779876458
800,-0.6760448394074696,0.03600542652243159,0.37573522851398716,29.304049201865183,0.04013139991650039,-23.06326773057426
810,-0.7218397430702955,0.14669395353459627,0.4986699468433399,38.24457874025909,0.36333056857202833,-21.92821807266471
820,-0.7540469412097596,0.19212383285887377,0.43682375078433394,15.121544250619229,10.668407964170873,-17.057965648386826
830,-0.7765565488255023,0.1477819880572079,0.34374974567188027,8.422266285495448,16.891119851511423,-16.035284264170954
840,-0.6537157763377932,0.2397743770427386,0.4725832613353092,34.1378606026449,16.243144948887043,-18.391685106045156
850,-0.5886812003296246,0.22922226082061892,0.5062616615411256,32.77001186084862,18.752743446534765,-20.322602862973223
860,-0.5256434290494993,-0.0749003750976967,1.0551669187579797,54.96215179251331,16.11041659607369,-17.01340358204548
870,-0.6152034876285717,0.1196240132568217,0.5473644845322373,31.877690717067505,17.622173519228966,-9.577919498665644
880,-0.7470643487372461,0.3161068087366653,0.15438405325217072,19.04974768641771,25.033019726176178,-1.3267080214141531
890,-0.7965745336264837,0.3444996234595138,0.05680411638048464,7.193940440866311,24.69781261398461,7.266081694276809
900,-0.7633226428666985,0.18540617479219712,0.21197295989573392,3.4550136727166363,23.029761588921186,14.115287659357602
910,-0.7724633380337617,-0.0618449280775985,0.3541807205758527,3.7009788890508672,23.88659696080332,11.014424419676821
920,-0.8157974871301248,-0.026634409747975877,0.14630215753511167,-21.732745031402274,24.44249743014554,10.84850884157386
930,-0.6659645551463566,0.23848411173020473,0.3195992815359634,-22.30658572972269,10.08289330667908,10.370226061552339
940,-0.6319697346699288,0.09139467389631736,0.5197192781072423,-11.485351227735453,8.486738334628594,9.123191430822212
950,-0.6391274170527794,0.2521094756747488,0.38926338087608386,-15.431384345582655,8.841493033145772,16.48498238238953
960,-0.6595035070565558,0.1487747714269479,0.4006536713403143,-46.04687673325533,4.774590078286291,24.99271761942714
970,-0.6816930613870453,-0.20174026467199602,0.6882956737368193,-81.75836740453411,-5.907051229242934,24.79201690337
980,-0.7433806582658843,-0.0639209156927626,0.7437320611818538,-81.32166111650723,-10.832787984439214,24.18771338019314
990,-0.7332596433797759,0.09865251425580089,0.4028047276614177,-123.53873620231154,-13.825448385711368,31.378308455089776
1000,-0.7248330181319127,0.06411748175630162,0.17785330727701062,-35.68671980703246,-23.102835393832635,22.776853343246394
1010,-0.8068674652279096,-0.3824661923391381,0.3148324276364528,-16.528912621777327,-16.07015313226171,13.522403260096542
1020,-0.6825770079235784,-0.3025785784939197,0.6058618056310479,-12.15550366309451,-21.98416950171782,1.0920613734512097
1030,-0.5346636106228269,0.03874479443161165,0.6885399354653295,-2.775630834539426,-29.304428924836582,-5.252096640006577
1040,-0.6181778169333523,0.03136565454087368,0.44311646131994864,-4.034796383522828,-25.329201427647014,-7.594448745834853
1050,-0.7907298298380854,-0.2017861561427815,0.2707817303824205,-3.782588723649671,-3.535300147450202,-2.0512122607323335
1060,-0.8198790444400649,-0.03954455701628041,0.15492513803258365,-6.84853160840244,-1.0987999435867923,5.612793274528581
1070,-0.7147219140908236,-0.007487311878366994,0.3501849292301576,-2.825760291528341,-4.340622962811091,4.51919619934416
1080,-0.6669304279268194,0.027020388644380566,0.4329030215398187,2.4351868717997003,-3.0560239162762857,7.462551789938148
1090,-0.6490125035288772,0.048389378473136416,0.4601602696955808,0.7455193514444072,-4.162144157773778,5.609099318422478
1100,-0.662140293480912,0.02159432489653505,0.45846059589421156,3.0617631151650997,1.200374000789743,5.926854555804761
1110,-0.6464166751177719,0.037415786388416,0.47309942533071825,-1.1776290674538323,-0.781985487839892,-3.671498177152216
1120,-0.6708369826757662,0.0008423081070469095,0.46034483488536504,1.7462640857736922,-3.1401080044562537,-5.639354136227616
1130,-0.6693734199373021,-0.00029479546738944446,0.4622710604979909,2.270425610112279,-2.7939652678702402,-5.0626525772620665
1140,-0.6593086956091705,-0.009818871056355722,0.47358641764440296,2.8848012819047724,-2.251888214356985,-2.77674148993786
1150,-0.6738192908327846,-0.02287934336803158,0.4577510592782089,1.7664571488540237,-4.27722867670341,-2.610031359723368
1160,-0.6691419430525299,-0.005875997897138824,0.46139989906189244,6.784772410755138,-0.30883857358843225,3.189997825800064
1170,-0.6474377856805866,0.021522675215617317,0.4844023915390196,4.217370074306099,-1.7244468221741103,2.056497410077351
1180,-0.6295856225293954,0.04390497290124252,0.5033957997287071,-0.22689754068561951,-0.5897431561280548,0.6960984263539419
1190,-0.6552575564417391,0.02608901908773314,0.4864188613344821,-0.7264482121123909,-1.1184187385890336,-0.285606113789146
1200,-0.6388526568389088,0.03733172493169496,0.4867821521220935,-3.233790944232271,-1.8801484147282852,-1.3222063739004226
1210,-0.665683757914467,0.009094219763674728,0.4530285788996651,-1.1045072521657175,0.33409263971765246,0.8819633788422319
1220,-0.6407483503912823,0.034723020209645954,0.4885712953562695,-0.45242692622366537,-0.7965756583943177,0.3100660300918201
1230,-0.6535422961319689,0.01804713022232674,0.48481207188445063,1.4474940604139235,-1.1967383198880173,0.7574697080597989
1240,-0.6620053571654333,0.0015391670342715848,0.4658515824381241,5.494003824939205,1.1212556050776,3.7686048550076716
1250,-0.6661014874003226,0.006948708318719915,0.4612826663160267,6.470004765059594,-0.5606566154739357,2.932165980634743
1260,-0.6439135312858867,0.0324577633231427,0.4796271230710869,4.586323557901199,2.611323575962303,4.515979012214641
1270,-0.6190520060184375,0.06214279538322634,0.5169724728680504,0.3671163232661332,0.013788838216438948,0.5362676416035508
1280,-0.6592816279817483,0.02651420295087762,0.4796636062969543,2.663722778933602,2.204388947730459,2.0141827068525884
1290,-0.6599193921883478,0.02605743308496654,0.470503365292862,0.15925407661546903,0.08027541603065182,-0.8458217218311161
1300,-0.6646330982048354,0.02004391010876845,0.46017760643148425,-2.7667322048209617,-2.249592468368958,-3.942799683976455
1310,-0.6640846682006621,0.024658833183909844,0.47292596484370053,-0.775148507501153,-1.7686183670424074,-2.950956354096611
1320,-0.6478345876269112,0.024529135296437046,0.4887679296187443,-0.4335965133628663,-0.8769326633066423,1.1821711779827297
1330,-0.6589224811286192,0.007504270723279305,0.4711568733809788,1.9700496081999597,1.2165892581610218,3.442426282646513
1340,-0.6450989177861521,0.0330700091549487,0.4887203937374403,1.1918032837102157,0.10903290646849573,1.5529809437081028
1350,-0.6423733975191428,0.04116961623644549,0.48565090210661666,-0.007327854734526795,-1.95357477159338,-1.837046998149561
1360,-0.6480083588553402,0.036449961725603074,0.47325294132759366,3.4798992710383736,1.1781923808247114,0.36968851010612336
1370,-0.6627961683345844,0.026895444928782278,0.46472916850882406,0.9063968773228354,-0.2948072494528201,-1.1299254534111585
1380,-0.66000814143111,0.02521428052334811,0.4714946206325491,1.8447800190024943,1.8248364607132737,0.791842686898528
1390,-0.6562005012972716,0.020428326876468283,0.4745220876725309,1.7785835840645388,1.3161522748232206,3.288086440863929
1400,-0.6609312078770766,0.02420381964057676,0.46623071201441546,0.8787771779946446,0.7230722485008126,2.20140577290554
1410,-0.6588342727491899,0.029699780892946552,0.4704941980139534,0.406557228706661,1.0743208559149702,1.239509342011615
1420,-0.6479219785261157,0.03985357637226988,0.4806010186577078,1.4466576369706379,2.388036545679343,0.7630966735356207
1430,-0.6715024794747322,0.014050276990305297,0.4546495821343943,2.3952964882642678,3.4325338058943853,0.02775568241809445
1440,-0.6520624464207329,0.02778345208943552,0.48034056327531016,-0.29560761710590766,1.6534795781331635,-2.398912751301401
1450,-0.6428082690398581,0.024750626043295892,0.49021183124921597,-1.5056560137459785,-1.136596900816472,-3.8974128400311066
1460,-0.6440184945869268,0.03424095833699081,0.48470715352959853,-1.0631417137812904,-1.4552755799950707,-0.3427811756798542
1470,-0.6920070914241122,-0.01302533634206315,0.43658862417369243,1.6415576652774049,1.312129570907136,2.953321132056502
1480,-0.664150053831904,0.01161484600102014,0.46597684174865994,4.789395094718181,4.226352820421224,5.194819325314974
1490,-0.6533104283712585,0.020921111470052867,0.47787012896075726,5.277264606084819,4.359664318368646,4.704017931887225
1500,-0.6620916312522912,0.016858574029879864,0.4679366105260422,3.071871720516056,2.0282714527714596,2.0428753471553707
1510,-0.6579861777617295,0.03469255690668141,0.46774908524337877,2.7037319979490433,1.3780209374573515,1.119931608117108
1520,-0.6915891058264233,0.002058735483177962,0.4369079039788835,-1.1496376619602953,-1.518781795713693,-2.0978109258158186
1530,-0.6504530457985485,0.03320116927109055,0.47812044366147544,2.600873627333475,1.0378165280387783,2.852479948650461
1540,-0.6260632527558476,0.050261200132201034,0.5076982004815488,2.2059673122837946,0.1599249315237492,3.8148273186177266
1550,-0.6390218465373277,0.036080031824275965,0.499949242510611,1.6013156044967922,-1.6502372604262159,3.1938072041231114
1560,-0.6582945883650225,0.022143719915112162,0.47901194909442213,6.895813366981043,2.113197270058622,7.43899100046011
1570,-0.6513420695083872,0.039022146180548015,0.4775174902716284,5.469280443349099,0.6878756153531638,5.413020956663387
1580,-0.6677994319420903,0.03097392809583005,0.46416033212487906,2.9402145391330734,-0.7701963515118244,2.3079832823627626
1590,-0.638564399989688,0.058236296768557794,0.4924364811593505,1.846851307971483,0.7539809216629647,1.2230997135353678
1600,-0.6303061436107131,0.05775752150151041,0.5008695156810505,-3.5164382223135404,-3.104913566751556,-3.332913847092592
1610,-0.6352344621781045,0.046270490534366826,0.49678267222946954,-2.007666524758873,-1.1111637891854476,-0.8662195553425206
1620,-0.6768759973382874,0.003965767137467272,0.45616071579730594,-0.5857761236229754,-0.14558903248465999,0.7747181023390923
1630,-0.6411046979315794,0.04215719138202739,0.4926768830230944,1.4326590161445178,0.41441212433540314,1.7982093974550415
1640,-0.6415207924333142,0.04099220610921347,0.4923565763165738,3.427377729917229,0.184822411196239,2.040961622123662
1650,-0.6267415171336373,0.06127015555702604,0.5064908976984389,4.581983613296915,1.9643621265085245,2.955219784595978
1660,-0.6535800628916016,0.033841771665861296,0.47654124299728845,0.8629426877713711,-0.9395630901193811,-0.7923547717551108
1670,-0.6908919170728327,-0.0064884198206933905,0.4413202558539279,1.2752533928977685,0.880816264800435,0.0472315278906702
1680,-0.647586442325926,0.036809912843985576,0.48713849819251165,0.3538723351370856,0.2168930066078424,-0.6688097220779922
1690,-0.681716137340728,0.0028795807974681363,0.453777867840784,0.7331872830558894,-0.5609082466551353,-0.6485808586064931
1700,-0.6499215093153304,0.032071722131212704,0.48545119427294753,4.518257574695108,1.7557293402639453,2.4857507331801574
1710,-0.6512537704706848,0.03520220830326208,0.48366412903837785,1.8817464631271807,-1.416334362335558,-0.23272374378715965
1720,-0.650935490946361,0.032319074144215074,0.47735257700832706,3.4132693330159887,-0.40842653578440963,0.9967713717376673
1730,-0.6648581885868943,0.02612058393389713,0.46485980491366885,2.9220851642972456,-0.22563112314900344,0.3779621587317704
1740,-0.6675596054462054,0.02286415840419817,0.4652840066030162,3.2639951227446296,2.777719594737067,2.2798081345481713
1750,-0.6376819280298441,0.047887984433727035,0.49538936552933405,0.22434759355596323,1.212612595888797,0.09568244801916492
1760,-0.6210360768352079,0.061939991789665194,0.5097983443295291,2.315108584985607,2.7405878033262017,1.8279203328587026
1770,-0.641565237443596,0.04201866504467473,0.4896123024268128,-2.3543368510468015,-1.929470109281779,-2.1072390965654653
1780,-0.6685353322600177,0.020452211097098577,0.46892702567651834,1.491456618305666,2.022740175521107,2.3332670404598215
1790,-0.6619993462381,0.025575758169822282,0.47107455275009663,0.4953385910938335,0.2961872648147932,0.6260907894887248
1800,-0.6476189765793507,0.04111002236717079,0.48270335070522374,-0.09097893143159053,0.058738338943153556,0.49889755256901586
1810,-0.6552917595643808,0.03284118685359317,0.4775206969582481,-2.4729078229004777,-1.6114477241568068,-1.7201315403932425
1820,-0.660799999216486,0.023063872603916555,0.4733706971253042,-3.1811524405327636,-1.9497933313872646,-2.644558622388181
1830,-0.659312002510075,0.01951204340615112,0.470554360112109,-2.8156746194114817,-1.6819572047071103,-2.1911251483066176
1840,-0.6419594560731305,0.03855098680803289,0.4865848672277525,1.5913671471400264,2.756191111634668,2.756472031930637
1850,-0.6655993293257603,0.025934143104412204,0.4696649716468602,0.5651705365895997,1.0348762928182755,1.4113130419626483
1860,-0.6618790073772977,0.023703997761124564,0.4693033785144628,-0.732105247693558,-0.9943444730389285,-0.4984344441941271
1870,-0.6557874409180602,0.031088913003177173,0.4747222271651613,0.3084788314411695,-0.5210466490828902,-0.056305463262954714
1880,-0.6271585020337332,0.06135414100055343,0.5013462195733288,-0.5625926058290122,-0.8509949533654687,-0.6038229185083869
1890,-0.6544046715758199,0.03272898593886008,0.47254748225589194,-0.7970079228701087,-0.11136505069581246,-0.1364905400678667
1900,-0.6572738162197518,0.031026655258865492,0.47568232920646986,-0.527411389360231,0.04331763235368835,-0.0716375230262403
1910,-0.6679469003869505,0.024761375479005525,0.46817910763817666,-0.16020776184222718,0.6173375770041999,0.5635203401950216
1920,-0.6801428782741759,0.008234431055273436,0.4523662034108867,-1.8878290088703853,-0.8993596333889465,-1.293566172366499
1930,-0.6730870898746442,0.014152298571911932,0.46094220081921566,0.9701124591429781,1.6911929575290297,1.7493368894401524
1940,-0.6255002786519402,0.060307152723458976,0.5078504439653452,-1.8263367184406984,-1.5419061545093045,-0.8954452860586725
1950,-0.6284960156081606,0.05897002490471235,0.5015485405819999,0.07071952336000067,-0.21967085744360407,0.40872115892131783
1960,-0.6501892129766128,0.042139108893801486,0.47857104405562084,2.895316265270666,2.357097228957439,2.1457418143560893
1970,-0.6552994563587081,0.036340911837844894,0.47866649997972127,-0.9613679760927334,-0.38304832796584065,-1.6712976734214586
1980,-0.6388748936233309,0.04969012058167801,0.4906665311247192,-2.521053850111584,-1.0502483335195403,-3.02600287900946
1990,-0.6369246791271185,0.05710435750180136,0.4954729635486511,-1.990638167905712,-0.4868927326766422,-2.6175390003468886
2000,-0.6498427225482813,0.04030628863149051,0.4821072926684472,-0.0036045703026004183,1.5519181949650198,-0.13387294805348748
2010,-0.6510479770628598,0.03592958061642649,0.48313121282531535,-1.2481278281981203,0.34635744587877293,-0.6504168128679282
2020,-0.6539090181822095,0.03374169658738118,0.4815229742957272,-0.7840696765666963,0.031902646700154524,0.02901758145450567
2030,-0.6695597076282958,0.018580772088749843,0.45916264347405533,1.910750524065592,1.0301487107080183,2.031778669555387
2040,-0.6459805750186417,0.04409165167378145,0.47801648454588697,0.09636802645703113,-0.403314340315852,-0.6257355674816514
