time_ms,ax,ay,az,gx,gy,gz
0,-0.931703307411984,0.07354431240529767,0.30960063548411454,2.698714716902113,3.395046401192035,2.6396445506169943
10,-0.9288190244336869,0.07775150532039671,0.3010074559025405,0.46759364237709256,-0.2758246062876376,-0.8019981311749844
20,-0.9321592198345121,0.08171405191480022,0.3083748732119347,2.4343136681375257,0.8346899047854558,1.228247132677412
30,-0.931200633993478,0.081069068422609,0.30184934822618414,-0.6836747153809366,-1.1546268673110869,-1.1420472816286098
40,-0.9130298318653677,0.09180301753400977,0.3249232633964795,2.478768839958321,1.7150804943556446,1.508468621349417
50,-0.9176780208214359,0.09352529405736937,0.31974085508569805,5.550256584356222,4.447475826422087,3.9068921584551024
60,-0.9133816585510313,0.09720241795140691,0.32598450868011186,3.3060001809377937,2.174981220426532,1.380558871883392
70,-0.9158330053432094,0.08568431351759245,0.31161461983462563,1.2568892800569156,0.17938661979562798,0.22447135951896718
80,-0.9301543339614465,0.07133417391846816,0.30527187060423094,0.529157364243467,-1.6753169945607598,1.5328333448627554
90,-0.9464005449731526,0.06451823102258541,0.2963366919162742,2.383669680757528,-1.0792276366480558,4.405608421487846
100,-0.9239720948261358,0.09433964685159396,0.31038890394699614,0.5917504785518414,0.8671170785104002,3.8671638970723365
110,-0.9350450659014854,0.0851107070318869,0.2947761744305003,-2.1929856763355913,0.49829910789503223,0.3422388505585963
120,-0.9168007828767422,0.10470982693289078,0.31586030241382046,-2.412504049122037,0.3668109367608605,-1.2448109823322713
130,-0.9231409823066101,0.0996668675817894,0.3167801019247295,-1.7592370721421169,-0.015552896313825053,-1.7783696033281582
140,-0.9185587886460691,0.096508479306861,0.3249497230621398,2.2228143363574553,1.0381318864709745,0.09695723485238661
150,-0.9443411341214069,0.06258894142715583,0.2885071285658566,2.808199104732057,1.540491559144376,3.3035699056918877
160,-0.9311966063340641,0.0850340239654966,0.3084057053561877,-1.0774087570593838,-0.9086685970988043,1.7941603915610784
170,-0.9416482657447027,0.08096859079742454,0.30680294325253626,0.6818005255245085,0.8736005437978007,4.124896572706853
180,-0.9529211595857798,0.06533109513899442,0.2833926460790839,0.9234860971247323,0.7888012759918562,4.568148679390177
190,-0.9159244135128672,0.09813370258616352,0.3180969563320606,0.07007344188724574,0.32388960976495396,4.090970486127653
200,-0.931551585627728,0.08759466915743186,0.29111079861009853,0.5989179577894076,0.9060124382216646,4.537103396088856
210,-0.9366050717251013,0.08068778416882483,0.29434427538900254,-7.619208330434909,-1.2260258837857756,-5.44082575074832
220,-0.8909838989970369,0.11154690369376083,0.3336305881899438,-3.702623398466544,0.33718698713663864,-1.1215932180800188
230,-0.9205036586253232,0.08013251947603961,0.30578350074780314,-0.2195121944510962,1.0383513190264413,2.682438008863128
240,-0.9262293552427582,0.08944478090527136,0.30049125082546885,1.0972855401133241,3.613882480767464,5.582315758110018
250,-0.9203038476044776,0.10895447523272628,0.3149185739591029,0.2780996935745479,3.249176374352153,3.64456785720478
260,-0.9333202968787742,0.09505670312177904,0.30065681548450923,-0.3019013988200805,1.479489514086036,1.6061472715365999
270,-0.9073038730465378,0.1160665398127053,0.32963040137462085,-0.02367452997463304,-1.8096795219923334,-0.5455624346600989
280,-0.9383200579597619,0.08046175838790472,0.298310745355871,2.9681515858502454,-1.2801495873462025,0.40749841417199056
290,-0.9379014780096722,0.07897804854121444,0.29471563333884426,1.3418318823136266,-2.430361455333534,-1.9273835130700314
300,-0.9088229128156324,0.10900489477436393,0.3262865388263648,2.903023563114418,2.087844793322358,0.1641433510839847
310,-0.9412576570325348,0.07729613329239053,0.3018090258231213,-1.424782072385155,0.5070496838259012,-2.5426884374600283
320,-0.9519664983553148,0.06614949738906095,0.285969163692334,-1.5332160392776544,-1.5124312668480056,-2.2707239919866944
330,-0.9425744698862297,0.07683098634357667,0.28931802472442153,3.6464301095314218,0.8170548024796667,2.875530532079021
340,-0.9204695174117439,0.0964426033995836,0.3028783130093616,2.784525291844352,-1.8012046786273068,1.8731342013565402
350,-0.950516839756971,0.07318238649725811,0.2810518891922307,2.4696086166517537,-0.5869478433171869,1.2036212761214613
360,-0.9383688583671361,0.09490491743047087,0.30152218779789053,-0.957343473164183,0.6013072228657115,-1.0374845050716344
370,-0.8975612135096899,0.126119001914248,0.33984719570371047,-2.1872447742570076,1.0623986182717875,-2.623340107573931
380,-0.9328856576767194,0.07178556801417273,0.30139556599572087,1.5133794588621616,-0.6490612593239422,-0.5581740566407634
390,-0.9660689825711912,0.04793198016628296,0.26882122576876144,0.9138661519098268,-1.2831768498927456,0.2655916159131426
400,-0.9282348294992386,0.08527886344772148,0.29822939654681274,1.0429907380083467,-1.450867180589714,1.4493451762480971
410,-0.9083581926067074,0.11549558100403695,0.3276934899478975,-2.5075641393043795,-0.9363684875956997,-0.3835075003733146
420,-0.8864030353064405,0.13651600940076952,0.3444727345581456,-1.5164367534084062,1.6223455193219773,0.10381426677667593
430,-0.9341845104018089,0.08687088384848017,0.2986203667186312,-1.167188651763893,0.16633345181843145,-1.2117137179355222
440,-0.9375953998606766,0.06920327985056708,0.29282692778008645,0.8256975446191368,-2.328535978340474,-0.5374861528471909
450,-0.9392204071233669,0.07682855266777397,0.30528888574314533,3.152328219109088,2.034766139143132,3.241543026985525
460,-0.94722389725434,0.076329180107883,0.2925129247150634,0.6664931147166255,0.703487867479458,1.117425837326625
470,-0.9592347475715687,0.074244477542838,0.2976811009025308,5.572675562657103,1.927707206038297,3.020670517820613
480,-0.9442105430438467,0.08910034848468902,0.3116403089956963,5.080724855576119,-2.029884147606171,0.0815796917158843
490,-1.0630691318598946,0.07642493542158219,0.3348130166792944,1.670366751405394,-13.541632469114907,2.2214291481171586
500,-1.0902714699254739,0.09522622785410782,0.4899535165951878,-3.863185286109836,-36.97887294301693,2.5599260879938575
510,-1.002781785005101,-0.006883312077458523,0.5316817987927315,0.38030343929298954,-51.07954777197855,-1.075124395906268
520,-0.8856353305620845,-0.015367933268077583,0.3898962283178894,-3.6102476225038087,-58.9592672531,-14.705250097425628
530,-0.737939930401405,0.09148394857571444,0.4013674280600255,-14.260126366642496,-62.9587478134154,-27.80719208807015
540,-0.6882718149923102,0.04729032486881285,0.3148946268450118,-0.4984042005160251,-58.09338870626154,-22.649291554248826
550,-0.6761009178299819,0.011640986442833397,0.3257877030170232,-23.468244729244947,0.29014987679873494,-4.617504128837698
560,-0.8087968766502713,0.036807399638508514,0.3630350807147691,-42.733599360715836,15.833576722711241,-9.510858049858879
570,-1.6976061308880706,-0.0908358312165664,0.8857374093956115,-12.553837534121731,-6.792037527147706,-9.1071020063374
580,-1.113359230574216,-0.10063324177580513,0.47068529068680137,18.889150434545936,-36.60861965340515,-17.6721601917259
590,-0.9211532162045114,-0.07172056642013354,0.47156605716881717,20.205038208484083,-26.81397101844195,-28.43224594785195
600,-0.7657140148139903,-0.16187668868620675,0.2975971611666247,-11.220070901177243,-27.943623076589816,-42.52114060079626
610,-0.9148986688474665,-0.3180455297577893,0.3293578638325355,-2.314722285941164,-10.318004497455075,-25.9739769498661
620,-0.8917781683273953,0.08466722555187946,0.37825917224576344,18.47924531339721,-0.11850411296769647,-13.231491877534031
630,-0.8399630379703101,-0.13070446500993865,0.28099695890945253,18.35909328812817,-0.4152711971955406,-34.5456365165607
640,-0.9734537507912765,-0.03931453231071835,0.3677721984208238,37.669696102101206,3.622123581403683,-22.95517030362555
650,-0.9157049220770428,-0.06125606994344309,0.39426802833937846,28.719152296108042,13.162993599579949,-20.722768310986112
660,-0.9120142806082934,-0.08245842826127149,0.3157630017677598,37.84240519692165,23.59212590472067,-8.02466510064756
670,-0.9057740590846974,0.1099435040413304,0.07363948831381285,12.588485959426178,37.607259565795054,17.47969233982679
680,-0.8681788374221001,0.33431922730104224,-0.2122666203805713,-3.356755951561908,38.99530688648994,28.917976939444753
690,-0.929094543200421,-0.07012365037004023,0.7282958449867626,-12.645050177958865,21.68468031511366,27.036901910152714
700,-0.9034160119159271,0.02606082935509141,0.5940395381191199,-11.152686072107725,21.647982176137507,31.723787038589766
710,-0.8719320128928885,0.044537828039533926,0.23895019172358642,-28.83712663874295,30.28730243269467,30.615060432788862
720,-0.9597989150840235,-0.23895965193035637,0.36690812417155166,-38.63096146336573,16.54724774788201,13.402339061269117
730,-0.9488715854900385,-0.10341137130696948,0.41540370105965874,-8.119803001302571,4.3824280514902165,6.849101311338966
740,-0.9100223015377309,-0.1392727851145172,0.38086166141621625,-10.791604204202836,0.3573824754286525,-0.6947512489068228
750,-0.9501918315596448,-0.21742722720566388,0.32997502591742817,4.704263261223854,3.580353398797591,2.9634823146794016
760,-0.9090652440063539,-0.046066069340758076,0.3897743322773787,21.687073407865046,4.2220905823633466,12.184973159504842
770,-0.917959481088262,-0.14313662642142863,0.39702309634556815,18.306704333979365,0.43455092126898237,3.283299715628627
780,-0.8047082817895905,0.10577757365734208,-0.046439864103302246,49.63246517191901,-0.20742445901251522,-27.02068402168754
790,-0.9858036264222507,0.42128333234844106,0.15509122736668463,26.893244439512703,5.5669458109245,-21.97955832436071
800,-1.0093094835064729,0.12317965169892522,0.24625890943811363,-11.526173198120496,5.719683459742549,-23.498448607465054
810,-1.0297954396937126,0.08291733466921047,0.39239767910404655,-6.236374798966834,21.875412828821606,-9.958238223570048
820,-0.9654301657814242,-0.05292713755448674,0.23599500560741554,8.240874667651909,23.716212048610977,-12.406205428599284
830,-0.8992455389416475,0.04898196101425805,0.7367865223929719,36.15561259912584,29.18353293955619,-2.105996833793648
840,-0.8621846857754117,0.02574299555944974,0.8116288146173203,-6.546080050777372,36.27923157327453,11.642548461590938
850,-0.8969526564824556,0.31542701063043066,-0.06952000158969454,-6.306361216613578,21.808545369967668,9.666561861883292
860,-0.8165638245692474,0.6139801548274673,0.08154201965807437,-9.96060458171052,17.611234586889303,26.307039578702277
870,-0.7242268806080583,0.8599430502995863,-0.1991815197036486,-27.576041490812237,25.010129328972095,45.89949503726976
880,-0.8001779338762672,0.4268367221870177,0.1400270916533846,-44.82957728481544,13.28645929771777,48.22283749772649
890,-0.9439709350552739,-0.16078400159502518,0.40731482548507963,-39.978875961913175,-2.773308875944929,15.786652023280975
900,-0.9869833907323146,-0.2643783917212171,0.25474504691534433,-18.998035855972457,-4.217556854296151,-11.338102321830977
910,-0.9334800839881171,-0.014592543370589553,0.2544479899129237,-1.320315974602951,-2.3231197136320496,-5.5983542679699045
920,-0.8947912598960316,0.08832593742981537,0.31392860302280917,6.770707942952224,1.3942185570278902,8.206593659346364
930,-0.9547001059336949,0.057351147800201806,0.2722661844317111,8.174227835909008,1.3603919949944376,13.854203183063694
940,-0.94963557086937,0.09310190950166009,0.2907183580573432,6.959383426128283,0.5814046914651567,13.109848562408935
950,-0.9508386640154063,0.08125677595085043,0.28690703467657386,3.398383943081722,-0.6483079371390627,2.2364471752561172
960,-0.948262584904744,0.07500839438251981,0.2782803850463478,4.283313613568392,0.22043045367745084,-0.15621068379009412
970,-0.9150308296994546,0.10094857858195821,0.319543485587445,8.450434016913695,2.537238163005054,2.231754454407665
980,-0.9390943530793416,0.08317282341796876,0.29525722702327506,12.536427612292506,3.8367459383981175,6.175300401333063
990,-0.9337841639213481,0.088480074782572,0.2935011051612935,10.69524148810728,-0.021848663389307688,4.885827235935171
1000,-0.9101890410741245,0.12387665966833296,0.31925937479862854,6.045370407448217,-2.0303935972799487,2.8994545562376413
1010,-0.9099955517403941,0.12145933676558957,0.32305141658349446,2.038753028184137,-0.49365370720186585,2.98938700832219
1020,-0.9129102666060398,0.12224432822031986,0.3173513533448819,2.8314285383088427,1.6044653144826355,3.260874672048642
1030,-0.9054854726755064,0.11672843945541583,0.320112523893201,1.9557479044923767,1.835707239831026,1.1706334767544098
1040,-0.9157347109026125,0.10573556385607552,0.31279630311087286,0.5236521042435682,-1.4107802647634933,-1.7002710019938672
1050,-0.9491577863785076,0.08058492591706495,0.2895371953316185,2.5222395330431837,1.6693604267590216,1.1144386311452077
1060,-0.9144696484920933,0.11812977797057156,0.31418681007302207,-0.17053911243619946,-0.052268605240827215,-0.8247606406791536
1070,-0.9381069179942776,0.09424968918280548,0.291998972038376,-1.8846606490958848,0.10785555447232098,-1.603996957282077
1080,-0.9098439103285895,0.11091839028143706,0.3115584798050654,-1.0345760704126374,1.0732527703949182,-0.8940114930562736
1090,-0.9195510316101738,0.11222571521135129,0.31579373258976845,-2.6076802714385665,-2.085252083782243,-2.3332261365362106
1100,-0.9623992017643125,0.06686630161287539,0.2756693587273844,-1.526358731419637,-1.2668423885530193,0.2864781423049947
1110,-0.960340735258306,0.05154581214083909,0.24786955886968848,0.561037543991042,-0.08182819891744231,3.0305886200636225
1120,-0.9286482530734659,0.09319742134435248,0.2854791803641082,-1.4404088330406657,1.271348387621983,1.6966362450990098
1130,-0.9361950822133926,0.08467641833842088,0.28776884329560776,-2.0664060568797544,-0.13165842126806626,-1.4492425380219962
1140,-0.926321154776811,0.10537960532593596,0.3072499164068754,1.6557243859175919,0.9089723139286947,-0.28105184798899285
1150,-0.9345792491673105,0.09613439483399995,0.3009124520748083,2.864457147268256,0.23744445965622868,0.08003194306305439
1160,-0.9100691443335301,0.12380841111959326,0.3202363797556598,-0.3603954768640141,-1.2752054920382385,-1.5687181344590426
1170,-0.9422252437645291,0.0913162557163395,0.2843533116447571,-4.843059599694723,-3.26105801081938,-4.19608539853528
1180,-0.9195590563109892,0.09579221648482864,0.30323434359563733,1.0804409095312832,0.09128907901103456,0.16759924397794207
1190,-0.9289052875673438,0.09528397957521294,0.29985481853814416,0.8198189024101332,-0.5571391804907663,0.34462451638592917
1200,-0.9395524715900251,0.09744210862150175,0.2968745079997163,3.828663820825697,1.1710199849780918,1.6192505564605622
1210,-0.9474058584615499,0.08533828684435796,0.28281482725577123,0.7894218219789833,-0.5750551092859298,-1.8748642818843329
1220,-0.9242733948645603,0.11225339229402925,0.3097451622903679,2.4436925332348025,1.8638321778069287,-0.7533695425272797
1230,-0.9345113763860653,0.09216170605877363,0.29043956595997267,-0.3422616247639596,-0.01667323290893935,-2.1170311525956915
1240,-0.9350161541755162,0.08600789271483371,0.2950038903619431,-1.5083842523979558,0.5649980616615495,-0.2759530389108339
1250,-0.9210125217796677,0.09888395623914631,0.3052866712449547,-1.1307627848733348,0.6559646659264111,0.3137475445047577
1260,-0.9416548596203065,0.08286710487497587,0.2862291631780979,-0.3098314942020637,-0.16000607270191736,0.9764287641640774
1270,-0.9339010239698516,0.09935108527957943,0.30104171334280994,1.017113448894446,-0.2421310923943495,1.4007305083965043
1280,-0.9314855901351645,0.10396577222599727,0.30093679060796447,-0.9581112817660705,-1.328871037633155,-0.8432795087800709
1290,-0.9676978236364109,0.058953118883982684,0.26593858966775474,-0.26501126042680684,-1.027257269583241,-0.723745100268948
1300,-0.9464113731656534,0.0754035157955827,0.2842906108471935,1.0937013715198416,-1.8033420930721311,0.02293706401977902
1310,-0.9232962460490287,0.10100338306515966,0.3119177154544512,2.309651342238072,-0.43834857906839086,1.8202053546880523
1320,-0.9354651826845228,0.09331599237995052,0.29848477573988097,3.748829584157118,2.4617219041113354,3.669721405531793
1330,-0.9518755057917184,0.08577476952214498,0.28456088803736196,-0.6808107802458889,-1.6306531065609011,-1.4509298084273727
1340,-0.8967282122270228,0.1296077410600073,0.32748286892046835,-0.6669189914869614,-1.6433460952765677,-2.197335754864496
1350,-0.9352786362269119,0.08973932269454699,0.29360742928061156,-2.898435856731451,-0.926464716279108,-1.948099855399567
1360,-0.941737416850377,0.08366703176822206,0.29174856167276486,-1.9921431864810515,-1.1204515061008251,-1.3661129174918576
1370,-0.9707934049046,0.06085225525499531,0.2589168822402196,0.6106681747589167,1.5221336379417703,1.5763821635385769
1380,-0.9416811503337349,0.0781161230702467,0.2990302958988543,-0.5634399371231917,-0.5142545942518301,0.35895018065692197
