time_ms,ax,ay,az,gx,gy,gz
0,-0.7874179932396065,0.16306236138961774,0.4110267156629772,2.104242871754835,1.2894998735492895,1.4702104904388023
10,-0.7913965324790597,0.15431954266247383,0.40760309678990325,-3.162223699170059,-1.4624068088907214,-2.2847099018554946
20,-0.7444272649497474,0.202698863724327,0.4573353284825723,-0.32256473961528065,-0.045096680998823774,-0.04210935571012711
30,-0.7834388076215795,0.15777144043047522,0.4169541666604919,-1.83857770719608,-2.0859725160139453,-1.8329292170860518
40,-0.747016775684898,0.19570931208247447,0.45495584659611643,2.950771320887438,1.5424634900535552,2.246725403987523
50,-0.8085598627492271,0.14324740405527325,0.3991509031222581,0.33913925229207753,-0.6026079990518995,0.5276067279867345
60,-0.764555449620673,0.1839791686864178,0.4409880939416092,2.1419262973524935,2.1371455050295505,2.0751696551014214
70,-0.7609496397376205,0.18194137638111102,0.43754042882566563,0.7849078480979446,1.0000927768614576,0.660080322274421
80,-0.775528006972242,0.17233833555482703,0.427883600874852,-2.3122649009568184,-2.710328264840527,-2.9713975635071543
90,-0.7820465140963564,0.1652010581172335,0.40787081688713317,2.12078910746335,1.5814677871325724,1.9070233775360692
100,-0.7769520299069351,0.16809817808921246,0.4168874028213435,-3.101317672046125,-2.946134896335858,-2.4585667657441874
110,-0.7908599593952123,0.15818048906216603,0.4065930083448693,-1.3948291011490856,-0.7402049092400291,-1.7375352199704799
120,-0.8013525134803148,0.14771663698541454,0.3961339963139493,-2.1596567960825803,-1.1813977814030434,-2.8219912692187963
130,-0.7675597106361814,0.17408210082752,0.43669420923868985,1.4910841110500392,2.1408411843885466,0.7649052486738053
140,-0.7718169483698647,0.170581814130635,0.4365575973784897,-2.068027137512878,-3.137371102680274,-1.6576407987893806
150,-0.7883701341748545,0.16419506810392182,0.42444127303364043,2.915211289256458,-1.3908503469789726,3.2845910308981243
160,-0.8163695697477418,0.1942380558683043,0.43425041052067037,1.8528343023418037,-0.3931018620683747,5.09292806883533
170,-0.8255699738795498,0.23281053655812836,0.48621236195423817,2.7444154964389647,-5.645420242805504,7.584584098542929
180,-0.842110062653242,0.20402549601009995,0.48297352232610086,7.17052569996175,-11.352805762257779,13.902322925057332
190,-0.8082055932570991,0.1972713231061503,0.5419968034404196,6.387583519165807,-17.823154127063162,14.233912579418309
200,-0.7366665691464379,0.20404898968476398,0.4699645763635439,-0.9543242824526817,-24.57654436235665,6.451207016590197
210,-0.6814742776348619,0.27225297690035816,0.4301930659489967,0.1748165386577265,-19.129538488165036,-0.18416538572045227
220,-0.6996166328674528,0.2766837348344728,0.4563304776054666,-7.994635178602802,-18.37496858619283,5.195313169817369
230,-0.6983171394592241,0.23484841773074014,0.44537878425275124,-14.239145753551714,-14.694421940012496,9.330311945932495
240,-0.6895938707394499,0.24941094837830266,0.4540174644603226,-19.200239853102673,-12.805813204388363,8.493585150366574
250,-0.7170710407042024,0.238887835859806,0.492175353331869,-21.318542985693238,-11.713738313378592,8.249437308994528
260,-0.7660653294288495,0.1481650776589119,0.43400347253482796,-37.23781291984842,-3.5767949764654343,3.4406632885076025
270,-0.7395323754537059,0.12144817859792406,0.4987006999936545,-32.29383882903905,-5.656553831133659,-0.9693637912565689
280,-0.7891052509339672,0.09481340115264107,0.47194021475063935,-21.519156512698903,-5.648148798117508,-2.3361421707658763
290,-0.7929702536043257,0.1385794439129765,0.4519404654781758,-21.570207470123446,-5.455239405666011,-2.149077805761656
300,-0.7739713085070513,0.12288440763591701,0.48527011702667094,-21.602616714576673,-5.447223072279009,-1.6509610835128568
310,-0.7452562844333793,0.15589752524101383,0.4722479695793125,-8.422638407568758,0.5467807274729941,1.4737234058537338
320,-0.7098410045343697,0.14215903061400892,0.47235730125866227,-9.292799354753623,4.970074442529353,0.9837084135214039
330,-0.707506758162161,0.21199146444005387,0.46283916308887435,-14.717176599817384,6.202304462952821,-1.9267910942227886
340,-0.7911090103669033,0.18502575157543855,0.46568373991476586,-14.894088207839761,9.6699439714737,5.1181198297233
350,-0.7907966823318414,0.09130295713283346,0.4681097457533376,-17.85006040621214,6.732241759764687,3.3606692932142406
360,-0.7640188989334948,0.13840044071187668,0.508632174681812,-15.760586232119357,-1.3454731792440937,-1.8229519917952768
370,-0.7553216170721561,0.12123779325643623,0.507502652976962,-10.098809603451354,-1.7378966865838197,-0.9071419594215219
380,-0.7425295651235052,0.1256023883460555,0.5070638662811424,-7.09621140494905,-0.5095133324250318,1.0494625847594519
390,-0.7515606897905371,0.12633499997711797,0.4969646212954744,-0.3664470829269275,1.3122733605127694,3.0286031677049756
400,-0.7525276715534299,0.11176165705200124,0.5055837451011274,-1.6204721321931341,-1.684165775202103,0.5292303320518101
410,-0.7379654808928587,0.12733670481908693,0.536764103737316,-1.1902443602384785,-6.206046124092383,-2.1006256275992357
420,-0.8150242381249184,0.15513442944908512,0.30330195562269685,2.0453929091845926,-2.6595855168178706,0.08678330483666219
430,-0.7638297153699152,0.1796919309318355,0.3450081791888643,15.432481367651752,-13.595492654433693,-6.384414793401042
440,-0.7213547750408695,0.07793299962873511,0.5203848263098152,11.685642963287268,-15.063173360561775,-6.736313484380748
450,-0.7968022873157891,0.09305216561835661,0.36024589974423504,-3.7991615882571836,-15.185930486533001,-17.266733249870512
460,-0.7679639979523638,0.09722097041049885,0.5032995618963831,-2.757801943669823,-8.77473943510186,-14.681179063302585
470,-0.7250541060478887,0.13001029326349148,0.5372714504251459,0.23612924841052318,-7.594781070537686,-13.843107373252717
480,-0.7541552940866841,0.0025894097698582618,0.5721275742605686,-10.103992781365537,-5.14819565419041,-10.94541345516263
490,-0.7741886130308042,0.09990381931621053,0.36789757962912417,13.509381660558285,-5.008837332292915,-11.277911465724307
500,-0.6657134472820717,0.09541394160307234,0.4066811567331959,13.136932215701608,-3.0514371621669496,-15.00916100030695
510,-0.776427612080691,0.017662471702520197,0.45770565706224187,-2.863646470648858,1.3088869398863414,-13.937563908812338
520,-0.7633082879724116,0.26709569381217596,0.46959654467747264,4.717089371054037,4.67383943969322,-6.3010946547741655
530,-0.7738016340548304,0.26316037837413486,0.4950403332128618,-1.3283609881452745,4.878239497660127,-1.1167779839132208
540,-0.733089133803035,0.12454174759189458,0.523655369519434,2.0057967674154185,5.068630396972828,-1.9214713350519994
550,-0.7500011458671132,0.09790318190552974,0.4875510002578365,22.783036119860128,6.217670353554583,-3.3058284574760775
560,-0.7777456039261907,0.08601173034694083,0.4113624960553577,16.761219017257027,11.085516668110095,-2.100774934140165
570,-0.7362458043637294,0.10637163038090111,0.47595645224011557,18.160936771599523,11.363194652875663,1.0220548566620238
580,-0.7527023514846164,0.18988386399762772,0.4790322713902878,6.146527710790124,7.2754227969533956,3.9203889873068603
590,-0.7579738254886886,0.10914092588635262,0.44302106757106446,1.5939456245280614,9.724339589348798,5.257511946467492
600,-0.7717273053514402,0.02037209476190238,0.48176918242064204,3.863779446412177,7.906862882391464,4.213533012985069
610,-0.7113960881842164,0.11671195948819907,0.5928791487896087,2.1443622637409856,8.275883689828689,8.755604559349779
620,-0.7257196385507159,0.0611735700976361,0.6562901927048129,-4.806463550230857,10.382836211426586,10.402658293067603
630,-0.7330864797237647,0.2272802150400317,0.4358138489189094,0.5103251454433038,17.724796414710262,13.088771325264016
640,-0.7317506083925526,0.07689466343010852,0.5275414536931804,-12.760436280666141,5.350986553238112,5.222232269935041
650,-0.7160448283942662,0.11545135011969829,0.6020962879781938,-13.2423703938461,8.050554360225771,5.896357994633566
660,-0.7285890212674025,0.07399079398953486,0.6388874394212886,-11.464836639643627,7.090960243939211,9.360887326803216
670,-0.7348555012822177,0.15258376819682493,0.5046971337314328,-1.0406310542009656,1.406949839045744,4.048052576051646
680,-0.7399819786692093,0.08116784709269449,0.5775494275470207,-11.171960765010112,7.07255236546906,5.876729701964081
690,-0.7617476845250954,0.1823112143207259,0.467968892115571,-9.058298683112499,3.3209100629732946,2.783082554153106
700,-0.7399054361198303,0.1098811045878459,0.545961053833022,-10.467356148155691,7.6378449708872855,5.555231686690119
710,-0.7746299294303758,0.056711076208763714,0.492857791577311,-7.665671106336683,4.1211558055142365,3.4296570698309004
720,-0.7616328793449807,0.04585202442983678,0.5263239730814873,-1.8875808716331774,11.547828291278131,8.653119615113422
730,-0.7186038320966573,0.22937366347820878,0.4655969012733125,8.347243979987544,10.642194488739808,10.351051447921446
740,-0.7336442966458564,0.09342482291153041,0.5051383766890847,6.514502435308139,4.178350512769406,4.482631895008092
750,-0.7539128715160186,0.10538969382415371,0.4896901310331926,4.225046672914446,0.8210746872870923,0.5472538351894034
760,-0.7498471761283231,0.1352280588102155,0.49876411669396303,9.112553273602552,2.3633062531748363,1.8927900251460612
770,-0.7672162712875207,0.08435446983989686,0.4640119091251416,8.680958276751747,-4.012959959600998,-5.186892372914489
780,-0.7410051824982266,-0.11390750790259166,0.5945466561121718,10.699902569754652,-11.165058777902377,-11.167807201471184
790,-0.9154149503139896,0.07034556790636155,0.3885183483355145,40.876067058148955,-15.916967328063789,-16.695783772283832
800,-0.9052410013276452,0.08498356348169041,0.2936279142428177,8.112404266153154,1.944668688307515,-21.964649316995605
810,-0.9065092949950628,0.09819108010113684,0.024291845916266985,-13.59625051629221,30.075860232342706,-23.6251207732712
820,-0.8634921360252075,0.393584293334614,-0.39492699030032513,35.67233720543255,43.05360112431375,-24.213477865612663
830,-0.8111464205246708,0.34931933570183593,-0.21071697199383507,32.40306555606184,70.60386856339194,-8.575336375713299
840,-0.5059876690785267,0.44292887349600985,1.327884995294643,10.627399213594703,44.21151000625408,-9.40559443411027
850,-0.4910254338288644,0.4381603643074165,1.128456229216027,-41.69280502315927,15.708882296926845,4.1901956785644865
860,-0.7161529106993834,0.3839718536505294,0.3514715655828788,-1.4654535789161223,3.8227551628452874,20.273509044151126
870,-0.7683636611826069,0.8307340890205298,0.07758507859492386,-118.02837745439763,-3.654089115481432,56.26133754019043
880,-0.7991801748320778,-0.29382846674337093,0.8444893165852231,-28.10390977498711,-26.175702022957715,18.429357970496653
890,-0.6209614759213012,0.18838768683089155,0.41038032814505293,-27.734943975278632,-21.495903847817036,39.00411946845251
900,-0.724190719941898,0.2466147229802388,0.4172135595948276,-35.26091972084518,-9.502614110583309,16.898119436845246
910,-0.7710711859842677,0.08607650394004447,0.4123787486724863,0.7638419936646852,3.8103110234509883,9.775952191606645
920,-0.7615217302086259,0.1434819522205768,0.4343233919892322,5.358008699161443,4.627799414790937,17.592730037883378
930,-0.8168100502399163,0.11915652044055139,0.4036147052304346,4.628546975799554,4.5192872077380635,15.045647661578377
940,-0.7769903262421429,0.17958736392006744,0.43180489261448135,-1.3382028676803133,2.604452864396589,5.965608911761864
950,-0.7747386808945151,0.14299379788711358,0.4337626683951807,1.2643201746737365,2.629776844805126,1.4516892931628935
960,-0.804731214238884,0.10969585261724703,0.4076003520025969,6.989712463766847,3.4610175090005337,2.0928594697258545
970,-0.8037535363165931,0.12506667567684876,0.40522141762250113,10.49391081201815,2.3438953971306242,1.9583990363151929
980,-0.7717171419291692,0.1510263213013988,0.44368173897280533,-0.0044238127896297635,0.27913361872445824,1.1630530476733563
990,-0.7470048478878506,0.16550180559681604,0.46192602307083896,1.9043873586549558,2.7397923383361293,4.7297181080235
1000,-0.8172009368457759,0.1119090120172202,0.3871383296032632,6.86713521873244,0.8488368814258507,3.9834488781569064
1010,-0.7802391595469621,0.1658154792398285,0.4205619937453091,13.11081980544404,3.0394188635804174,6.285440495810699
1020,-0.7883570053592202,0.15027678011407603,0.42306309675950937,6.312062601783392,1.2692807379471538,3.403402300166467
1030,-0.7984860340745509,0.14305467228467056,0.41099314622337846,4.259542961965898,0.6064540121732538,2.8513320770668855
1040,-0.7715460052459852,0.17007142708988413,0.4153755018329277,4.2478173169069215,-0.22900068955348174,2.702723951618818
1050,-0.7574623527337152,0.199288099996994,0.4402130083336499,4.785603064054887,-0.8039454118809826,3.7980791123506545
1060,-0.7682189210608437,0.18984924979029724,0.42039449596723505,-3.498045805601877,-5.434376414038974,-1.1020052942217187
1070,-0.7401418826689785,0.18788626175910297,0.45225736731200333,0.3463869525632825,-6.692572262712842,-1.7053408357046218
1080,-0.7732680445709079,0.15929126489516884,0.44241702033752367,-0.11181892294094031,-4.58737053731919,-0.12677159591413145
1090,-0.7455387009954845,0.17051855558672463,0.4527875912711796,2.0696849548999365,-2.0246614541897356,3.0853794040686937
1100,-0.7821591665895424,0.1604552225873815,0.42991454457372874,-2.394381978195473,-2.2395127772963446,0.21575530948601185
1110,-0.796584374461654,0.15242056737691462,0.41185359440483005,-5.281158770763807,-1.4355304837626692,-2.7980412370751777
1120,-0.7769143123401494,0.16250716172510077,0.4235760131764089,-5.779951738626795,-1.3784862822289452,-2.919131828420894
1130,-0.7677475790278966,0.15310930684058668,0.4314985655420664,-2.51936154599301,-0.8138313576849323,-0.21424269911749416
1140,-0.7893909673205954,0.14245409597861308,0.40992379442303545,-2.750062919226705,-3.0943455965149322,-0.6292026056749705
1150,-0.7751376444275336,0.16651224780721027,0.43351849652237395,-1.7860677385834176,-0.6658917843777574,1.1954894318911768
1160,-0.7621861462115946,0.17957258918290905,0.4350268851488109,-2.1086103951230317,-0.573396718205254,-0.08040235132669116
1170,-0.7667237751076359,0.17039941617968443,0.42770237954392115,-1.1799154256147357,-0.650030833099944,-0.3909914800372656
1180,-0.7740720680997768,0.16111568715161165,0.43603373639121057,2.8103359617713917,1.8331218433636391,1.9210715039155521
1190,-0.7637745465353583,0.16979916856392038,0.44375411846988055,-2.3502376282339905,-2.7373498586641496,-2.9143269022688396
1200,-0.7653047543561428,0.17823571806918348,0.4434256680787606,0.8642432598533709,0.06910659735995961,0.1577269923307303
1210,-0.7783349199152058,0.16146242099439942,0.437149317667308,-1.969216235542166,-3.6096209528290633,-2.909711789783993
1220,-0.8097968008005629,0.12021875999252886,0.394329851287125,3.554452946581983,2.0954851847458746,3.5831827467869237
1230,-0.7862703095079085,0.14693100833275466,0.4135382822830054,-0.5335006347590321,-1.7173455088577565,0.7612876074560551
1240,-0.7962908527138948,0.14535389380364402,0.39906615728400124,1.0708104826726699,-0.5083962354592808,1.8223569302196505
1250,-0.7551755910795234,0.18554047588161238,0.44865749396559695,-5.3690816710434754,-2.0234187070603844,-2.751350143882522
1260,-0.7812044658364066,0.1482014324522337,0.42987963710112126,-3.8439636683578646,0.5552655094219534,-0.35724553945772886
1270,-0.7652467279503442,0.16681466394050037,0.4351294559659364,-3.791600222065897,-2.24032184084795,-1.7223311796699527
1280,-0.7502651063383428,0.1856724126279641,0.45080900103055294,-1.675266812784887,-2.5117984456797053,-0.7991669092492496
1290,-0.7843711172839924,0.14985416376508606,0.42881413566074306,-2.0298389542193407,-2.707470414881822,-0.8679402694771831
1300,-0.7662299495755377,0.1699722971725883,0.43948838912543364,-0.8349085317459077,-0.04826100428208792,-0.4818495816445656
1310,-0.7987133545707488,0.133833925552106,0.40869193073802973,-0.6309572775930852,0.6806029429357318,-0.7263518763078116
1320,-0.7585640368532403,0.17656834648939906,0.4526330432072741,-0.42430938592599615,-0.8475472387978136,-1.0779612509355028
1330,-0.7692500927076825,0.158475716356429,0.4343983553077559,3.8372548708803227,2.0762880396143477,3.101750855511058
1340,-0.7660287756908245,0.16716041524155645,0.43643881325341133,0.5696323115390545,-1.0672906663886184,-0.1868635293082721
1350,-0.7462175913114013,0.19876918480356778,0.462922408488793,-2.635193195927168,-2.746743886649447,-3.911429926992695
1360,-0.7719776651022353,0.16044734048686562,0.4278030353411401,-1.585280338009951,0.10846060478937392,-0.6801641824891835
1370,-0.7701771842917529,0.1604752668791581,0.43688419381170956,1.2038289833617817,1.9770157182704042,2.9832705045584587
1380,-0.769734008191134,0.16549563807512116,0.4402556861036826,1.6980536718460797,-0.9213978911545557,1.3143875326792624
1390,-0.7782876881019629,0.1548744265800021,0.42338455209677184,2.5540134713290987,-0.5592818325703643,1.4435736558064745
1400,-0.7878161279642726,0.15576170272765688,0.41683233016573823,-2.604899800491798,-0.8582894067078943,-1.7239046200509762
1410,-0.7784750270496178,0.16051278659763085,0.4249582731142938,0.9622784339604604,2.062313309086517,1.3436245379695206
1420,-0.7591325082501847,0.17939696456919982,0.4464821027227594,2.3141837915021597,2.28778672185463,2.3177853794011476
1430,-0.7999639013878961,0.14095214331845096,0.41206599240360353,-1.0620055087459406,-0.5771717683882003,-0.1637855204055931
1440,-0.7753105682887792,0.1627485280012508,0.43451676394243816,-1.7332623058901375,-1.1728486464368924,-0.7320518455870824
1450,-0.7501540119912492,0.18514859588855936,0.4588102631227612,1.544178700374643,1.239565576465187,1.1262709280836634
1460,-0.7678340985486589,0.16522334600031088,0.43107312373174944,-0.008883875683832199,0.6753511679459773,-0.34251001728303065
1470,-0.769493609836505,0.16581352580809863,0.43184277750349465,0.3246226921528488,1.784594342579029,0.8192162964179979
1480,-0.7625020097641835,0.16664289186675574,0.44260267561529887,-0.9299275923818512,-0.3837418291750288,-1.3731779735471854
1490,-0.7565004808030796,0.16939117527885342,0.4455832263443039,-0.024498891416067425,-0.464090962848884,-1.6221536503653438
1500,-0.775596315450106,0.15699153619417772,0.4265704824059839,-1.4900086833340567,-0.9260677765451483,-2.525806348742864
1510,-0.7486998437311732,0.18587007171643205,0.4638391089197889,-0.779566843210023,-1.336849948583354,-1.6180318028191012
1520,-0.775121024026408,0.15751496418313932,0.43142952625703,-1.2025846803151827,-1.8860152649026158,-1.3845016699269435
1530,-0.7723581072230141,0.16348320790906493,0.4361798457838795,3.087240631583294,1.7055522522566178,2.613571775864548
1540,-0.7677333877960891,0.16789721870399413,0.4403236740696839,-2.2444204948436335,-0.5733151589124386,-1.947191535613629
1550,-0.7570183789954945,0.17163893442861083,0.44516518301513996,-1.2448341275027286,-1.2296143287867833,-0.5503611454028596
1560,-0.78242331611572,0.1498738162768878,0.42603604558764735,1.4378851443679341,0.5370631930430437,1.648312372019002
1570,-0.7830895798361516,0.1549237581864568,0.4286965832657292,4.420874616370047,4.013109471494415,4.046313111243685
1580,-0.7638145115385704,0.1758917083247962,0.44268099350663076,0.2835044961066634,0.8275100910294001,-0.3062196352931743
1590,-0.7670720033627428,0.16646575602590144,0.4393611955406051,-0.7364069181828442,0.5206847931477931,-0.6372193669651459
1600,-0.7574644560019311,0.17849279844677332,0.4568171741237189,1.336284747065204,0.9844435700219197,2.0027426562039747
