time_ms,ax,ay,az,gx,gy,gz
0,-0.8472387736084914,0.07928753254813843,0.2229934655247354,0.5592145225662636,0.6298689396335626,0.591042572313437
10,-0.8686925999254231,0.06704308683420178,0.206753600729575,0.8759150383068746,-0.4148101508428367,1.3110861179565796
20,-0.8642080242519083,0.06773176644060919,0.21245166860637554,1.4332706369515944,-0.09800746291093626,1.9712552139450972
30,-0.8382674480758481,0.0975316139984984,0.23630009973956975,0.029173686649585417,-0.2105824248332543,1.3040346713844337
40,-0.8146826401640448,0.1315411690130938,0.26341521558449366,-0.08757473678380423,1.3384354380977117,1.588456011691645
50,-0.8510846036878315,0.10134146225197496,0.23171366458342105,-0.24496194305401753,2.0429529399336204,0.9262713075495862
60,-0.8143542934722531,0.13093251162949401,0.25747142584310273,-2.2354320357587074,-0.07864134638124509,-1.7358226063441577
70,-0.8340680979187434,0.09796733133989244,0.2320903029223809,0.38075436106255456,2.7203942131650094,0.6193645276899766
80,-0.8466406879447386,0.0835046794632459,0.21744867772203816,3.884537213434756,2.136317670806931,3.5082911951064792
90,-0.8402707192943139,0.09510117219235802,0.22465998537995716,2.3135777166646903,-0.32468940773101274,1.6636951293727624
100,-0.8443366349782045,0.1053187935792777,0.23356926301166878,1.0435815631270682,-0.5150750706029272,0.31255789851393867
110,-0.8638868479765658,0.09042545184991731,0.22224241853436263,0.30358467622199925,0.30619390297977694,-0.025336704598434845
120,-0.8609440940613007,0.07874107463850714,0.2152582554883339,0.330211290759153,1.4369923938238498,0.8251262041712336
130,-0.85260607478391,0.08038490447884054,0.21637276007718298,0.3148056059926303,1.600557688036875,0.9021550311887783
140,-0.8395518751844593,0.0956106836700334,0.23180146358102913,0.7560916393674371,0.7954865831964677,0.7152457015998177
150,-0.8582064068346101,0.07963389247338078,0.2129554880285005,-1.7494934199121093,-0.6953426415040607,-0.7720291833076721
160,-0.8491209223464824,0.08714916344956697,0.21413527130482551,-1.8528743376992542,-1.2407052265749319,-0.7289171505730067
170,-0.8237874053840372,0.11127211250555213,0.24185101659838243,3.7658646429307754,3.432843236100197,4.196012589551005
180,-0.8411681201587826,0.09926708027059257,0.23754355449819173,0.7194391624037921,-0.012206450868164131,0.4080899746542351
190,-0.860631242998224,0.08996636709417753,0.22326246146859388,2.922925956303538,2.376431401673911,2.41878199787755
200,-0.8157136924308573,0.12551401798825337,0.250530492114034,-0.7823771091746032,-1.0659930670455784,-1.451814552592068
210,-0.8538884469402623,0.08550933043519936,0.21761013459916304,0.844561757546973,1.0261434400447318,0.18147186634677093
220,-0.8459981007104095,0.08928168920519441,0.2237752355937997,0.6472205538403825,1.559282098453464,0.9850479716003189
230,-0.8098377267897223,0.1274290358296739,0.2592975017058509,-2.7670785569817413,-1.8942901040706759,-2.368458482168475
240,-0.8456459071302439,0.09448277729233469,0.2259765949782036,-2.097706752902005,-1.8783729190356928,-2.0900478212594438
250,-0.8309320817584154,0.1081835600705733,0.243545202671377,2.555519294832543,2.0459541119934053,2.312050790247323
260,-0.8571920429278085,0.0801116332848294,0.21662563965764497,0.004914098739558059,-0.9653391951566749,-0.7137917628432623
270,-0.8208712759906964,0.11563787581157041,0.25408377889000355,-0.9103608098996442,-1.9087707501531228,-1.247962460882177
280,-0.8402428508145511,0.09258740556802486,0.2336214053723427,1.9785423741748778,1.6918032610694609,2.2094428079073376
290,-0.8263001223893527,0.11103880073143155,0.24527070915003324,0.19256794476313116,0.33165310578715124,0.43375031052165325
300,-0.842424659892207,0.09927255774890327,0.22900272109479053,1.5225537934658582,1.7552386782948917,1.581835446250165
310,-0.8445123675348278,0.09972932222082795,0.22973472518897695,-1.5114547641213496,-1.335546219658026,-1.740452231319364
320,-0.8441122089320474,0.10006840256657859,0.2319866657823735,-1.2783936889948255,-1.0539763586669237,-1.7485210064048247
330,-0.8284857489579277,0.10428996356961853,0.24024337775886845,-0.02009428177061956,0.5333447378650227,0.01268739723585599
340,-0.8363593793223086,0.0940073991657709,0.2326908741035874,0.34210683011263,0.41939785275520386,0.4786820790830272
350,-0.840977373033753,0.0924801477340802,0.23068277977216506,1.8935784015965433,2.206812619762846,2.851302624767264
360,-0.8488274172366629,0.08638798530264309,0.2225894946570756,-0.3203860075450524,0.43687738382905816,0.01941685382150976
370,-0.8456757014910272,0.09386704641388727,0.22866755643666192,-1.6583965310252307,-0.5342497465100908,-1.8636741174836844
380,-0.854664543636251,0.08878650750791166,0.22534964480447559,-0.7930925101852122,0.42763050945374126,-0.6428561245947819
390,-0.8445359452743759,0.09537146568877329,0.23638361874645045,1.4343327366232264,2.5048063553956834,2.193404219529756
400,-0.8274394477923126,0.11097222462594404,0.24753507994504897,-0.053093687420235014,1.2140198369335353,1.129118536719145
410,-0.8542845237025448,0.08013067826995436,0.22104957292307245,-2.6298209923286713,-2.3846103709290385,-1.304974148537144
420,-0.8478374661367709,0.09565181383545061,0.23100486160413275,0.037646948404523206,-0.46096605933779566,0.8448508169459206
430,-0.8523109722546359,0.08588745567127896,0.23148715691232996,2.044360025992285,2.8101880536057826,3.0103025591548236
440,-0.8492501329802612,0.07539361499584897,0.22994709106405553,-0.6743384573812303,1.3299703120112774,1.336581668407292
450,-0.8109677075038056,0.11036659411732946,0.2591321387165987,0.3694619673111149,1.7835612769389593,3.584912170933605
460,-0.8327560494907993,0.10378969902437445,0.2477371455611115,0.5285397934978608,0.47639596878106616,4.058248914481835
470,-0.8483130746508224,0.09172326003118353,0.22210116987860745,3.875052627796155,2.9041666713278014,7.266835114522776
480,-0.8412241054391316,0.11027726442428708,0.22482025101512898,-0.1576198824371613,-0.9783808751639206,2.734481318294226
490,-0.8390778052754404,0.11887111912127528,0.23080385507236356,0.1740139563776148,0.7903537166716281,2.184878461437268
500,-0.819587226282068,0.13059539919843283,0.2563868095924777,0.39822785473160516,1.7514581404141676,0.731949913581657
510,-0.860725733055941,0.07521544564294545,0.21238085346697133,-0.7397414056134421,0.004689988612829016,-1.781747174947022
520,-0.8292814268069509,0.10174127407127627,0.23272321295060247,3.0778678843785463,2.5130030519345317,2.0548979297113648
530,-0.8404500493144178,0.1020491110132217,0.2315754819673995,2.205048649236357,0.5292483942408557,1.4377537671191218
540,-0.8478863540499394,0.09088268879676248,0.217256273694259,0.5302419026685827,-1.532735671777992,0.4670747161386697
550,-0.8483605655593672,0.09984598747632031,0.22158703050390172,1.6625591672311102,0.20274592798487504,2.5253310386304513
560,-0.8515315853931028,0.09068877157280869,0.2223650970944289,2.1426045360840047,0.9478631689279629,3.7649958663960357
570,-0.8726124332510301,0.08527933112190211,0.21344551833665834,-1.4422812478444171,-2.562885109714943,1.2247606535431381
580,-0.8765156808387916,0.11458711334602159,0.22652375271140612,-0.6091395102861944,-1.188942957927309,3.527872192673999
590,-0.885496121958072,0.10089924680193865,0.2188606832781058,-2.2478350806623455,-1.9355273730366038,3.4165509295994663
600,-0.8349720203740189,0.08528232356303578,0.23920591709731934,-3.4051484089372126,-5.322439968223045,3.661379086632584
610,-0.9170394261426982,0.06722096194258827,0.2286716939481881,0.6924131821046536,-0.5595424109838523,13.78243100313073
620,-1.0152324183362085,0.007082409151150992,0.30441221685524966,5.86250424696127,-11.55073565417697,10.942435300173578
630,-1.0389468284429895,0.005181260722069404,0.3416024387156453,10.754965210378586,-21.062046751071698,7.30925376712922
640,-0.9263516941145095,0.0334083484876125,0.35376994112472165,14.273496252116564,-32.82398237561883,-0.07115887853434011
650,-0.8025333195259896,0.01776422481199736,0.2833056254339749,17.047586364568282,-44.02829401361156,-9.243190494178485
660,-0.7206106776956297,0.17667651130612336,0.18908047155872568,10.455735294262915,-41.848534962273376,-13.066777484390062
670,-0.6957731214514814,0.22416712745436018,0.21959263372847396,2.838249526235453,-33.43914666658687,-7.131771990255156
680,-0.6741514872346468,0.24429595321733744,0.30789975128431574,-8.642526079340465,-34.7431654646573,-7.44007340592403
690,-0.7182358749466,0.17645229604968016,0.3030838149109872,-10.017118745230604,-30.728201166538526,-3.6606467070195743
700,-0.7015440750038642,0.1574900093344075,0.30565898342663395,-3.09197683138622,-26.265490456114637,0.8271393034880532
710,-0.7592167487817808,0.12029161100325356,0.27363956189427074,-9.856713288127585,-20.241323442410636,1.0305107618609326
720,-0.8559776226518971,0.12030069275581931,0.30970362364483794,-32.15407527655301,-4.65669458216547,2.05616459052529
730,-0.8480542784876665,0.12333003025735023,0.38078691358250133,-36.0751598878213,-9.961104623281825,-7.897832421281112
740,-0.8839466361158115,0.17495322298345978,0.3586086649064789,-37.52404828288303,-13.95696713265831,-10.090319332429022
750,-0.8460216358619934,0.1648173928470391,0.29478451575786985,-37.10299936128127,-13.247827543355905,-8.844404706930662
760,-0.7891982613864995,0.11168271382600718,0.214460865359782,-32.08533835039165,-10.09499297420639,-8.442797891706542
770,-0.7137477819200954,0.09242087260828272,0.23036711008166041,-24.961991101348335,-1.9720733662285308,-4.622446456551329
780,-0.7815339825285025,-0.0239168846952013,0.25073685794519623,-23.967496549346997,6.490237331231377,-3.661396068079168
790,-0.9343473207874217,-0.1818328327389955,0.29476300249665927,-20.606358950269545,17.707295282563123,-4.5252531392720075
800,-0.9292464612221163,-0.0515351977221165,0.3514321220048275,-3.399744806688974,15.938561587933766,-1.2997137505808196
810,-0.8901880271433619,-0.012217709908769463,0.3534807776782605,2.4934810519891384,8.538063805198561,-0.2986936531733977
820,-0.8440447074698416,-0.018242836475221944,0.333357036653118,3.6989029219643594,6.34299548986973,0.29087148156600673
830,-0.7954846855025637,-0.027079167222007983,0.3811367864206705,5.637663754451111,5.049882871243289,-0.41634160796622344
840,-0.8447547412192272,-0.028088730163214882,0.34381655164824115,8.302982232652129,2.7530832119896878,-0.9058144108353163
850,-0.8697599607792539,0.0513841447536885,0.3000976744923668,5.972220668496403,-3.6723433319399366,-3.433185987801253
860,-0.7788055853414282,0.008815059804498742,0.41612090119413564,-1.0021169055627426,-11.423814243849602,-8.228784017014274
870,-0.810653670219191,-0.027393950161020305,0.25034140125771154,-15.516242690446111,-18.012547989335363,-21.790749325136513
880,-0.8909162695431296,0.11213161396492065,0.1685558030071183,-10.408628214436524,-13.03770912584008,-22.29315811753116
890,-0.9135829660107194,0.20491734449321994,0.04489115796505863,-3.819080993541476,-17.237682728877044,-23.72087649786125
900,-0.8573087122493794,0.09878582507181846,0.09509649445056739,-0.04448022611821223,-15.638736435113337,-23.51909167887449
910,-0.8472476576225247,0.0008506375037250929,0.2578525821469931,8.254025055772876,-8.833275868030873,-19.63125714451487
920,-0.9582643960510523,0.166707082338151,0.2537230420044907,19.84158265796046,-5.365389659134219,-16.486927285525788
930,-0.7722160992807536,0.37393405195453283,0.04997257139047798,-9.721681850518555,7.307797561771469,-30.93809767540608
940,-0.8843299792380703,-0.002081725143313869,0.05224404582620653,-38.770600594247554,8.250697938771996,-29.08198740036179
950,-0.9200246049926477,-0.05793783622389138,0.05931183982758194,-35.36790491413052,10.27608997832702,-24.910621463223162
960,-0.8223645949903724,0.04528702019966717,0.35262844259725923,-16.051324251231538,16.90359689965196,-15.890322658343786
970,-0.7381004829261391,0.17747543346383166,0.4703890672196205,-9.390570685635243,19.289641074219425,-11.780683249085552
980,-0.7957196293968419,0.18344541635691824,0.38421996534677694,-15.423373158421862,18.89402726614013,-10.067929198596886
990,-0.7928855553631294,0.13236871067431566,0.8125746492469903,-15.361945870550477,22.41376382022408,-0.20233747989404705
1000,-0.8159512628759762,-0.009404784535135388,0.777829998142251,-31.099044468489723,33.61220792368249,28.960597902952756
1010,-0.83343048516645,0.025585038629329655,0.41652269349244536,-17.3673177035056,21.41698800196378,25.58605420982671
1020,-0.8340148699999085,0.17862036577631396,0.2577110881672514,3.6099581984354967,24.512397855920735,36.802372040149244
1030,-0.8016444725420748,0.15233797629087695,0.5896193660595686,-18.434830991452014,34.851547653868785,32.67353002960847
1040,-0.8008776180690026,-0.03155014660891612,0.7747431508784729,-49.31279154906377,28.875429123846754,13.012445913699192
1050,-0.8088739953089557,-0.13224614462683323,0.44262988022907834,-27.166354782383202,19.039886010331394,10.629370819289962
1060,-0.8042721980816308,-0.1111211543424226,0.30190773080774147,-11.936727932119384,4.731044303871016,-3.669992353882013
1070,-0.8515074712983588,-0.07400560630316702,0.30288427868534756,5.518420483508929,-1.7481563241886908,3.3283793797408956
1080,-0.848792526316496,-0.06015417547404344,0.28511480564474423,24.125816208672834,-1.7224380590576,15.265537461492386
1090,-0.8214474895330737,-0.16725517859023245,0.4724390894917911,52.42759247196355,-3.617559830017852,27.021499025122523
1100,-0.858945390867758,-0.2670268480907023,0.38610437747137594,49.50382879586805,-7.940664985740444,13.136311020794574
1110,-0.8952962565058659,-0.18672926207026797,0.18656027307310474,22.92831856588783,-14.808468481819158,-17.28166434622495
1120,-0.8299762574176641,0.010027554806187427,0.3649001780363255,20.85770266042462,-8.779415018257193,-22.836342232267704
1130,-0.7845338196176805,-0.30247975309935815,0.5356770751195075,-13.226635387646855,-4.318576911836295,-41.66658668049157
1140,-0.8544791077565637,-0.05779245576743872,0.25764217201486384,7.9376857521679804,15.602765400420811,-21.45972957635511
1150,-0.7908380579177259,0.20529621441976942,-0.13620308992739844,-4.1199965908537335,23.555903498507153,-22.643982206261118
1160,-0.8011775279777712,0.1077618055411538,-0.06702124500280655,-0.251913926666939,25.78010117150603,-25.677061846215192
1170,-0.750920447381137,0.07102787159293024,0.2758857048657948,-9.488963195673144,35.40529582405061,-26.801326424445257
1180,-0.7171437086931728,0.23415152886507729,0.3859832810622323,-24.448301177003234,42.10934770744979,-21.784302953817576
1190,-0.8388842108911914,0.3207546686907307,0.1695100556264418,27.491874640791895,32.2273502893678,9.469958673588286
1200,-0.7803594641393072,0.2842621953879716,0.30868592238675263,-2.7794083379415917,40.21305216247983,12.697836972767025
1210,-0.7261966494622436,0.5860377332970212,0.36076179579629375,3.5022884088782105,21.620913891223,34.586936180841285
1220,-0.900954702260806,0.30849920182494717,0.3856060701406377,-31.851050931489066,11.604918274163175,28.489324736951033
1230,-0.9678602495369271,0.10098888520519163,0.2352632412734243,-57.13428828065499,9.957079743664575,23.12954995460868
1240,-0.903522700644472,-0.098695124120612,0.21501794907506264,-56.59366561194805,0.9162722620767045,15.513840794014127
1250,-0.7857063354197438,-0.34521859664668736,0.5070493039133992,-33.49372492792619,-8.682374731107114,6.532782652788413
1260,-0.9367782386135324,-0.24753152713722415,0.10242898360241337,-21.55577352077793,-10.599991300673647,-4.013409190201583
1270,-0.8791034171030914,-0.07923714440933355,0.07160664931429442,-18.10731044336706,-6.015651504291595,-10.595260035571322
1280,-0.839572362584335,-0.011728008274327783,0.18726742359610848,-4.895120387558199,-3.5507064854015074,-6.641483623519061
1290,-0.8704813416701066,-0.018566312236195592,0.19992353554944123,4.677795468479184,-0.027841931149100718,4.070559944022793
1300,-0.8591955947062295,0.018875243027039863,0.21899150898032874,6.417306964215914,-0.9029575240257148,9.717917936191217
1310,-0.8557101157559707,0.03706061261182813,0.2210239202937563,7.82943190309069,0.0013400346644456551,12.781665964141972
1320,-0.8583755668581783,0.029904206910003936,0.21838762823598684,0.5798363179465524,-4.83267726641337,5.66630635622863
1330,-0.8509365906709672,0.03327116517875643,0.23018454839128422,3.304493634635012,-0.8589888547510356,6.111343135428149
1340,-0.8553725661346252,0.036896183872765345,0.2234797165516338,1.2888500480749436,-1.1533618683893914,1.9764577204978786
1350,-0.8669816386320891,0.022837096580664476,0.21589218176442954,4.569095686468599,-0.8641926994930637,-0.36112672104952703
1360,-0.8384580098248282,0.04121040169319338,0.24100804345227972,6.891748891753586,-1.3495246839210544,-0.4292100089485451
1370,-0.8559736749170181,0.020560257998038046,0.22002722640118663,9.694138014576021,2.240552156895704,4.333426989228147
1380,-0.8541249583201997,0.026234644858783497,0.22147727020916105,5.095453871980689,0.8040398119983372,3.3946517817695336
1390,-0.8612968542448602,0.011343495147532676,0.20687613766299168,5.154389604400633,0.9440267815354995,5.070476210706962
1400,-0.8868561797938107,-0.00042555574844019284,0.18988390494706867,6.001280221689794,-1.0401001373241832,4.876235988774475
1410,-0.8516247165607184,0.04201977434388731,0.2314973113342416,7.247190641843446,1.1443263791060572,7.752097786162451
1420,-0.8536295713382294,0.050775453939926926,0.23252558847772073,4.962310571279293,1.8455190586889538,4.373563705082988
1430,-0.841733085465398,0.05929358645571533,0.23954015325292033,-0.05382602284509663,-1.468793258016727,-1.981082661395797
1440,-0.8400791320646566,0.05140247311462813,0.2343736644304119,-0.12481593201617147,-1.3269724217750458,-2.0819750582558587
1450,-0.8347235943510436,0.05532390266096715,0.23799065565433045,1.6748764323991159,0.16364824412677625,0.602077527821257
1460,-0.8013240459784887,0.08348610322475036,0.269292968420617,2.03515235318,-1.4555421050339281,1.111213201353958
1470,-0.838111215725498,0.03801482832233591,0.23165608038612304,7.478890876209526,2.1606416664373915,7.48913937013266
1480,-0.8279430373319419,0.051624444128357316,0.24563766386614763,6.97637340749513,-0.0428834208568607,7.0353392316292105
1490,-0.8495724336693881,0.05195205411709477,0.22918613123623666,9.936869728874704,2.1603280668835536,7.7790800254541335
1500,-0.8315737206337346,0.08722569344145042,0.25086943440866655,7.306717481326583,1.5358607000043967,4.03361632591233
1510,-0.8600800026969462,0.057500304624367705,0.22008445733587834,2.349475352757535,0.5109097697767688,0.12624442100095634
1520,-0.8385529205194855,0.06780279675224632,0.23174330875101695,0.3745893922872186,1.376969593254997,-0.7126512128996428
1530,-0.8487546757957144,0.06248761366719589,0.21817019674175492,-1.3454450967343234,0.7010642008580347,-1.8818489903503566
1540,-0.8796797510683122,0.03270777718697934,0.20256461248467897,-3.550335338828636,-0.9687563207630546,-3.3436108638042468
1550,-0.8656054795367927,0.03365532953009728,0.2163411361433938,-2.1472303568155375,0.33421854885092905,-0.7103165880285714
1560,-0.8397659740076697,0.06042593987192013,0.2420204039778583,-1.4757233501913871,-1.935233729280943,-0.12236767376519908
1570,-0.8653797629388227,0.04029287704159118,0.21340555135054212,3.0465158607593072,0.23666351342192216,4.057897585559261
1580,-0.846277635690901,0.05961636425969569,0.22773110543785438,2.3254200461460193,-0.04586370489857128,3.700410763067479
1590,-0.8532400533384094,0.060208425857478105,0.22983631497668128,3.113760265824487,1.0497644526052892,4.591298032961846
1600,-0.8508881461559676,0.06021933848156981,0.23174447201013526,-1.4595360662301968,-2.2544912112790283,0.3646604033997105
1610,-0.8393525285009898,0.076397934975817,0.23270693230832357,0.7484232581761373,0.22504784273983258,1.8367029747327086
1620,-0.8348499631063669,0.08234055949886124,0.237993600472713,-3.052333366212272,-3.680544602057718,-3.039468422818134
1630,-0.8489798247329416,0.060849492276587695,0.2208090362414206,0.10552486658773463,-0.7999163322287175,-0.14484887210355063
1640,-0.8611394615526461,0.04420620571836267,0.20766749133100107,0.6887433837300363,-0.1877925069017038,0.8541438136782644
1650,-0.8457226884921285,0.06787723917468637,0.23361922876564745,-0.925590180736116,-1.1545163839336097,-0.5146046316386665
1660,-0.8726075877342656,0.041961992353766096,0.20497971747596286,0.5692461985158741,1.0682143881911088,0.8319816832288414
1670,-0.8430849991834811,0.0685192913576746,0.22714449899090697,-1.2498437259655601,0.19757723650358444,-0.7739303698442759
1680,-0.8490221758661836,0.06090524768889438,0.22132381345933724,0.35750437867718876,2.388713958195467,0.8697298779760951
1690,-0.8144926111198585,0.096296848502447,0.26389600135985875,-1.3831282432688783,-0.21335640274854395,-1.5680899622586482
1700,-0.8439182432311668,0.06319257329279744,0.23414807060884307,-1.303081778653409,-0.6288676124989299,-1.8955747837113974
1710,-0.8626485168131056,0.03842329658155701,0.20690433270078204,-2.1837482711575937,-1.1863003884738985,-2.2698886144845227
1720,-0.8023096017299226,0.10120437328362047,0.26802107511683426,-1.883719004135442,-1.340835271480819,-1.116701967839489
1730,-0.8545965201815786,0.05639154849670118,0.22236287889637327,0.653346488226833,-0.4847172770846404,0.9635908927968072
1740,-0.8663450946284865,0.04441030981278573,0.21086036279429493,2.25989291566132,0.398919305620152,2.209533501747215
1750,-0.8414053844994133,0.06501668398422711,0.23116421360559045,1.2571030910574985,-1.2400644756713404,1.0882681820388702
1760,-0.8427337746842183,0.05923376557743103,0.23107322752930998,-1.5262845227976136,-4.211405299294658,-1.6846921363053544
1770,-0.8630252740745826,0.035452504660614614,0.21204385111851992,2.363325423841682,0.1186765809687013,2.5633649030122077
1780,-0.8490538517084113,0.04990916202241414,0.2223652578894414,4.233713851816416,2.8433564179835966,5.120217487192688
1790,-0.8489017928699724,0.061253339461045365,0.22377129474011287,2.2854442830378283,1.6076187132499142,3.587338566636847
1800,-0.8411560473411398,0.08400768810843151,0.2469975311987135,0.09494356862207198,0.0811830494347624,1.4563792213266853
1810,-0.8548796271918943,0.06673611066939991,0.22438436363379058,-0.13066612433099406,0.28891304830553466,0.9318498788992264
1820,-0.8323310145515543,0.08819107409965495,0.2437145389486948,1.293478184204817,2.1552168773593507,1.873153856561756
1830,-0.845696593479992,0.0701201117255452,0.23171694442577703,-2.6759146145313184,-1.4895522940117223,-2.2526979403524114
1840,-0.8567778890651797,0.051745668495687513,0.21882140740697675,-1.4635246297831401,-0.29461960900477957,-0.33305083426940113
1850,-0.8470651605419026,0.05869128636452489,0.22142803017893103,3.634353917944784,4.166776142889653,5.8793622196861985
1860,-0.8068637637116174,0.10123173250315323,0.2636565490781006,3.419849536730705,2.3948104447095857,4.482695977487451
1870,-0.8398923354739126,0.08911538149958301,0.23439768534091127,2.7481802048740196,1.430102172236499,2.324150865586443
1880,-0.8619100223520223,0.06154539866483851,0.20884553413027643,1.0701278317629206,0.06405946070265206,-0.39279857360498394
1890,-0.8571790835843732,0.0595651881083747,0.21798507470102935,-1.9466387547178567,-1.99718966032486,-3.764368820746161
1900,-0.8563398031870884,0.05695777333649946,0.22533379484358845,-1.443232306674712,-1.2521058227580573,-3.358394367143257
1910,-0.8283145787790627,0.08194374289217529,0.25309728039745394,1.9563386294000007,1.4477264589084686,0.2883059274576558
1920,-0.822156276128047,0.0840664218993518,0.25079113807875864,0.3203937642805331,-0.5040011773170732,-0.34824080780913574
1930,-0.857571135827347,0.05070010518828354,0.2096976925397624,1.0962450364804175,0.5819438552946394,0.2214981755487312
1940,-0.8442149151307926,0.07546166373410174,0.23272171663056196,0.062004931419949616,0.3833987245855383,-0.13298386576261256
1950,-0.8483903129373168,0.062319573187746745,0.22512504697130167,1.608553496780224,1.5087439215642708,1.1155203476046995
1960,-0.8545767809393061,0.05225417647771459,0.21704454830687323,-1.6320673973485171,-2.320779788937539,-1.933163787139361
1970,-0.8268934070337224,0.0825589988436273,0.2481762325401991,-0.8888179115700006,-1.9513689665107317,-0.6428115114111737
1980,-0.8562663056874171,0.05556051149416295,0.2224522245110077,1.0668188957293407,0.09498208238007327,1.6701774909186025
1990,-0.8651569370127412,0.052717147015908385,0.2112292631684075,1.6448239933822217,1.7757783876331092,2.7163898233383534
2000,-0.8576811739474304,0.05373505439684188,0.21560806618593426,-0.1160549682459342,-1.1381272107857079,-0.29070565259463144
2010,-0.859780500605849,0.0474192258174909,0.2141478081433701,2.6103739184955237,1.1035430977956822,1.9151706543416438
2020,-0.8298841421706055,0.08601605958521669,0.2504300245043981,1.5322809239158275,0.028046474740713253,1.5316610166468498
2030,-0.8438854155503606,0.07616446248138345,0.23914254213492617,1.0175228928330577,-0.20126424116603295,1.555029832185685
2040,-0.8440459977661936,0.0712097942795414,0.23530377055408025,3.4521497467936193,2.5659701934837855,3.8969815893796884
2050,-0.8587932957720411,0.052682700465954524,0.21512150030769384,1.2319173108857369,0.7161467298942135,1.5659500819053478
2060,-0.8311175389715408,0.08426908154936744,0.23974238838005274,1.22088483881943,1.7317361937376108,2.089258617731489
