time_ms,ax,ay,az,gx,gy,gz
0,-0.8636333809368977,0.3559805483053617,0.3153324956629304,0.2858792282642407,1.3184328619159364,-0.7741105861792168
10,-0.8471506363059166,0.3773079285232904,0.3287397988495499,1.4077037824987717,-0.12300605661624381,0.4792113500719013
20,-0.837234870560271,0.3880070712734068,0.34015815588895276,3.3858342943398085,0.19201242729677415,1.4278450813243277
30,-0.8663478540843789,0.3642080584136954,0.3162882946601638,1.3128354912945746,2.043128781300897,0.5490845657306095
40,-0.8273149199873862,0.3999696778047661,0.353483458701423,0.3996025089608897,-0.260234993620284,0.15903723076690995
50,-0.8370942323475835,0.38564280238303855,0.338497275212596,0.7714062154824413,-0.4363780236783176,0.6516022467632594
60,-0.8242797601733666,0.4008878355667392,0.3577676633261041,-0.21123761180157552,-0.7812490508279948,0.5621668050810875
70,-0.8436194773219369,0.38541161519893974,0.3357676825578957,1.2425422148667438,0.8495638426761025,2.2278361903283534
80,-0.8499041240939827,0.3808779870064498,0.3250714054052799,1.8303596461790308,0.9322770507437639,1.8305403002919696
90,-0.842310430893137,0.38549838575845713,0.3325920996818038,1.760352155862779,1.1297734524067935,0.5846188521987679
100,-0.8359554242222409,0.3849655019090297,0.3421993053409591,-0.2375173281018702,0.411583143699552,-1.3299890276701243
110,-0.8372234939437498,0.38875754277057173,0.3475641370644051,0.9556149788104239,0.9280638319388758,0.3703112357346241
120,-0.8515137677138388,0.3739086747697791,0.329726685298108,1.697054795556222,0.4872611020764124,1.0810743771391726
130,-0.8158556394451831,0.4114228579189863,0.3635741521361113,6.313432356994364,3.9890191330386124,5.076145569672809
140,-0.8568608990942176,0.3746597262683162,0.3201299740936765,1.2515813469435682,0.3483309056923161,-0.5576326830570374
150,-0.8411668437146649,0.3859906544840507,0.3327952834958759,-1.440786391441824,-0.9551267730196347,-2.7688909826976666
160,-0.8505984255774147,0.3723555310628196,0.33085504141887384,-0.9989882501712893,-1.2285116103142812,-1.7410468588255066
170,-0.8216689702351527,0.39978886028942917,0.35961937732351557,1.0040948015016617,-0.657545601690858,0.720955710451595
180,-0.8217255593575351,0.4021755498545814,0.36196051484901487,2.8338752298963064,-0.9294508450828926,3.0449238131879808
190,-0.8438624546284642,0.3829772714063333,0.3403939290865232,4.869151543993272,-1.3188253122184308,5.3210159251639935
200,-0.8742534929602329,0.3509444719459715,0.30851621553576797,3.7544486658079386,-5.75357395253544,4.228833333081848
210,-0.864854643243905,0.3712928695831786,0.3491871258977186,19.020160748884102,-2.290531025539286,20.433787124169577
220,-0.863898405045336,0.3671114804397643,0.3339329914499203,22.370722059539627,-5.574277986706758,23.23932648341951
230,-0.9199927946331765,0.3299266007868923,0.5230965771773421,11.766208128627376,-9.70657109178624,14.043997642447403
240,-0.8057732689919272,0.4671205905634262,0.34542169956260155,-0.43664432256307606,-36.51221443529332,-15.768774909024346
250,-0.8340049406834582,0.42686651266564496,0.4173284056654014,-17.35831278531807,-34.39016249890091,-31.85696015761173
260,-0.8345531224641975,0.4262430473748203,0.4504160263132533,-12.58245104939354,-45.928929741070355,-30.00719335755526
270,-0.7979456456764714,0.4501230352024305,0.23735083608169266,-5.070722493589509,-25.176180249293473,-4.586277055365054
280,-0.7763825745135325,0.4181972663672293,0.3454309441549372,-15.619869545002272,-10.854074498599127,-11.187683701028202
290,-0.8780460016318951,0.37425365623503287,0.37006710785338265,-17.37900995518695,-8.714189313873797,-13.948046057030796
300,-0.8579432220888187,0.3788874899613677,0.20324520181617436,-15.65021804368383,-8.025341874390502,-7.240609483157513
310,-0.8455230892826688,0.336910350134659,0.4330528834529224,-13.564524242757821,-7.469778029885321,-3.975249225203629
320,-0.7866852173275082,0.39607059965861074,0.4247879395376211,-8.786559525027851,-10.185598499689927,1.0703935697623892
330,-0.8425974114016226,0.32596789927922,0.3810598999680514,-6.451000186759026,-4.003434435787264,-4.263465624147248
340,-0.8255002935679338,0.3393841657234423,0.40583180360625504,-3.3817219460740207,-2.985644518111491,0.17941980735698104
350,-0.834551346047754,0.3321007986029488,0.4038494248570029,-4.024885334939382,-4.411352852171401,3.7022637054258207
360,-0.8356014457603562,0.31114271050257963,0.40616804744835644,1.0836500833998404,-4.910365848437182,12.825244519472786
370,-0.823100798644354,0.3021304154092841,0.4200026606207393,14.680246637761993,-0.4419745605847789,17.98032188155143
380,-0.9591484063385404,0.23124259962215463,0.3274273659782533,41.24420846618163,11.02303282438975,2.7856590968982866
390,-0.8284068103331685,0.20112447420990548,0.10328545310915375,65.37278944891099,26.764379781393618,-14.49399975728569
400,-0.6401232487723703,0.5485102356884085,-0.00022463719582357933,76.73410706227028,41.15629458137097,-25.613281703640933
410,-1.0650751616080685,0.7807157693141997,0.6066518731148715,68.72452748134522,32.36375481426217,-30.745995887359555
420,-1.0611688862680448,0.9424370251288209,1.3356475731422168,46.286375801727885,13.33546717494888,-17.594877641619842
430,-1.0015138832248056,0.8897202148602307,0.9070520533488112,26.505378986315044,7.035670075970719,-3.439828590487465
440,-0.9243269833209559,0.4706599613585439,0.41323989067782324,1.6161887099142156,8.193194314681499,-19.097292226102372
450,-0.8355858516725233,0.3723191019580745,0.37037326901927276,-13.807762319746095,11.588696330919479,-30.608174044254287
460,-0.9104448772938614,0.41513221366543723,0.24890962586111084,-12.746223634905258,12.544919526631709,-20.12073476627994
470,-0.8948400173012997,0.47349987312734376,0.37975518841683376,-10.139094785193086,14.730913509700512,4.725260111834069
480,-0.8168855469155021,0.3037415886376306,0.3989089087402248,17.568190321346815,18.273636810132345,27.998694906968502
490,-0.9746892391328008,0.8011148633849678,0.07821236923104623,-35.76070966101362,20.61479636939125,37.41529884735309
500,-0.7071244221310362,0.6247279285823785,0.18571846708458215,-13.599120910518145,13.679763457159321,39.38670927520674
510,-0.7265778592370649,0.35884432540720734,0.3021970769447822,-12.479500696936878,22.2563578351271,14.32023509102982
520,-0.7681891207022464,0.2400237886049576,0.2546549992296778,29.561548349375325,4.320788728834595,18.350564554050916
530,-0.8147262780593368,0.642235136105738,0.3808581255357987,-24.877398206253076,0.598856114837492,31.356010024448757
540,-0.7982374718042615,0.12296126787654524,0.5562084702331044,-35.682660143866315,-1.6891313097995213,12.841318060629913
550,-0.7952893523881813,0.225301013846296,0.40724106819212236,-0.2506280051861731,-1.0495960642800217,3.403856588646881
560,-0.8149758573160074,0.3356192334342811,0.38444358795280303,15.293770590618786,2.3609434132119542,25.696554628158385
570,-0.8874628806332795,0.10366909020780928,0.09519105164971198,18.353035648197466,-10.398674231666059,-1.1808493494121541
580,-0.4687643080830058,-0.11057293057310023,-0.03902125691334961,2.0217339560929846,-4.5790950620766955,-12.839006739366317
590,-0.9977464677375925,0.06329170731105928,0.38603276816607474,52.5756350413545,6.875610001740012,-16.26246896563515
600,-1.4467866587710096,0.05758473101013573,0.655990210069853,105.96686274683319,17.24300753460601,-23.140796103129016
610,-1.142862261116197,0.9034465055506877,1.0612403811026112,48.9745492961336,30.427521728911785,-19.661273121968055
620,-1.039489419347126,0.939539327496161,0.7289206157739382,29.988008467993783,21.210801987339863,11.067556478005276
630,-0.7941092800697159,0.6166199115188774,0.475979787004265,13.445709411035878,33.832957525670345,0.7103006634348725
640,-0.9061875386825726,0.5987077174536022,0.5915966965158836,28.693155084972737,38.276956035504796,-4.986684262780794
650,-0.8182483065309257,0.49101539402739824,0.5969180991933226,15.535157535866215,37.86797294962481,-8.61113545054716
660,-0.8726888472824943,0.46821362935019095,0.37152169128909757,3.803009090705298,32.70528989200285,-6.926471865603595
670,-0.8916018657001011,0.46283044636638115,0.2723598396372745,-10.60835352525011,36.415416788615524,-7.621145347915916
680,-0.7795650004064082,0.3070084287728412,0.17550407030844942,-38.58373604247561,39.37923835333852,1.9766239225701774
690,-0.6292514661563038,-0.06536520455166976,0.10177214751837456,-53.48029735856428,26.434257259627714,7.052393082849557
700,-0.7438921284222836,-0.1877778654333621,0.561194034850932,-51.956990681769376,7.08064615960016,1.9310271830207864
710,-0.9015519303630328,0.2065556900342635,0.5828136201609381,-49.604110643493655,7.690492059679006,4.288435765997771
720,-0.8826005279336475,0.040100961763495625,0.3473530378702483,-57.46097998873369,-0.21836557508796028,-1.6417811755152278
730,-0.7464429442675793,-0.05766467140090373,0.44393911228975436,-59.75625937962403,-40.40501967803138,7.632154146038099
740,-0.7260074051587913,0.12419789680384662,0.38781139105731166,-32.05010780770257,-71.01357386656699,20.63322158009921
750,-1.0940960002443478,0.2545750976222383,-0.5323780453028016,4.032840218084528,-78.57039554908846,26.771009632708722
760,-0.9435508191568998,0.299642378339794,-0.028346048407749562,-17.0989445277101,-29.729386774522023,7.476184807358531
770,-0.8571623012411236,0.4073003552152085,0.2111411284985136,3.6678064613656707,-35.280517516186364,11.89540000461357
780,-0.8506948764559036,0.36137762593959344,0.1841368298962547,0.686670526581481,-20.870097732963664,3.8097519074821706
790,-0.8556873166761042,0.42854656030336913,0.23596214342150243,1.7726032890474879,-18.742109017927547,-4.319780239583462
800,-0.8769167772131305,0.4330929244933674,0.27200907730506674,-8.112120817143733,-5.930736951733025,-10.28781735006352
810,-0.8418384531839523,0.42511391597797843,0.303905519200284,-0.642935927206683,3.7691152533457153,-5.373656756368638
820,-0.8614809339925541,0.3892162074720116,0.2994469361823354,0.09014132124308372,2.7417969437011984,-2.91890461078685
830,-0.8449388040037741,0.4047320225689973,0.31268429440227635,2.0297203568381983,1.546273926938901,2.5002365136211004
840,-0.8583631264570174,0.38748865680736694,0.3059034401256537,-0.562182592934213,-0.29293835660999934,2.569364659726315
850,-0.8693130829730312,0.40237225653672,0.2912120832140307,-3.08699546504988,-1.0641836223701093,-5.63458834769399
860,-0.8423599982963214,0.408740897031916,0.3235627977398375,-0.6111497424348571,-0.06025673171503987,-3.647087976418044
870,-0.8733030524463982,0.3901141144467617,0.29671270310613496,5.0515011483319086,0.7493235933402806,1.379315271566171
880,-0.8693509626598407,0.3967787290092336,0.2937393932767066,2.692806016105221,-0.10428154372085813,-0.8246137635387583
890,-0.8757660328104216,0.3878225585317846,0.2839534725930591,-4.37001725755665,-0.7401429658440579,-4.928962924351935
900,-0.8452722240812409,0.40580940392254444,0.3195791798280817,-2.5686270348190416,0.3988723914282908,-2.2304285519789366
910,-0.862789724381603,0.38862894173145157,0.3014956712144274,2.494456558800453,1.2391832585447935,0.6359828377723795
920,-0.8337230189291356,0.4238692931865664,0.32888703935556685,2.5804651042592672,-1.9927581312984715,-0.8237729953720203
930,-0.8549701617840153,0.4133116601323346,0.30690094467401347,2.039971076336803,-0.483555339108539,-2.5817729749271323
940,-0.8503085011083912,0.40500096057150065,0.31191083060053276,-1.6379807798127506,2.832975117241224,-5.1792001643936585
950,-0.8698089563334382,0.3770824266887297,0.29066232511287726,-4.4473018980030785,-0.6366985820900697,-6.316588646091931
960,-0.8345646474744729,0.4226032789890927,0.32769805048245176,0.2833682519151239,-0.46937636207581246,-0.5901379165075297
970,-0.8651553387076016,0.39712647313906047,0.29792173661863347,0.5433590731609448,-1.2625076218614297,-1.0662139879000327
980,-0.8616771592603121,0.3859519871468713,0.3051901486150331,-1.9809689655903948,-0.4646118168934686,-3.827728545479616
990,-0.8457812620593707,0.39682567739146124,0.31986343027139186,0.4076427707636533,1.2648696642540298,-0.8103551867202763
1000,-0.856582919610675,0.38553631479257117,0.3051464936681685,0.34947577917606465,0.06497652723401237,-0.6841254111546778
1010,-0.8617030447123045,0.38985209771965323,0.2995241872496699,1.2863159351041986,0.6677695305133221,0.31595000691034003
1020,-0.8691628187533872,0.3837682860171158,0.29286258205208826,0.9914857614643744,-0.020369648961098386,0.9603581062347903
1030,-0.82548833065148,0.42289828229894516,0.3381561283578226,0.9142164608858447,-0.39643314321152145,1.5238069687867988
1040,-0.8472576906104754,0.4054290035035265,0.3214068097111912,-0.37242018210608197,-1.1506554886266636,0.08326418762889776
1050,-0.8512008381739603,0.39716161071809486,0.3095170677543861,-1.005519597722976,-1.198361964448645,-1.6253920660154375
1060,-0.8283540284812092,0.4226425769467748,0.3355128092299054,1.6251189910736537,1.0434869356404104,0.2844205335993275
1070,-0.844705859304985,0.4132932149413644,0.3253012061274754,2.0311081320479714,1.3841948064324736,0.4653598537391573
1080,-0.8733391268272133,0.371070493333881,0.29176060081984206,-1.476880498423646,-1.521961967797771,-3.3359380401553635
1090,-0.8311858233602378,0.4150351904684762,0.3383550849292099,2.021333519914987,0.21162031641126622,0.3212098945042534
1100,-0.8640076368751435,0.38574720287124376,0.29709689194348277,0.9290088203672786,-1.525893779407411,-0.43228952195677794
1110,-0.8527108232131779,0.3974614005510111,0.3167406864006979,2.6460985990398185,2.827294893849615,1.315709728858384
1120,-0.8559811424116638,0.3927653737967727,0.30295587813644337,1.4234869097161138,0.5133065499136832,-0.30669889363830716
1130,-0.8208941359671548,0.4279606878061706,0.33836351699045536,2.6543656403567066,0.7890115673877658,0.8494229045505135
1140,-0.8466914515913996,0.3999636055772778,0.31533075718184966,1.5798642440105775,-0.24583981789693732,0.1717441935970856
1150,-0.810619011971903,0.4417368617479226,0.34620789696428467,1.4389137502965585,1.0498586179275888,0.8749817154192152
1160,-0.8303450938127013,0.41485039784263794,0.33409941145451916,-0.1380658005553999,-0.6172607127836307,-0.01503781529920778
1170,-0.8623276822157873,0.3932322045227228,0.30038719231813166,0.16611069522578722,-0.1762836684876867,0.22360748950257892
1180,-0.846940191191281,0.40378581253789986,0.31658541324065664,0.3183172837760263,1.3620335632533054,-0.6287024402872341
1190,-0.8529881961565121,0.395753035704239,0.3101205872268916,-0.5432135185877159,-0.7392435943157323,-2.224860277366252
1200,-0.8492357164798082,0.40073244681776454,0.31550380061443556,-1.1555160050163287,-2.0580903727275053,-2.387481932683971
1210,-0.8765429612522698,0.3696891811121159,0.28289985926522215,1.5331541840579983,0.9977736323733647,0.6504909799421585
1220,-0.8386489932128569,0.41069784484910504,0.32775452890872364,-2.4550765455898964,-3.011881647883916,-3.48206604176874
1230,-0.8351047091195313,0.41306794096492777,0.33076489767450473,1.1980804935290914,1.1084142909944399,0.26360743198989106
1240,-0.8559725973366084,0.38606885289890397,0.3047094853464763,1.3564342439354236,0.9684404181632504,0.7118728086512829
1250,-0.8547586071273678,0.3926114208285766,0.307270373850223,1.1836848697869058,0.7602901676579743,0.4119038533084085
1260,-0.8574853891564741,0.39733984152300095,0.30735658499242646,-1.006919218882991,0.5838391201787747,-2.707463246695713
1270,-0.8463704400517387,0.3981772284266229,0.3161768693383066,-2.9992596134106693,-0.1531203857402177,-4.66851078356927
1280,-0.8414547108541865,0.40070731550569916,0.3191399219641136,-1.6045008787069397,1.4366259356614122,-2.1368492273100905
1290,-0.8342539384220302,0.40786916095881076,0.32881444139964605,-2.920452843503753,-0.3726979490313346,-3.1574449378606864
1300,-0.8391253749730317,0.3975774786438196,0.32032624321586656,-1.0959271430606845,-0.6848149386351093,-0.7254331020224563
1310,-0.8387203133339698,0.40025623714930103,0.32415372711065704,0.9358362317499294,-0.07893669375142959,2.214927844466402
1320,-0.8208669213591241,0.4248647428988599,0.34080045430341893,2.0490350690904484,0.36020352739365313,3.9184542285604493
1330,-0.8694065697737456,0.37849236164961,0.2907801623617664,0.7036150770303622,0.8058883605110552,2.193087328540054
1340,-0.8583285345255096,0.3888568265647869,0.3060091343822323,2.6779376065819904,2.415632160087182,2.441868272204103
1350,-0.8615639461082626,0.3831782355446927,0.3014079257839525,2.727995781486138,1.6217409350822285,1.2171879689150769
1360,-0.8579114371311983,0.39115346396191547,0.299857026494649,3.0767802070465944,0.29581398738865305,0.7028215290016728
1370,-0.8574387549595514,0.3838805027350467,0.2996272765524407,-1.124545639418539,-0.23075079242145594,-3.9244720479364643
1380,-0.8412115243518321,0.39175599642104114,0.3167269047228083,-0.39235434576001155,-0.2747310799645075,-1.4985570343255943
1390,-0.8764763650954646,0.3583854956281861,0.2818078942265891,1.8910225083580323,0.3538610044753949,2.530719322070453
1400,-0.8370183701272714,0.40390026415448843,0.3158289531536068,-0.6272031315156941,-2.4976212129671937,-0.1896427433762815
1410,-0.8226077494840577,0.41710476905538435,0.33746813934730957,-0.12710861265516027,-0.45301875694942767,0.7121534413698374
1420,-0.8446401845179308,0.39667969944497966,0.3149802150584744,1.9944030823095271,0.6305870357842078,2.676207365339465
1430,-0.8611506313713102,0.38075067477244706,0.29312778908410697,-2.636439872607487,-2.4759134758341332,-3.5115524211992093
1440,-0.8541553013940436,0.3893222029056791,0.3084398682148833,-1.097886523197448,-0.35872243247976865,-2.5191201272322155
1450,-0.8673118099633097,0.37155031006370837,0.29117237698957993,1.7331906192946969,1.4509682741626002,0.573560845224081
1460,-0.8489318112104773,0.3876504748300274,0.3094408684991103,2.687858997722736,2.3759862648930485,2.3100914565638044
1470,-0.8500420886616106,0.38648777223107245,0.30705279192457263,4.019079289781256,2.6633151245890145,3.8287209481853868
1480,-0.8371697872755995,0.4093742736955089,0.3257104075553215,2.2192107511307597,1.050900665965539,1.5623584627935458
1490,-0.8634885797714227,0.3757771724115589,0.2965886088531063,-2.277578990989349,-1.147403974170747,-3.594322876384522
1500,-0.8278897353965845,0.4094939086615059,0.33221263930026773,-0.7965672729505897,0.5289774478627444,-1.5385336144851292
1510,-0.8333360189224116,0.4026569697580232,0.32176827097685956,1.5408960055064982,1.1248145955181101,1.627092137010098
1520,-0.8496127887006893,0.3978641972764193,0.30778949618689566,1.4436922475042153,0.2858094519538448,1.8419618641369815
1530,-0.8524865707019795,0.3993295662756959,0.30822477638061807,-0.21851823651254454,0.874481736537947,-1.1311262006996634
1540,-0.8656734483030492,0.3761405938757504,0.29640397003021185,-5.843885687719512,-2.6753231529825143,-7.3696655536760645
1550,-0.8531619520724496,0.3788032412073797,0.31046505139693287,-5.915634690520914,-3.6146349181406547,-6.644351472977382
1560,-0.8539381733819611,0.3821650169772962,0.3060483033749033,-0.1915568268519695,0.7779032952264312,-0.12627870533640057
1570,-0.8788224986854107,0.35891758162244464,0.2790586924415182,-1.1907462458709812,-0.30238780100416063,-1.034438463417376
1580,-0.8402345705289618,0.39938670954872724,0.31936375597026617,1.0412538801687685,0.6291203071026474,0.15631524032151609
1590,-0.8569556999836118,0.38419454406520254,0.30242532999496724,-1.0638199056653646,-1.2060532367259666,-3.019306398330876
1600,-0.8331820222491128,0.3968757039077587,0.31787309474555103,1.9048186461791086,3.6253016410635954,-0.35945927748726625
1610,-0.8605216926568202,0.3713244304115141,0.2962407379260465,-0.4880706540426882,0.9550469704811484,-1.0632492678838419
1620,-0.8623600541427726,0.36742220452845675,0.2923401668079786,0.677058924416346,0.9758762808292532,2.9920541126237383
1630,-0.8397203679565142,0.39251546791601505,0.31354099066877983,-0.25586409644205843,-0.35579677896214035,3.127956459664193
1640,-0.8758922822857459,0.3624700913192415,0.2820236037940569,1.9191232432986998,1.106630599442704,4.871059448770138
1650,-0.8561891476166728,0.3835090673084395,0.3040266241817433,0.11082396032339858,-0.7127348638722115,0.496839226852791
1660,-0.8650833960050334,0.3684519198986369,0.28964674922872297,-1.0758911483564455,-1.4512985125471807,-0.5748061095163086
1670,-0.8412451074921016,0.3949014823879218,0.3162253714743581,2.8212783473339216,2.4918532178985626,3.5067085938424687
1680,-0.873953545280164,0.3702399853728443,0.2803369050064653,-2.2674235700387526,-1.8608381361906168,-1.6439553507166367
1690,-0.8491754648789983,0.38592295428628426,0.3079086959398034,-1.810434967376273,-1.1973494371508597,-2.1577141898288286
1700,-0.8525969063163935,0.38140444189860156,0.3027086502485818,-1.0408843672644803,1.0739615665805267,-1.5927393732203878
1710,-0.8653416083863595,0.3671816893463554,0.29430684088237297,0.009631570293891834,1.0201530167206028,-0.677880286108371
1720,-0.8796221770244023,0.35719307765596614,0.2773047503333835,2.2538503215134362,1.3300901893201966,1.4637587736980033
1730,-0.8553718726096456,0.3812144454922429,0.3015767010250841,-1.2900581358870995,-0.002344398338044007,-2.130448254994395
1740,-0.8489684574828242,0.38962176804750015,0.3091815956585747,-1.1003864220494755,0.8670686391460565,-2.7221582081160234
1750,-0.8362358147383718,0.40000023806489093,0.31991465126160656,-0.6420166412249074,1.170320814940677,-2.75107933977984
1760,-0.8393904704360124,0.3919667129337106,0.3198827629033247,0.5481098284782067,2.03369056202328,-1.5619540845495028
1770,-0.8463227954814503,0.3815263581953596,0.30799852540150163,-0.6812506513579164,0.03439356476198369,-1.684373280344346
1780,-0.836495870706077,0.38504439214891345,0.3141982686054716,1.6006003255826629,0.17899844963581124,3.9308790632753423
1790,-0.8434993740315069,0.3889658879211042,0.3087747910147784,-0.743097649167078,-3.0309495807499562,1.6776608783472535
1800,-0.8348277929916634,0.4074703100713801,0.322625477124693,-0.432779177684053,-1.156044579542939,-0.08657091497492359
1810,-0.8644937761079892,0.36916582919738483,0.29060116882616105,0.2634183279237894,1.4932946030662309,-1.8817305476023465
1820,-0.8484895025166962,0.37594645347376265,0.30369643023923415,1.6528106692256588,2.4090146396736403,-1.053050810021344
1830,-0.8713883248239241,0.3567598110071098,0.28121391871382656,-0.3255006803036421,-0.9310337145102359,-0.19537886682515382
1840,-0.8270152359213134,0.4096980042091669,0.3360662622839544,-0.7487017496941879,-0.5180690711237737,1.116670049249416
1850,-0.8321264045343827,0.4085101070439875,0.3310860861983105,-2.5072832597257775,-0.6790614294440896,-1.7815239036104393
1860,-0.8697822127400169,0.3628634897135654,0.2841106598816732,-1.073644058130784,0.983539334418897,-2.392638602204772
1870,-0.8477435488485805,0.3769814269525856,0.3074486408454766,0.34945352346780933,1.5542977794665445,-1.6846104376945676
1880,-0.8473747400613051,0.3762100260945574,0.30708041728594004,-0.26736585424176795,-0.6430321250788879,-1.8719031020665953
1890,-0.8414445671197194,0.39076777165288623,0.3123588696748197,-0.34119144513388444,0.29332049016882034,-1.8695544730394662
1900,-0.8389053896032039,0.3878577643185855,0.31471796880276304,1.1072996985197858,3.0425405246250508,-1.221727525788264
1910,-0.8623533279046136,0.3607624864423451,0.2932528134597525,-1.4853160405395758,-0.19059689951399217,-3.8515839764808275
1920,-0.8905243333133713,0.33269133421056374,0.2647067831947783,0.6234798893822456,1.001182315866222,-1.4099316020245445
1930,-0.8535524771920459,0.36466474857320696,0.3010359508330377,1.7690854759275156,0.671739846330622,1.9432509400747033
1940,-0.856403130882319,0.3694562289238262,0.2995128276706272,0.44179034245350524,-1.5113621571318392,2.868258281624925
1950,-0.8322658658071542,0.4000543253397432,0.31979230468481973,-2.1717352155718546,-0.9195479649057363,-3.7315650616812466
