time_ms,ax,ay,az,gx,gy,gz
0,-0.9390144035365475,0.753103948674043,0.7567161235589426,-0.15625903893195403,0.23452391362575617,-0.17135399614139896
10,-0.9571005688668548,0.7374058680284222,0.7447034414130466,-0.3890654061315206,0.20910652798992202,-0.6837818224419274
20,-0.9420488485558782,0.7487378153497793,0.752268840368145,-2.885914740082662,-2.1075132686148113,-2.848527792339744
30,-0.9439407547678018,0.7536162443950891,0.751870687280949,0.3186155003793647,0.7286727343456155,0.2994126668150856
40,-0.9637667612451075,0.7293924100529733,0.7350837980222101,-1.337036335504155,-1.2156975243273322,-1.560790710782145
50,-0.9758841790547711,0.7200558182710233,0.7217270814971163,-0.2903391786470368,-0.7191297457722734,-0.6509058875631419
60,-0.9564648253529372,0.7371807598079565,0.7339391068919424,-0.5350205260695958,-0.10198631497592192,-1.606491213985581
70,-0.9341195843866988,0.7572544139303903,0.7594305218122934,-0.8050856002611164,0.13552388461240011,-2.143771855662567
80,-0.9496103554080032,0.7435178921276955,0.7468664640116208,-0.3904684299916544,0.16363958056164318,-0.987394651637368
90,-0.963598425643772,0.7281170445191674,0.7356594885931889,0.039553846145957694,-0.33867129365849713,-0.2197234494917124
100,-0.95697877305136,0.7308800930634297,0.752745091903408,0.6186620450181812,1.5765177260162133,4.088210407968775
110,-1.0025343286263384,0.7099364758160172,0.7444825946477258,-4.913978692720527,1.516934808635319,7.9657923617313475
120,-0.9909593941366637,0.6936039302266015,0.9321561007666557,-2.125084913868669,-8.535283095266868,8.330035771823969
130,-1.0767995262973442,0.6740360155882928,0.9737041543539561,11.193898507886885,-27.3479009124636,11.9167663795517
140,-0.9957947484412348,0.6234858773939841,0.985289792597075,27.305529410796865,-48.9784771558083,9.306692738431499
150,-0.8556072612392321,0.6836529340698235,0.8162954114668961,43.26125572412049,-51.15044175772046,10.329322754831175
160,-0.8379828253235949,0.7954365190442727,0.7800968452976045,6.425681522963714,-25.33690878064609,-17.502927813985405
170,-0.8790777602463069,0.8212653392710415,0.756924372852272,15.02399224296288,-20.111240665407376,-13.11360115480908
180,-0.9139833211544945,0.7773259133335697,0.8194939382949702,12.15027041838162,-19.761218258228045,-16.20452028726944
190,-0.9121393407581946,0.8011814449818713,0.8121631106448238,10.687163186319518,-20.4274576174493,-18.22364338926633
200,-0.9402772850385904,0.8051144290826716,0.735732507016295,7.31095488859718,-16.563667619335927,-17.329717689034403
210,-0.9054871587458975,0.800831851644925,0.7477691115271874,-13.669272960211396,10.607517024083068,-9.177222585345149
220,-0.8790139601772964,0.8066318249111677,0.7341739415676726,-27.140587694738077,21.360288320122688,-12.702850109474753
230,-1.1479355574254684,0.710046843371264,0.9787545539387504,-16.76857720061436,-24.233599265029618,-21.30415773236806
240,-0.993099912913057,0.6853482008363972,0.7495217801256248,-0.43260332172740457,-1.6658932678107994,-11.364737985319673
250,-0.9199463655241598,0.7034535955823177,0.809847488908448,-6.172325537862712,-5.606527538000275,-18.023982750331214
260,-0.9184604493626756,0.664710228111373,0.7938393801363794,-11.8187844888978,-4.588712565896352,-12.812256027301778
270,-0.9023855049129926,0.5990272065113793,0.7899218389150413,-6.494218282073806,3.98262719707846,-0.7891425901650662
280,-0.9475175558252431,0.38675825143689574,0.7387029718920406,-2.8822671153530477,10.943631655924952,-7.156074341001564
290,-0.80908677247353,0.07233149257122307,0.5032723878412471,34.84382689830886,13.241275057846334,-34.33920130901151
300,-1.0816035484472228,0.8560993482606307,1.1758824121867468,10.313162872358982,3.3268011238678734,-32.36422237524099
310,-1.0823913354672523,1.0324055380294106,1.2104421785622246,33.486825968429464,-8.1779820586621,-30.105889750968046
320,-0.9399673715482328,0.9796899155432366,0.8635824058648757,25.49524015137815,3.706642258164253,12.913111185971339
330,-0.9496632158798649,0.866032381238866,0.8407180241573516,12.850421666834201,4.422690574051452,2.791455173883826
340,-0.9054453934062627,0.7671623358241695,0.7934507122176976,-4.745763862042168,0.9009560955672475,-13.94082913973287
350,-0.9244941109510352,0.7684177794704753,0.8072712925223086,-9.081092221984907,-2.865538133008343,-12.176841821905866
360,-0.9218301497023947,0.7056179359005218,0.8063805905380541,-11.726485390427891,-5.832346456119277,-13.4032623576877
370,-0.9340499445449447,0.7863876246522558,0.792820083748765,-6.897037643846049,12.068617343410178,-0.3139741660570994
380,-0.9594188912631554,0.7853762920348918,0.7238026038077422,-4.361634231966981,10.843695774626594,2.5844492159641748
390,-0.9442558795014796,0.8002819749161657,0.8333990852189254,-7.846921626644898,20.09498212672225,9.006714510071035
400,-1.0158087722066262,0.7538379224985843,0.5394873850805886,-4.99709971496592,14.578943137812244,10.172633399966843
410,-1.0054760616051268,0.8268174113596468,0.5266401044244139,-12.615568969272857,11.802139777107714,13.14843352962954
420,-0.9396225650937302,0.6237424238430642,0.9015666609817988,-40.0760589350065,14.04134726513251,6.31622333624395
430,-0.9105110270414054,0.6959914737790369,0.8764392518646782,-15.12480829461356,8.297785214847814,-2.482511206041316
440,-0.8945412134251503,0.7120828352255757,0.7598862818574968,-0.4409222699094961,7.8045405174031774,-0.8934429409573168
450,-0.8951314661020412,0.7847818095973579,0.742014251327477,6.537973302972431,19.06790051735834,28.472826752539387
460,-0.9791796127899227,0.8114135407942842,0.7033219669406003,4.298514460687004,16.297956380745774,25.706829222649034
470,-0.8932691993654482,0.6598566419190071,0.8646874201803217,-1.804633732702543,5.4142447229551545,6.466529783910286
480,-0.8933061245483671,0.584468300501051,0.8972039098983673,-11.716362561126408,1.1887039239294208,-6.253367502315404
490,-0.9206903221779364,0.7080781597277358,0.8017650252036094,-1.9277006729543344,0.016570663495421023,-5.327084372409583
500,-0.9484909444051038,0.6750985052015245,0.7623789025408795,2.833825752838358,3.316604240169476,2.480712561709863
510,-0.931444133328608,0.7091447148224178,0.782463787056515,3.1714112971674187,3.823447336526007,5.711417253305516
520,-0.966024495586046,0.6821261719191254,0.7446311500125686,1.4736651332050552,1.4691323306681283,4.6895336189801355
530,-0.9758256943175815,0.6528277843230338,0.7387073724393526,7.754768643752369,3.267124457906515,5.8797165602726125
540,-0.9251575465544569,0.697778648568182,0.7912457550042901,14.31897378509517,8.833282718320156,11.051570503273993
550,-0.9592326425862824,0.6610418541865098,0.744621981122504,14.638014374908604,8.986696867130044,11.562788849121118
560,-0.913845892842088,0.6069348732631903,0.7710541119562028,9.486042358291277,4.409471691829258,-1.0954904718041245
570,-0.910336544867987,0.782896020320206,0.8834313816203037,19.427696652591653,9.1598318435252,-9.551859880311147
580,-0.9980710316580781,0.8776464567255661,0.6842715042099686,30.293894954041548,6.744579146710521,-2.9320645104999694
590,-1.0741925619198627,0.9152723509955508,0.7809053873736558,37.55321667783241,3.977570677521968,8.101321311385158
600,-0.9580872499335605,0.7405179601885311,0.6936883850037593,10.96327424209525,6.363623303628636,1.1386647088816622
610,-0.9553280925635694,0.7873634257725534,0.766075670256922,14.361861996896256,11.442665867788142,-6.423145594797129
620,-0.9058967479553509,0.6730628787055924,0.7522081026532393,-0.28548095092388803,10.13298183692941,-15.635151654155603
630,-0.9409692049203575,0.7729391357727323,0.6220277450262756,-1.3379579747350512,13.500424432705458,-7.737501931747148
640,-0.9014290617169715,0.8290500656087777,0.8873510482100292,-11.072339227336503,9.757497527584441,-5.30632484706083
650,-0.970022527153256,0.8330470942348115,0.7129619316830311,-6.1716409869081925,12.289456941696882,3.817372417427977
660,-0.9945140567098706,0.7369894769531279,0.7249844068614608,-5.660972211548713,10.22622693848802,1.962064188310797
670,-0.9467913307551833,0.8674897521370953,0.9574113272933751,-32.426552354234005,10.044554371559542,5.5302385696661185
680,-0.9186302929562391,0.7513864256957545,0.5724809811327074,-13.35885423058087,7.920560973178318,6.161983261632157
690,-0.9598116691001267,0.6867651201700095,0.4851969490322386,-34.82743478870639,1.093448254843149,6.3174491103456205
700,-0.9947377483092495,0.9986321920589404,0.5768250659559636,6.668268735311683,4.923033669164392,28.32727064163305
710,-0.9763565243887533,0.6828518416042757,0.8592567126654875,-17.122048865888008,3.9143568756281013,13.170353531999757
720,-0.9767085539405808,0.4894259641139889,0.7647908589640435,-44.133458041249746,-1.1043782627162986,-3.3392523693123657
730,-1.0345485252475246,0.6368767303948539,0.5990278267280338,-31.98843974014387,-1.377422245724184,7.7781838144659465
740,-0.9387385425662894,0.39492266409384197,0.7372845117648984,-17.086227030438046,-2.1044452536599003,-11.043945378299465
750,-0.9758125447479772,0.7442110377245342,0.7275899058734561,-5.584811272196875,1.6082892018468078,1.8484204675036153
760,-0.8820015915468615,0.7779249245133266,0.7460508291585961,-2.5490771944432726,-3.4399115102025433,33.582284207392796
770,-1.002975714906565,0.511041454326132,0.727314362393456,-21.26099695803648,-6.511930455738678,-4.447966608375431
780,-0.956763687652449,0.6418226248510661,0.7150038022186304,-6.440040246814245,-0.652451933548571,-7.246196197340165
790,-0.9350109594451029,0.7285642883085401,0.7395673414027764,3.578273355490812,1.5140516617290967,3.473228758765007
800,-0.9476826896810833,0.7510498650801756,0.7362566994178393,2.706906814615045,1.3814651429551237,2.4223781961961635
810,-0.9536482655537973,0.7382584336492993,0.7312112704270102,0.06448557325315207,0.35382993315188005,-1.714152831769106
820,-0.9753897201785839,0.7070568600908336,0.7014173667645803,0.009882811703934569,-0.5982552260206199,-2.07006989792901
830,-0.9322750557602608,0.7437025616246444,0.7577821044495491,1.651602629815209,0.22887398692183858,1.4023340011901342
840,-0.97162512272602,0.7096513241404208,0.7224283276828317,4.650256672764292,2.7279023910834765,4.889399859624628
850,-0.9711917804269385,0.7168259815028676,0.7146630963949845,0.959046553667094,0.8492572993822778,0.552508249348153
860,-0.978698889023558,0.7096366884144346,0.7044372056476929,-0.13701910637950232,-0.4104065814751603,-0.006722625560330098
870,-0.9634560926287443,0.720964997274219,0.7176703433429853,0.5277454331953257,0.37743347804403427,1.6779319779159467
880,-0.9705268835420588,0.716440284909679,0.7178656454075568,-1.5102642763662302,-1.6580452594317796,-0.584816642846981
890,-0.9680624801954014,0.7269646867331415,0.7194491944853275,-2.3719530293225324,-2.2508402383259853,-1.397079087778409
900,-0.9541219603461782,0.7429304777833194,0.7327945159727418,4.750108380816909,0.795688017908224,3.426574404296371
910,-0.9699580697901079,0.7402674070875058,0.7199618873777808,3.1424253955900134,-0.22199055625097153,2.5095517847109896
920,-0.9746212649403235,0.7308073357028951,0.7130519612444746,3.116072844981658,0.8563180559641849,2.6417970758417324
930,-0.9578623209832443,0.7438323604875665,0.7294579529642752,0.8101216118019049,-0.03668984839610434,1.107983946237428
940,-0.9716864399935863,0.7262954030445289,0.7143458826407563,-0.9626989875362553,-0.7034911079018027,-0.1262606226084131
950,-0.9745404768307052,0.7281978661689377,0.7113407345250419,-0.788166178159467,-0.6487915018804058,0.08846576670933182
960,-0.9491738825955425,0.7538713211414996,0.7302127248637317,2.2863287908547063,3.083653221383848,3.1903659861574125
970,-1.000134732855517,0.7038438356579133,0.6800286306563976,-1.6387059466913616,-0.271231551986871,-0.3938170791785496
980,-0.9657969364460027,0.7320237717874107,0.7179740354749302,1.4017268652680852,1.6855636599208148,2.0486548084229863
990,-0.9606387466426403,0.7417656281676873,0.7230434775632392,1.3391800137171823,1.052225794395922,1.874059692920647
1000,-0.971845785162845,0.7305085280546937,0.7130178030938342,-0.45373020583890555,-1.1128004857173348,0.1665437848292597
1010,-0.9891570360632035,0.7139346773775561,0.6909343434538346,-1.2461072965232638,-2.369205107788628,0.17607493652533135
1020,-0.9761973129902362,0.7318503132138997,0.7058876459523635,0.37660841534987255,-0.09073752010104946,1.199426594792266
1030,-0.9741568042035845,0.734172121397102,0.7185944593170446,-0.5546322124451462,-0.5815724813494456,-0.6516610854076424
1040,-0.9687994616237948,0.7334485042357135,0.7125505263769666,2.252407335413558,1.7255163222351075,1.5634845286721597
1050,-0.9377176045014579,0.7712312831031991,0.7476294186403943,2.0090990156596256,1.9826783984215977,2.2016075737689036
1060,-0.9871469696827803,0.715479839926598,0.6960800824539106,0.6531989548048248,0.31899622746220113,0.272932576011365
1070,-0.9599471095039657,0.7421747119037314,0.7179948096458141,1.6346458654970855,0.3462375830170863,1.191602699625669
1080,-0.9814651818586368,0.7181456499188822,0.6997326765986417,0.7048825111133608,-0.692377457199935,0.28047772455097264
1090,-0.990431521005663,0.7150196149118359,0.6913573824098329,0.8320304309482568,-0.38382394319584856,0.9208843545857298
1100,-0.9480783437583032,0.7525298684966968,0.7334393533255954,-1.2573807253763805,-1.2647726549680738,-0.541653449292573
1110,-0.9565443752130144,0.7448559226291158,0.720114702543485,-0.19036929889076792,0.1697489560638363,0.2779330152543852
1120,-0.9789854502675197,0.7316424857194945,0.7084830180066484,0.1672175198570386,-0.11036252220100151,0.23598032321591222
1130,-0.9561371648297924,0.7535664238936933,0.7230980706927765,3.4011435207893213,2.765695644154431,3.233661379977253
1140,-0.9438910315327091,0.7659697686043463,0.7370709617776809,1.4137758299698444,0.30545312501842864,1.5848432114794853
1150,-0.9743147216700205,0.7375535758280665,0.7053725999197668,-0.9639704510867033,-1.4243775559311187,-0.657578987200472
1160,-0.9675205881360033,0.737278910762174,0.7108716398772589,-0.393186745496092,-0.30975231960861144,0.014319172395484192
1170,-0.96830698946501,0.7400347367475576,0.7100333019322999,0.10806846074010579,0.47133674195127373,0.5216608849519044
1180,-0.9484963984457565,0.7696433119248349,0.7347021980176494,-1.8923931811952341,-1.6213752632830938,-1.6013260942566558
1190,-0.9495171790187301,0.7592905209308853,0.7283903505838474,0.7151970513570944,1.4527984928017261,1.3757436592704229
1200,-0.9556015569533178,0.747473106187325,0.7302249840928762,3.1223927934950693,2.334993534925427,3.20201424750597
1210,-0.9649853760528274,0.7400238704129442,0.7135120110608554,1.4220482622430755,1.3513460162040851,1.9440566217894737
1220,-0.9625490690234181,0.7441077608252484,0.7196855524529605,1.1077263134822093,0.8521481962118538,0.6742633101968375
1230,-0.9866765502015494,0.725842638589508,0.6960318320461528,3.5589586895479446,3.9510953872837224,3.0673505616734884
1240,-0.9559266154872011,0.7561328130147046,0.7307652876992817,-1.9827812551656128,-1.2344052611931078,-2.2676944256689744
1250,-0.9486576688494907,0.7567869018287461,0.73742594349426,-0.6521875301572149,-0.25403649630347325,-0.17274758371820875
1260,-0.9652675571892185,0.7367696107011564,0.717925961761469,1.273437991069863,1.4550886776247434,3.023972140707886
1270,-0.949188423050105,0.7645477224958656,0.739546921162272,-1.6069439194689839,-0.5018485104347709,-2.1947777341901524
