time_ms,ax,ay,az,gx,gy,gz
0,-0.8281121247158114,0.11223902010336778,0.5295459785183981,4.339354183912715,4.287127385838159,4.961707617745521
10,-0.8485364850016487,0.08824364487879531,0.5099331244031144,-1.2383200721846042,-1.7693576007284442,-1.5457247702171135
20,-0.858070957856364,0.07566941669603777,0.5077104399722094,-2.8499100252487795,-2.620159711865303,-3.2922020642786882
30,-0.8522195778867248,0.07972602689869777,0.5082469615836462,-1.279705646643488,-0.4596356160100895,-1.4145841634754135
40,-0.8548107509847298,0.08178390033173102,0.5035037854089169,1.9190588527178367,1.8651141040192663,1.751488634679654
50,-0.8376738835567061,0.09447378132081628,0.5225535629666963,0.7544029514217703,-0.3625245136508171,0.3020641991504703
60,-0.8413518248268126,0.09015448564469192,0.520181920465308,0.858469655717051,-1.676976984235152,-1.1299730488996347
70,-0.8630703053406741,0.07068549838367358,0.49623971284702223,0.7282833210521126,-0.6160661105441598,0.06372811520221178
80,-0.8364169157577125,0.09854280027111324,0.5221273855183204,0.10746693747250802,0.38564927797499643,0.9105551058172197
90,-0.8617325917615687,0.07281428026877114,0.4989492472564894,-2.4117322940960704,-0.7128483045437918,-0.6154808540060669
100,-0.8158699081103356,0.1176010772892872,0.5428348127723465,-3.2810343314560897,-0.31258433690030474,-0.5615948819899941
110,-0.8603807775682779,0.07482001337092359,0.4967559768404385,0.6426667636386192,3.6306623089138577,3.1229856593752467
120,-0.8527569038829271,0.0841961145873055,0.5070680795818567,-1.9733484373400054,-0.004227911701938203,-0.5399461868983093
130,-0.827077775182162,0.11205019651529875,0.5325387290064256,-0.7771111425282731,0.35439861425975827,-0.44520409432657027
140,-0.8154029376432836,0.12513153132913318,0.5404030394595118,-0.20718947785678676,0.49727172310454165,-0.925008063953877
150,-0.8698910176790207,0.06363029693723468,0.48741824155410163,0.17056040239626213,0.7454618365997703,-0.535492344099387
160,-0.8255669382647005,0.11066421221614543,0.5425990291264975,-1.6478304874648044,-0.9792272975730774,-2.0849559460471956
170,-0.8274178366217166,0.10302529395840121,0.5378304367360558,-0.5413281073590659,-0.19968085901686722,-1.1070508642003356
180,-0.8473825371014555,0.08279226978564219,0.5123835182265356,1.1407562634310326,-0.22003508237151068,-1.4185837819902498
190,-0.8300941267559471,0.10269124521380205,0.5371261027713199,2.9548113059595025,1.6886012942552915,1.2773441133039602
200,-0.8378093861656184,0.09696410777468328,0.5249502311482226,2.9971568437643175,1.5950196987502405,3.10588776691094
210,-0.8411004655472158,0.10408545167601516,0.5422321622437484,6.205692318796402,2.9094151980457683,5.213466313850441
220,-0.8909251158939866,0.09341454388884078,0.4885600587275967,4.200680773028768,2.699290942109701,4.831667288262228
230,-0.9174983361621649,0.13875922813193378,0.5480959380164979,11.201749789052938,7.123365567985221,10.22858023851825
240,-0.8910535231944745,0.12165386846247342,0.6521892756449287,9.746577268622879,-6.214118287989326,4.218399672126804
250,-0.9762186163153391,0.06837320984780647,0.6301798004613548,12.97583491853458,-27.585331774560267,2.257255269752212
260,-0.7336626618624067,0.08568562439132123,0.5566499789721396,10.833975383843374,-38.67454753970622,0.5097609121473132
270,-0.6681692630729544,0.04565997178340696,0.5358639961975239,4.311588224124069,-36.79522003488543,-5.2662876102830145
280,-0.7063419726728237,0.07956191709411158,0.5318110710170032,0.5458002881126023,-27.570727891026888,-9.835127445368991
290,-0.7378921102799344,0.09230508112525293,0.5356184157306604,-6.801707508730493,-23.06886527528176,-18.5176795646826
300,-0.745283223623103,0.10365107256710054,0.5661781227404501,-8.765607138735703,-21.05279070460305,-23.63312391751084
310,-0.773380847778481,0.10247438017900978,0.5545724727409217,-8.613852373579148,-20.07210212464363,-23.497660118380804
320,-0.7800072842666093,0.10153226856711005,0.5582919649870581,-32.85432047724892,-19.209868418031043,-24.783323926544636
330,-0.7989550200164346,0.08989670398307278,0.5831104239633627,-53.38095385233469,-12.212789527740078,-23.8692940191234
340,-0.8452274090162826,0.11015023974149596,0.5926072648676611,-53.72912191107877,-11.461038549388077,-25.00996553737843
350,-0.8854620438522492,0.12050473034696635,0.5274511636243077,-47.655581886063345,-10.955990722750157,-17.027816443590368
360,-0.8046906913820374,0.11389860506851728,0.4969781158568903,-20.843836702569657,-8.780601066198653,-5.591195645764174
370,-0.7672623837764334,0.08741800685188374,0.5317054442352437,0.4690615385428176,0.03128749897847616,5.349878900859218
380,-0.7919667723964314,0.051466387359502194,0.5186457140294154,3.1852768405763463,6.678452166235051,9.154739876713528
390,-0.7782325080549549,0.1974254644066796,0.4653633216716728,13.403019407102777,24.30367906576077,17.172282921756775
400,-0.8486989021158272,0.09818458015713047,0.693569235455245,6.360881486339117,21.098301600244252,16.751454690117622
410,-0.9590605341195787,-0.004405270257636082,0.700231384064098,10.244494123670703,-1.8900997288767676,16.3178007920262
420,-0.8652956578698796,-0.16538439711185388,0.6214964341300382,16.21860309424388,0.5931559537173676,6.043428534594504
430,-0.8006408502935874,-0.08668344646072997,0.5900041742554367,-9.696352778173935,2.7861017628621747,1.9683875525713486
440,-0.8084657758440209,0.022356083574452387,0.6226600253436119,-3.6946120151863004,-2.368777357771969,10.033816113020112
450,-0.8046457802953431,0.004940667233354214,0.5471569285525114,-1.232793429490472,-11.588508604395063,-3.025362968410737
460,-0.8155409601291734,0.13213280253176213,0.5107860608497128,-1.4746363775343656,-15.19004454232479,-7.988631095402755
470,-0.7532882320431304,-0.030694713320449186,0.5840270226122956,-5.643810672578117,-19.16082606253575,-14.184567653779059
480,-0.746029806926886,-0.037903526007078955,0.5701803770534293,-9.35526468644774,-14.043556645510453,-12.237069747779282
490,-0.7870508042272261,-0.04756855886251228,0.6099386207526022,-2.52076618316622,-17.236524012010424,-17.575783937742468
500,-0.803567576215796,-0.09252175393373219,0.6359185133861441,-5.5117982851360035,-13.71807717083483,-19.86866055347303
510,-0.8389518223318013,-0.14838119983865455,0.6401077929101479,25.122367300198558,-2.555335619089993,-17.72699692397461
520,-0.8242832216809364,0.021893995041224704,0.5649577061677858,48.401535691622584,4.868318166042437,-19.31373792129672
530,-0.8351733798672197,0.12391263615253033,0.377284398799276,21.746553235812428,1.6004854050447679,-27.87159093540645
540,-0.8712755109344522,0.10549741522580103,0.34970052869439283,8.981588640376934,4.288951469721078,-22.653711329379536
550,-0.9286024982135889,0.19360728507354782,0.368044538424903,6.4439794508521615,9.249243702881207,-11.336789465684602
560,-0.8778844780309049,0.20662256393105896,0.43982509779782286,-0.6861517752339839,12.340262133387267,-7.364758483281217
570,-0.7701512417064335,0.03891984863620716,0.7990948963850291,18.68907359565738,12.593944554030042,-7.82912575455398
580,-0.6309184004725533,0.023364205489408027,1.1262723607835734,20.65704188793162,24.999188032346353,15.306975871253215
590,-0.8387590164673779,0.09456236981314857,0.3774451263609259,11.409111002754438,15.467722847467291,23.682608494905384
600,-0.7600187230533988,0.27730449931564216,0.5033810250974269,20.191643898366085,17.870331098287163,31.49225629294674
610,-0.8269914125275143,0.07617305747672518,0.7919980780280104,4.026765727499196,14.089157165131256,24.132231804214932
620,-0.8588606289236992,0.2205849655179392,0.7956293214438401,-26.607358854261918,19.54678004848958,27.203310633273276
630,-0.7271404823924859,-0.1105237083976486,0.7722756065605058,-12.853754420741362,12.43324209292103,32.90943814415141
640,-0.6970573173063096,-0.06402222907739977,0.8816190392921458,-6.203965357292577,4.4690354045239316,29.990512159035337
650,-0.8191217287631064,0.01903837731336626,0.6613448008518459,-2.051666531890624,3.9191284238995667,24.013884392909446
660,-0.8176299450102196,-0.027889456176262754,0.5754780014137721,18.727351218191046,-0.351306563568607,17.441297333794687
670,-0.82516747491062,-0.15987883460402855,0.5595691585779078,-13.634875248332946,0.8975186016027311,0.283009713449721
680,-0.8598111331243788,-0.3322014567494459,0.5009799167188134,-4.797707134605671,1.4802090114349036,-2.2003574780096384
690,-0.88120453439533,-0.15256952843901395,0.4845336379790957,11.017675380749399,-0.6849120908599036,1.879742727874129
700,-0.8272286901544095,0.03134877892518463,0.5497277867683875,27.490837466985344,-0.562531139139831,8.600169272518466
710,-0.8506209550797296,-0.015693663027507073,0.506588473302766,22.074719642785354,-2.2543297943634357,0.21157549584241814
720,-0.8349069500861834,-0.07368558643695815,0.5018511425772403,19.37684741963126,-3.9647182423758407,-12.27601184205109
730,-0.8184874866921118,-0.03511678835332228,0.515108002680882,25.58697729854474,-6.791296750546095,-19.8103621744626
740,-0.8002835465559885,0.10367815009660013,0.5413652298029847,36.58037163904674,-4.790339934535385,-16.697524112094307
750,-0.814554803483272,0.26142162328014223,0.5446146423398358,40.40365123186644,-2.1466807591794224,-14.389257770324628
760,-0.8412265567385893,0.25301800205911573,0.4812556540031376,28.31478026202443,-0.013854841356920833,-19.75645681498813
770,-0.7814459679472333,0.06698778840473808,0.4957412688375581,20.8054241413055,5.817540222386342,-17.805414924501992
780,-0.8269704199650367,0.19274403096384504,0.5547555835169501,16.47518723360619,5.231359307355531,-13.859266719670545
790,-0.83031925281963,0.20831506777729902,0.5104920048340841,38.37078145030162,8.702935610423253,-6.6560840748234735
800,-0.831947134106269,-0.030840629678466982,0.5918335493356378,24.016304614632446,22.638877261259776,-11.996850178080244
810,-0.9354270528941943,0.1461422713214604,0.25736418341023926,11.848367329887742,24.567477627130945,-3.4207631762396704
820,-0.814465092616831,0.153443335404307,0.4384740791066097,15.666138518599666,31.206831478268725,5.693108357510157
830,-0.81789340560286,0.1359172397968002,0.6276078521653328,-6.020868006128298,9.456806003320173,14.524059491663838
840,-0.7488946617992854,-0.016294395031227524,0.9245185446152567,-22.16039543856215,8.766817016175551,7.055878766257253
850,-0.8058346738296894,0.07351611313301797,0.6234880173564925,-12.536736966218584,9.919449940962686,12.903022345425317
860,-0.8039094705171544,0.3444922122865202,0.4610910551595899,-28.260210577932305,18.648607068251884,27.11202279991482
870,-0.8259653137724846,0.14406369428586466,0.6339412196110022,-27.51061817384419,5.059843714322861,9.874447425561575
880,-0.8333513334720082,0.12030134620502245,0.649872155533962,-19.049130019268144,1.4581199430922493,15.545103151407567
890,-0.8142863834194176,-0.08074855769166836,0.5437065504475699,-37.67827113378316,-4.956301442396764,14.057418302802361
900,-0.8361852649713906,-0.10365661791882488,0.6007049770171619,-24.51979464730841,-8.835998962071796,3.0065641790632553
910,-0.8916994489212805,-0.04195414292249277,0.549672518122309,-6.761132039209095,0.885507355767368,1.533713421931552
920,-0.8720064342771477,0.005559887226414364,0.5193031339947245,0.1606735235642675,-3.5053509268848417,-3.4703582704330422
930,-0.8488718283470965,0.03625797625990263,0.5177885696900634,4.839700237052426,-9.8207176137734,-6.058475613183823
940,-0.8306393072368934,0.11070382948733265,0.5178016816632952,7.687497668463079,-7.388754723655009,-1.019358279059405
950,-0.8441270856067287,0.1276625665189143,0.5075604605301158,6.565513537161872,-5.54060851993369,1.6080930404703606
960,-0.8638584817928497,0.08899622349950989,0.4990917636027767,7.174240957160399,-1.4140162469023414,2.83694555368104
970,-0.846831538197446,0.10685314013231698,0.5186071498183641,4.039018634157705,-4.958513433868186,-3.2094147612860575
980,-0.8528097637898319,0.10775651298903287,0.5148436983057773,7.720929776890516,-0.2603807373863421,-0.9080164755347788
990,-0.8558189867115568,0.0979259733842044,0.50821392581348,4.333986365671818,-1.706067537254351,-4.37496376065738
1000,-0.8262190265869367,0.12520133851664703,0.5419746908744414,5.0602139363276875,0.89524085450691,-2.5921128879467474
1010,-0.8298244306543644,0.11793546926609347,0.5261660683989109,2.792291681754768,-1.4285400250756006,-2.9090377009338364
1020,-0.8427237417584512,0.10187033302661413,0.5151272881310007,4.825086178104071,-0.6187664293261044,3.8456894732120146
1030,-0.8480426843598016,0.1118022286304235,0.5122290185851937,6.408853169409446,0.6568262378242216,6.005666514710578
1040,-0.8592133781851321,0.11088596454473024,0.5168830354332016,4.801554376115603,-0.9123728103428281,2.1045738148507973
1050,-0.8471785086848728,0.11799019400042365,0.5060039127788759,4.0793607730214525,-0.8463108231843224,0.36271110727126654
1060,-0.8324150430418246,0.12675864901484485,0.5231517598878628,1.6165644867887279,-0.7934436406337172,-1.6228378479936858
1070,-0.8417591594956646,0.11053306180777979,0.5293443442298292,-0.3619410252085355,-1.484689901513918,-2.523061515683812
1080,-0.8020790567433596,0.15194374304433897,0.5622063345506239,2.094557825867508,-2.30909316769047,0.612344505203164
1090,-0.8193316339454897,0.13827765406459172,0.5348595636094289,4.3639275126368595,0.581109877147795,2.8015915497224553
1100,-0.8232661956867381,0.13418889877308768,0.5355179711041057,4.373090848370342,2.281003255814264,2.3194934179182773
1110,-0.8127240302411891,0.15326659557214523,0.5461702871279326,-0.484825018601333,-0.3932342606110987,-1.9790933074658401
1120,-0.8255629131693172,0.13878549587446318,0.533297599700075,-1.9586883821741425,-0.08331559545613026,-2.619947812356748
1130,-0.8617268956837385,0.09642539623258368,0.49972209073419216,-2.6998818405133895,-0.487906969931556,-2.583890099582972
1140,-0.8339599962756237,0.1231701637796723,0.5232281802325734,1.8518640298952689,2.2472485051038356,1.0927764231835002
1150,-0.8583564318950039,0.10294951402948216,0.5019678554648744,0.10902788031908939,0.46182059005622994,-0.9189868547627333
1160,-0.8600810259328243,0.10131707599144354,0.5060208041253048,-1.4294056321375566,1.0001738220513179,-0.7896573436738534
1170,-0.8038864762462303,0.1490616153992086,0.5517495479616421,-3.3878798259741867,-0.5412130386957311,-1.7061535019807959
1180,-0.8396936421749223,0.11049048236803856,0.5149347624799235,-2.8877456162231527,-0.4171089163819378,-0.7850535431635569
1190,-0.8479883126373085,0.10264255251396383,0.5175042096444913,-2.8888786169524496,-2.014919890484032,-1.5275988827326386
1200,-0.8160274778165952,0.1319655456793305,0.5434009887869901,-2.8488504305864333,-3.573776209177826,-3.5728504598421837
1210,-0.8174889277573272,0.1433910414919946,0.5527911580713257,1.7113483949398072,1.2053229253543591,-1.1365497037965253
1220,-0.8293991599598951,0.11861803276236955,0.5330768092405624,3.225728314149322,2.8776147306823017,1.1841717296972756
1230,-0.8317740383217063,0.11120800638354952,0.5279363093320099,3.2047510058484665,0.4507802543804923,1.5660574720880727
1240,-0.8651300535208151,0.08619239345961978,0.48976873311648955,6.819941174956978,1.229601171033449,3.138724141175752
1250,-0.8507633665521508,0.1020074100846525,0.5078249780390731,2.121379552320077,0.19040404565109292,1.6226619677145226
1260,-0.8622937581423257,0.08198690559865109,0.4933164522469859,2.2281938618304236,1.1133951546508198,3.173417885656984
1270,-0.8273050004348994,0.12992541879418276,0.5301985581453135,-0.1745614835638707,0.7847097184332168,-0.4430185078888509
1280,-0.8487022115949459,0.11227975917814215,0.5113310733480656,-4.936458294605259,-2.3276836016941913,-4.117185517033278
1290,-0.8207627508386612,0.13235974476260068,0.5402058843571158,-2.5357667499130256,-1.1525837044331797,-3.1602342717655003
1300,-0.8314020306239202,0.12336455898374621,0.5252108485684458,-0.3651788730047521,-0.36051906023103014,-1.7042841683532401
1310,-0.8410219234281124,0.1119714120941491,0.5160593096183043,-0.05967650602832336,-0.7931180225631307,-0.7340487915089238
1320,-0.8581215968067406,0.09805579346548478,0.5054507527816368,0.5087461397796796,1.1166792493225222,1.9579954084138935
1330,-0.8424031431564599,0.11582615989001444,0.5222784286318464,-1.813760216091199,-1.1199508389940833,-0.34597926571844106
1340,-0.8535468526413003,0.10270440001306248,0.511632129770062,1.323501677988172,1.6868309065360598,1.6741975144522323
1350,-0.8376412812978867,0.11877274856057836,0.5246881500023238,0.8999938504322583,1.0602929668448944,0.15846155508827342
1360,-0.8148488098048884,0.142073109253125,0.5431882781278115,2.5903338618422667,3.0124930339130467,1.7001542208178149
1370,-0.8345167129342036,0.11998567497009315,0.5237493309569736,-2.9362543715901808,-1.1543190772110539,-2.3575313571859198
1380,-0.8183083573709287,0.13357152699982386,0.5412620478839333,-0.08949482279281074,2.0626277903207386,1.6137015336878955
1390,-0.8286728590813689,0.12063587713887393,0.5320450719774757,-0.4369600268490488,0.1976786452876774,0.9290796419047758
1400,-0.8306839917934111,0.11851239474143953,0.5278121990599607,1.4880217651651182,1.0150495364069665,2.2115466462659743
1410,-0.8326086281574486,0.12363014270554498,0.5310472475844127,1.7976868898663971,2.5294225350286323,3.126581974398019
1420,-0.8402128491202137,0.11914033261007886,0.5263045551347635,-0.30372385591279766,0.5626437079236652,0.48878918926657466
1430,-0.8316835338775159,0.12150732805202928,0.5336187433509489,-1.903640487982593,-1.2288063334809873,-1.3978755239278853
1440,-0.811816482937527,0.14064683684984816,0.5546462546943783,-1.589542959703588,0.017456290891134096,-0.5971288018661692
1450,-0.8397014047698989,0.11365247553082129,0.5152331773644172,0.13200243297981845,1.038119089208453,1.0160389939683607
1460,-0.8274342109794128,0.13053079794803138,0.53805184410844,2.367250896812393,0.2455958643948588,1.184160415901764
1470,-0.8312889647306615,0.12194561920437802,0.5218098181433612,1.8644172510165915,-0.28576309031490865,0.6254064939471917
1480,-0.8317095935876814,0.12406183397867813,0.532493559234146,2.360738941706181,0.995979172992558,0.8858816808182569
1490,-0.8361005550357361,0.12107008737510175,0.529242169899663,1.5793406021043392,0.29236788034860617,-1.0381874778486437
1500,-0.8300094383861253,0.12157725549614043,0.5288367668780114,3.3010165290316316,2.4542165818335184,1.3403320670707226
1510,-0.8104904989737212,0.1353567604804222,0.5481083459822558,2.248433944625806,2.90307306319483,3.070163317533069
1520,-0.8553701778808561,0.09766310111351605,0.508183012865643,-2.123257006002421,-0.5872385276783586,0.06494278883804849
1530,-0.8306792203215999,0.11945265037760437,0.5259538651757985,-0.4860750621938905,0.2796456161364908,0.6392800080035925
1540,-0.8346770925116967,0.11682787708193643,0.5260562817791621,-2.5643826588723195,-2.8539838372893076,-3.590913165513262
1550,-0.8762888583353008,0.07546015280530725,0.4859593583111706,-0.8833455772939023,-1.5739067577647998,-2.660884946601807
1560,-0.8170366405880878,0.1342641487184429,0.5404618917932731,0.6229130328996118,-0.2537828764062149,-0.6809995876368677
1570,-0.8399355422420791,0.11440142502564345,0.5218741400082044,-1.0107174749877301,-1.8719994561822195,-1.7567463965313936
1580,-0.8332524356652363,0.12286542428391262,0.5297390956808434,1.9740683926180234,2.166075657770943,2.2630667031417784
1590,-0.8153284431999392,0.14055515386903517,0.5405823164520972,-1.3659077486887854,0.38459021638671753,0.1545746853841751
1600,-0.8220348094600121,0.13067681549967705,0.535548131976861,-3.5503581506018866,-1.9064631973746171,-2.336741224867387
1610,-0.8317569388466193,0.12972308145933736,0.529391841087413,-0.3759099013131857,-0.12728648386005825,-0.869175299301463
1620,-0.8243774380583203,0.1358533142481207,0.5348532051554267,-2.891734565203958,-2.017130300288504,-2.50722260270732
1630,-0.8264254434915043,0.12472601640799588,0.5365750224896042,-6.460179283450648,-3.7397558154258754,-3.827413914468086
1640,-0.8638210734359167,0.08343659319931933,0.504647723719212,-1.3514554146763196,1.1067703747141309,1.847860561669406
1650,-0.8277865239792326,0.1195426569980151,0.5362566638231137,0.8454139165805924,1.3472541480142652,0.9207787814148062
1660,-0.8357102577912179,0.11741818161044164,0.5251921270172462,0.44287570268483556,1.9257869660206832,-0.6509637534343704
