time_ms,ax,ay,az,gx,gy,gz
0,-0.8115155308043586,-0.013449986318769928,0.5247009169641249,-2.382282957924368,-0.29343344304982,-0.977170209002041
10,-0.7944673950069774,0.00382299385514497,0.543252473824511,-1.8905318934449937,-0.6660841422914054,-2.086404883479362
20,-0.7877634529717077,0.008541250054756236,0.554724713224447,0.3200586534031102,0.17976254721907142,-0.9670787209265035
30,-0.7912878709224576,-0.00040460258383646225,0.5464568685199394,-1.0376319697314798,-1.5603633029571244,-2.4202924539581474
40,-0.7937967626173316,-0.0030929177367130783,0.5443781908200379,-0.23665588112327263,-1.2945897621892184,0.07426827843245798
50,-0.8148834125084453,-0.01994536232302041,0.5218612110261264,1.056453712676346,-0.20944622033473864,1.5829206021188524
60,-0.8020459070371826,-0.0038043403573680148,0.5373788337468728,0.9114770488709383,-0.2421449204453248,0.878257101331189
70,-0.7685875008910874,0.02355576258626855,0.5677478056807114,3.085308754230556,2.227096848049487,2.3216220764546254
80,-0.7923076216610279,0.005339914971544868,0.5394064012700074,1.455618237283837,0.6825893585021523,0.5758578749163903
90,-0.8300203165696128,-0.03136525925550521,0.5103030090383304,1.3196536246373536,1.28262194267529,0.6745794647237353
100,-0.8052972698708556,-0.014384667223061294,0.5295302720642058,0.549565441048387,2.259227857109705,2.715189105984188
110,-0.8232356470790944,-0.03575868439151413,0.5088085563190371,0.42379698967839663,1.0718770087015486,2.8181041822531823
120,-0.8102247711887431,-0.01489106154127324,0.5304116802447207,-0.08704907344545387,0.05793546401258684,1.3018859958794364
130,-0.7984288528739943,-0.001246946980795146,0.5431018059792966,2.5820440790672863,2.594154150721165,2.6020585435345085
140,-0.8103619651876467,-0.0032338809863115105,0.5235829537399364,-0.48360878323529033,1.3348297335139594,-0.5080570675657267
150,-0.7961417806150765,-0.0046374734624134535,0.5339724819267943,-1.1678329456998235,1.8055910260052317,-0.6048007858152062
160,-0.7978954310604366,-0.015188214647085023,0.5300831307019568,-1.1696596729583972,-0.19844977851917725,0.6728677761234221
170,-0.7969804776694581,-0.011598655062755942,0.534702396256781,2.0139722666922615,3.0905062009185253,4.396847680750737
180,-0.7898571585189048,0.00013110415315965157,0.5437199415118383,-0.5140152087644752,-0.8549818274925326,0.41456740517574486
190,-0.7861236670657157,0.006718642208765919,0.5412326108758232,3.573055133512752,1.5238820503304744,2.1763007843348747
200,-0.7995387763818872,-0.0004149741534702882,0.5367356209060552,-1.0798690942478082,1.0165033025174022,-0.27395970951176696
210,-0.772624270694124,0.01973717495322582,0.5607259161206685,-2.8625965961639612,0.22966044975038225,-1.9305647636262135
220,-0.7825192119034482,0.010041641709675937,0.5549153333225963,2.231484499524592,1.5281187188832994,1.7747633231980362
230,-0.8080053852392802,-0.007143888471979113,0.5307015065240634,4.136321518315106,2.0013612122030504,2.3790392692660163
240,-0.8021841409972462,-0.002077428053363227,0.5357692384855821,0.8327354434074832,-1.357870678325153,-1.9142835675724497
250,-0.8222334362883842,-0.03170567218724265,0.5136333514980959,1.157745955604185,-0.06655208244727584,-0.8230177463932702
260,-0.7909306941526086,-0.0032011555280601067,0.5478380464798407,0.11105188540366445,-0.9722754438577197,-0.9810126236004415
270,-0.7859843994943684,0.0031637787157635083,0.5435626994233318,4.370411040669981,-3.3043386995224657,3.0556601998832624
280,-0.8043536300176783,0.03389575782524899,0.5411870542771748,19.143193342136264,-1.9041642286273954,15.74603313802938
290,-0.8703141429181791,0.05490441561381475,0.6044619932660772,23.74112786660135,-3.2590242897657773,16.727552316474732
300,-0.8628452157104194,0.06740829531946385,0.6537727147348034,27.245014623956592,-11.420861318276462,14.96765837620114
310,-0.8409019984196032,-0.06897568822928082,0.5623340768029917,24.524307264332545,-18.326080452506147,12.194072549580827
320,-0.756794073326908,-0.15242030893346162,0.5717828146785076,32.882725772326715,-19.160152069279352,4.331132311838423
330,-0.668824264009883,-0.06751040056009214,0.6557670158666885,27.42227395450781,-21.71793749837799,-3.696484175834173
340,-0.6490630216375198,-0.03938405549456138,0.6463251383704514,-7.674533866863284,-25.41211187017182,-10.603746001594976
350,-0.6693005877411918,0.028411531727347273,0.5296341556480769,-32.782003815090945,-26.485753983538597,-17.42318401132559
360,-0.7089007500503268,0.07735242845450774,0.5632264713275758,-36.33658465567793,-27.3960052623246,-17.099750639204252
370,-0.7681638053412538,0.05000463125498791,0.6170560778911512,-19.90259941212629,-23.888148108914695,-7.985129702149809
380,-0.6883995933457469,0.05582575156651849,0.6752414360752191,-16.79694703267038,-27.332297389366904,-12.471261030111231
390,-0.7403373551593719,0.0416502245372539,0.548569245884628,-39.70901863455157,-20.07218602124018,-13.970056062701513
400,-0.7775243852855852,-0.008792205552867777,0.4971819957732883,-50.645258221092135,-4.497354560959766,-4.529759159011946
410,-0.7105006019448312,-0.03906255340946299,0.5991922184051875,-37.6504327319834,-0.07868172981026089,-2.0419838042518332
420,-0.7232100273714623,-0.03269207465828553,0.5984785119677299,-39.46042946961028,-2.6916527637259025,-8.882282416748497
430,-0.7392681348930592,-0.09055568431082207,0.6108974226234992,-28.579078436728064,-0.6787005808680672,-7.804370369723937
440,-0.8235833584961781,-0.16704915388512231,0.649299266183969,-9.299418344351308,-3.2416203558075964,-8.508755877302015
450,-0.8206696671948199,-0.19732064134231161,0.7262138474911223,-0.6990323632845394,-7.442460829537696,-10.620997813515038
460,-0.8282180479395076,-0.2047600828182429,0.6375032914932546,5.2817283152252354,-3.1070096066476607,-3.586965667786905
470,-0.8075106384082748,-0.16538782884254769,0.6361712960216863,18.84832333850717,-6.715020655173369,-6.84496135467567
480,-0.8058441722591062,-0.1920491524957078,0.5270100856583327,41.79418759992921,-6.780315759025904,-12.091360263219283
490,-0.7575117473420412,-0.298675647436895,0.44575159210203785,50.71977171027744,-5.924440344297377,-25.931006443062405
500,-0.7489662193268157,-0.2982496805609519,0.5802759873331856,33.70301679948356,-3.487075409329216,-39.786332274223184
510,-0.8070029804273775,-0.044449294063131126,0.6148802885032137,35.45183667702572,5.657117327605461,-26.880741574797668
520,-0.8899739757426091,0.0245315923226355,0.21862669206606933,7.068800889314034,16.885270033181605,-20.0450670180709
530,-0.8720817891443494,0.0953036741044811,0.3813957661927063,-9.304329042176585,25.873147925316804,-18.49710755268022
540,-0.8947397627781684,0.11905465138866635,0.39573664952841797,-1.2880579379270753,23.780057241004002,-10.111946339849334
550,-0.8951904790724805,0.029975416211060146,0.3034074031053394,-23.080742132490982,33.79330385078655,3.479622353310037
560,-0.8084026610587962,-0.03808663722183356,0.39059622474731964,-29.73606690694003,38.11349005491606,13.769330247414207
570,-0.8247102107035059,0.08110166928894003,0.5262338243456041,-26.401414187880135,19.3751234359558,26.995039867282774
580,-0.699726916366133,-0.08797436200147123,0.7550875292404927,-27.53594021841163,10.450518776725806,28.7891071051206
590,-0.7081869548983922,0.17938687935088143,0.6863799712251893,-10.034482426989591,7.130462764019509,34.68902988852174
600,-0.6654530417205624,-0.21820259426562574,0.840689529912526,-30.030718524857445,-5.010277766291131,23.77361951817287
610,-0.598934757503514,0.19395092629749938,0.5207019076622259,-22.85635321983633,1.41661030439777,38.66847513232931
620,-0.6526162175755446,-0.08362847953063597,0.6752567223201833,-4.485273925369318,-6.733737302647489,25.529099834588507
630,-0.7794815581393263,-0.20299730594844362,0.5639725580895937,12.128416916389936,-3.426904860691596,0.4582169890751579
640,-0.7899767160823988,-0.10688913966984835,0.5261809366782491,25.68738913941013,-5.486004578777564,-5.401923601434749
650,-0.7664163583085101,-0.09473520097918753,0.5406690749089421,29.16875836077177,-3.371568765235759,-5.303035441141269
660,-0.8642278164423002,-0.07188994121419978,0.48018961582107433,29.85196664284782,5.739220331624345,-13.293541877929563
670,-0.9763275688507201,0.11896246533955591,0.48278980265358035,37.68709097899914,7.583790209260134,-14.04545427463655
680,-0.8383323551626223,-0.26953815561046646,0.1165961672263082,14.224684656196857,13.156064596857885,-27.46713111194363
690,-0.8475347403299436,-0.04319383141595949,0.5076308097891563,3.977512865165326,23.956061512113354,-15.050756470535672
700,-0.8368406839761373,-0.005547433861729335,0.5501173564494131,21.98902717418242,35.75672329092448,4.433351002854919
710,-0.8150303992184121,0.10623024987516858,0.7275419585537797,38.131871357467446,40.31239910987956,8.77288691586124
720,-0.8242945883835087,-0.14853345105590102,0.8670137979420236,24.699270378584025,37.14764098376858,7.278868358378708
730,-0.7133332650506458,-0.07940672497895183,0.7817372852584845,28.33186856942406,32.99279775688364,4.773238554111235
740,-0.6687237595649048,0.07160985412423802,0.6701835931027951,24.92460209223842,25.603381653067203,8.351646693491304
750,-0.6913258879973021,0.09599443409322113,0.6953372045893484,-65.33069618270211,4.5503904305408645,17.078910140761487
760,-0.6316179376368247,0.13350017043392942,0.6122811313587473,-42.49654787289741,-11.024979480634478,27.53693639050533
770,-0.598796479556852,-0.10686119915197018,0.6386127310969646,-51.67173672341338,-26.047752711606353,24.121746074421278
780,-1.0010668275868768,-0.7456423540762318,0.8649208648980222,-28.90733898214281,-26.4549048284166,7.876028148629143
790,-0.9704671138942312,-0.8346258920458565,0.9877448753328225,-54.965711501700014,-22.727636208797602,11.210835546089855
800,-1.1211870332644611,0.002285453843111597,0.5434622856819082,-63.91398305034089,-20.70687054159941,-3.92973953364692
810,-0.9024634060512704,-0.19635349114468684,0.3974661153013249,5.534155897472383,-1.3726032413446456,-6.811067327409414
820,-0.7884208234526047,-0.044507516365375685,0.5211234889185593,18.61117221703786,-3.689219616216455,5.978390883787282
830,-0.8395331263380611,-0.07813354189941246,0.4977649986460708,21.914820641137908,-4.467633254808568,10.364873078079604
840,-0.7924199086136047,-0.008886539857072957,0.5517630431927861,15.121398385066541,-1.5745234520344842,8.923894787195373
850,-0.8022315167283882,-0.0009375518608536731,0.5450270991052081,8.127858357074752,0.302486721094543,5.158699170447914
860,-0.8249694148912681,-0.015204509363563445,0.5112300527094429,-1.0582443473962948,0.20663228019171606,-3.3555459385720092
870,-0.7893301986387973,-0.0450230979182398,0.5459772701497942,3.962077545188724,2.4945256460324834,-3.769914858144371
880,-0.8077687786200604,-0.043429237385563736,0.5275949316882484,7.849186560406389,2.3892151614181807,-1.1339520410224435
890,-0.8202103620003376,-0.05458809148662104,0.5099995568733788,0.1852535997712519,-1.6001010378907703,-3.3331241411208827
900,-0.8105315122054224,-0.05701724519586235,0.522437723537059,-2.3425315923268597,-2.3875146382624606,-1.876599829452124
910,-0.7914925049782421,-0.0356939317880797,0.5481363399432284,-3.1601892726678336,-1.9663197094282376,0.04525843660823514
920,-0.7754228004608177,-0.024540960561530406,0.5602157881720893,-1.7155890886940577,-2.1598782923272886,1.1122147744687214
930,-0.7950954556762869,-0.01316286744240569,0.5400473868983857,-0.6257417694745592,-1.4307820479614195,-1.3489320582239406
940,-0.8314638651756556,-0.05623790475819668,0.503920685352675,-3.3771879520363437,-1.0000087292169417,-2.6470805215198707
950,-0.7988437488361514,-0.03989302587836758,0.5388909948452356,-5.0902269843176216,-0.5721912597090258,-2.8873847254030798
960,-0.7932485660991643,-0.0304765142779135,0.537840702859261,-3.928834346569161,-0.8127142608197938,-1.7388286956015264
970,-0.790459112522122,-0.031134267470204768,0.5401427785941662,-1.9191603674073539,0.022297512367087727,0.5487015851265585
980,-0.7979700080766119,-0.04580676034930317,0.5342491196308158,-0.19878489773163238,-0.5433596170695665,2.001951355073801
990,-0.7892043142880613,-0.024521538692231254,0.5354802831495789,3.2022597703386673,-0.6202202021249257,3.70623613259849
1000,-0.7999774307663245,-0.018147853847817867,0.5447836990335881,0.2879291485428963,-1.9017035564937346,0.9291290476024265
1010,-0.7754811034581844,0.002318475714747345,0.5628803242708853,-2.258733380231428,-0.9211159562831579,-1.0641629552576581
1020,-0.7981842137479462,-0.029024539185294677,0.536478366640621,-6.224213501340522,-1.8930836731345295,-3.9550213989159184
1030,-0.819378216842468,-0.056707333718281266,0.5138556674384551,-1.5450682791182828,2.021038055330442,-0.8730052411671849
1040,-0.7975530564831707,-0.03955239061290384,0.5411960284493165,-1.5991435439524013,-1.9395512843316745,-3.5015990609885197
1050,-0.793289297653961,-0.036946546264498815,0.5404995398279671,0.39545348336148,-3.525877218788187,-0.06265291620522495
1060,-0.8259352295949867,-0.07395343643503921,0.5112137647524289,7.214365161006083,1.3602031403850832,5.989818773638692
1070,-0.8000894463113815,-0.03034610576533031,0.5301945318913176,4.083943803425075,1.3918153615698174,5.110909445413496
1080,-0.8139922675134711,-0.036271082879656136,0.5194894327151762,0.6813593497057133,0.7287724796948303,2.092750544027928
1090,-0.7832559924386213,-0.009384798333020155,0.5493603726905711,-1.1753539771385042,0.058586863120292154,0.290494467502206
1100,-0.7876370567914872,-0.020795312344301594,0.5471300030462681,-0.05883731449639629,-0.6968380037549458,-0.08143165015330533
1110,-0.7944537841495853,-0.03371611001890103,0.5502113309183976,-0.30600673655460575,-2.7303634767730682,-0.29730281702792416
1120,-0.8225507468421309,-0.054946235993932835,0.515809172298843,2.8155647694815293,-1.8520694467947993,1.4754914979217781
1130,-0.8013803396082484,-0.030380675019597726,0.5336044344621994,8.125713060934922,2.2596899118585645,4.511247006411233
1140,-0.8042988567929202,-0.03337990221400461,0.5344923182269069,5.36611976616842,0.16390469017675702,0.6088471077055964
1150,-0.798003564355233,-0.020249854132853254,0.5347830569275303,0.880579316803312,-1.7100264242988463,-2.3022985883351947
1160,-0.7824429867598306,-0.005204365883849869,0.5526062546549939,-1.7452555967404122,-1.4509698748503428,-1.9210421018592299
1170,-0.783860791770577,-0.019751567658541073,0.552379587635419,0.27170267961907657,-0.14397673785891374,0.8139714942060752
1180,-0.7869220976516704,-0.021467945943121916,0.5503336760559489,1.023178536093993,-0.8268340007538102,0.9936419056409442
1190,-0.7768980741059877,-0.005854902240309816,0.5569208481513339,3.747256354828157,1.6586658598639148,4.018169646897819
1200,-0.7888167437175114,-0.011761745548211583,0.5480693381852475,-0.5957226337351074,-0.9852679103938599,0.9779734056686107
1210,-0.7932373810231715,-0.015782427676174007,0.5477118149884873,-2.2183977900514718,-1.100573927985867,0.31876846758728883
1220,-0.8132337554293162,-0.036262874773946796,0.5250229422161816,-4.451402330287238,-2.9298036859520367,-3.0319428679091676
1230,-0.7751409178614121,-0.004383935855952287,0.557717098262416,0.8040086047170614,1.0766356094521095,-0.07050144230092048
1240,-0.7727961530787018,-0.002664418636272571,0.5634758763561165,2.569099350885919,1.1101960459592388,1.22871560504282
1250,-0.7702285274812579,-0.0018808836551691861,0.5669897385564043,3.6044312437617823,1.5188282381568272,2.849101783422703
1260,-0.7819550973322761,-0.009372159036717523,0.5568658834163535,4.140207323920957,1.847507597138193,3.8220960094542797
1270,-0.7806128276230149,-0.002990711712405083,0.5609129757106162,1.5227107281993437,-0.3935633130334614,1.4786952014187298
1280,-0.7906518107582593,-0.004559351443087171,0.5491363263502853,-2.295051956922041,-0.9464111596210592,-1.4620426718700263
1290,-0.795230194506838,-0.02399804767304546,0.5408293748669206,-6.116642257331296,-1.9835845262199123,-4.16020945447212
1300,-0.7791927935980524,-0.019883012563887574,0.5636241302766298,-2.1460021179247377,0.950311142248581,-0.31740856892928004
1310,-0.7778206674881888,-0.010170636522271084,0.5658203324472224,-0.9570481709414518,-0.5341969076959296,-0.15105012852239563
1320,-0.8101447762743649,-0.039618873567257074,0.5256035173835996,1.213343082460591,-0.7803773045076527,1.2228024606613974
1330,-0.795770463844613,-0.01927211316517682,0.5427625861000781,3.385998293320729,0.1505150386434756,2.5716829455653563
1340,-0.7896348847581439,-0.007367427702495221,0.5533363505157093,-0.4779354356997321,-0.7415592086435349,-0.43511028030969295
1350,-0.8026684039527657,-0.025113180318326486,0.5398482420029479,-2.857890983006055,-1.405842225790069,-2.589829769942349
1360,-0.7678048403714282,0.004948362272529001,0.5701315363656015,-1.495050414705521,-0.06929289422267693,-0.8526366430162591
1370,-0.7961397513993843,-0.02227597267719563,0.5432594306305432,-3.542357030955462,-1.4168822137293864,-1.4403499404509694
1380,-0.7921082261365199,-0.018652060423894615,0.5457002292977704,-1.342862982049874,0.8694853645398792,1.4049747084763848
1390,-0.7836721776098204,-0.013906766815417748,0.5525393010635958,0.12861977893864263,0.40831895761528236,1.1609758272949564
1400,-0.7834891556233883,-0.014769436975449527,0.5510034419219145,3.8883002190159583,2.9140084745781665,3.818760412722507
1410,-0.7984902530039031,-0.021690545492582765,0.5360366131923374,-1.645866339124869,-1.6689174108582832,-0.9566986362819949
1420,-0.8071569164591049,-0.026330355048392325,0.5369326442762434,-1.6257233480824569,1.1562717713541146,1.0124684406675821
1430,-0.7997825288338136,-0.029014086383111995,0.5407300546941206,-4.967886858602517,-2.108700687572335,-2.1215260205849455
1440,-0.820046752945704,-0.05144737961474803,0.5154135189354151,-0.8038352553785787,-1.2230737064147874,-0.4513510356701091
1450,-0.7938310355327958,-0.02059184411257914,0.5458707412178054,0.3505604260795735,-0.4834247227731915,0.3569989665111807
1460,-0.7801497962703017,-0.010329360713986718,0.5561771657158138,-4.449734596721138,-3.2960120160916384,-3.1930397195449043
1470,-0.8111304605621663,-0.039972579270447256,0.5251181045756821,-1.5761889021593387,0.6001895964687125,0.49633898501004703
1480,-0.7989490722526165,-0.024481967126252495,0.5426614293539671,-1.606397862152449,0.0015174712351819289,1.0839655481095711
1490,-0.800676505168203,-0.02614067216907967,0.5333996825076402,-3.829816959086928,-2.4022019440037323,-0.4669699280228987
1500,-0.8078419662782674,-0.033158052448692694,0.5310720010797252,0.751697014490904,-0.21188249129669343,2.4061993546360614
1510,-0.7829236130071935,-0.003776899568568453,0.5565786254630868,-0.05945079827664457,-0.9834032347696295,0.8929077576127813
1520,-0.8007918318827072,-0.02097643318703332,0.5413766569550513,0.5612083835439068,2.112206467928268,1.554619003759766
1530,-0.8109209481030499,-0.03329943576084939,0.530755859325986,-0.4315381827032694,-0.0405544025778547,-0.6244061655589873
1540,-0.8090426579929335,-0.02914955603954814,0.5311845449460604,2.5516613055515274,1.2296841947130006,1.1632572613189318
1550,-0.8115500708810913,-0.025704531282188643,0.5259905025239925,-1.685890273134011,-1.033370564987704,-1.5552572455488454
1560,-0.7843975410496997,-0.0029190992512273892,0.5567584225593787,-0.6802312219479145,1.3628589375031006,0.0063738820961809495
1570,-0.8022876959579107,-0.023279998468883692,0.5377824519118205,-2.372673255237167,-0.14113368511893232,-1.5781848419337514
1580,-0.7850423567709444,-0.011668950791411094,0.5517881097208112,0.7123343500897172,0.9271531753249649,1.334916068407959
1590,-0.7900598615265182,-0.017613634331865004,0.5449882128585526,0.525880586194483,0.5781176282555269,1.883372540138615
1600,-0.7803110014880179,-0.0024435887503813473,0.5542517273062493,-5.272135703736339,-3.227107099133307,-2.95859450506944
1610,-0.7938606179329697,-0.022236639448205465,0.5402817105958616,-2.517218606942884,-1.0639465666526648,-0.5118862545027426
1620,-0.8009723269745178,-0.01568454543364861,0.5401076933288116,-4.444997942380818,-1.7784804339545837,-1.8273808455003757
1630,-0.8079212654451032,-0.03208115011475431,0.5300559716786801,-0.5438681916874832,0.9463260974854795,0.5440410994208884
1640,-0.7995832440178394,-0.026460464142036993,0.534751842822731,1.4275406963955337,0.5896614797314599,1.0839951732190356
1650,-0.7612921961243462,0.01809964625519436,0.5772561722702385,0.554592323361204,-1.0003527128603424,-0.022626344266763243
1660,-0.8136454506344565,-0.029830779156248467,0.5178090756066638,1.614327875374367,0.6089379936001519,1.474316431872212
1670,-0.8032020666286388,-0.024879422036987092,0.5372940370947478,3.4421207798800046,2.6098440347079106,2.2188841258763166
1680,-0.7930713621246321,-0.01407462194512047,0.5406878687709238,3.432379255136916,4.073468417215499,2.3008377166824285
1690,-0.8022493408449042,-0.02525195659875769,0.5380187852128616,0.3272641510339982,2.4132230965056376,0.9540078704261296
1700,-0.8083853215828487,-0.03991233666301843,0.530151235065017,1.3305538278634492,0.22520619819549648,2.0992802192234565
