time_ms,ax,ay,az,gx,gy,gz
0,-0.719916973127392,-0.011818771178200436,0.503372583748162,-1.12521809221491,0.9778296842182814,-1.3466053541454788
10,-0.719953058092377,-0.01230757812730979,0.501753272117398,-1.0794150297922958,2.197559651597792,-0.3799141931145844
20,-0.7239608758980424,-0.023363003209711627,0.497494326456873,0.06756905495776322,-1.1062799013769178,0.7983205446815275
30,-0.6957992953123776,0.001002702072963403,0.5230017495476535,2.2357089561107584,-1.4319639217314375,0.8390721427139236
40,-0.683736514013993,0.020057434213916096,0.5407513891874788,1.9819542168385935,0.14655812525801948,1.5496501759519086
50,-0.7124388662311485,-0.0024138786825273,0.509442450311022,0.9120558877491869,1.4082259886646438,1.6240724378401161
60,-0.6798742351173286,0.03479265121856087,0.5446794800317676,0.5379691783015823,2.6971309844887505,1.6647604288143794
70,-0.7177256666816881,-0.008943932309821732,0.5091334493018855,-3.2833425556862412,-1.1963329057413326,-1.857730619240753
80,-0.7208487554455456,-0.020638823205910366,0.5035984738551292,-3.657808662714088,-3.235372696487468,-2.213813908294876
90,-0.6876886909162646,0.012489912673164313,0.5358350294341633,0.41018913054387157,0.3973914135538025,1.4405457404253852
100,-0.7069561695398009,-0.0017376831281783502,0.5154721646526955,-0.14135269475892356,0.3182122708814249,0.49873373905253965
110,-0.7208939646837766,-0.015454724582780341,0.4996858573600729,-1.9212074148432687,-0.8033547449878007,-1.6444052598851637
120,-0.7046114142625828,0.00471122168264671,0.5206577684027314,0.167137671249459,1.9871502443087776,1.1696777763403952
130,-0.7242247530441368,-0.024584445270205695,0.5000172897819802,-4.425998600668178,0.2004644149931308,0.15948411418996378
140,-0.6826969872881933,0.015873657235235244,0.5345288994510288,-2.1706954731748915,0.7826059604660304,1.658154454906212
150,-0.6570002225777171,0.03995354540923327,0.5643620524638135,-2.2700062223799637,0.7087630798758393,1.3706351319455488
160,-0.6916614116694019,0.008479635530199568,0.5306925299371634,-1.6964345151646656,0.8579579245710331,1.1541852312315735
170,-0.6874843189778655,0.01688674970098663,0.5291901498948841,-4.581514898740769,-1.780807653613278,-1.5924158718847203
180,-0.7040028245037854,8.108762343517466e-05,0.5257727489816082,-2.94532311680892,-1.1144664970935962,-0.9644949267124542
190,-0.7367035579003298,-0.03444765413277133,0.4982726876104977,2.29736460910045,-1.853607197694864,2.3215821404502
200,-0.6978509272467092,0.021898661499174087,0.5601019598015864,7.652067792772038,-2.5460222858221417,6.3230358343194055
210,-0.7398020015625911,-0.006627877767293999,0.5597387137227519,38.081544195858996,-7.970425046294813,13.452600498360527
220,-0.8105485141326065,-0.028372714157570984,0.5625519591530221,49.322548449760355,-12.845654229066401,21.935486770141452
230,-0.84650909638383,-0.11359958489325499,0.5521554574923401,59.33618676577319,-15.934416114235813,26.88805266295409
240,-0.7945940141567859,-0.1485767995291223,0.6170885578537869,36.6776851678606,-28.488867507017844,-2.6914131265588757
250,-0.6529859280189647,0.03147566103490827,0.555320230118404,30.779434467958144,-29.55949147933066,-20.182852307240307
260,-0.6012449644414943,0.06254231667924878,0.5592404350067494,40.382612420715425,-26.575854146877436,-9.19064796334031
270,-0.5485153156653302,0.10319846758619693,0.5290407013379959,32.12255949006743,-21.63542803528095,-2.4622471418983407
280,-0.564564882865901,0.06411887322729543,0.5039918148870952,22.371131308740885,-11.660443660587942,4.185896728144282
290,-0.5943823384232121,0.00877016573934598,0.5462042830705574,10.587765846433154,-9.099288127398646,0.8879519015175221
300,-0.622635955995042,0.06429153128666884,0.6157885332464188,-5.383028927446821,-5.354594308810853,-9.827485329130779
310,-0.714410838405829,-0.06980777330914084,0.5598631862724642,-22.71948853308009,-7.538158435294212,-27.38894880621241
320,-0.6617740108269062,-0.008752250475807343,0.6590055013342045,-63.07910444841688,-9.774038816166625,-60.635364382913075
330,-0.6126614494110459,0.044470068870718346,0.601813970012179,-50.02135448220218,-10.064300128322197,-47.00255105326636
340,-0.5914848811552684,0.20256853474043265,0.5880693173655441,-63.01229258562934,-20.375344577909573,-27.65488064705661
350,-0.5702965478413314,0.1800442622301451,0.3929405760966731,-56.06620726107724,-16.09995468303996,-1.1142317683505465
360,-0.8439505513899236,0.012512388333816484,0.5794425129806909,3.6782619453550636,-5.572011058373149,45.17395710000101
370,-0.9230509013810694,-0.07098341209414318,0.6864253297098026,-12.664547401401736,-0.2110526051745648,11.977041503421317
380,-0.8423882230941571,0.0994559430048042,0.7184395872732138,-21.59333074487206,-10.838814436372198,-3.0174788140559894
390,-0.5956279906250949,0.1106224929358542,0.5390251715072341,-34.221101022624104,-17.160778352316356,-2.7492897868013477
400,-0.49448688970570637,-0.0494346460926897,0.42780634135335166,-41.94242259715078,-8.102078732311973,-6.230897639280123
410,-0.5322799641630865,-0.08000014473451111,0.5563873461371898,-60.69290388581718,5.029677145135389,-9.474933213688765
420,-0.8594017589514251,-0.27413738231117046,0.636523562032875,-68.04436134249657,8.075386302707956,-11.49218546096306
430,-0.7474898826883267,-0.1691376737389323,0.6850715875036263,-48.802556387574064,-8.68708860406573,-15.402414921973827
440,-0.6315902621292383,-0.1266039397038456,0.5163587706344908,-32.58335608186856,-10.533958448088127,-13.68136018185651
450,-0.6669708496644534,0.04464241665995728,0.41295384163790194,-33.64985841360143,-12.10817970624883,-18.299215556878472
460,-0.7106709443216298,-0.005060398265083223,0.47350502147011697,-30.721056404361143,-14.931161252216052,-16.86351786339094
470,-0.7860709732629264,0.07081257739326846,0.4475527801786215,16.12954963972759,-4.088502682056621,-22.91877295863183
480,-0.7773342061716569,-0.08219428999531864,0.5261422666463667,30.65135785118266,5.947629675917563,-30.05865519775136
490,-0.675121750672336,-0.02129243437195437,0.4721630964623087,50.489967866087625,8.563217432337693,-25.870074977398765
500,-0.6883941384178371,-0.12977445113306207,0.40664567623653364,62.2836672652794,16.06494853478517,-20.9085637122523
510,-0.6803837130087287,-0.08100554258827285,0.49176154831237984,86.0761424704514,16.497578521438147,-23.412777676508462
520,-0.6704638056428108,-0.04988119547511045,0.7010271377677967,67.95597274987364,13.370889023717615,-29.251032655743415
530,-0.8647647170429279,0.2100548333139507,0.32371062348393903,97.90054343446478,45.63860228648912,35.36991200938727
540,-0.5535613512661385,0.19541464676231718,0.6146955867514061,61.53068651827482,37.82859535304451,40.889383960301934
550,-0.6317457379486158,0.08189876775137471,0.6390905051676655,33.55309073191597,25.478163758959592,34.64592637539001
560,-0.6506208439671103,-0.04516397891472587,0.6007977067581158,24.0595354844827,15.9118592637373,33.13861163594154
570,-0.5773020321596325,0.05058805092826154,0.5679178692663429,8.292773735945893,8.937188957255128,34.38273060617062
580,-0.59860011369697,0.010296170045992743,0.40079724416466467,14.884158752304593,8.06515676442067,36.41978527394349
590,-0.7097821352644503,-0.18275142019379917,0.5284464199912798,5.209318531077829,-2.9958306485745263,6.580611278423582
600,-0.6792786605166967,-0.07236542354436458,0.5503921453475381,26.695616538797115,-2.329021962015008,9.490737630958712
610,-0.6889833384772995,-0.14380436720622536,0.5401340715939362,47.74384184584623,-0.9234985287393154,9.986893184473542
620,-0.647958421078205,-0.2693071683484783,0.5398763648154076,41.114143723490734,-6.818184323188225,-10.152313626115154
630,-0.7278947987893067,0.03065725160635632,0.4942992431666029,38.93021551588764,-5.440139823312305,-24.745903219936785
640,-0.7546591170387718,0.05401930164490054,0.4928515712413421,20.70166474693784,1.101257278186198,-29.706951313756186
650,-0.693634966711299,0.2436073215324116,0.5778875443246927,12.977845998350343,8.947784653450231,-22.528458584249655
660,-0.642730351935511,0.018295846050027747,0.6492436331736461,-20.483660576431586,13.42632595684009,-27.641795388959892
670,-0.7097611716063136,-0.10676764673166461,0.23432130971782777,-32.481859321971605,34.570035383055796,-23.453117522310986
680,-0.8391627033196917,0.11386629749872432,0.304047103898397,-1.2739454106778298,43.62210272728679,-6.167687580984268
690,-0.8032737574837434,0.22979116620305262,0.32216865728426225,24.500662849847593,46.13440664678981,-0.13928663322823137
700,-0.7634977049047278,0.032485054701488915,0.32517751897134073,0.11920717541773707,19.69197730643555,31.148660319243046
710,-0.7333149671344589,0.04057386392443078,0.4176927675997157,-19.932677275890814,17.914302826821,28.54951584861857
720,-0.6338219718702649,-0.15673924510748144,0.8210165636730844,-35.68793852807677,3.708892793347421,23.756290701409412
730,-0.6996887673068067,-0.29135368529991945,0.7215650817939717,-65.41005938361319,-1.7709695857234657,26.33409595715841
740,-0.5789099589010122,0.06374162303120133,0.589218133236905,-5.840889919722191,-14.993384156102335,37.23745126659478
750,-0.698599309135426,-0.018898051127554317,0.5984020897633124,0.9416976323424833,-17.5319907562258,19.152088816468513
760,-0.749018466427496,-0.04364445041410628,0.4512778117571901,11.42107834346416,-2.7404375228703888,-10.285523654915119
770,-0.7453713586067412,0.013275843822479132,0.4633597729342621,2.500159301493596,-0.22501667866724567,-7.228804256119228
780,-0.7224801762965011,0.028640649533410854,0.49329600754173,2.932143314349098,-0.9054816157971496,-1.4553064613588007
790,-0.708908330083599,0.042095076498158995,0.5137917698019208,6.467400382540409,0.25222363763328803,1.9924326480614192
800,-0.7240630060008616,0.04623706850285572,0.5019113562494383,4.3619015348487755,-1.0078550096824097,-1.116057913969954
810,-0.6763461992025027,0.09468078669068061,0.5473698582123023,2.877434423240658,1.3730057267389066,-2.602828556702381
820,-0.6927745950101533,0.06234827250730546,0.5291416893271654,0.8469651481408319,-0.02005009239800093,-6.328162372332634
830,-0.7286804277351917,0.02714726601516673,0.48800540392617336,-1.0664895518690012,0.5717062020859116,-6.094189369862598
840,-0.7006187124644487,0.053972757042814914,0.5093939671615973,-3.7374920832189495,1.417437054629349,-4.201858930039243
850,-0.7180272717478495,0.02653791674953942,0.5048813495716707,0.9592248530383254,0.15574275497087764,-0.8694288956664304
860,-0.7291357401771301,0.02571839922372471,0.49460814189719776,0.2012743131087258,-3.709312951591742,-1.3996367030123067
870,-0.6808276871452038,0.0777678076595882,0.5344588618421825,-1.2894815224634175,-0.5688004213533961,-0.3315840415675675
880,-0.6932105466493271,0.06953074436236735,0.530211942119959,-1.9830760950889983,-0.7779021164997426,-1.8365021737984977
890,-0.7009252215813773,0.05379418754976646,0.5200755778215739,-2.476626751221912,0.1619664820029872,-1.7934313409538225
900,-0.7118284167022867,0.03840978070513368,0.5005011578057982,-2.745777844351049,-0.8908965560484057,-2.6478413301525334
910,-0.7379436759582007,0.008380281273303637,0.4804472266974561,2.4391109561468687,-0.031896507478006875,-0.7811678357189942
920,-0.709911089022154,0.04643378166596446,0.5070553934358368,4.853941523489631,-0.6722860099665005,-0.3240250068849797
930,-0.7202100839339329,0.042840429042984504,0.4981945495012826,1.5749477201922586,-0.3787178399594689,0.7464787248151453
940,-0.7317517762874456,0.03371427523795083,0.4909828048633823,-1.9339331687699832,-0.9449873019620613,-0.006909611034020442
950,-0.6900507506120008,0.06552528720765939,0.5352843960646784,-1.4061427753923188,-1.5202853183345406,0.5989958697495658
960,-0.6925275497340605,0.05813405729198416,0.5294333103282133,0.31407236344087797,-1.5254022426818525,1.9487452445326354
970,-0.7134454205970525,0.0410555847901898,0.5036455459951674,-1.9427577168498544,-4.45115116936207,-0.5751485345786835
980,-0.6907884303885977,0.07114446718634956,0.5291316754751246,-2.188262053279369,-1.0776876921128875,1.3920225049436097
990,-0.7013530498495312,0.0637017265039273,0.5175948980127917,-6.511357568508355,-1.6909700218781842,0.14925175816365577
1000,-0.7141262987914936,0.04066157716508945,0.5044529644900345,-4.706556346195905,-1.0071022203087565,0.4625362169556135
1010,-0.7060814824010656,0.04831678292160622,0.5139327628826788,0.16829918256569276,0.7449852240466242,1.988741524791712
1020,-0.7206367361400456,0.030510741402299448,0.49774707180682254,0.49887011933853853,0.6214711863477816,1.900240460865286
1030,-0.7157192867912724,0.037855454855469914,0.509351357517728,0.5472833183462595,-1.0291716563111413,-1.7928435206088786
1040,-0.7291569294897516,0.02462014093244495,0.49675396980425673,-1.579574621428328,0.12956697884474172,-1.4594820360622756
1050,-0.7208708873298336,0.02889420739867002,0.502274414060185,1.5336225934024241,2.4394514867583554,1.8443694695950203
1060,-0.7105609331844098,0.04302745908355982,0.5062598079429809,-1.450285854320903,-2.009716004522757,-1.5971408717304556
1070,-0.7192781074138377,0.035635606162890895,0.5030444923062944,2.0719009960339982,0.6314688050498016,1.637841311600966
1080,-0.6984014796717231,0.05248406066121159,0.5168228089662037,0.9443714031900513,0.4095463375640103,0.7830557931167743
1090,-0.7229403575289931,0.02745883742549339,0.5026801696320934,-3.8869329307038147,-3.7689091803637176,-3.136405102102552
1100,-0.6934989826729231,0.06107584515072083,0.5326756783441208,1.6608747784980396,0.811125687964152,1.3416435276833847
1110,-0.7219592639763456,0.030201843080711225,0.4940637916339558,1.7203751168232826,0.19232391165278284,0.40106038919107234
1120,-0.7055060791355442,0.05056892605394747,0.5119148067130981,-0.7890704583995114,-0.699518107005047,-0.5736262512679119
1130,-0.7111637677486542,0.04748487140044365,0.5164311164066265,-0.01006695225721227,0.565753070439018,1.1717803936942088
1140,-0.7083021890962489,0.04942674859164237,0.5153195211015861,0.28934416142725283,-1.2677641541790021,-0.05960373627420534
1150,-0.7051617539458369,0.05430693062993586,0.5156057401844807,3.5575925601465146,1.8353523262682199,3.2632171019528027
1160,-0.6981765611353142,0.057054343941648454,0.5186354530269769,-2.3747509627566075,-1.895033362602842,-0.44100543926464697
1170,-0.7020610694650491,0.05568583236867207,0.517443315230506,1.150594578997302,0.8644124049338009,2.264565037555437
1180,-0.7041181066101019,0.045078039223650376,0.5194275459940951,3.3947269508180624,1.2901261627882386,3.17299578447514
1190,-0.6731306271168588,0.08087898100282609,0.546412352582201,0.5524086230259446,-0.7065065918194353,0.40984772917680745
1200,-0.696762010156749,0.06266852698313038,0.5249018987511009,0.8024269743343591,0.998092578562876,2.1336608856363153
1210,-0.7182142388569954,0.047231334546391744,0.5081902326644419,-2.6467689327117996,-0.8360801204075685,-2.1719236024318045
1220,-0.7081716310691384,0.048427557945619655,0.5068250119490575,-2.283318717546483,0.03861520434419036,-0.8207030057592527
1230,-0.703659399351799,0.05165065066718292,0.5159346733197654,-3.998058859152015,-1.7455208056818918,-1.5081344096605613
1240,-0.6870020386555101,0.07354152620813689,0.5410585106238188,3.844979173049638,2.0621249707118277,3.4242624518104394
1250,-0.6848747224489543,0.07777179080631871,0.5412335307672091,0.34850065517171863,-0.7300463882587663,1.3488993597717667
1260,-0.7009299539432307,0.05994357448098836,0.5183163239070709,-1.3550888737560238,-1.322774550595578,0.5963925303100354
1270,-0.7278836962724268,0.03592006077442497,0.48747655412936497,-3.3209750231472754,-2.690116214255962,-1.989522362798188
1280,-0.7036525670783986,0.05047468681094912,0.5149119526603575,-0.15821595088221252,0.84915128063397,1.183275127710906
1290,-0.7014613271873736,0.05387233364533448,0.5171634928772078,-2.482818825088923,-0.9714335411278895,-0.523424867889003
1300,-0.696348110427285,0.06126102308383008,0.524299543657464,0.0013694765148390964,2.3157288665302485,2.456339102960276
1310,-0.7273940281730618,0.030855572249684052,0.49161168546613226,-2.3178073245621897,-0.6846918434614793,-0.4732264510611548
1320,-0.6776723956328179,0.08258900914813923,0.545597583987029,1.9561222336863526,1.2794656048515747,2.042804149029897
1330,-0.6829604035191889,0.07113804414150997,0.5403478570886251,1.820260702789353,0.1776344440197144,1.3785207336504568
1340,-0.6977973451157524,0.0582201563383903,0.5258692455421138,3.818126544546936,0.07186161621989218,2.7616201796459787
1350,-0.6821710848375239,0.07929903640723028,0.5342439340437335,5.344340811376171,0.6027116117587833,3.653729405240541
1360,-0.7101075762420282,0.06589595131630577,0.5172270446368608,0.2880676584547881,0.40054595785482855,1.182158568641392
1370,-0.7336244515753101,0.031146677694255092,0.4887161907403771,-3.7343006952430784,0.08803660110609862,-1.3567058914378334
1380,-0.7246320761629393,0.029800581661758543,0.4923750857979068,-3.5114906225900984,-0.7710556508924842,-0.4413530309789996
1390,-0.7164534207885717,0.03581470352534653,0.5010129460135885,-2.5784802183837354,-2.0942059758269496,0.006376793321800189
1400,-0.7076119951793531,0.046261159510434816,0.5113199439664925,2.017440758741931,-0.13037028471286838,2.9733279738131433
1410,-0.7040840808176397,0.05490789542582075,0.5118720309043698,-2.163418498417312,-1.2042339456482847,-0.3612917712772652
1420,-0.6889606499791318,0.07339667546034034,0.5336210794568663,-0.06100080828192089,2.1985712941967583,1.6132832565829949
1430,-0.6995748838986624,0.0608656489806514,0.5237248528163159,-3.189603721457953,-1.1318264118950065,-1.744029486013022
1440,-0.6978402409066009,0.060926442966339686,0.5247070776264562,0.4920330527705469,0.5247644753128683,1.4931210379143778
1450,-0.6896256445364289,0.06677709749233388,0.5316962755298537,1.5531783560870078,0.414819583208758,2.4670410402193594
1460,-0.6982383851539519,0.06208927298051394,0.5247263055838504,2.0333212170119133,1.4151566649578389,2.742020366737715
1470,-0.7002900167629583,0.0584089872541644,0.5233502554805752,-2.2706587037973835,-0.8192780438687024,-0.40033748130311625
1480,-0.7063442654009168,0.052298192551693226,0.5159754301904234,-3.698842025837767,0.09704108799425698,-0.4126326873745088
1490,-0.7010700483031217,0.05486491636407237,0.5239089625005049,-1.900336243954769,-0.06791813514191636,-0.5693530117672275
1500,-0.698536845995507,0.06134380946116046,0.5261562396983226,1.8483767721454734,2.0658657866023624,2.9763340220992913
1510,-0.7129929520379497,0.043883223372093015,0.5060041738254741,1.3170684058466167,0.2833417855766559,2.4300832400434014
1520,-0.709597747556457,0.049873537069380545,0.5181883210526278,2.059680007607838,-0.22024269843750874,1.6214006518968598
1530,-0.7260184399572086,0.03505006567772975,0.4991603761311851,1.0059563050874918,0.2443208234385784,1.4307492636363288
1540,-0.7124785033329556,0.04754215750718858,0.5164565185316446,-2.693807111374259,-0.8453305386068009,-0.5945900952891747
1550,-0.7257164954584586,0.033551002309439,0.49544187181466126,3.0952786216109964,-0.06315878238663997,0.34805291873012056
1560,-0.7013984794444504,0.061346317993635636,0.5134271447876448,0.5979041324923404,0.61706968099895,0.214486999246436
1570,-0.6864409267146268,0.07348021941421483,0.5339668830492993,-0.03394824762201143,0.9484684327886949,0.12083398322031802
1580,-0.708263464022103,0.04388175604406555,0.5104503003534712,-1.9343524740976323,-1.1145731016740958,-1.2118557903096072
1590,-0.708080095175718,0.043976556823619284,0.5135683888718731,-0.2784413786932015,0.5578614826066824,1.0977928918445354
1600,-0.6896492358374374,0.06502228553847839,0.5308220044351806,-0.6987518710623184,0.6390150823276793,0.8106486439290115
1610,-0.7261868654745026,0.030854946198558306,0.49381966105157804,-2.2593144990707383,0.22734443827766038,-0.4422517222886031
1620,-0.7271687216881463,0.02736474578702882,0.4902595604490976,-3.6760857220933087,-2.6060367360071974,-2.848223810859237
1630,-0.7243191021206772,0.032604978539830534,0.49825230745962973,-0.737630029017769,-0.17908708336900406,0.1232419917519118
1640,-0.7138693526858291,0.0430754123972216,0.5105785881020434,-0.32726678721925584,1.3524301904497484,1.7814110389041302
1650,-0.7175845068875628,0.03539640340822383,0.5047975086841907,-1.5382208523348637,1.168121482122915,1.27268777366751
1660,-0.6953705304482928,0.058694738105354353,0.5226918703572947,-0.20839955772938945,0.9018100212733614,1.4235158545736866
1670,-0.718937232727287,0.03653433951298472,0.5006032634313414,-0.7488787325721763,-1.0840731548306328,-0.3054070334592578
1680,-0.719299339200012,0.03613493192538242,0.4998351911437658,-0.2661795030930067,-0.1907165437258153,0.55137752280847
1690,-0.7073169836976575,0.04312289835141086,0.5063373223553017,-1.8972209968754803,-1.2544740005317665,-0.34482756028486194
1700,-0.7288261087205054,0.028091703288698745,0.49165624989463685,-2.7493802761143504,-2.1192144378434707,-1.412364698252523
1710,-0.7086691522806816,0.0512747939731676,0.5175528810554589,-1.7399535168120601,-1.649749417508872,-1.2360813136899844
1720,-0.7004897266266659,0.04917253329415701,0.521255656262805,-3.265521181140058,-1.6158006661935984,-0.9185307642887184
