time_ms,ax,ay,az,gx,gy,gz
0,-0.8722632444093512,0.1027820962749593,0.44792960731668646,-1.2718368423413953,-0.974261307476058,-0.8322197059331369
10,-0.8513622510523483,0.1271847097217233,0.47329729714044777,-0.8588348484534893,-1.6944939345309327,-0.3640086639511839
20,-0.8833310453429962,0.09572950950194767,0.4396998991609541,0.8097655854662118,-0.9246082891528676,0.8322898123258451
30,-0.8918386610541262,0.09058100516365562,0.4337399226164567,-0.37146218309118395,-2.2424108241605403,-0.512866726358115
40,-0.8766287023769167,0.10353890433112876,0.4478556362827802,0.46274668909590494,-0.03501643442044104,0.34230222474789784
50,-0.8451389788209397,0.13129004789153123,0.4784325147117716,-1.9026113741637922,-1.409214936159953,-2.3351158058140875
60,-0.8527901169094559,0.12277144235485268,0.4727167712750389,2.4118431967184057,2.489313470074015,1.6489268319501926
70,-0.8733020921842014,0.09914160934736171,0.4486111442287267,-1.4271684267919909,-1.3278703243118433,-1.5184770138969328
80,-0.8685114193943202,0.10770275734055307,0.4516148430780887,-0.47816945328194066,-0.4704459869705989,0.09147751327207254
90,-0.8628360940727299,0.11697438955514422,0.45855183487448925,2.260999910551594,2.1301467641513083,2.862487445769573
100,-0.8653959635022958,0.11246745503883784,0.45275516035083846,-1.8324033586676176,-1.3575337230094402,-0.8421070476522579
110,-0.8823816669370499,0.09421677972284906,0.4365489946016751,-3.8717760153584364,-1.5078899541539434,-1.9856493600845861
120,-0.866972246429856,0.10733897423292466,0.45843628291797334,-1.7113890156805958,0.09657028090022945,-0.2361531543814458
130,-0.8545694002324821,0.12263979043612408,0.4747241081950227,-3.343321556731811,-2.772112692027334,-2.1616584410826443
140,-0.8893197180486244,0.09267585849756958,0.4413242104637533,-1.8062001817847972,-2.009031771838609,-0.22249115341958348
150,-0.882234396906831,0.09923921666735813,0.4596867240248698,-0.9330359760882876,-3.923082238068747,-0.16526053544221941
160,-0.8726528952198175,0.13204641760859082,0.48958879843389536,4.961968593066187,-0.930275781813042,4.85825604878912
170,-0.899164862365093,0.10075459042046758,0.4449918047866102,-0.3028585356207305,-2.7530453778346806,3.3130515006011443
180,-0.9988631200371624,0.03936961305989521,0.6018403824715401,15.635684672966281,-19.005683697798396,10.839698629576597
190,-0.9630689308142577,-0.07710685049399067,0.5705184808605859,10.697948495917846,-33.568073480165246,0.697127047377043
200,-0.8871065039163473,-0.18207127523941197,0.4925023304160965,11.479295220703133,-36.6326551259549,-13.309175465705552
210,-0.7725473674720671,-0.028321935104555804,0.4550536615223457,6.4127000790421755,-35.09098386464688,-28.921989078959783
220,-0.7148650158307283,0.22444340629934134,0.43188973006649967,-2.9946016378292155,-33.36373322985965,-38.406892016596416
230,-0.7796824200551706,0.21650706667366026,0.48850739718959096,1.751311749634577,-26.565212657609816,-32.565624247093545
240,-0.8464429511795729,0.09114732554134734,0.6760391955053792,-21.97612087971236,-26.996450124728064,-43.74050717771846
250,-0.6818807430155098,0.20974919722348692,0.45384135044347484,-5.982588012034721,-10.771243617345432,-13.889738274819706
260,-0.6865132301068223,0.3250046524038868,0.5058191222038605,-11.109470023408038,-0.27568850550416046,-4.420249098583918
270,-0.7700506684981078,0.29711317811189036,0.4750300394172365,-17.531113200078785,1.6701509639286407,2.979601715029281
280,-0.7884074322451011,0.23563011722069588,0.43830844002755925,-14.18007305174816,10.074344153312325,16.018969116718676
290,-0.7471107852776858,0.17697530383498586,0.4320558009200081,-15.597145340742603,12.860833575860298,17.30048162022026
300,-0.7325649807673005,0.1107662503815485,0.44048447655302275,-20.356301090707863,18.645468357436062,14.539472015823753
310,-0.7832370521821783,0.010129786987701188,0.46401114049687325,-30.123202906479413,20.60897237757355,8.350898288296833
320,-0.7674157236280121,-0.10034519465944818,0.5959284578302435,-41.87027308153806,-11.001817496105241,-15.781179458697423
330,-0.7439108645110843,-0.08718004818744288,0.625590689576681,-57.17011332143292,-20.15318807631357,-25.091526159066845
340,-0.9145135428926678,-0.06565718686237705,0.31796489869042005,-48.59923478435388,-16.20299791224184,-15.420176054549422
350,-0.65042944536751,-0.023811484008795868,0.5723789541736721,-15.660304363458334,-24.7128214721093,-9.87108361210117
360,-0.8364105918507121,-0.041261583541772714,0.39051216441255104,-18.29374828294519,-24.642895401767337,-8.971617499668824
370,-0.9765798716820626,-0.08381917340726282,0.19761051607514812,-22.46028131660085,-19.850083644910363,-8.684617190643468
380,-0.8640686585056727,-0.0547280324504185,0.37838815346709753,-12.333856988613634,-17.443008054108713,-13.500178906207783
390,-0.7886440189060349,0.024818757824053343,0.6698164853886632,-3.751173838524932,-14.030678563180313,-20.784984876802586
400,-0.85810023820435,-0.17786856985753502,0.48588540424530935,4.232784889831678,-6.1066082863646525,-15.434165353327439
410,-0.8334429965759812,0.04708879839910179,0.29842774753827356,4.009621896829918,-1.0256607484482512,-34.50545451294481
420,-0.8122849323313305,-0.009742590836875318,0.49347290128195065,29.480350227209552,5.222782580596091,-33.41556898322883
430,-0.9100383369142866,0.47806765579543953,0.9796878060522396,68.19442690631826,8.51007728373355,-12.673192621611049
440,-0.9029675612136775,0.2756244659822328,0.7730306981060585,32.93844077438517,8.116801842180136,-13.109620433711797
450,-0.8765456656592946,0.024926635344642276,0.4939484988167954,5.599590718053243,10.867614334431938,-10.091368187536624
460,-0.8864117407533286,0.04501506814316714,0.4526603561038703,11.503018290892028,18.506730000875237,2.902718534356195
470,-0.9111818889916038,0.05594184584052529,0.5251123365955527,8.847490068172306,16.784296028977096,3.8456238169657166
480,-0.8492370110839826,0.07144115671063245,0.818265665064331,17.365744931052667,17.577665639147586,11.290421570542344
490,-0.8782704369841178,0.054330456910923336,0.4969348092346762,26.338838205347805,20.787177671858167,19.36822338918712
500,-0.8653037316641051,-0.055174362843683364,0.2962796829560602,21.975449418530115,20.074684882541487,19.31620150388916
510,-0.7761645044731879,0.06352532936270198,0.44495306197382223,25.433894989943962,21.57663563786156,28.98164171504578
520,-0.8227516946709214,-0.20008919460981722,0.781833264687507,0.6180064250495432,15.184137389476462,23.3345412821715
530,-0.8219513300159984,-0.24216890985418407,0.8834587013253054,-27.678752003090782,8.093475006755739,10.931686246891973
540,-0.8684943821295866,-0.15613392204964013,0.6619466331263424,-38.247321874513126,3.7834977814757558,1.8435472756400562
550,-0.8729143599064105,-0.009165373152394561,0.46109836545092386,-20.42030002086852,9.793387160394937,10.629177313049293
560,-0.9016618904720687,0.15779931260638808,0.25031591362446864,-5.624997406160376,10.033405551792523,21.64943188801798
570,-0.8605762580190248,-0.1548740981048537,0.6918135156355506,-33.3772559141003,5.852789868958982,15.222791605852985
580,-0.8057388106723787,-0.26158398826816287,0.6304199632904571,-14.383686924025175,2.7208827693056357,11.792870232844987
590,-0.8470911349530308,-0.11076927590597294,0.5571999792923962,6.295244791043141,4.249657344831567,4.838697225149523
600,-0.844478108223544,-0.026222212235618405,0.5311507893952176,8.553462338976908,2.409054063488492,0.6108044807213113
610,-0.8445136562887865,0.03746585416836284,0.5027212394235,9.119328357668916,4.45417430132713,8.186081998499036
620,-0.8523105442535565,0.0724873817211289,0.483798295903883,7.958679491040686,3.4899058152101885,9.002003533151562
630,-0.876008119950353,0.04819747775477273,0.46924495223264584,7.212299174758307,1.0040478416151815,2.082317140420021
640,-0.8710551937489897,0.07477823419159013,0.4821545695818498,7.734328194822792,-0.25802372170001553,1.7902486454903803
650,-0.8542821223127202,0.0978579669849815,0.4773951831636087,8.87342575203511,0.04768308268161836,3.444901068703629
660,-0.8805901720277066,0.11976342433576563,0.4427614324023233,12.293797981734922,0.6114437984547862,1.786069060663011
670,-0.8820912318601821,0.10904047366945968,0.4576560838479308,6.728196445154847,-2.724992229911864,-4.784979806419562
680,-0.8791624992799502,0.07742446089452253,0.46025761412851734,12.531708317509432,2.133936251219145,-0.7611313088208222
690,-0.8384516391737009,0.1123247387346645,0.5026984573561395,15.033877826148112,2.9728486731041333,0.4207750908238378
700,-0.8468353744477162,0.09029075052339239,0.5199194980948458,12.587725416092862,-0.9102647342429675,-3.229793789629084
710,-0.8545822331084085,0.05890113084748686,0.5473374693564973,13.183058659165672,-2.453548609518401,-6.422128355466802
720,-0.8694716225198603,0.04328130535673759,0.5272162839833461,14.911434671485974,-3.066762324560833,-11.102540151578117
730,-0.8076689017346127,0.03233570281597774,0.5120006937660948,5.798050265707799,-11.536969333727093,-21.967140314511294
740,-0.8554547745548391,-0.057323495563506716,0.47252833227004765,23.36877809201282,-10.36764201432025,-27.916199048295482
750,-0.9106725100966617,0.05039707652398644,0.35585606210999265,20.601006199291938,-9.929814711685058,-24.47178120709528
760,-0.9797070722066018,0.3164219930080595,0.2792314362909033,38.9369161234048,-5.275685437760571,-11.71560645511353
770,-0.8528958154151813,0.10096118777715404,0.41465556888488747,28.21491940162151,-8.107866750818324,-20.006176216867917
780,-0.8276524617355975,-0.10252671396886706,0.3785722712536112,7.70205348398529,-3.0405313635215427,-28.266842090505925
790,-0.9130815404839591,-0.010889800310500367,0.24928140557226403,-8.973281812182517,-2.074071497799191,-32.14447086403149
800,-0.8687022061537113,0.026315499779439158,0.3868061094316671,-0.5232934929331332,3.7502818642821416,-18.263869392981288
810,-0.8444374204919343,0.048048505369207656,0.45460302659529767,8.081712262096872,5.493353435971158,-13.578411067533784
820,-0.9477300380737275,0.13173227979482136,0.40286131108866974,3.3700224080482606,3.539665120679137,-15.304644378451258
830,-0.9219330368056354,0.05394266425288356,0.41755963267297447,-2.0089366846369465,8.51989584428392,-12.927952285454703
840,-0.9235474490194501,0.05321987230633386,0.3844547948817152,0.19614548792640463,7.451371953008442,-13.622423754841597
850,-0.9390924013024551,0.018217808127127467,0.3291499169081596,6.003044370038173,14.452151601198615,-13.176663297533999
860,-0.8351857611665058,0.12681877003919384,0.64422469734977,31.635727383317377,24.598164046089146,7.871881228958494
870,-0.8676456523823641,0.16293100895645002,0.7155846351644624,46.747244687026,27.157796586955396,27.365930626522044
880,-0.9442745566780364,0.1399809930696058,0.36874349271870793,29.960570733637077,27.29714949751999,24.93191648060664
890,-0.9004485746570327,0.1075773529228435,0.6249594781686757,29.73474723642258,26.268475649959594,26.80644071800608
900,-0.9135811025126069,0.10311504695488387,0.7052911318278373,50.313571097684516,25.466751243264305,32.79943053217025
910,-0.8219862957135197,0.29191802601079253,0.766629994554143,72.2329324508532,33.26275186803218,47.53298221008891
920,-0.8531041277100126,0.11803811021077928,0.6978289586546875,43.358044067489,22.17443503171178,30.792571082814106
930,-0.9469994996386657,-0.024416357398163897,0.884260866973605,0.7459235728314022,27.221458608887954,29.393132369578204
940,-0.9400505363616051,0.016177443346015962,0.7891596968769233,-22.89484887029801,19.092682030971954,23.008501797731515
950,-0.896292372917873,0.004493662184868422,0.5631453139048878,-17.031499927680894,8.322474348855936,10.845382436286142
960,-1.0046921063313126,-0.15200111284265871,0.490865028653317,-16.531974994102946,5.090354854998762,0.4058512983235043
970,-0.9041916099757312,0.2689493245472868,0.4025322040755318,-40.229047735045405,0.9802493801915024,7.914369953010464
980,-0.9051080548065067,0.19912314428638792,0.23468137935003958,-56.55094186780288,8.812398291452816,15.050435018097241
990,-0.9120692935385213,0.26315385811001335,0.45298319918622254,-36.90249180881517,6.016216848960962,26.76643558431251
1000,-0.9625536817936176,0.06172824388220529,0.4650466130223208,-48.20384179551943,2.778870305929974,7.8089593141923075
1010,-0.9212435890954616,0.0483012386492622,0.3860995247138142,-29.407502049622632,-2.598750363878994,-1.7133721563712037
1020,-0.9584196352812392,-0.020124409798057952,0.3067940665854763,-15.725332085742128,-0.07393780342605075,-3.1406881119791894
1030,-0.9513746877249235,-0.009984000467224509,0.34916446249096394,-14.389922542351627,2.582178052304928,-5.147114110228791
1040,-0.9062275311860261,0.10494966291256544,0.3874032433108041,-10.923442855189556,-1.63441779915677,-7.313384212101117
1050,-0.8676839693647356,0.1800036683380456,0.4130764559888611,-9.641254383107404,-1.1304505138423486,-2.475262853360531
1060,-0.8660019373734729,0.1818769849547453,0.42347432603990165,-6.76410126513826,-0.6462204210743985,2.8157075626242887
1070,-0.8934903459533886,0.17736463376333442,0.3986549406891219,-0.10939219329375627,-1.4569079399867828,0.6184884732335828
1080,-0.8839165508980221,0.17869710237746342,0.40118899985914447,2.1324256177455876,1.5981780280000357,-0.04020561424022562
1090,-0.854523240032087,0.21155249428920914,0.43060892796414646,-2.903883119621435,-1.623138227945695,-6.176464060779048
1100,-0.8659696186287319,0.1993340336935473,0.4276292530426142,-7.626308067398753,-3.266674978250488,-9.912061044064444
1110,-0.8729440893804974,0.17750506887424017,0.4248798783570558,-5.306601688965914,1.2692904623857244,-5.628152483356432
1120,-0.8761146170289568,0.15685507307245564,0.4134241315025674,-5.754827246813564,0.16729280215547693,-4.418556299310658
1130,-0.9048979262387107,0.12765183832810256,0.37366765968441623,-2.6707267666572556,-0.006481317454909763,-0.42978572811436855
1140,-0.8912507536024834,0.16018177170095552,0.39399263504034154,6.5783956543661635,1.31749905642575,6.564674024501727
1150,-0.8910617584424892,0.17339757936821873,0.3907582416596923,4.572027480988557,1.6892954655247405,5.219026512665105
1160,-0.8983438362584008,0.16870159782867006,0.39320366756963954,-1.7851377861757687,-0.7690256490539672,-0.6556292634815511
1170,-0.8693622934079303,0.18724299621507434,0.4193999215832488,-3.507668887289662,-0.7094748045073749,-2.3565833201811723
1180,-0.8844317418893805,0.16943955232209912,0.40576991585462885,-1.2669112636821616,1.188484475200531,-0.07140280875922578
1190,-0.8892855211305773,0.16244563858938307,0.4026468134989514,-0.6269034826775917,0.7490589224799518,0.6040514089731213
1200,-0.8890892880630588,0.16206607766790115,0.39875207625133313,0.9557365108470972,1.5825542652463782,1.8479736994044131
1210,-0.9106905708897277,0.15258776230733045,0.37548074211822974,2.031094675919822,2.5279961914906215,2.26782630046204
1220,-0.9060738650701999,0.14905081157077307,0.38776258996159507,1.0776016932713053,2.3495853651638776,1.3628303504008366
1230,-0.8802408757222246,0.1709315839046162,0.4064276150112493,-0.31005963826545124,0.22183050089386283,-0.384706388025016
1240,-0.8883399309993031,0.16436566356729837,0.3993072269906357,-1.1707724697847453,-1.198692807325722,-1.3385446221475392
1250,-0.9107110998374004,0.14739075274095492,0.3786527293606983,-1.1295751454793597,-0.69185716230474,-0.7675646398598689
1260,-0.8582134477113369,0.1995428603199246,0.4323800637198337,-0.6437749865110616,0.043595410742893886,0.0034990422463366255
1270,-0.8882803887850518,0.16346379656232699,0.39927438100408613,1.9867991538899483,1.5455396284249527,2.4137686541779786
1280,-0.8713267825721561,0.17706712305668687,0.4138712558904867,-0.012098884504614826,-1.6176433928926572,0.17116045266386903
1290,-0.8789986069602231,0.1742180580961506,0.4088823793844041,1.3538071728425356,0.4689599690680244,1.6860402423699394
1300,-0.8720593977725325,0.18534808729690808,0.4068081925368787,-0.13168909015865116,-0.4028033879505063,0.1999460293577764
1310,-0.8615067830839783,0.19076301914213808,0.41601023226651146,-0.862818494143874,-0.4780709557741875,-0.08889821727993641
1320,-0.8574070705820016,0.19488551579913752,0.4326360093107463,2.30248124694765,3.749988365777945,3.68661634944689
1330,-0.8735304875181689,0.18483290381768103,0.4153268425093266,-1.7139744443484004,-0.45119335814271555,-0.4162208204473882
1340,-0.8904966628383258,0.16278234510550557,0.3982484096573473,-0.3490109650907353,-0.006590497895249105,0.084783168969195
1350,-0.8658531512301744,0.18532341016711193,0.42035826272648247,-1.1136312400866037,-1.654337704871054,-1.7253428931778643
1360,-0.8812952895241096,0.17368669102965872,0.40286153410876224,3.875719270999763,3.312696890458296,2.97308461149633
1370,-0.873950405319346,0.18228001228285898,0.4159362230222704,-0.9397467547315248,-0.7029571785740634,-1.2424409670758962
1380,-0.8992901839524928,0.16276544163175993,0.39424288011712366,1.5511004939321071,1.8232781653150685,1.3299499944967255
1390,-0.8934230598065799,0.15522465514355765,0.3953764644302243,-0.13557987032604746,-0.9204367841469987,-0.7488473186489681
1400,-0.881560918720034,0.17004197497655046,0.40642955346463006,2.012906308187284,0.4286104028117985,1.7280803990234668
1410,-0.9150871740672698,0.14045556600390205,0.36928130679840676,2.029376254922306,2.7428627086401787,2.413344619090631
1420,-0.8788063405014096,0.17754739291708171,0.4078132157476121,-0.2163319572364637,1.2857677233479636,0.29855431018143697
1430,-0.8935999136795211,0.16161041427694808,0.39524036397453133,0.5183020307189964,1.5988062159235086,0.861395093702447
1440,-0.9140483402905281,0.13974989776618882,0.37278894998142875,0.10759622055324136,-0.11224996472238863,-0.13207943575531195
1450,-0.8774650024270125,0.1755542353428538,0.4051536031174957,-1.280185698729921,-3.2686016590091116,-2.3403344000865918
1460,-0.8514560932832008,0.20233113029918048,0.42846156184235035,3.3707967382053265,1.1831645957303807,2.378976189613949
1470,-0.8821719757158812,0.17431757008326668,0.40194773462735994,3.171214095210674,0.007457814815606478,1.61155430231805
1480,-0.8852613412831085,0.16987457609892292,0.394070096090404,0.12019035322360427,1.1945802452552858,-0.06917495616526126
1490,-0.8748146987305666,0.18651339709913162,0.4110136519987484,-1.945829106700662,-0.3171964608412217,-1.9023627427417122
1500,-0.8856446982726787,0.17623597904154348,0.3991324734250665,-1.8827888710639427,0.27644946853240215,-1.7722403473421322
1510,-0.8618705922450677,0.1968837965056148,0.42529115208224716,-2.647781084333592,-0.41707579385376875,-2.4049080989278773
1520,-0.891600192155525,0.1608563272392915,0.3982085617880339,-2.1585215733180023,-0.15478651062430204,-1.5246361808474629
1530,-0.9114473967422405,0.1329497715463224,0.3773794046263653,-3.219405029864596,-1.6743355724800073,-2.1570437030449785
1540,-0.8536402795977156,0.1904659376534506,0.4413767729198011,-1.6548640065381564,-1.6242911471100818,-0.842436660640357
1550,-0.874561649095929,0.18834724049896145,0.41176987946868,-1.319094315687998,-0.07850721886031786,-0.7992169814077744
1560,-0.8911366880410754,0.1602799754973695,0.39526188558653,-3.020567208770024,-1.1533383266647308,-2.8106176422293907
1570,-0.908537477970477,0.1403852840773358,0.38132769054116755,-4.506460512061378,-2.118238916144292,-4.136399248748019
1580,-0.9101962981722885,0.1483502494890233,0.38194580554945523,-1.4261474779171022,1.8179780245606745,-0.10828965212052166
1590,-0.9019141346217399,0.1504191375666713,0.38983519316543214,-3.1167266308299295,0.7330596674660697,-0.7521371219883144
1600,-0.8699020504012149,0.1723670750473143,0.4196626624913041,-3.502897203058618,-0.7030664032835704,-0.7772175888694355
1610,-0.8882009863692321,0.1591234858485932,0.40256713180756126,-3.652860293483092,-2.620286657431186,-1.5024770897022568
1620,-0.8944107319927634,0.16131121335070842,0.4036603810778164,-0.5514194749263261,0.9157097908670749,0.6683846278027443
1630,-0.9072534916459102,0.14499835491058138,0.3855378734289947,-2.1142963280049925,-0.4685204458046225,-0.9555374336963712
1640,-0.8919423136698256,0.1588262173197665,0.4002459995792703,-1.697545800376291,-0.520725060254649,-1.1421841471351337
1650,-0.8871281339094503,0.16945089623486256,0.41061983221494863,-0.5534687882640994,-0.15532628246908045,-0.5009684580284613
1660,-0.8691386981534309,0.1751975434253598,0.4177816854017655,-1.6175153410267002,-1.8331749719179173,-1.8840046819461458
1670,-0.8910646430789427,0.15108735033158788,0.3875186422026375,2.9358691145447247,2.260138295258443,3.0116649225918435
1680,-0.8743536813840079,0.1747234896703373,0.4063207295596026,-1.3317376441548452,-2.380720448692598,-0.8052167103317716
1690,-0.9119351066765751,0.14187779927716984,0.37742910144577685,3.7682238469557827,2.756689473490382,4.301593998740783
1700,-0.8773869999821212,0.17837897536386624,0.4189560523619403,0.4424968950539284,0.1995326439227233,0.7871676593803443
1710,-0.8970320935196713,0.15410754363338794,0.3920775473684283,-0.8170954963850553,-0.4591323361542232,-0.40210250573574224
1720,-0.8961229106390302,0.15865746904947262,0.3861526543797988,-0.13581513855752642,0.11115388967418488,0.02360687661563346
1730,-0.9100192494612704,0.1496068127820345,0.38438634897051444,2.5899401546235334,2.402306256805875,2.59696490531927
1740,-0.8922617835750609,0.1611507476197914,0.39828597739624383,0.5141532466162183,-0.3941145499755806,0.15024294801553062
1750,-0.9028864643943068,0.14908798681053656,0.38369999691376844,1.2451770917475917,0.43284794756074874,1.1915007170692993
1760,-0.8878675425033749,0.16743000209457387,0.3971652346135452,3.0815741410570148,2.275298159451946,3.021337328378206
1770,-0.8994054421508861,0.15836544277522321,0.3876340595413512,1.30025109788726,-0.01013737732832054,0.5003592205174409
1780,-0.8439278783354622,0.21536234483075006,0.4497800861601118,2.320465913971127,0.9781392561106346,1.0001002263155205
1790,-0.8768316163272927,0.1856118661196583,0.41171929312462263,-0.8599019309310502,-1.3223882806125937,-2.174047752709036
1800,-0.8785460671332462,0.1760634874844449,0.40035518770969236,-1.794744454357116,-1.4976153561129604,-2.6665271456179447
1810,-0.8982245490806577,0.1537620025304219,0.3839189345281011,-0.7012544949927769,0.18561669792636193,-1.183867745299624
1820,-0.8742138331779656,0.17029332888166565,0.4112623546254953,0.6227556011372071,0.7533462929926396,-0.2363758437855472
1830,-0.8651468970510066,0.17899342388421974,0.42698903054513215,2.5865625826925256,1.59873980383991,2.069884709232227
1840,-0.89004161398249,0.16136097837371555,0.400228748909145,0.5812233330226222,-0.5542134883711214,1.0476173288845871
1850,-0.8845221021290308,0.1718312036997279,0.4015431616796451,1.1972158060695806,0.6538740837821663,2.2185043578741954
1860,-0.8753421199426121,0.17757321151008515,0.4136371954481902,1.3961673791509985,1.2181567247399179,2.178319580128636
1870,-0.8877097757387424,0.16371685871698347,0.38870168220793977,-1.5191282764195981,-0.9562991079966816,-0.40216751225797986
1880,-0.9277305403114309,0.12724129789840022,0.3569360346156373,-3.336733741709193,-1.0520747344878338,-1.5708473943197372
1890,-0.8772630335355556,0.17504178899008063,0.4063420402689874,-0.6649699797505522,-0.5250268644423604,1.1199841464187
1900,-0.8884608372237082,0.17251756894188103,0.39569275581020286,-1.277754437372089,-1.1991625316540069,0.5099665049693438
1910,-0.8847001960685699,0.17816352294675578,0.4010985170483584,-1.1256735412278085,-1.3085850914050945,-0.22200998535218042
1920,-0.8786281240984891,0.17979798020359347,0.4070544464517892,0.01208603474178016,-0.4257101487265477,-0.11880182987531984
1930,-0.8884389331819063,0.1691876547876059,0.39425302617965385,-0.21655686464385945,-0.3027769254621997,-0.56160986610615
1940,-0.9074964207190773,0.15373008439099606,0.37347824243680805,0.14594860195042092,0.9596553862556271,0.5574839467682633
1950,-0.8732145243056575,0.18173200094457048,0.41352779781918986,-3.0466940078933655,-1.2098525885251106,-1.71274019941856
1960,-0.879070170810952,0.17169328607714424,0.4060245725897592,-3.4287752526303845,-1.455077505537943,-1.792263898344441
1970,-0.8812085800834877,0.17199125077373825,0.41383234479360903,-0.5343499630321986,0.5348055681101211,0.9706933573156903
1980,-0.8996319646690666,0.15740841790728363,0.39344417618031013,-1.970272368901293,-2.121600794607857,-1.1280997431599324
1990,-0.893003057734445,0.16315272174847398,0.39300306815129,1.610148554272464,1.2637553241583825,1.8685746037376167
2000,-0.8759122091110386,0.1797011331397679,0.41153464508540194,-1.9705488534744773,-2.1103157927826826,-2.3278352422084536
2010,-0.8805783259163176,0.17351526641553613,0.4095521154381587,0.53827507677384,0.6159973198150024,-0.17760389647143415
2020,-0.8620385380103801,0.18859051927497467,0.42486765511886215,-2.137689191269652,-1.6124153096897005,-2.308602284492531
2030,-0.8914165470045796,0.16136931041185346,0.39926236503757245,1.072017676573819,2.204755996615184,2.2739437306437806
2040,-0.9117606117427677,0.14386208747393062,0.37820998186081195,-2.0081750493718276,-1.5561953367506718,-1.1174634858807146
