time_ms,ax,ay,az,gx,gy,gz
0,-0.822431279944211,0.07486972533033631,0.6042681592535927,0.7047667908162905,-0.5205249902988361,0.2978087382276511
10,-0.851932142687772,0.042494243244952476,0.568884048560922,-1.480425542427718,-0.8340849075587706,-1.3560796392085792
20,-0.8020430673112927,0.0919180076851746,0.6245890063698472,-2.7736887748018972,-0.7724988367933222,-2.0109667743772106
30,-0.8287654555974874,0.06193801153238861,0.5951133494757707,-0.2862697843894578,-0.8993275776714609,-0.663588836584537
40,-0.8364082560608784,0.056390987551763534,0.5845454550664881,3.4110129262055495,-0.2398135765786591,0.6771847810475464
50,-0.8321366632203171,0.06241148190187976,0.589813107542002,2.405122839588752,0.04585273094627759,0.19967940609569867
60,-0.8419346801570434,0.05570334980537196,0.5784131719666247,0.5984211700905671,1.5353982739002974,0.6590214435631543
70,-0.8457809646568941,0.046163896102256796,0.5767414524468459,-1.129785235935195,1.286342005482866,0.6409229190252201
80,-0.8152804917266168,0.07590432362795055,0.6089222722061948,0.5795667044673112,1.1632698478915544,1.554484896482188
90,-0.8244338991874597,0.0730615710570393,0.5928470948684589,2.875512320836419,1.7506553326244236,1.7037374967838268
100,-0.8560952609720395,0.04242116587089641,0.5601646162686645,-3.4092239613102193,-1.649278705612839,-2.794875649736076
110,-0.8486840494893485,0.04644318997896989,0.5668450744751585,-3.7065121917135824,-0.41042380659246513,-2.1949360375427847
120,-0.8185471729972285,0.06994526449207628,0.6060478837881578,-3.874399603528861,-1.8561514733004585,-2.905996309255442
130,-0.837987965158451,0.044213379916112204,0.5830261422913284,-1.5807669132201188,-1.4442853724646476,-1.0117578017728523
140,-0.8159936690916563,0.08101929022042335,0.606072274700527,-2.208567252924414,-0.03136093031816519,-0.6606995525448356
150,-0.8363326377757967,0.07096724057686343,0.5970324453098084,-2.903573566290097,1.0403176880625529,0.36224656450885595
160,-0.8338224500622868,0.05625941740141799,0.6128161602664102,-0.18799378318469684,-0.9688714150251907,2.509006799426473
170,-0.863429011350095,0.0371983451646061,0.6656503029196431,11.397401741868304,-6.406847699860065,7.3078524906562174
180,-0.866898758381874,0.08743137111958935,0.6972777227570226,33.68724371110748,-9.761535944474204,15.829772433274698
190,-0.8457519505444433,-0.17774829337234743,0.6187962767564321,26.656615734939745,-26.216757673532065,0.49569755650359926
200,-0.7421463398723805,-0.20922216938944665,0.5792117826345536,27.27752091905401,-32.89314084946115,-26.39198368726679
210,-0.7828440003493797,0.08269588118214959,0.5786265460739151,29.535686991806713,-31.798230711253975,-37.38176216576484
220,-0.696764420257121,0.17155644666305606,0.5769434935954654,9.544479219868883,-30.60032366631529,-30.095840726959075
230,-0.6089776173903998,0.1645642596284573,0.6525417757020934,-1.8676928046210983,-25.259110981891077,-19.05382863617587
240,-0.6663043092443778,0.1817851675143775,0.6217177151129248,-5.258767834188542,-15.485166999616371,-16.355963371997554
250,-0.7119951526349011,0.17248625297138523,0.6516345690001974,1.8759391817774227,-10.299302711141639,-13.353492070283483
260,-0.769744637884876,0.17158942074209974,0.6317280021530686,-17.361422384892926,-4.949345720976633,-12.514515317842744
270,-0.8644202462241816,0.22801628397477014,0.6370919338344073,-34.17273812324689,-2.636540148239026,-9.987379505753905
280,-0.8694611310539068,0.08298540511799228,0.6453547277618809,-30.32954431081052,-1.8448203228612876,-1.966016649031183
290,-0.8099107443465692,-0.005407315075756907,0.6992851898973088,-19.640816577173112,-3.4151940838614347,-1.7636864849565885
300,-0.754505796939739,-0.002316854887902611,0.6613780854478627,-20.28404120128715,-13.102213716824403,-6.914501821839331
310,-0.7738738207630127,0.0921665993041782,0.6201143142302598,-24.783144614977843,-9.887972060818738,-2.8676242985669127
320,-0.7785056008746689,0.12943861554851954,0.6300155906507812,-18.115615338541293,-6.325247828334985,7.566171613042975
330,-0.760810952573991,-0.050497862613937364,0.6502673103816592,-11.064409408919815,-2.123678445462394,10.042320115333341
340,-0.8608093504740969,-0.07841191895250492,0.6748406263123841,-5.541706840536737,-3.304392700581989,-1.1724635395400984
350,-0.657052081955057,0.10165157893329782,0.5987489132580551,-3.5014467718164717,4.8262936349822585,2.0460616729884835
360,-0.7372374406465377,0.053732587707755256,0.7130743001873265,-16.259653556080764,0.8414258347937715,1.6508802291772045
370,-0.84289561586504,0.002890620350135202,0.668386395758739,-32.92973805153602,-2.540766429451722,3.196050282162168
380,-0.775241860000732,0.009347309482624426,0.718405915717941,-58.08324814000734,-5.950015872705958,-0.9222380359700173
390,-0.7460887651073804,-0.06282287372293839,0.7834115201144399,-51.165822662364285,-7.646390101557874,-1.4889565359237915
400,-0.8773325734483431,0.213133538795524,0.27326098708410945,-12.76137020286994,-16.100872265380204,-0.9509580008911978
410,-0.774277525875755,-0.12365378933234411,0.838476152826324,-2.804324721194354,-11.440720401808175,-2.4390783960869893
420,-0.7541109539837035,-0.06089006090968246,0.7290419689548344,-31.343929430999122,-19.715727963733972,-15.378688629812228
430,-0.8660692054322213,-0.14093214528243292,0.49564805487018304,1.651876946857495,-10.020505646281629,-6.28531423415642
440,-0.6748252138499934,-0.3163323176807867,0.7303958910822792,-0.8047912698426161,-17.944973310336536,-32.137390647485915
450,-0.7177817679656868,-0.10569503787476112,0.7189585757087341,22.95036893090139,-2.915289716076832,-28.072255529441787
460,-0.8372960319285664,-0.007027915783182639,0.5612205278150426,27.512556742110014,6.352900149477265,-18.351598912905093
470,-0.8591475233522496,0.12982253801382326,0.6436471364600034,35.62818902815679,6.800297037974222,-20.02719561266324
480,-0.7318050272149759,0.14786151139261958,0.6715475600707004,11.144793145685348,11.098775300358252,-15.796735634391226
490,-0.8209351821739025,-0.13442918746010007,0.47425683249688594,-58.360312482929615,29.193160688083694,-7.020983935411634
500,-0.8324170450473151,-0.07102092192245577,0.5164403853400666,-26.672052851297217,29.673095929423216,4.769008342455598
510,-0.8079871053262706,-0.08797265762465589,0.5964808740220086,-16.347637798434175,31.218024199175264,24.221010547209787
520,-0.7270876945376853,-0.10595256586562722,0.7334569261896754,-9.195248930267882,31.04799115436151,36.36482975686502
530,-0.9154078417174737,0.3163305372072209,0.4494016961374923,-0.11062859505346681,20.298136502456913,30.660402939304802
540,-0.7961887341668142,0.4814454025873912,0.5654640629156731,15.731862678597784,20.608906290116618,43.354237900626075
550,-0.9038171334153665,-0.189263096032155,0.6981710930170938,-35.89628920194673,13.843126258713136,35.3369514017524
560,-0.6994665996409615,-0.32115000017332423,0.8878047892087854,-27.47880394967398,6.01751383627073,16.881150962301007
570,-0.7647139402969322,-0.19779402119395514,0.6936351802878356,-16.93758020536854,-1.047579574699401,9.357380241770588
580,-0.7921263537675842,-0.24097392712660598,0.639089664527233,1.2014043344211707,0.8279166758616495,11.058796458559097
590,-0.8074982960949161,-0.15421129276417575,0.6059418279630229,26.228645787899577,-1.089658855232725,4.332893920514958
600,-0.7784793531154803,-0.06984298234193184,0.6584818950659773,48.40965334953997,-5.56725736549374,5.16331348610476
610,-0.8539519541230671,0.08420318844298715,0.554253766085971,43.569082929302674,-3.8262584938983197,-11.2822579212052
620,-0.7927391675142057,-0.2865387954759065,0.34287205484524164,0.6485683507963182,-3.7522382132865495,-42.96128366160713
630,-0.851391309540189,-0.03180147355025373,0.3269926768014626,-5.483437321235957,6.129614791546599,-33.84252131341835
640,-0.8883499454579017,0.03081717614896553,0.3506671939250252,24.78262236732825,11.254653171333446,-32.76337890015919
650,-0.9157261175289927,0.15250437621875085,0.353916533694907,-3.2583476351894167,16.476464195945827,-28.99472168551939
660,-0.8971867422964492,0.06171327689739369,0.48533201369487583,-5.481556164550751,30.467855012759923,-9.811932075627677
670,-0.9123735681873759,0.29522790318758696,0.6759138909686634,39.49883980213925,33.39485283227488,9.659018783101569
680,-1.0198077591428218,0.4614561006075771,-0.19530431879653073,-2.63447121687891,59.32113927873683,30.47576157598587
690,-0.7540575246858046,0.28668082577722626,0.7874444140211424,87.65845011396762,44.402576951253224,44.34647131646817
700,-0.6593588269719234,0.3019516731755605,0.6500909185622601,20.241979375197875,42.89829017294588,51.0365895509081
710,-0.6743241984087727,0.08883066884224221,1.146428764311369,-34.03266097832996,9.51024786136454,18.61952775783694
720,-0.8465039643973511,0.04232902873591582,0.8381293397333354,-44.100357213718894,-0.3488331156835085,18.407690489004572
730,-0.7019531184112723,0.008008442354506798,0.7697155137895295,30.336796368389255,-15.690910758761955,6.314198125957975
740,-0.9862284774833535,0.11953066824989317,0.5173576302380557,-7.830738780603625,-20.000536247071743,10.467579182870262
750,-0.9496480780730354,-0.1952652952568356,0.4682434661301317,-4.558699077708804,-5.475795866487731,-5.876193186555841
760,-0.8142355783057679,-0.029320736251886317,0.5445106304381309,23.89049350160066,-10.99125544986629,-9.397782029080279
770,-0.8236561043003403,0.07874221640578821,0.6006491446779088,6.866739894543091,3.465646716661114,6.623582381142982
780,-0.8231607441846682,0.08453614734639321,0.6009592516106708,0.41211790825032213,-2.193315633925068,-0.25969040647427666
790,-0.8028031249705845,0.11124909071550465,0.6163903742882453,-1.9696266118850088,-1.7999088191771095,-2.474777945492476
800,-0.8437218992101416,0.060394969730964934,0.5738738204497128,-8.227969327747694,-1.6984438400182416,-5.130978755347908
810,-0.8461307857224417,0.043619837197768824,0.5679273643263123,-4.488159576779859,2.9747675496316504,-2.441463976710396
820,-0.8497917799132918,0.042699109849944746,0.5763254525788214,0.5298051847927863,-0.35561878080423515,-2.326323553827365
830,-0.8510447902634909,0.031178431638063022,0.5694685092672463,2.7672367781224594,0.6946968387548472,1.010337611494319
840,-0.8506084385534977,0.03334001746061355,0.56862336537039,0.8873187490369396,-4.3897896098681555,-1.6159688288694851
850,-0.8434890817630116,0.05300411786316188,0.5836080114788255,9.60367539737554,3.70745675225111,6.472363651987269
860,-0.8244604451913455,0.06356243984292599,0.5945731614727676,3.9977827986985033,0.5155620825213106,2.57236949937649
870,-0.8565672411539147,0.037239324517129704,0.5655736774047121,-1.1855323951832784,-0.66158866164517,-0.16374305302799116
880,-0.8636231167818923,0.030542941147534156,0.5506266557427517,-3.09640803195903,-1.174531823122635,-0.07503397166057113
890,-0.8076556357684584,0.08709930164954378,0.6099420759432257,-2.0595340671068403,-1.6056310178141104,-0.2777695248306502
900,-0.8278067826827625,0.06442681810553884,0.588721396937013,-0.009549982712871885,0.3292913518029255,1.9383270850556875
910,-0.836148062772456,0.0646387217231295,0.583514266665918,-1.3076301283556726,-1.1377797090841264,0.06606418435211125
920,-0.8609074488345274,0.041399697469090155,0.5630950323745779,-4.544564531045204,-2.2656530875677507,-2.4398626940373944
930,-0.8463575388869767,0.05011153463382972,0.5775934066651145,-4.331978105128858,0.07317474594876616,-0.9088108870427152
940,-0.8328035994441266,0.06574130405605942,0.5894601971839568,-2.780737425822504,1.0108431580783552,-0.24392767009128347
950,-0.8022335022490331,0.08876702241581831,0.6158069370270125,-2.9354603939685946,0.40760258412388134,0.49020699575253257
960,-0.8385100126426386,0.04948327831878294,0.5820126559232387,-0.5825855134671153,-0.004882367766389006,1.2987254393796008
970,-0.8581954826170854,0.028507768073804056,0.5618168113192838,1.6221857480647885,0.644172073659518,2.8519074430398175
980,-0.8269879967679303,0.06007244666252709,0.5918269973024483,4.384109732657332,2.833914714720132,4.079272512232477
990,-0.8327761582125407,0.06647468365857553,0.5927723236637292,3.104304280959307,-1.0509330619233919,0.48360479742812856
1000,-0.8332438351401389,0.0700301194067558,0.5879312335895062,2.588493926493467,-1.7020374636838145,0.027848819426908866
1010,-0.8209264648381993,0.06823182134270316,0.5917409202290459,5.042012076667503,0.5637611593861358,2.9382579916258424
1020,-0.8259173668404409,0.08087425422988563,0.5972858576297652,0.16405362221906739,-2.890620355744531,-0.48391349161598995
1030,-0.8160841135911819,0.08146436077164686,0.6070158486863587,-0.315815420858396,0.7694378377493658,3.1369025060534708
1040,-0.8499941557883428,0.04134556735022668,0.5762754069996554,0.9239407280189132,1.732669839103932,4.6298366989295605
1050,-0.8437065292648174,0.0515867695827319,0.5778902927705996,-0.7768877177212119,-2.6739207280620723,0.7755091496127098
1060,-0.8213840416558386,0.08505882954828538,0.5969483632663118,2.133987563593657,-0.07016918167774872,1.6254117052501615
1070,-0.8065362742849121,0.10382370109721274,0.6127488947927315,-1.6214252870467698,-0.6364361884770662,-1.407228738773739
1080,-0.8234701482229771,0.06591201827688951,0.5921342968124201,0.7979038628101327,2.784441964674734,2.4748326586301284
1090,-0.8431879875986632,0.055995338459768465,0.5817370807491375,1.0445070393498652,0.9075589128938882,2.121929396024618
1100,-0.8644330870633152,0.037398679086204825,0.5577766110219833,2.9031125750090974,0.7364604333985846,2.878979420722003
1110,-0.8241467595827782,0.08263709102649587,0.5943955931410644,0.3443060484099937,-1.1961298613932478,-0.08758817345497014
1120,-0.8411088768913231,0.0636070993017645,0.5826702861013695,-1.176977758133465,-0.2539591159996243,-0.7646492542801047
1130,-0.843772822590888,0.04515901513587903,0.5783743500677703,1.756810432806709,1.651542929556602,2.082253857248329
1140,-0.8158053319078269,0.07190501547928278,0.6037099856868109,4.73363872492185,2.364509507751322,5.08026847198742
1150,-0.8615795399014816,0.038775890043876646,0.5613447773307492,4.7084007914914885,0.4646258724568547,4.165645562552738
1160,-0.834678461117962,0.07281593458691969,0.5946508611102098,3.3621142515329687,1.377864050525936,3.8160826832666923
1170,-0.8098090231749036,0.0931659170295982,0.6117715426237068,2.329098583796831,2.391493604463193,3.4542634405277104
1180,-0.8292185167299688,0.0724190511850082,0.5925678191457808,1.9168461234787646,-0.2508115925128836,1.8970333966908686
1190,-0.8385986537709358,0.061354787503480834,0.5821151849404915,6.808163004397926,0.2828440338893307,4.550210737936638
1200,-0.8312538544262217,0.07844732511480204,0.5985994998398726,6.764169891752547,-0.37754712139465774,2.4494952457630133
1210,-0.8547995919154966,0.05815998499723776,0.5672971355914439,4.250023015675465,-0.6380000784447972,0.7076285864450217
1220,-0.8391945172158679,0.07548016438367079,0.5856807843487319,0.7815236949523685,-1.4751024428481807,-1.3715159616760957
1230,-0.8352975424237706,0.06576254927510036,0.5861541244907099,-0.15961264535245867,-0.6192766361114291,-0.035295794138749725
1240,-0.8156563914666346,0.09330661696817247,0.6069517073518169,5.024041676153791,3.0684882396655984,4.60694184422599
1250,-0.8362846725623898,0.07992782870122384,0.5925291115594425,1.9491243008587436,1.0126548691521238,1.4546662393734122
1260,-0.8451402364700787,0.07015645228553469,0.5816988053280726,2.1137450636474178,1.2346182060480624,0.47604844243615807
1270,-0.8246475514181194,0.08311962945671646,0.5972405457315871,0.7178542225611606,0.5342156879212077,-0.6734172366211955
1280,-0.8518439002835565,0.06391698709216037,0.569386528844423,-0.27539454944720254,1.523433127681038,0.8146186627840429
1290,-0.83194277852434,0.08356634336492672,0.5848633791103273,5.543250751628387,0.387771202587173,2.8256544920643254
1300,-0.8175261181987,0.08981814985827777,0.6058388397824828,2.8577350800777666,-0.5730576979728371,-0.06379635168417197
1310,-0.8182703952730914,0.09729790114752944,0.6096642994876601,-0.2945700479931813,0.6941072679569416,-1.3118557382073233
1320,-0.8309422957953965,0.07645045711560045,0.5975652544016204,-3.6694473297630017,-1.1524773130227897,-3.9677383897397855
1330,-0.8395199707497782,0.06326456285521992,0.5767470370459916,-0.09671721467969707,2.1783317882252833,0.34142452613219065
1340,-0.8303027015143627,0.07615102441512392,0.5859431725818762,1.6360324792949168,-0.5537151607583108,0.8229711795234388
1350,-0.8488360341499743,0.053890064254104086,0.5708266575172903,1.415399803973664,-0.8417307964244177,0.9802343000436108
1360,-0.8129119852149214,0.0971176409300612,0.6153362539353228,0.927382748456274,-1.1942247194894797,-1.0245354925418317
1370,-0.8028778973008083,0.11229431700423745,0.6157988617573774,1.1041315266078302,0.8721270902724894,-0.08250185707173008
1380,-0.8290517216804347,0.08027343944104179,0.5963890410611993,-0.817567884439518,0.7814371865723748,-0.7619515984663485
1390,-0.840718678559585,0.06239684131836337,0.5834974630744296,7.5922465474434295,3.4841414715986585,5.019917280365382
1400,-0.8185386126839079,0.09052716198216075,0.598802704829594,2.197974859466516,-1.7878215053927513,1.7511793053033338
1410,-0.8372820374624229,0.08689559991072025,0.5895363271388736,-3.0470013060505248,0.2452426823099273,1.5600709473694245
1420,-0.8160108444947307,0.09820017887291219,0.6057240732480188,-2.5238617662237735,1.2696253555397932,0.6429745156247445
1430,-0.8272259934773372,0.08295052050857404,0.5918743647189973,-5.322688457365079,-0.797140936497886,-2.8740894336780043
1440,-0.8498935252849903,0.05917679585883646,0.570435857624488,-4.609350445642063,-2.1173310506174783,-3.1654661455022732
1450,-0.8018896271134571,0.10528927622648371,0.6184873306389049,-1.1993218105127765,-2.7260600584702295,-1.1892511040660947
1460,-0.846721023616026,0.06605669305016673,0.578091110625133,3.7068269051380724,2.361244136557902,3.6793698906942964
1470,-0.826722361789371,0.0905484658424703,0.5988857894057809,0.9599913282226827,0.3785038859291086,1.4652840596457832
1480,-0.8323631164363859,0.08762367976213767,0.5870446883369029,-1.43386730633937,-1.7304240270003326,-2.244103389384508
1490,-0.8385136079731609,0.0897202355944536,0.5861131326827368,-1.9329498178144626,-0.07392037967162346,-1.1639425507703955
1500,-0.8831984112216251,0.021341978003748527,0.5438559177102282,1.79447450940618,-0.023111154054813135,-0.04338075928751809
1510,-0.8022514916445707,0.10782720826341959,0.6199619323247346,-0.18515822972761287,-2.3760272704634975,-1.3851034026409028
1520,-0.8270869133037794,0.0888234346337806,0.5903539715841866,0.11200633129241777,-1.281094951101218,0.3196465301453997
1530,-0.8293992373712572,0.08783971419936877,0.5936597900144395,-0.6704540861895047,-0.015290134606468886,1.0773507839484335
1540,-0.8243777035628526,0.09035635976020803,0.6022626170925311,-1.6119337589039973,-1.4272888557068213,-1.0719424108698652
1550,-0.8209667988126529,0.0911464037052494,0.6032845211710944,0.31641727719759105,-0.44232583006643,-0.878059572551278
1560,-0.8011103434746611,0.11050373464592629,0.6202948528921166,0.49233744699314275,0.6910091943116803,-0.01363708118971707
1570,-0.8164299611761342,0.09173103232769078,0.5987321062032885,2.427705090291113,2.520385657256263,1.3807954868314154
1580,-0.8310193313716479,0.08025622555484002,0.5902662841014579,0.906029939193472,1.9915990358297906,1.3647251583916349
1590,-0.8262262784287632,0.09672214813853365,0.5932275222519471,-1.4592540810875532,-1.5844714976164982,-2.509634785987812
1600,-0.8337003570608622,0.07836272336944494,0.5838910988274227,-1.508334883327605,-0.7412099395395286,-2.3876544609097605
1610,-0.801671620044058,0.10473374090637906,0.6200594876089391,2.8611383372138923,3.157430737121576,2.291636519440466
1620,-0.8369239627342137,0.06874215425148977,0.5849214279075793,0.45837535359175297,0.1702154587981857,0.6964155532254385
1630,-0.8124127949390577,0.09096189023442963,0.6062289849141028,2.905062178901772,0.6118096033284018,2.186979967007497
1640,-0.8330693956917959,0.08595897781430947,0.58934744734528,1.9464324961597552,0.894111488863584,1.3729282721661287
1650,-0.7996715169026688,0.10894510807140742,0.6209820430889617,0.3933306926626883,0.904386560689265,0.05720770921392371
1660,-0.7944589078639763,0.10230481438869839,0.6237300415894627,-1.4672966659959261,-0.8750349323178293,-1.6230079015011676
1670,-0.8153226113654486,0.08402383836089194,0.6035188599088072,3.198940037609603,1.4061564037154732,2.2945319480148942
1680,-0.8174019358116783,0.09108934717814364,0.6102441578590697,0.9197342083990772,-2.2185706115208292,-0.546829084221303
1690,-0.8480676982681529,0.06148318471578382,0.5687385742268739,4.27231879719446,2.0329919091947617,3.358454451455325
1700,-0.8318956454952443,0.08730980178646507,0.5899737937747964,2.5701213865949026,2.897986865979199,1.8264122928853002
1710,-0.8324129002204639,0.06905204498549367,0.5884405994224762,-1.6490995258627819,-0.6247915659907778,-1.6434912621368982
1720,-0.8228726651281213,0.08310240281274536,0.5949929431327496,-2.420331707702375,-3.165818495989363,-2.5284490008144482
1730,-0.8091557983844365,0.10219681542604774,0.6123863953687994,4.6621464733880655,3.833587527090322,5.179383584706777
1740,-0.8443659927214444,0.07304746949970557,0.5775995609888775,-0.08508493729159344,0.08437826357056682,0.8143545257714343
1750,-0.8289919298233154,0.08812422819264813,0.599306413247521,1.2670718922383877,1.850095318508427,1.5939058410108529
1760,-0.8129605973688475,0.09053656673935433,0.6067503683110762,0.5264188027585814,0.5701224034678133,0.36402089031351453
