time_ms,ax,ay,az,gx,gy,gz
0,-0.6215945556479328,0.12386247694566935,0.5275496962924056,6.756975556253145,1.3739442442595278,3.8766607594772573
10,-0.6065891450595428,0.1368385124570598,0.5418281511458365,0.20910899359245083,1.030248038031845,2.2422564762600787
20,-0.6261486526080302,0.11529351124582869,0.5294712669916697,-0.9047165968998341,-0.5258608219442324,1.4041954384466622
30,-0.6168688938105006,0.11754317041748447,0.5314232773117511,-0.8175762148135766,-1.9498398063303248,0.9703761631874377
40,-0.6312350174029058,0.10403338963249048,0.5142764562689414,0.460320450764341,-0.4670417963743666,3.4345719984609344
50,-0.6344072933839885,0.10870624680620262,0.5091014370202448,0.3427254072850241,-2.1677326159558934,1.9313716325201105
60,-0.625214344110675,0.1191037851279311,0.5232437903745089,1.3466231294374722,-0.4501236409877476,0.9089740778826727
70,-0.6207738160241418,0.12361664074104485,0.5292643072245059,-6.3823310877808535,-0.43878761817631995,-3.032104020245202
80,-0.6311734894013291,0.10644978244438051,0.5157256584736872,-9.498471758373434,-2.7889882448884533,-4.873235061410433
90,-0.6220681520463314,0.11373952231311242,0.5262861902051218,-7.037823789899713,-1.8723523211841,-2.9342657904322254
100,-0.6137501595491833,0.11776551455247504,0.536815667487474,-2.838657737740651,-0.10957154958807125,-0.08773354840368786
110,-0.6248621469130554,0.10654532980623357,0.5243550716798062,-0.1350985307628781,-0.12013798092634602,0.8718560306629037
120,-0.6107259732962168,0.12491480393353945,0.5405030880289474,2.65415361546808,2.931935116412677,3.2318492473715934
130,-0.6403957966647291,0.09657742375872036,0.5087970201721318,-1.400101923239745,0.5039642909098473,-0.10464178596669993
140,-0.6094644487306745,0.12361262327040652,0.541141234687043,-3.534087017134401,-1.2106845917551983,-2.161517964651246
150,-0.6121568956778546,0.12887668306827219,0.5357594899257446,-0.837405590815103,2.1336537805051594,0.8085821029195763
160,-0.6493518951509645,0.09369769079813142,0.5037860857460283,-0.530840194595577,2.3915824124772165,0.8632284523711351
170,-0.6302355634846352,0.10723164285338102,0.5198455237498621,-3.0269791281637968,0.05105824947474203,-0.4636030360340874
180,-0.604362682822124,0.13348856526710087,0.5430129839720303,-2.954936193683268,0.17239737038447092,0.5224539869888802
190,-0.6197620626531345,0.12781529300349437,0.5312230505786332,-10.09801114794049,-3.699466994110615,-4.193711187030174
200,-0.6105162866095221,0.1296636956893426,0.5409957692317693,-8.125658546332875,0.39447391668941234,-2.24925755206145
210,-0.6225127548775719,0.10367865418029101,0.526451360743497,-8.368392022483507,0.3356189650323621,-3.4155929105603735
220,-0.6392764939980399,0.09357007736752435,0.515867993888117,-2.5446909675828504,3.5381861933793193,-1.184264085699187
230,-0.6222185717465155,0.10627737214276822,0.529963591790692,-1.5502125741106738,2.2360090758529285,-2.189470794148723
240,-0.5956904979219511,0.12896022645813376,0.5585228259570035,4.293550294071052,0.8981324514267619,6.331146091907521
250,-0.5819409208342303,0.13954434915124198,0.5653723713909359,4.930570120566397,-0.07132126902679958,8.270175106567484
260,-0.606888883242213,0.12458138667629236,0.5462950289831018,4.781404886382354,-1.368242822769292,7.102326998299589
270,-0.6447525678343676,0.09151545458163182,0.5070294280099551,6.518020260130334,0.006098676478541364,7.292506315787857
280,-0.6093385157749784,0.1240711526404108,0.5396613690332128,8.277333233082521,1.5396870429803222,8.186611139000995
290,-0.6113483415542728,0.12965011430141649,0.5349208401414127,2.594500008748712,-1.0416831801289907,2.0505153641700398
300,-0.5997203005291183,0.14491960088690925,0.5449512070600734,-7.098500918603065,-0.5742485893896767,-5.413817725821157
310,-0.6093124498769681,0.11871511413601218,0.5446496797337992,-4.966315742752739,0.522025539465306,-4.230845658596305
320,-0.6386688655779392,0.0770852483371553,0.5104432807824176,-2.0179480361716498,-1.295592473384606,-3.3409237357415393
330,-0.6116459630125509,0.11233595806422762,0.5360812422041983,9.007233814625529,2.8207421695625405,3.680003360433134
340,-0.6263755058479146,0.10685020021041339,0.5248487091111981,3.752473581658723,-1.5196541477954186,0.815207488791506
350,-0.6172743254722219,0.11688377155542999,0.5358982222463153,4.209043761618208,0.13405481655176107,2.431073277817561
360,-0.6029291289254568,0.1363576855954735,0.5562702462548881,5.595024560686392,0.05519076182371474,1.9158453531113828
370,-0.6173573761311543,0.1328204544963065,0.5545448971234227,7.824876554510083,1.0714338536725585,3.7829233852618334
380,-0.6173083621616928,0.1387955172361136,0.5800176064007477,14.422062263970977,1.3755119967741758,4.7253436441892465
390,-0.6634163667542996,0.06062275423970659,0.5908250983848017,20.607958874685117,1.2141911972155408,6.10063674692025
400,-0.6971807008991698,0.003008296207140774,0.5763791092732913,20.237601180873195,-13.657935027304488,-5.902765566631615
410,-0.5194482720563935,0.1200452030565678,0.4455552037083875,14.306513949802634,-8.022467812083727,3.17517002394784
420,-0.5600678641471994,0.08756107103203001,0.4082029540927584,6.85033742653406,0.5691186445655297,1.8885561137578284
430,-0.5968099222313665,0.17757765761757943,0.5686942492971365,6.927882795569354,4.297678346926366,-0.2739600214931539
440,-0.6223977237065036,0.26275701155025843,0.5765531669150049,-3.486985314902608,3.3504156774550045,1.5788060113119107
450,-0.6205409515333082,0.17721838390788155,0.5633061148658498,-3.9827815340649155,0.6372245784856294,3.059096998081742
460,-0.5927944871002727,0.175611632968486,0.5869959029059704,-5.611627977539567,-2.0257738729273536,6.024255667603923
470,-0.5687979913971846,0.1698237479698845,0.4645329132188383,-19.426577231292683,7.944532898636732,1.725752733670194
480,-0.6422368211005737,0.1880601418669956,0.6168931174475906,-20.571895805614368,0.425925210285079,-0.4466746419459653
490,-0.658954044034455,0.1218952974737585,0.4991469236148544,-14.039019594061259,-0.2772781041791087,0.9438237600788308
500,-0.5922566733847446,0.13082832356058072,0.6828732265883057,-12.33641214650344,-5.063964366934651,2.6812844194731973
510,-0.561879981451888,0.04742651292398554,0.6736416471995109,-10.729214166162572,-7.862341326994637,-3.2370352755904643
520,-0.6012903771264526,0.0033363127419595547,0.573460476155325,-9.589093918322783,-12.048461379986355,-14.472454781203087
530,-0.6806634404996009,0.1045401893537349,0.38012690470670496,7.388339818528724,-7.143089716261086,-19.857205656734838
540,-0.6437256268667594,0.1123112150076196,0.4260261554390836,8.542908337309594,-7.559803189589877,-19.87347803849401
550,-0.6418830957915587,0.05273866656906554,0.4316782814670316,-6.715889541845425,-9.25101888947555,-19.23361825513481
560,-0.6398307402096917,0.10041798881790867,0.4581843751518619,-5.420100317956783,-5.657606758564051,-20.366470891697773
570,-0.5790799924268802,0.23728507949854,0.5339297197723532,15.139106321475854,3.1215138201170984,-13.264708469804074
580,-0.5822366663791627,0.2058777558638917,0.5299101524267162,-14.651836380184346,11.612951442272966,-7.460115791337155
590,-0.5474032834529053,0.10249229892527682,0.5574118669242434,-31.818904763272684,16.510521802121442,-2.0909076811680563
600,-0.4950223098182573,0.0583371476117234,0.7697127794190753,-21.800438661812176,16.635392970850592,8.69209835945132
610,-0.5737032483853315,0.25756327115056943,0.5921244413105774,-8.010801412605499,17.695694834461495,17.423263074167824
620,-0.6214935268905993,0.2755033739720935,0.4948942634603799,-2.154902175325299,9.48770441934382,15.314770436088729
630,-0.5965203532811975,-0.1568430845793285,0.7226676185918551,-27.090784006080604,8.383104844776867,19.244041856129943
640,-0.586440782944211,-0.02120329001411875,0.5922771149705337,0.4817545051220813,-0.5193531713971965,3.523755586992185
650,-0.6089040350986741,0.0029311881420467575,0.5627634740106123,30.410107758535208,-1.4387257771523703,7.571719096315795
660,-0.6773910482600086,0.07126216692918497,0.42278155938226125,37.32231839396281,-8.52418416144834,1.1425597945953263
670,-0.5920970973709427,-0.042655645224717174,0.5312849950582988,26.66165000203847,-10.119954021723602,-8.787287039971353
680,-0.7023027149640132,0.03624330553183701,0.537995808557261,33.24762285926528,-0.6077587632012942,-6.779578096078334
690,-0.6732755062637705,0.11116220494321827,0.4495223318856665,28.376209062638946,-3.6083077053590698,-18.828120679115447
700,-0.6928580385564924,0.18816999304152804,0.41022014690558584,-3.2916581616206915,10.140922824083669,-12.901446906031897
710,-0.7171194722045949,0.1868370696586679,0.44230225656584726,23.454268340836354,14.206471304966138,-16.92407838764482
720,-0.5649423737879568,0.2648724625125339,0.6733359558216979,40.32744121845206,31.49686142255992,0.8150667322751818
730,-0.6347612501123807,0.3187255441364531,0.4005910594006047,29.725070910585046,29.987652105106832,9.249602493265254
740,-0.6317240331407249,0.21333578367543407,0.4884710818703741,-4.063345097618846,13.112300921276923,4.449429774153652
750,-0.6022081112124994,0.14882230367967916,0.6350718908788645,-6.592679247744888,14.76173355657483,14.492730747370242
760,-0.573879363758415,-0.01540294276842395,0.7044383277908789,-18.358119863157206,-7.801198732650792,7.0545046645945835
770,-0.5664624186005842,0.05047779994580681,0.6197602760590901,-9.82723914491627,-13.059908440911155,6.933011316149687
780,-0.6574035815015502,0.09444472673869789,0.4507151734905824,5.618972081786889,-7.4482119740402295,2.1317428290394753
790,-0.667177314655957,0.09512411329425571,0.44775120742944413,1.2721105147559564,-2.0832436705640154,-4.233818264135108
800,-0.6547642932967583,0.09697118359737882,0.49183723462801493,3.115870083736008,-0.883384976895935,-5.386004373552041
810,-0.6215493102784412,0.13096981511267708,0.5249157983248133,2.9044242086182086,0.23181069754317005,2.1730281390155524
820,-0.6760492174090352,0.08167244957203608,0.4685289155514234,-0.8930041859322084,-3.2537232563079193,2.099361164673197
830,-0.6335624984883614,0.13051570658127085,0.5126624474141849,4.7668221191295554,0.8154691634932723,5.2055874754742995
840,-0.6462800082422459,0.10753202316729721,0.5014329626683406,7.334720974212056,0.6655418388935389,3.488189202090101
850,-0.5993085630693397,0.1514059723460068,0.5443997497494176,8.445373176909087,-1.127204575325404,1.6179477135102536
860,-0.6218070697044585,0.14692085678023925,0.5212996216347454,7.966041553641763,-1.1900098843161726,0.6940187264207105
870,-0.6090020824370896,0.15657584309422903,0.5375129745821657,0.5243604624315112,-0.24987313987970408,1.5785580059833892
880,-0.6121111580548191,0.14698013124396564,0.5266400734276624,-2.3088875357211105,-0.917143743864021,2.352031485107317
890,-0.6291770349333788,0.14193300542268766,0.5151657918072814,-1.6441117085254278,0.07891175656577004,3.835646728182269
900,-0.6274797113718966,0.13802705471993604,0.5178900030936209,0.08445272606978493,1.6161738503515233,5.353239140584349
910,-0.6269777123676872,0.13582017513170427,0.5160319943051057,-0.7625846738515212,0.3625567829308627,4.764271092528598
920,-0.6557347214321732,0.1063280536307264,0.4856990574222619,-3.068029577437194,-1.9404253599776609,1.6978988098385117
930,-0.6222482212685781,0.15186087400522272,0.5202565912121998,-1.8458893202027427,-1.6604209645668218,-1.278073432109472
940,-0.6227358047209305,0.1386745498918868,0.5195652715344207,-1.6781249330978567,-0.1518021648559842,0.23787042160579147
950,-0.6019272405604112,0.15269597475146568,0.5327094664676228,0.7738692270231506,2.383229383246409,3.8798001915551823
960,-0.6336822100274591,0.12378752677393023,0.5069585082574234,1.6787570934577087,2.0952809411952025,4.906239600461822
970,-0.6250540571772886,0.13734002087987257,0.5186050827932807,3.313451441330814,1.8498548600771794,5.17643485623154
980,-0.6506927450947508,0.11505184165741296,0.4912529834309811,3.781568594789079,1.9242363164897325,3.3495397263470554
990,-0.653619781088973,0.11113484123569674,0.48775528916301,-0.18072996170615352,1.624939258530192,0.34363974790289986
1000,-0.6223155396190156,0.1390876333491911,0.5187467359968799,0.9624222841472753,1.6219570368878717,1.1816265677876272
1010,-0.6067367344372879,0.15788114213871668,0.5316990769742909,1.5223602010707116,0.6165596021121815,1.626533956766142
1020,-0.636077065858455,0.12894256525093023,0.5066071471188652,0.9364899516755517,0.1885617575139495,1.946756691145997
1030,-0.621257663572371,0.14376475813665723,0.5224559783307613,1.0920667115239717,0.11262442906441261,1.4126892365831023
1040,-0.6287003027296058,0.14085508191232815,0.5136453585664522,-2.3273388332523988,-0.7086035106773872,-0.4219785777973549
1050,-0.6300740640764141,0.1384032733531518,0.5125726317224365,-4.387926327802483,1.3447895514094685,1.8180686303039344
1060,-0.609101228833718,0.1436400499785446,0.5333929793924962,-3.773652734031395,-0.7426776478593079,0.281199615336752
1070,-0.6315953296600867,0.12086765665438709,0.5146032061752955,6.046166552098766,1.9273396246225838,4.120144425863941
1080,-0.5991696534045805,0.1644929079523793,0.5407661806173136,7.312012353658524,1.3117148128075167,3.7233628100012304
1090,-0.6397589539157799,0.13368137278245293,0.498578744034463,4.840810539199522,-0.8858823613190215,0.40921391973753396
1100,-0.6373389637589555,0.12448799349165626,0.5041786257728438,-1.318715594307473,0.48016497813813036,0.015555050323715902
1110,-0.6240774899918371,0.12963693205271162,0.5134119791831719,4.127359833016622,3.4498697217947103,2.9882048595569204
1120,-0.642663647015671,0.1255409975252912,0.5028587290190687,4.055193322357655,1.0411689195833298,1.5166883021088458
1130,-0.6099503570414657,0.16021777467323547,0.531513548263263,4.94461935765046,2.374744206945915,3.6096509599649633
1140,-0.6394867440011809,0.13358726134716956,0.5045557568760102,2.9117766379306382,1.1969691032174783,3.0371652833901583
1150,-0.640793830093085,0.13307683525365707,0.49800918787929366,2.448260540921643,2.4273705430375,3.761791660090978
1160,-0.6439406183197767,0.12511041781678844,0.5027371135405474,-7.921282826256685,-3.029134702120496,-2.606592358745404
1170,-0.642665529168845,0.12678403698790314,0.501217723005438,-4.274179250142458,-1.5235538165485474,-0.584872323406464
1180,-0.6160115628577051,0.14590501985660398,0.5244591420689708,2.1540087231689578,0.8010710728321885,1.6002704794981129
1190,-0.6328103044305561,0.13380962813705186,0.5089683622154937,-0.7631438813100968,-1.875384375856671,-0.7808078737937862
1200,-0.6255527258567635,0.15270806534675502,0.5191651378936427,-2.595984947349351,-2.2942062995133066,-1.7091770578275307
1210,-0.6396783651255361,0.1357573230618122,0.505136070105967,1.2041356170331705,1.7916481597252032,1.4626253427117206
1220,-0.6154722128126698,0.15300800726608055,0.5251617622205614,2.415539174522101,1.5423987908956778,1.0485171742112216
1230,-0.6363304063085451,0.12865401046401714,0.5063579686047636,1.990540229378174,0.5024425273259306,1.4428777681087963
1240,-0.6208861694394213,0.1462421849178436,0.5186583765353908,1.682569990944056,-0.7066495042679595,1.4723967689771025
1250,-0.6145775313222683,0.15473993425901045,0.5264408777038779,2.0931583720175455,-0.5393546221396792,1.582106244172468
1260,-0.6153359142182218,0.15495437545099822,0.5277819211858257,0.4786936278654901,-1.1141773719407078,-0.2703819749774381
1270,-0.6081307503567279,0.16546746251084576,0.5330534754891931,5.098702809999606,3.7807873354861465,3.8854266440176355
1280,-0.6458939020010741,0.1285958391307795,0.5014882074563792,2.4988927789652884,1.9395226370035104,2.5463393202071547
1290,-0.63303263205316,0.1350610611830635,0.5094948650436958,0.15959353132698773,-0.9505246843858793,0.40683949041964496
1300,-0.6116167945996921,0.16424151943927354,0.5292886794521561,3.7338410388329297,1.510559905586294,2.7883769749829703
1310,-0.6365680853561481,0.13845732541190436,0.508158349276824,1.491289575159511,-0.3292518165674689,0.5282722983558026
1320,-0.6236315772699099,0.15541060769717827,0.5235611720550163,2.0239591545122853,1.5580620651430492,2.0917165409651295
1330,-0.6285100421993701,0.15258398097772025,0.5135081131271065,0.40118255736904584,-0.03848122491556155,0.47098973890137974
1340,-0.6315322677844103,0.14235147281537905,0.5051699993972165,-2.5782155255329124,-1.040802337802047,-1.1641071041388458
1350,-0.6210304559653523,0.1534377354863754,0.5159525559810123,-2.860183772343066,-1.2859344380710858,-1.440379528729633
1360,-0.6309632873812188,0.14012960315077846,0.5060640957894832,1.432217560729114,0.7010702241698334,1.1663064983218687
1370,-0.6097867790176983,0.16236163572628115,0.5305928378938742,4.801626004478182,0.8955686594230179,2.3636400824857438
1380,-0.6411110467367359,0.13613912269175676,0.49886118001787044,2.784288500186698,1.0502732854252717,2.1652652003161785
1390,-0.5958228601172763,0.17776273834854237,0.5443577480737181,-4.162044990017444,-1.6062954704211527,-1.931113330107839
1400,-0.641924819291995,0.12762525176764425,0.49739625848293456,-0.2839145296113985,-0.255632004987243,-0.9257965354352138
1410,-0.6492151834900856,0.12561688102603563,0.489694671986617,2.3232580590083316,1.544342044671851,1.404489900895191
1420,-0.6184027729233008,0.15375152504676554,0.520979534753443,1.419411372984844,1.4108963433556183,1.6470082535633996
1430,-0.6296331456531918,0.13798585380582695,0.508975824198371,0.9014066282971742,1.0719687715939425,1.399653986214711
1440,-0.6152096163909934,0.16150329618714904,0.5256907556356782,3.939211017749183,3.222146500811986,3.3466403676523813
1450,-0.6375215548064956,0.14144013600079103,0.5025331362797608,-1.3120970407633537,-0.09552058017476855,-0.026267517099650695
1460,-0.6143657078039289,0.15940180811357185,0.5238208399676315,-1.506098026573737,-0.006275516569559325,0.1640835633137086
1470,-0.627084370632321,0.1453779944096319,0.5126210592195589,2.3267165273215253,2.73362140024929,3.1577018479054284
1480,-0.5891563850532465,0.18532126308817273,0.55369630567418,1.4942907007223778,0.2728877031368674,0.7090657520275616
1490,-0.6238820246760496,0.15625048309560363,0.5216257715725787,3.522836984125173,0.8251714596113214,1.3510522397107096
1500,-0.6385005214829268,0.1398548082873498,0.5042372617494785,-4.0326687669299695,-3.2180859235945354,-3.3240900129644615
1510,-0.5980371951763492,0.1736991663034689,0.5431477517416494,-0.21741739526577408,0.9306929730887723,0.871170014682058
1520,-0.648954500231807,0.11874439431745742,0.49350196718793415,1.812456304274359,1.3910949576392548,2.01262867467334
1530,-0.642437375262293,0.12833436211099622,0.49536954475939576,4.148143389386228,2.6232823710766926,3.2385165774991242
1540,-0.6505316169381505,0.1270491194691466,0.49365271649579695,2.0844004428160647,0.6833421760332621,0.9750473794992998
1550,-0.6298451616931828,0.15085336516024006,0.5094673004984794,2.40767361514793,2.437776864139063,2.056246946862382
1560,-0.6187178168660427,0.15329927845878913,0.5186895215230625,-2.547175823720044,-0.6332688842446871,-0.06776863890527274
