time_ms,ax,ay,az,gx,gy,gz
0,-0.7575118016431843,0.38050758878529295,0.6159457655460324,-0.8719649854322372,0.5838008260753297,-1.4580882235559924
10,-0.7286481362013836,0.41575976948164395,0.644304789792392,1.0038695014004582,-0.4810347616855054,-0.7183319059674755
20,-0.7359167773427124,0.40775835009270994,0.6346704418197806,4.838959467943872,1.3611547933450596,1.693948837431402
30,-0.7398936318066235,0.40745841776879893,0.634259702139238,2.0155811837862596,2.1610153930567355,0.9844807342622196
40,-0.7425806049567342,0.40463759278058137,0.6338797094948314,-0.07823201060777613,-0.18885142655403625,-0.6190632891088271
50,-0.7239825717855554,0.41978254225820544,0.647714609442016,0.6813236604882105,-0.5614291605955,-0.11909464327497743
60,-0.7288416184660704,0.41287335653525237,0.6433592539015138,1.9161397985108124,0.6243593964345021,1.508532218708619
70,-0.713209252718319,0.43089608400461127,0.6615086002804748,0.2752861713144843,-0.639034134955257,0.5559317131741834
80,-0.7637789525655427,0.3844552309238105,0.6086008371623043,3.043213773236896,2.1592666730375485,3.320907652171716
90,-0.7303514333553821,0.4206238891419164,0.6392005521118274,0.02886613131440985,-1.147705117601911,-0.6174450274999157
100,-0.7609158352410308,0.3875957640187569,0.6084871262583754,1.2219957750644874,0.6228511629372238,-0.03407524475185564
110,-0.7466074319611468,0.3918161348129057,0.624172401870887,0.49594051706054576,1.8405374127457383,0.15731101417500537
120,-0.7489273116469759,0.39509094010021706,0.6309376336784966,-1.9530795586074827,-1.4618702652329274,-2.189497043904612
130,-0.7628329058801185,0.3800283166991024,0.6150151736177258,-0.8481376447818427,-1.3405128561468285,-1.2501547280291088
140,-0.7244635601922537,0.41983126478146954,0.6465482231204686,1.99629906365151,-0.4549918635606073,0.056417898479904804
150,-0.7635559731273738,0.3837619892439868,0.6121355831750389,3.203471782872962,0.40757092124260474,0.3506120726167842
160,-0.7675418691213705,0.38601415007603657,0.6011507977829773,-1.1972544417791868,-0.5310846508416169,-2.7029485737365375
170,-0.7462242733085632,0.3982577751309686,0.6236757046944197,-0.7080464194763768,0.14679814460391263,-1.1969511494818454
180,-0.7577191057613253,0.382701633269736,0.6175995351132836,2.383325759447184,2.2226086890424313,1.7400886391562844
190,-0.7352759458798533,0.4034303336219767,0.6385846564803311,-1.0633345933999314,-2.9899384842682126,-2.0224212945680016
200,-0.7224382048682484,0.4177721224591259,0.6528079980122583,2.2742592320921364,-2.10932137958567,0.6590113313763604
210,-0.7463546732635541,0.39745074544560943,0.632126258922751,5.2652032197591305,-1.8282353764809018,2.778030502411204
220,-0.7198520244578227,0.42479118195003374,0.6588244175229327,8.945367299318608,-1.465749736587067,5.197198137990814
230,-0.7564377570218361,0.3889215146639954,0.6348825733402621,17.899596270442252,-1.0879311625953552,10.514624640180996
240,-0.727150754427274,0.421205058431402,0.6819621661267805,30.856420056906163,-2.12334315434906,17.395550679804593
250,-0.7419841145810753,0.39124719056386503,0.6795842961871223,31.273510927699192,-3.616123025410534,16.2992614047833
260,-0.7098680631164531,0.38664865909821766,0.8917207839760021,14.20506494686824,-11.53035807982037,6.879857941540574
270,-0.7229541101729264,0.4879479076112183,0.5612101309665252,-13.717711571192146,-45.34625569693078,-21.478033801706548
280,-0.7061808101233942,0.4413557318157304,0.7073621449288964,-27.39586481724041,-33.71785457438185,-23.986194807715247
290,-0.6890159453431013,0.45119333821650454,0.7419929089485963,-19.133155837596178,-43.49303802054566,-23.19902583267767
300,-0.7239526973953401,0.4674648343954012,0.5491534270002724,-12.901952613915272,-33.463256568399665,-10.187628105897794
310,-0.6773426605096137,0.4620553389946484,0.6008192815638871,-16.380273224788482,-16.278652839445357,-6.18632947671151
320,-0.72196183981486,0.41603848979815505,0.6646745981416575,-19.044659877826366,-8.316704565455673,-6.077885318678483
330,-0.777269991406551,0.41103649025585476,0.5793715968346557,-17.32621784350019,-6.961729318556446,-3.5035538078046784
340,-0.7381728060623829,0.3995336395847414,0.6359248312801675,-18.095046085701753,-9.557129151480412,-3.040148834140942
350,-0.7105764452427374,0.3551807988693229,0.6950580078469567,-13.645455076156358,-10.268081500007924,1.4548205530722367
360,-0.6441920371709414,0.42509264638079486,0.7200038641410041,-10.745027951425977,-11.298457097965988,0.2491302759270786
370,-0.7187128335916871,0.3429421535285865,0.6724128963467859,-7.180524739399432,-4.162051161316554,-2.0569198887301328
380,-0.7019525941760751,0.3538965179713484,0.6936117510976448,-3.6174603954926763,-3.3115879909884045,1.2528863356978128
390,-0.6822280333070088,0.3739303194741549,0.7162075391294387,-1.0278124676957305,-1.9499930229807974,6.746796629616908
400,-0.6957588110979068,0.34837637962929874,0.7092876101586898,8.77650818411197,0.05206057405197306,14.732926144075853
410,-0.6906359335130321,0.30637606779863213,0.7015120855406769,14.576693227152376,-2.556091391302312,20.101439727522674
420,-0.7537432323662586,0.2877588012216422,0.692406528660744,29.159351916337116,2.5833090798399994,-1.1348230454477488
430,-1.0223019675907303,0.15905263307805076,0.6101497096494989,50.49973959458046,18.88566877624217,-24.0483084800908
440,-0.48760295538079146,0.3454951656870557,0.2592600521358227,58.248829985785186,29.397417412045527,-45.94788993821064
450,-0.8514218468677895,0.6973775980028908,0.27882927899891324,65.75048760479798,45.0851542221244,-53.80843436696293
460,-0.7997597413010885,0.8295910144885887,1.1885355450314126,50.347588093404646,25.74642946968255,-54.11176446787644
470,-0.627216496438175,0.9994091108885338,1.7062972000574819,38.108160418109264,13.6503335109851,-30.595551569950285
480,-0.7336491472045291,0.9324219353632995,1.2907769979660677,24.64911132111756,7.130997228371163,-13.088039256515636
490,-0.7713074996876529,0.5969444406357068,0.7935646484444254,0.9327937027682311,6.3462749174835835,-15.922656063047231
500,-0.6949487409501479,0.4044992512929463,0.6911572347850679,-23.104619828836967,12.041192462842385,-24.876499203159522
510,-0.7828757232377026,0.40517413075835157,0.6062589947850766,-23.373555635710854,12.218269638981361,-20.062465552462967
520,-0.8251393772450318,0.5026915186616759,0.5914726876544558,-12.662952885973588,15.085787062476118,-4.388415362519284
530,-0.7128117946741099,0.49428545389325995,0.7634656730633724,0.08593336157443998,16.70961551380188,17.90843516969825
540,-0.6590776762743213,0.30379269848391666,0.6705437343575215,33.22416991048748,17.93796583101255,22.785672938785844
550,-0.9975182124091873,1.0532595066216635,0.3844076021472263,-41.73594155615136,18.96756112884145,53.78254325178226
560,-0.5955812532845695,0.6273524782677399,0.4498360144007767,2.9912551243050034,11.238442127280535,39.52235367933004
570,-0.6462293514713668,0.37224350484393315,0.5514585132846955,-6.01950052364194,23.68805472613836,19.540967549010745
580,-0.6886634053099034,0.2645495440776042,0.5348998620975575,29.04182874728638,7.701967002313915,8.496472461345402
590,-0.6776713880093477,0.5847133039706945,0.6438599645265282,6.624319972791388,5.976462371185703,34.89518775741592
600,-0.6618128482771327,0.3287720091312034,0.763554057711213,-22.90184273956413,1.5703913737795676,32.09679581852896
610,-0.680323473179099,0.12943714660036165,0.7280257699718131,-11.957532688375279,-0.0011970275102503591,13.445792513887513
620,-0.7002093716957336,0.2748896950703837,0.6677658530777687,12.904227637976277,2.126515481048056,12.462680734414782
630,-0.7704451973976808,0.26406394217575957,0.5787298332502584,21.730759321367568,-2.573761803111885,9.635753908943746
640,-0.7584581853417081,0.04149811245683795,0.3181433958472287,13.012926566446877,-8.10042276806489,-8.170650735752414
650,-0.5904269188217339,-0.12862711291265463,0.18295306748761206,6.195812474757961,-1.1286539109625453,-14.422915102624295
660,-0.9094474910582939,0.04167952028086945,0.7371114802280534,47.89278539834195,7.340534080060852,-34.6120493528055
670,-1.2958142412748042,-0.03914739271665848,1.1122163696785021,98.68824680461589,14.64157609444823,-62.30622545458028
680,-0.6983136729961643,0.9892383739232258,1.568978614753663,41.634472728179375,34.66928871267685,-43.44279770422606
690,-0.845772854986344,1.096828617655321,1.23227402725017,38.96928907505111,18.44291490224028,-2.447694238802307
700,-0.6153330418651128,0.7263744668933372,0.7989433331789942,8.768955207792779,28.902632815802566,-1.8881339463126066
710,-0.7042554304761819,0.695778797769638,0.8653814484389595,18.68614046418292,31.860423559420557,-14.933515446737916
720,-0.6147932390892074,0.5861033705816805,0.9528406795612119,25.028172037019427,44.60745582545867,-12.377103013306447
730,-0.6553359670930601,0.5159175020238458,0.8114594936140398,8.429057677276557,37.68160026808001,-9.079799436606484
740,-0.7512337494642849,0.5213747668760746,0.6788543494556769,5.63861163664142,37.29503821129535,-6.230828431011639
750,-0.7906160205025943,0.5024652114313499,0.5889216098208178,-13.986084648398727,39.85795479052484,-1.3312813746346455
760,-0.7573845954378207,0.3106159798652794,0.4375934754295341,-33.954734009592684,43.70428270056664,18.272593943546045
770,-0.6331786446346027,-0.0272080190430443,0.324454248364312,-47.23407373426063,30.179003719344422,25.809328407029344
780,-0.5784085065380722,-0.27556599556220684,0.5566120112552496,-52.5484938380814,12.884252396041914,23.18433175443151
790,-0.5873398334498848,0.04121245377131817,1.2003459543866721,-41.62704506169445,3.290469368110923,17.618776316980135
800,-0.8207246809483099,0.3801936772544685,0.5653818504893031,-50.67430237837916,13.800372947921577,26.18092733052248
810,-0.6707458133775562,-0.20635933491529695,0.7846691845504467,-53.20310566091847,-9.03303750926192,16.50274172536153
820,-0.5122385958879955,0.066660188336021,0.6964740504870256,-53.98663251867207,-60.37450657790973,35.37644400684701
830,-0.6764175321822113,0.1170527873587929,0.5994539849656924,-18.463706714479457,-82.24642366457745,25.724995276241756
840,-1.4225240007929625,0.3006588302535243,-0.3041823778100955,17.15277953936236,-81.18478247031425,24.13013737153804
850,-0.9570322555142122,0.3047485306306228,0.3326085294462148,-15.99460677151713,-28.369264814140415,12.647446370638512
860,-0.7582162610771788,0.4501475531950059,0.5468884968233837,4.155885095159094,-34.06822287886197,9.503628335783068
870,-0.7720613407379362,0.42856124008436947,0.502794444722615,8.967412948741254,-23.98487700477913,7.097208225871783
880,-0.7508466252022218,0.4593032927301478,0.5532236475407554,2.0819630905541477,-15.63721468775152,-0.43732142019553666
890,-0.7869359505505668,0.4677815350201214,0.5659072046662423,-2.5117609913966943,-9.926778152260606,-5.033372811280238
900,-0.7906414912329262,0.4391416598735622,0.5759037078936652,-4.673769092011915,2.782456414208647,-3.5663845886896626
910,-0.7367460762389346,0.4543334852745269,0.6210944121542099,-4.070068100065515,1.9951111237613723,-5.01860247370945
920,-0.748687110611788,0.4301596041983062,0.6176539408384164,-2.4293351041232674,0.4317457065695995,-2.911971221461687
930,-0.7304741800206516,0.44763139063367624,0.6334635733663712,1.3646986833262333,0.5182548907514978,1.8001036832804822
940,-0.7653485318785602,0.40974861504753224,0.6010562652830393,-1.071021406290337,-1.4566978373080373,0.766984007235255
950,-0.7525566531303391,0.44970947288858354,0.6120406616723513,-2.975707557818584,0.4887570044785089,-3.3775937720993734
960,-0.7684471015532305,0.40948089820239286,0.5994768529686497,0.9531611502566213,3.1449543586892723,-0.6950185021668291
970,-0.7659279414957572,0.4220254484847732,0.606675009024395,2.0640682558334396,-1.724230634990454,-3.0185678368818523
980,-0.7539102372328834,0.4400532647400234,0.6155177889699047,4.649464907748298,0.5255467068461669,-0.9129335692877505
990,-0.7365390297752447,0.46031867654255676,0.6291269271703689,-2.1081258819124016,0.4813872186100242,-2.2129292897306847
1000,-0.7682837278631176,0.4155947613436482,0.596637191791955,-4.151692986454,0.916504272222371,-0.9703033960219041
1010,-0.7703598616953047,0.4078229376559222,0.5967933310706328,1.0701843854746935,3.103203324697605,1.5742543403446623
1020,-0.7570462335586543,0.4215054543296587,0.6096465109973723,4.661562634841302,2.2578664878030636,1.0991538303052983
1030,-0.7650845923305487,0.42350314797588223,0.5996109039707177,4.372400381645294,-0.7737406332799017,-1.3426379899571428
1040,-0.740702454042776,0.45603853865407246,0.623979497860074,2.9034485428281442,1.5960827437738518,-1.3817689443689258
1050,-0.7334186504433943,0.4504399124507195,0.6308856827177637,-4.913777479075607,1.691064736541746,-5.289670211361789
1060,-0.769066269728532,0.4057726672553843,0.5943517029949379,-4.0548319616900725,1.7983774758965303,-3.6899701564536946
1070,-0.7773008298010268,0.4014091422216751,0.5892729483998039,-2.079537778081831,-0.08293087848155278,-1.9189953712137622
1080,-0.7632804355956472,0.4343541625238034,0.6031739655534841,5.247116017602156,0.4936982650339281,2.8642066119286516
1090,-0.752423015334551,0.4290176895834594,0.6128055499004078,-5.465417857201643,-2.5948818744270286,-5.184036667123929
1100,-0.7211875244800909,0.4458528348424824,0.6493673998983064,-0.22367423053091073,2.415090945402308,-0.13909516282462953
1110,-0.7492198819942968,0.419860330914089,0.614457625301632,0.9289991180855784,1.740091076259863,0.26865516838516323
1120,-0.7658936235761784,0.40242905774352905,0.5975907959446308,2.224501755902175,1.776953659017265,0.741012471659013
1130,-0.7184742320070024,0.4623716375704566,0.6455438829934805,4.047814641190873,3.269957884962838,2.312870837019912
1140,-0.7492141789781191,0.43138387964497193,0.6147842662768763,1.422598680793647,0.15747899270345075,0.7385842318807367
1150,-0.7708601324569588,0.40465246525412224,0.5942637593864155,3.008296519953822,1.3732555923533716,3.1006141509890086
1160,-0.7689995338855455,0.4084560489689404,0.6008750483571018,2.124361495109784,0.7819682204699558,2.071237967307087
1170,-0.7561067337443106,0.4225131137333626,0.6128142422103564,1.104176718051882,0.57693529782027,0.5116439816182938
1180,-0.7484599927540444,0.42805704231208824,0.6155257927264247,3.423483264945477,3.207401662988931,2.0385269760619766
1190,-0.7619772588834939,0.41891144387810586,0.6078854560356183,3.3263167900096047,2.6266443877071888,1.1932477497014227
1200,-0.7477749762623263,0.43480957851808594,0.6254360806977659,-0.4989492284952648,-0.7652809229832132,-2.2723925107217218
1210,-0.7623603935899428,0.407107660133486,0.6058562983115171,-0.7904655050191178,-0.447553780230726,-2.1698535215835277
1220,-0.7322557833068795,0.4400625716908286,0.6397800776177074,2.1732478649385536,-0.009467205072233309,-0.5195965452374613
1230,-0.7501423244352992,0.42794798357917674,0.6146766546550859,1.795374897206485,-0.8771130129590445,-0.49064962176654564
1240,-0.7567458834077493,0.4196642204885234,0.6149680977754185,2.676484633525403,2.88776027351534,1.3813387783915367
1250,-0.7641798658479992,0.41333783617317893,0.6012995104240538,0.8839221998578743,0.37963373833088027,-1.007596352034618
1260,-0.7497982153139822,0.427888333461172,0.6135095123477569,2.4386516280221207,0.9597368614969446,0.28038873067572456
1270,-0.7523095632595286,0.4221876483003099,0.6122920861104588,2.1117709899263697,-0.006210309674676007,-0.5006355897573919
1280,-0.7554110510552736,0.42415198812260774,0.6071179371501584,2.646716504191035,1.555799205129052,1.0948732717212102
1290,-0.7288347009301275,0.4473312159932506,0.6355549400277375,-0.20001671467177606,-0.6424572564415543,-0.6329753227950287
1300,-0.7585504896782449,0.4178504928126388,0.6081145157885715,-0.906329389824546,-1.6461635085604536,-1.01764667615932
1310,-0.7678502063441004,0.41473901035935595,0.5986412444773515,-0.1614505194175045,0.00234865770916054,-0.04060669439145309
1320,-0.753165630049493,0.42501832473233825,0.6140338972895948,-2.387638195826655,-0.8146432834683154,-2.4545464732378712
1330,-0.7622975826403796,0.4140854918797064,0.6046111038229877,0.3359346292862646,0.719094494764558,-0.8117932895116833
1340,-0.7547948003659903,0.4231367483232097,0.6151575784491196,-0.5131057154558001,-1.283900500474397,-1.800218888788626
1350,-0.73921602800466,0.435048715709582,0.6221300757267265,-1.8497471401529044,-2.065938318400265,-2.444315200469226
1360,-0.7260803206321882,0.4485823766940985,0.6411364891964713,1.2935059058140626,0.6620908314513355,0.11593206757489372
1370,-0.7282044896761968,0.4498819707532876,0.6444984182197707,2.978657263792369,2.945673272519926,2.0855048888088885
1380,-0.7436058684569169,0.42720775969756924,0.6199573862851819,0.7870593499466476,0.993147790842625,-0.12021906762644674
1390,-0.7654621062959727,0.40355653835298794,0.5990320435548098,1.878584423111578,0.9427502290139986,0.8120331416447517
1400,-0.7562983110380782,0.4207548546452966,0.6070568020179784,3.5801829220283388,3.5579384250199073,2.516509555523614
1410,-0.7520576369759288,0.43012295952433705,0.6157739453775125,-4.145915300113982,-1.1219641284546769,-4.320525516021952
1420,-0.7466896161347883,0.42459541251329425,0.6186528000248835,-2.366729091222924,1.7530653875765922,-1.8820944500893657
1430,-0.7459188809355052,0.4222836781229333,0.6166768256688635,-5.126790851704171,-1.185625046952933,-4.012186873182091
1440,-0.7715496295161846,0.39851303703974383,0.592708313584474,-3.1878259358274654,0.21766232215445924,-2.0569647953693098
1450,-0.7537682673314443,0.41065159020283004,0.6096435408527342,0.589710033904345,1.9440881150516194,0.8679444174219447
1460,-0.7385108976277518,0.4259367502573881,0.624973017046526,0.3086150302105093,-0.9790203961523493,0.2950016252801495
1470,-0.7731943225754931,0.3961184941680522,0.5957084426446869,3.1784669190276107,0.9597504284839714,3.57103604247893
1480,-0.7699965018498488,0.40448772472644856,0.5910190025315151,-2.051075872983832,-4.456384464115863,-1.3700290020432382
1490,-0.7462976570496644,0.4293639452232796,0.6169501281586022,-0.009621114131046136,0.28179308860305147,0.977698306344037
1500,-0.7569473982113539,0.41673622877289784,0.6111723404780145,1.892526636384662,1.3334437400228514,0.8595136401003111
1510,-0.7424147567115517,0.42994113643318266,0.6250594797237892,2.3387527834984563,1.138856258440538,0.021938061512296825
1520,-0.7520979268378621,0.4260495495946476,0.6109876584722572,5.491314260728876,2.6168809294477775,1.896798225316499
1530,-0.7557994420364962,0.41585230240656806,0.6062622996735071,-2.199687316160791,-0.8582805835611129,-3.61605707887235
1540,-0.7754225582719906,0.3874529520409089,0.586166729631469,-2.0047277423606267,-0.8939315567106288,-2.642311585734263
1550,-0.7723516282143612,0.389223635695851,0.5893588965453579,0.251681304994013,-0.9995631248283507,-0.3834439329807037
1560,-0.7634466413321683,0.40323257637455595,0.5952355218526906,-0.1611943654359944,-2.645257831300387,-1.0372875181360754
1570,-0.7268022338932413,0.44166130332828213,0.6323060410737438,2.5372369508823223,0.814941992779334,2.0632968106621252
1580,-0.7476228280763348,0.41984718068416427,0.6151553382831219,-2.0303955764652155,-3.3465069016161793,-2.103087771302492
1590,-0.7575817903216062,0.411704029535368,0.6033193464084408,2.19175296859881,0.8190536188310219,1.8062276120648548
1600,-0.7306092566718301,0.4401111977089367,0.6280278661736935,-0.7420940454663117,-0.03351216374672031,-1.0981156087307848
1610,-0.7436113904494572,0.42690845351082163,0.6220249794962067,-1.6396204339861296,-0.3303815229714886,-2.327297694321042
1620,-0.7642153815638768,0.40346001496846196,0.5997702159362999,2.5328877924662425,2.4069349074786457,1.1915557142387043
1630,-0.7658340550746798,0.3994289597348278,0.596605906560481,-2.6653172617455834,-2.8246377456677294,-3.4330143954952215
1640,-0.7474429462202196,0.41229665144541533,0.6101492597285518,2.880258157979863,1.3440091049942064,1.5611436855212877
1650,-0.7531328704249745,0.42233339004308673,0.6146623224789647,5.23437578305254,2.6839470779885755,3.4861038262326005
1660,-0.7644259112218813,0.4050043555408155,0.6001448692964576,0.15902119107023832,0.7315956462702775,-0.8451928900808691
1670,-0.7368197476653366,0.4297828944691524,0.6287371905828957,-0.6850738164136878,1.6342042352190023,-0.6496612135033275
1680,-0.7386187956101947,0.4242255422507287,0.6211183367117434,-2.1894500874715126,-1.0427380459170887,-2.4932632222065347
1690,-0.7623470680568177,0.4034805758145847,0.59761417487558,3.6879621051461697,2.554885674535178,3.2536729676869207
1700,-0.7261471517094924,0.4514187047174481,0.6355370043786174,1.4816417150484598,-0.11565151719551651,0.8658939118389537
1710,-0.7159431665250287,0.46467940360866133,0.6482280508547806,-0.36688763108336736,0.9807395701636121,-0.6522440115674717
1720,-0.7404497581498519,0.43013438289310063,0.6254770977134002,-2.9174886681575884,1.4908900990469753,-2.3228467200042147
1730,-0.7540564911954891,0.4062704005360896,0.6100631056233476,-2.209934019785512,1.524319142644607,-1.5514965299115144
1740,-0.7318176771320933,0.42490899446377417,0.6339316858970006,-0.1650139398055382,1.346260213559964,0.049029168915767474
1750,-0.7548372198126512,0.4141982106676956,0.6054699413940762,-0.010669714655642065,0.5432702172297039,0.009867994242911904
1760,-0.7670770908712855,0.3963267869971152,0.5949735919827834,-0.992033508593293,0.025754263518752873,-0.743645133699318
1770,-0.7401260701104586,0.42950412336349963,0.6241399834345296,0.9596483927927189,-0.07989859439535414,-0.7651854681283021
1780,-0.7645018736888763,0.4046619685540289,0.5990402252218602,-0.8658018651568347,-0.14306938563594518,-2.6677757265871986
1790,-0.7242204295532282,0.43324181234213394,0.6296318983038286,-1.774056120585173,1.2230071746774929,-2.68648694198163
1800,-0.7473169516601809,0.4128012559645536,0.614359364457373,-0.5267130616333603,1.359781891394044,-0.33680059447141153
1810,-0.7621819796387812,0.39657410685661953,0.5981219055241057,1.4615620867196208,1.3724088841097772,3.1520758297160176
1820,-0.7703068677926058,0.38982274855286964,0.5873682388223277,0.23262641991684085,-0.6855021515926079,2.8664470598460037
1830,-0.7210653807261048,0.44353592625487587,0.6389490171539928,0.2000405826476391,-1.2831227127292695,2.5823778482445428
1840,-0.7509574785912343,0.41598782617726865,0.6117100849906673,1.3699385257180983,-0.11536906211926468,2.1545128993121008
1850,-0.7400871085534999,0.4247442322841505,0.621320025973633,3.56531466932486,2.670325036248512,3.4159064830094277
1860,-0.7720185012991958,0.3907475359602077,0.5879351186124511,0.8224374398357008,0.24467155840183047,1.1225038555333695
1870,-0.7275086824627951,0.4394751193380071,0.6334226093171197,-1.9153885414566534,-2.2353497410747867,-1.3892921332924324
1880,-0.7466630672325545,0.42518695766813597,0.6126331709704351,-0.6100023426033966,-0.10802262607496399,0.2091149759369601
1890,-0.7319400213730254,0.43047443887417974,0.6273002250023958,0.5024870096448357,1.5904863908421711,0.8232544835132346
1900,-0.7818855884921074,0.3804838184848486,0.5768018333546777,-1.525369346042551,1.4425037570552577,-0.5011866121764557
1910,-0.7818526694073665,0.37688841782871685,0.5813388324833567,-1.2376055773729782,0.8332298195568719,-0.6934581868609632
1920,-0.7526146398957203,0.4123039384889861,0.6094982641997083,4.075896471655065,2.7983112504579033,2.5679990103725303
1930,-0.7661434363878457,0.39785665906919165,0.5931769996236048,1.316271848289551,2.2658199708410316,0.8505995106552716
1940,-0.7658244131391567,0.3996857772580155,0.5958106454515695,-2.748980955526143,-0.24041288016125706,-2.89486965141071
1950,-0.7428050296372636,0.4247114596683779,0.6182432599329915,-2.6661637578107387,0.36029890105428175,-3.070797544572365
1960,-0.7522961897982462,0.40904320613261674,0.6100861702606413,-6.0700546096737265,-3.353930304228061,-6.500301920739517
1970,-0.7448945493321603,0.4142169916023902,0.61642109544977,-1.410822690574527,1.2420519212699523,-2.054671891625729
1980,-0.7752948207583353,0.3790202539894408,0.5825089058729639,-2.308129663724375,-1.5511039973957128,-2.285256334140585
1990,-0.7194558475114884,0.4307279440090655,0.6356262889746763,3.1652495423281417,0.6912993693028008,4.1271030497480865
2000,-0.7090789096003131,0.45063787257835103,0.6462339260185211,1.7021065789609342,-1.886855837722789,2.458686374814927
2010,-0.7360940854011947,0.433687376703638,0.6236103538910034,1.92127072775291,0.06255512860518575,2.342907417162115
2020,-0.7425664756208833,0.4253981160277568,0.6176437318304637,-2.4420264527987556,-0.5189802726637127,-2.7391848452470633
2030,-0.7436640666528554,0.40707093426951496,0.6085558391863903,-2.022548146003687,0.6625933078401527,-3.1826590109082535
2040,-0.7409153951690665,0.41315983234586035,0.6170550420004005,-2.0157865923366245,-1.2991591091055774,-3.833200043387328
2050,-0.7261275809697032,0.4316757731217616,0.6278806340151751,-1.0442803147715958,-2.8638940863041986,-0.021199679033973684
2060,-0.7569327294334437,0.40800949649827695,0.6132328123756601,2.5246345664899756,3.162220112382046,4.4958275821440905
2070,-0.7426369774493284,0.4254665792398793,0.6228238146480708,-2.246146771477622,0.24427457436483074,-0.5510702285069928
2080,-0.7644606903951991,0.39645389311362345,0.5937789882670943,-2.596958338360031,0.38658897179320645,-2.563778302256727
2090,-0.7395054417083666,0.41292711055663966,0.618448459057551,-1.6545350534571737,0.49631965670429445,-2.543790056468553
2100,-0.7445375602078672,0.4065422797464083,0.6142593250156548,-0.3586023996044739,-0.05865094702181606,-1.8417281388812556
2110,-0.7501435563083207,0.4075652757265966,0.6077969996135293,0.14569949118352965,0.8188498128764861,-0.7554547775192184
2120,-0.7738731950693682,0.38473659899671964,0.5834343248910525,-1.661641642993959,0.9441820258542677,-1.9867070499634618
2130,-0.7506245882798472,0.40132843663719725,0.6075485665932611,-1.325774283375409,1.5737888723239404,-2.2735286162713706
2140,-0.7699660077515269,0.38025176968336266,0.5892837984410514,-0.9090251223186407,0.7562127604528535,-2.3699338158099117
2150,-0.7408032701329095,0.4088068520982087,0.61814823446121,0.6760133969622903,1.0159464085825651,-0.5415926507650137
2160,-0.7550490417056998,0.3914647264607567,0.6038384295863142,0.0007609979090876795,-1.8679602343336417,-0.2799738080193004
2170,-0.7586963490434198,0.3956004229660909,0.6008420747105921,3.4298078886332215,0.6415350234023969,4.227353523456866
2180,-0.7669239682977087,0.3941848616459292,0.5888470422585327,-4.4125035680690745,-2.3835423034875833,-4.885972057980121
