time_ms,ax,ay,az,gx,gy,gz
0,-0.7494135750680175,0.05274024507610057,0.565252074697697,1.2145289014765617,-0.32497211475950755,0.44506321903187906
10,-0.7174422552109988,0.09991834179571313,0.6057635091708076,2.6738877861711954,0.39021579464391754,1.1969027041898088
20,-0.7225101860718751,0.09039860007747653,0.5940269907960963,3.6448437960407656,1.3766111978730726,2.2339754664786806
30,-0.7393889939567349,0.06675556506169142,0.5781108156396774,2.0959604448606095,1.0843988371719027,2.2380929336111333
40,-0.7496681259199012,0.05724530195672932,0.5716573277821408,0.3837966410212843,-1.0637708351296302,1.0826834689248883
50,-0.7398247172477398,0.07607548927052911,0.5801361022328418,3.4816637688699803,-0.8660107953002321,2.6122714072055366
60,-0.7432053337280217,0.08003496795179331,0.5821525476419662,3.6362545467245235,0.5858729411902871,3.6139637513167377
70,-0.7207374684276328,0.10954035203385801,0.6061454518041351,0.6073050594929952,1.1915327320164624,2.5144970335511196
80,-0.7461608620629938,0.07573299908430473,0.5736434722921332,-2.1423955706662223,1.2260430931376054,0.646788098742664
90,-0.715821330459946,0.09684550504413841,0.5956188467312595,-5.28136170017727,-0.04910025954777064,-1.662839679645461
100,-0.7309196476558829,0.07710555610769362,0.5815809261351581,-5.206085187110701,0.5587778995635511,-1.1988759950314052
110,-0.7447456343573374,0.06291513169418093,0.5781599105288501,-3.337510198104459,0.2735094137962746,-0.5325894936788516
120,-0.7267699154957513,0.08177131706868879,0.592956910120663,3.0957235963455205,-0.7579693970751064,1.854537502736206
130,-0.7498430671111116,0.0639933810407223,0.5640172831040577,2.75923709431711,-0.12087648629854811,2.176397093289437
140,-0.7549537301125676,0.06345307859116181,0.5650021588197609,0.12280938194987581,-0.10762617585937476,1.8077405323211138
150,-0.7116386139228487,0.10448225953911322,0.6056390909902394,-0.5078666728529855,1.1463352371964286,1.9134456886550295
160,-0.7719734545095814,0.04018639442935553,0.5404551034833169,-3.3107313317221165,-0.8200606510056614,-1.498361900769063
170,-0.7208158082552375,0.08935095140849605,0.5961602935731074,-2.797115505495259,0.9780751197377768,-0.7510952445213201
180,-0.7281174756618941,0.0742049610086506,0.6007690320993925,-8.85076755890374,-0.6746226769223098,-2.903340615987966
190,-0.7247083048373055,0.08661541287631733,0.5975056431057638,-2.8848750153318585,-1.5449313061496008,-2.1352782644170833
200,-0.7527715190554453,0.05260792240217568,0.5693756951116754,0.3474678043457746,-0.12798323767122444,-0.1544769854580632
210,-0.7306781477528956,0.07727645212550792,0.5969590818870512,4.576256708057598,1.8775951602113463,2.150092276434022
220,-0.7601130224598005,0.05133881705076361,0.5740688567671052,4.628271409555441,-0.7565261063314708,-0.34148820728717644
230,-0.7661050569564853,0.0442762420507759,0.5732251284865394,6.948583427510006,-0.013564382047295764,0.3306093571476696
240,-0.7606501719708061,0.06388580043891243,0.5860353585019057,7.874114433125708,1.0086820094269502,1.2903108416405633
250,-0.7464783741107757,0.0733477778246499,0.6033331979744808,0.5123112991560907,1.0907287231857188,4.408203408484763
260,-0.8904184845081122,-0.15236249114268424,0.6821935437655958,24.87670125507642,-35.35408513761936,17.836724599109715
270,-0.8699377536345757,-0.27895321270596196,0.6761236710970422,44.16381359186099,-50.768428128717275,15.446910891302476
280,-0.7486552977247095,-0.3127175315638657,0.6128231003344018,48.89075032956792,-55.16544394975698,-8.635615113967056
290,-0.6016438824306871,-0.21072744447231187,0.6375547517289291,52.9137480069825,-59.132991885426996,-35.138168618204794
300,-0.5716969721743844,0.04548762131226999,0.6531289357396702,58.48815972501387,-60.38517105700251,-48.745959983945475
310,-0.48498189150717397,0.06014196108686911,0.6105780016711546,38.82571297020974,-58.70915412211613,-46.0877311942076
320,-0.44613673793523634,0.15323028890563212,0.5791186323086291,5.660088681800189,-54.54915050908528,-48.45995427299874
330,-0.5437932119401915,0.200070846066184,0.6148527802591706,-25.359711094377396,-39.57400925080343,-36.003453934980556
340,-0.629384186645724,0.18370693116122305,0.6519539043464269,-45.12423862114264,-29.564886433946477,-24.43836446962048
350,-0.6774046560695547,0.07954117602471479,0.5603441904772921,-46.367274818257236,-24.299301552657717,-18.602888015815655
360,-0.6781224578011288,0.1051208793363272,0.5148127623637363,-52.53363178098834,-15.586392509031661,-16.071172841048572
370,-0.6483813444385833,0.06953560851633267,0.5267835568660104,-53.90519789121595,-9.931023055521774,-18.41369997923422
380,-0.616417560888565,0.18442938805315792,0.5275161640199714,-60.07385115935195,-0.7018169012905835,-13.798955312670786
390,-0.6065291813034468,0.2881992142243384,0.5526862794607775,-63.525103426798225,8.713342652097646,-3.213720182951546
400,-0.6832523629429333,0.11834929705914563,0.6467001883996921,-61.064074013595295,12.724133266777935,4.526171318390698
410,-0.7992796082317761,-0.2136588336149234,0.7741002053250668,-49.48922849679268,10.989247335667768,5.370094312150261
420,-0.7661145610647372,-0.05679969813918459,0.7438168148400349,-35.84187935103914,1.535621269615919,-3.412644002227853
430,-0.6366025651076853,-0.04434437092520026,0.710626558547134,-40.816867531040174,-1.6112631005649347,-2.3467622938128407
440,-0.6165918780012374,-0.02248942199881728,0.672249152752585,-67.34339458722316,-4.15458213867194,-6.80556465325232
450,-0.5932198085093383,-0.05408560110110745,0.7787096996100596,-49.86803536064799,-8.732318333803047,-8.725854597588311
460,-0.6285348232699447,-0.20950693763278272,0.697067788215108,-9.120849120776931,-17.393469976894288,-14.094332932645482
470,-0.5898809241851237,-0.21902775269799385,0.537989573926464,5.563589770713937,-21.108581482264814,-18.242352594354063
480,-0.7462989916856824,-0.13699998632885566,0.5123112265749021,-66.24286625761216,-21.076876979416745,-20.12235599522405
490,-0.7081399574628775,-0.3600731881133287,0.7921312804768874,-63.41309331627971,-16.97724901862079,-26.82995775182606
500,-0.6453724493899722,-0.4522170075790481,0.9188613962918291,-36.679963831241,-9.381318251911138,-22.0659703934347
510,-0.7743980155002207,-0.1882398211521543,0.4094204412345666,-40.8400405186127,-1.813723634209339,-21.647996272896734
520,-0.8717046327445349,0.10777966563934588,0.12760125698598815,-22.44865137671317,3.0253583752294944,-19.847273349563125
530,-0.8273700273600221,0.11504838279038157,0.4171815672477397,13.508006261263716,-0.4922654882911335,-22.903305314134855
540,-0.832041013565735,-0.10841859281082082,0.355779434530057,-15.44460202764693,15.46596472536884,-22.956937501904513
550,-0.7654753145162735,0.02064379145993082,0.6098385551745573,101.36947374889029,14.827354061363106,-16.773672762654854
560,-0.7161867732944889,0.20101401828476034,0.817601343576353,136.39490793485226,22.433519011843025,-14.966753382646212
570,-0.7854400424176223,0.26213899583917943,0.6342626080705089,104.66297256428899,27.76633915412169,-4.890730491176863
580,-0.7866495684369561,0.17915031858576475,0.5511759945005485,68.91050800458274,35.105167730665094,11.889415874415267
590,-0.6538806383008154,0.08198716874175022,0.7692594246629841,47.112239599616494,31.131719901518068,18.864884272333292
600,-0.7401135217923045,0.05052863789058569,0.6254957213993497,32.7960874052975,32.36944530774704,42.93067325053715
610,-0.5015600976525015,-0.13525021849320676,0.9719012660017795,24.079438553217464,25.702778607615144,40.54080584170601
620,-0.6595020315824983,0.12905630953378755,0.5984775991521952,13.618323522335126,10.43660109564165,42.362321587912895
630,-0.6535952366663418,-0.10256352864602014,0.6221582000588842,-6.441371945377344,3.9873466837614386,33.63249913553075
640,-0.6085988761379153,-0.39421021406460566,0.7842955263741435,-22.920534528284392,-0.6064622910407955,18.65808697285821
650,-0.6639870654240253,-0.38740410269449305,0.7351794759233667,-23.03875876805209,-5.455486268819216,6.8101633636014
660,-0.671604943327303,-0.31563363275125506,0.6111222780449711,-8.036948371772027,-1.1608306576523468,2.37906225264041
670,-0.7094897283172558,-0.1180659326288251,0.6271145232817958,9.357059364370464,4.215171931120548,2.954064575561485
680,-0.6866698040476208,-0.07858987895237975,0.6421252058212312,38.13039778874855,2.3449950037754563,7.440504077503199
690,-0.7985957116805709,-0.11272129548252083,0.555706247184781,37.452534085245304,-1.1157719881971453,-12.215458771311644
700,-0.7589720911448672,-0.16000370670387534,0.6764607998067916,41.33004278694528,3.2260424190260886,-32.73222102307092
710,-0.6946157131982384,-0.1590437909504958,0.8005922715152105,46.66190787479552,6.674726339672006,-41.89519743580175
720,-0.8317114044127174,0.3757877014638144,0.538472614161468,22.079214501058892,14.522556006699787,-26.48842436401819
730,-0.805318490334401,0.2647663113939541,0.23063889115745803,30.50697833112386,24.833707576481622,-27.065900588969804
740,-0.754267839254236,0.18198056865216433,0.38262145157454813,31.687018821557167,25.455224352644798,-32.30694554086409
750,-0.7189138466137789,0.1563333325601595,0.6118460638398119,22.646366120193196,31.667573740249733,-22.124760329760697
760,-0.641487215601343,0.16878379572524682,0.772077885361081,-1.6610437489963104,33.50195679494131,3.091783263241135
770,-0.587491446265614,0.19684044187341726,0.7471234535456391,-12.60774566625619,36.58984282079053,38.989574582038365
780,-0.6851519496104964,0.3189119313996106,0.5156174130816261,9.566863778860547,32.39301296339082,45.96156375779989
790,-0.7584630141890474,0.5728910007182,0.3108930708953447,10.92849330809404,30.352302841713012,49.89853143985224
800,-0.6444550675001139,0.6217541468694003,0.41565078227948504,-6.55427840972515,26.91995449395349,53.29412075099925
810,-0.6461566860160797,0.39788764737021987,0.3320086583975516,2.6461783666240524,14.795995203928639,45.45922237100263
820,-0.6633194417746039,0.0257350482003863,0.40344488656517363,0.8247467288581796,3.682805769485027,33.60392670372423
830,-0.7296506036671525,-0.28128066194453105,0.5811734193524394,-18.099296956658517,-5.31143223369401,14.142651876136277
840,-0.8129464468846788,-0.05933199291449656,0.5035225526742515,13.15114707718278,-3.4410623173907755,-7.886165845780162
850,-0.7359292582177145,0.052498042846549256,0.5936034487869972,6.741724698086088,1.1135409187952208,-7.72257029402674
860,-0.7224642550066765,0.058061130042351417,0.6027242882093634,4.616817792096563,2.3356352564026843,-4.555824319350571
870,-0.7226899716555075,0.07408243050831102,0.6025811800200929,4.530579702577267,5.863592179132981,0.8791858572777578
880,-0.7129964268324023,0.1002364507303523,0.6113363088665228,-9.731576288919339,3.529160923702479,-1.742789038772983
890,-0.7276285455835839,0.08001503554402369,0.5934976160587669,-19.329432827652354,7.9053364572631075,-0.7540384029172698
900,-0.7195958405579916,0.06766213564609944,0.6052713762884836,-19.28065345012745,4.697587848396841,-10.040423375756049
910,-0.7370193625887748,0.040593323033217575,0.5927209199969236,-10.06941011612205,6.439122719679182,-9.190598664423739
920,-0.7543720408789926,0.019707462915316946,0.5678941877042796,-2.504080485853966,9.718810275576496,-3.0842648652289473
930,-0.7417821899125504,0.033991777874124315,0.5723408525021139,-13.735635362845555,8.431011431431022,-1.508501032916985
940,-0.7261805592585807,0.04020715524773634,0.5891876606552668,-19.558884392921264,8.428596374036006,0.9653200915827342
950,-0.7417683404491716,0.012319499623218808,0.5809907493021229,-18.206289134386243,5.298855474082899,0.3721447175204198
960,-0.7439179160085757,0.02442287051758473,0.5771305146789654,-14.553900999235632,6.982968602323929,5.202470666356662
970,-0.7297097910989624,0.02400592636356895,0.5881809921198258,-7.464524524269578,4.158621355580996,5.665476179060805
980,-0.7786855735643213,-0.02325266897013006,0.544603241572908,-15.277919255240445,5.5505135917775945,1.53118857143104
990,-0.7407373752073111,0.02859681613312416,0.5847990787268783,-17.105075257991935,5.246332545085497,2.1169610240951235
1000,-0.7554482670544994,0.013517690597769517,0.5704848696862529,-13.583200855496598,6.49230042509548,7.264498499218545
1010,-0.76803039424108,-0.013412136613725093,0.5572114969505971,-11.007976568791795,6.361338051547702,11.455422367045205
1020,-0.7330730290153932,0.02352062582958954,0.5881928307202168,-9.034343084342295,2.920589474605306,14.657993749093729
1030,-0.7260023732108312,0.04344463479578279,0.589060186015851,-11.432897790853046,3.9928762564173237,21.782304596909142
1040,-0.7209163190674803,0.06977739241788364,0.5921714763559164,-17.905788049045324,-3.0471093667508975,18.198039883607525
1050,-0.7303950550567267,0.04658207402513973,0.5848036927999379,-10.212383286331772,-8.011398863513685,13.310364896539289
1060,-0.7495548860121437,0.018194362012367307,0.5707464187477365,1.4028981508475864,-10.844143888287814,9.270769294528632
1070,-0.7497799597544287,0.02814593185439162,0.5758798374700453,11.641566703385774,-6.6764544931091665,10.693053482012946
1080,-0.7267904044995303,0.05619960878451472,0.6013628525709265,7.1502820762453005,-4.880449916363242,5.301571757380346
1090,-0.7298206019302437,0.061385047596971554,0.6011645392097458,-2.945114187271904,-2.025788305824678,-3.4683059021382214
1100,-0.7540912559265298,0.04178974105025121,0.5790066162968683,-6.05737240769764,6.125172512395703,-4.581669434238632
1110,-0.7408374624738663,0.03945040849161513,0.5790519695539769,-15.981446613745334,4.699339915484501,-9.742870586471833
1120,-0.7326029076856299,0.020666494870522273,0.580115317543664,-16.21344323751073,-1.0145992905911028,-9.857999550213691
1130,-0.7372218911567591,-0.0035076745880418987,0.5808195804912342,-4.450157688708378,-4.589756688531482,-3.3714371519098774
1140,-0.7449272932652641,-0.005867370171810004,0.5765416261076904,7.705826923816315,0.28933621586406266,4.931716177138044
1150,-0.7318448799668731,0.018688223674288018,0.587074089400789,8.20063265383551,-3.608996621871081,2.5063698006329265
1160,-0.7228011756521546,0.03668855394775504,0.598048103729901,4.876292783028029,-3.444321719051439,0.7977298006345843
1170,-0.7276812492521134,0.03611787973056001,0.5984818642775568,1.697343238644729,-3.130697895346079,-0.9148516655817307
1180,-0.7196015565086816,0.04640391956554378,0.6077102617487729,0.36404250759051604,-1.745025311330887,-1.383777285297953
1190,-0.7603908910457294,0.0026340946142207125,0.5637914402517247,-0.59769847216417,-2.1595557784750317,-3.0327669185089627
1200,-0.7187504427932145,0.031230147836268957,0.6056533377633305,1.1674882627639813,-3.619826097407469,-4.374815016101488
1210,-0.7157018136802995,0.03406481404612802,0.615427205396213,5.801250833057387,1.0097579802074035,1.1104652514905424
1220,-0.7391030687007132,0.01564792884737907,0.5864227652249528,1.7024686212027098,-1.9312727557003622,-0.79229230566722
1230,-0.7323437966651379,0.018718342265135145,0.5876611683795595,5.8496493789454105,1.1602526426822568,3.5449667939120655
1240,-0.7283260415175843,0.025555873671481297,0.5918948915263461,4.559408852097596,-1.235219901114468,2.21805082464989
1250,-0.7191598538135218,0.04385869997491793,0.6029575829918615,1.8180833760675141,-4.267695155715449,-0.6555692785595397
1260,-0.7251993652847042,0.03810824082154291,0.592305898527554,3.332003715730416,-1.954470206543316,-0.001553220910494757
1270,-0.7196713707829616,0.043138669477126385,0.6024784408532613,-5.92129766652237,0.5710203594238931,-1.842895563625978
1280,-0.7442924622101487,0.013514434875525066,0.5766064075199964,-6.425859267892063,1.6743517703437052,0.4485183352214628
1290,-0.7627442242947202,-0.006049660085106313,0.5580743705629853,-7.041409706990271,0.24734043140147977,0.4198051978201171
1300,-0.7510791762778691,0.0028251681927140525,0.5723906677800206,-2.3364164973373565,3.1960870504080856,4.2403375313228295
1310,-0.7315008567278226,0.01566370646952924,0.5922799395552251,-3.7682015641082742,-0.33918159219994726,1.1342166184579403
1320,-0.705020997446207,0.03508099005420546,0.6107471854552726,-1.4794783746527556,-0.3914968613656132,1.5796972783903136
1330,-0.7353206691767968,0.006153432169434371,0.5812916322735061,1.1289154955547331,-2.217022868502533,2.1176245941754646
1340,-0.7251767277793758,0.03731635426155241,0.5854952169155236,4.207410596764836,1.3341877951387877,2.710722482633373
1350,-0.7510714861550327,0.014901362363907787,0.5691234608184397,-3.954527176772322,-2.8185039459149506,-4.995858589200892
1360,-0.7378623830346847,0.024073299687917195,0.5893883534072115,-2.0727370796764437,1.761688578031456,-2.4230342242307645
1370,-0.7392996444605389,0.015550401665723374,0.5850411759090366,-3.0543750016533813,0.3048440484476389,-3.7414528523280906
1380,-0.7213965534959536,0.02168997235729748,0.5973104785947094,-2.9494797907766372,-1.6222044942085148,-4.071389577021668
1390,-0.7199228750884927,0.029520300430767546,0.5984246797797664,-1.771635994395676,-1.4179249520595933,-1.9810855268081655
1400,-0.7286359472236607,0.018856370839153643,0.5932403754373424,-0.084032921974527,-0.8679001912498592,-0.18339836389444286
1410,-0.7398847815861237,0.010584662368829423,0.5865769389057445,2.409034580309357,0.06824574104756365,2.212120701094914
1420,-0.7184691336885797,0.033737074798677213,0.6074504424120875,1.8697602713625303,-1.278639476317571,1.386177664133749
1430,-0.7062644863364738,0.04662909313691699,0.6168104308365178,3.1961017036780635,0.4820065955269215,2.876920876189728
1440,-0.7313013707843004,0.026546631942588914,0.5938973453168664,1.2437200901224768,-0.2932033624773447,2.090271344670466
1450,-0.748446075016964,0.012701159190287501,0.5739596329684693,-0.5086292230879859,-1.685176653184978,-0.0402199129802257
1460,-0.7432224176860805,0.01948960670240947,0.5868378795993896,-4.9444169708129495,-1.763307488099664,-1.305328310935705
1470,-0.7314809404956228,0.019839192458976647,0.5934273279575272,-6.762003171801477,-1.4839799810275798,-1.462150305496725
1480,-0.7246058392514135,0.016479939899115083,0.5954484834100362,-4.499412502013104,-1.7724004354888723,-1.5332679177453326
1490,-0.7263797267178519,0.015527150901322482,0.5936533744091257,3.788354583619745,1.4141153330159433,2.337023570431322
1500,-0.6917407393009725,0.06157419448249433,0.6289035866742096,8.090665573853448,2.5505456516510034,4.263206467461055
1510,-0.7347926547565952,0.023190339928717475,0.5926369629126133,4.93109395917059,-1.2083703393281218,-0.05528343087175158
1520,-0.7265446291501295,0.034581857212324325,0.5960058562599353,7.225776688437394,1.1292539099155057,2.3884333459932505
1530,-0.706168650831749,0.05309801031713467,0.6132713555268794,0.1477170726883087,-1.3046159453895636,0.0880844294877321
1540,-0.7537303063598053,0.003290079332680086,0.5674362502298802,-6.412687690185111,-4.050766132967477,-3.2820355220611876
1550,-0.719431659066027,0.03297857663859084,0.6040705254728858,-4.972120517731094,-2.965762921846811,-1.9205605685504024
1560,-0.7377166130323025,0.005175862180915975,0.5835427012027348,0.2008736471647714,-2.0331675620610845,2.0252942852071265
1570,-0.7091105264895636,0.03993094001237517,0.6168109299282607,6.337023130488198,0.0690520134151531,4.442205703081486
1580,-0.7084583563609603,0.04877273062806011,0.6195810311497322,4.763722247389921,-1.3538689769614995,2.3412570904540217
1590,-0.724146019460419,0.03124292052403826,0.596697317946741,5.1334599469983235,0.7749503615249842,3.43150530519219
1600,-0.7349732280998893,0.026730690636516924,0.586390259371539,-1.5042710292648371,-2.5767193134849724,-1.223399193203422
1610,-0.7196669812956094,0.05206341828552136,0.6085242086882803,-1.5924954981860484,0.37108494903146194,0.34914059449261636
1620,-0.741704335725891,0.024885776598958707,0.5863259588518632,-2.4415196555069203,0.39111094103139254,-0.7490938397250423
1630,-0.7347559275249518,0.012428131032331407,0.589293145182972,-4.008522170044018,0.46765072130315416,-1.0030049565067103
1640,-0.7498677778967145,-0.0053231807382260205,0.5705031224530862,-3.2231722905802083,-1.623592710537548,-2.3435328507315103
1650,-0.7137797927914775,0.032458328743855756,0.6071470504229917,1.1637874717079004,-0.6587951884882389,-0.5870530556524376
1660,-0.7311384818433051,0.021105037323155093,0.5947122204482788,4.27212946252846,0.4212822806888914,0.5550480683861683
1670,-0.7567322208386064,0.002602801436572856,0.5728492869800292,4.895400205035545,0.8235889439512798,0.5445850156512024
1680,-0.7446979188929939,0.01902322014915293,0.5817184308387412,2.449855513003767,-0.283704555079967,-0.7633953509635186
1690,-0.7272563853959975,0.043188677063877724,0.5967051518474311,-2.771914390200048,-1.1530915202906356,-2.1309817393506627
1700,-0.7125247368723179,0.043639854091866576,0.609267391759818,1.859644128130052,1.3306583662142821,2.1721510953975303
1710,-0.7467793063578585,-0.0009749285129965271,0.5763474084684764,0.24319967428565215,-0.7920676797545986,0.9408170292293736
1720,-0.7359975503386263,0.010861914483021129,0.5863577733793816,-1.8461483024889875,-2.1742456550435194,-0.3363389528026781
1730,-0.731102843795074,0.021959646695539885,0.5885387455695958,1.6474519501003075,1.6454250290918797,3.053577729830031
1740,-0.7480125507311398,0.006773378789359019,0.5716559728156099,0.49314294795099833,-0.3689858185506738,0.2741894856536077
1750,-0.7321599125480593,0.029712840603803903,0.5946174537502443,2.5456565324197444,2.8024693789934543,2.7478878998942484
1760,-0.7583201738211297,-0.0003038148566480228,0.5653787278444422,-1.5945272900508265,1.0660188888024613,0.3863358530436318
1770,-0.7286544968827917,0.024258615914798366,0.5943635366571824,-2.0600999244547182,-0.11034052968268417,1.03799498316193
1780,-0.7233496525741546,0.025450920115520186,0.5985496918960441,-2.585067457734661,-2.5778199938688107,-0.5300482442042422
1790,-0.7159345396450713,0.03513361441973537,0.6048824477955494,1.355774849462359,0.5667151437531479,1.8687413468335217
1800,-0.7131982750608723,0.04778364472186869,0.6079058012380106,-1.2007165474712473,-0.3347587850637896,-0.09598619605436834
1810,-0.7006356552910527,0.057633239922422266,0.6161826129590388,-3.2200378637620606,-0.22375523831846808,-0.5304930706578657
1820,-0.7130287979874508,0.04314392204138569,0.6106901156378891,-3.7027459854557314,0.576199195430934,0.45120704678698187
1830,-0.7508200493764624,0.0051500546520971795,0.5769170253077988,-4.984957622607986,-1.429397000219811,-1.1198235692795768
1840,-0.747944918576423,0.00839534252107571,0.5758864473312713,-1.8146026593390472,-0.2896072563668532,0.7804980520162544
1850,-0.7436264752038968,0.016333755147329418,0.5756887425127939,-1.9225516594703538,-1.0836334507794425,0.09167772681690356
1860,-0.7346374725868645,0.0321311128011334,0.5889992732178339,-2.0430226716509408,1.4281433943735684,1.308468446849584
1870,-0.7440358577303747,0.015133621239572629,0.5847007880849091,-5.6182971337007785,0.14417227879773048,-0.4922423130004875
1880,-0.7129567312532689,0.04164963393980503,0.6154003289438784,-3.926898171037724,1.0477584289785749,0.20834453723357282
1890,-0.6965496029625914,0.051767600171442746,0.6242811051087939,-3.151164466070213,-0.22841368923563252,0.23839015533832916
1900,-0.7308379159241204,0.014273324713163848,0.590005055561314,0.20880549678978133,0.18925257006706553,1.4217462498294555
1910,-0.7410435771824783,0.00716896034731385,0.5837933510773332,1.6743110958717746,0.17648450892451206,0.900235795405139
1920,-0.7183973461223488,0.038563609398917294,0.604699451483032,1.595236741807678,1.9167571473235818,1.3350859779378381
1930,-0.711993289812168,0.051625792024910425,0.612613060263145,-0.7444457616022642,1.3271180109688476,-0.28548011290793074
1940,-0.7547983495702929,0.002542212940566318,0.5694800207927172,-4.492181488246143,-1.1983807171848473,-3.2461403794573283
1950,-0.7395404770445709,0.016986312722657344,0.5935861073495173,0.12403576058809085,1.4292510765275899,-0.7706214444792396
1960,-0.7282661643564549,0.022412659282688034,0.605254368651651,-0.6175552154416821,-1.1196624218372913,-2.671737517889924
1970,-0.7496789054097273,-0.004028876432321138,0.5776459355527573,0.8514424285298248,-0.4488361535574362,-1.0817613443346852
1980,-0.7528990459676042,-0.001980452504279688,0.5716392312903077,-0.37312228905191525,-1.8106472026177385,-2.064415146239102
1990,-0.7238126503607175,0.03160121900657285,0.5972948947309715,1.772593510671828,2.433724149113995,2.2729412877505566
2000,-0.7253345814718081,0.022176453321180633,0.5942804837869243,-2.6280160596532283,-0.504652273538973,-0.17918242969956732
2010,-0.7102442441654195,0.04090395774826218,0.6154275956068291,-0.7827674177962569,1.708781969790492,2.179355934672549
2020,-0.7216354217743606,0.0322325401153754,0.6062339044722503,-2.243945338906135,-0.22500809365364774,0.4494072057702645
2030,-0.7193738833067572,0.035698752170974596,0.6059991246799197,0.0744878423211297,0.4391521859398214,1.353775555138904
2040,-0.7032114834720621,0.05517255641924996,0.6206916813982617,2.9886031899686243,1.0599785782441957,1.8899168659055725
2050,-0.7384399803079283,0.018523269792162657,0.5898932259684868,3.4244810557854333,2.5089629601777883,2.4023376996509898
2060,-0.7351995434922176,0.016369572132531002,0.5842480358840633,1.9814181515776532,2.776317338465172,2.738510522472208
2070,-0.721500836790758,0.029277019957661896,0.6001569919690397,0.8376391388063151,1.046314869143009,0.9478380914208423
2080,-0.7355908787121459,0.018213316278123344,0.5920243689739,-2.870249782404681,-2.869919262411407,-3.114585075588955
2090,-0.7503035859457726,0.004612828836896447,0.5781723663713405,2.626756151670727,3.096711724029228,2.901056797999548
2100,-0.7455717872498588,0.005807340297940538,0.5767787185753045,-2.2935037100452416,-1.5545490043108874,-1.4301929176490868
2110,-0.7459876578539414,0.008658443104286508,0.5791727129985473,-1.6356500275789199,-0.8545013930267324,-0.8690259404475971
2120,-0.721298425667076,0.02909110766695602,0.6016587545039299,-2.4706573965503775,-0.24754245636723385,0.18599010379503975
2130,-0.7622552281250394,-0.009770239753665234,0.5624085109709789,-1.8318893783108006,-0.13898018569283396,0.2027693173018204
2140,-0.731283842486704,0.01975620199653845,0.5945939816831817,-2.477323840276961,-0.7656144428313916,-0.44422947900934806
2150,-0.7279674578966912,0.019674706764403374,0.5977970613300325,-2.0488775825220897,-0.7831352613865832,-0.3818678463823737
2160,-0.7514012950386477,-0.0024084912882505263,0.5747394468607174,1.8845885817722876,1.216535312991972,1.6024422331310622
2170,-0.7302879862805645,0.02746851800129208,0.5995638425800844,-0.9061919041918824,-1.0554898157508072,-0.6584628595821059
2180,-0.7359649855802882,0.01501418558331915,0.5852199024918308,0.9458997147685086,2.53328766274581,2.898076833376963
2190,-0.7403688312446107,0.01168095041044567,0.5831312266090866,-0.8407048963538601,1.3891238393183345,1.0362628569343428
2200,-0.7275678473573225,0.027044836191994576,0.60048394345119,-7.2728465862158895,-4.3833299277539775,-3.9979751229331764
2210,-0.7382753757807179,0.015473001662674212,0.5898086972547902,-3.2275606737655913,-1.185085603284586,0.14759210973135217
2220,-0.7414913127629472,0.00772952732886212,0.5808979643279416,0.47519284681685714,-0.49409089983309884,0.41059030049839973
2230,-0.7106997736493499,0.03809382693827651,0.608173116197613,-1.0660502028096226,-2.592711142495389,-1.5947327211910696
2240,-0.7196089450351921,0.0316829189057966,0.603094098331484,-0.8614316323577484,-1.9710386206236707,-1.694950236250435
2250,-0.731256286646736,0.013889331442425556,0.5889040132084156,2.295462396264914,1.2199757783652942,0.6615935986326752
2260,-0.7204929176296478,0.022820736552030742,0.6034443921173454,1.305124328395403,1.2568448466719966,0.22429838618162445
2270,-0.7440076352513566,0.0012905238498351866,0.5840384942059459,-2.1406289138823986,-1.0353640014161114,-1.4547511370853028
2280,-0.7243720177271465,0.020227397705007265,0.6009709529278308,-0.7022904850740868,-0.1425509731857339,1.0115167503945106
2290,-0.7471908972447804,-0.00968294320100198,0.5805592649526512,2.40506018829815,-0.5954633547545798,0.8567591564209224
2300,-0.7195599372707114,0.03484570203629292,0.6079715899271632,-0.8453108560794826,-3.007570328465235,-1.850693041103904
2310,-0.7447159324584595,0.014325962068683246,0.5850658645687844,-1.6823024747014397,-2.3837690903114837,-2.4121302911929443
2320,-0.7663907962536772,-0.009276607932911438,0.5607003658181422,-3.4307937926692085,-2.2127140645840186,-3.141083739384272
2330,-0.7472849671184143,0.004214430994662111,0.5774084686005594,-2.3430856846607258,0.766928728652088,-0.4763435300841402
2340,-0.7634514830307415,-0.017455794571800666,0.5640689660754029,-4.049941754734849,-0.7462302183169742,-1.5406627911449782
2350,-0.7186570511661267,0.030803015053825974,0.6080046348212951,0.26264882575451454,-1.6544415668604975,-0.38084437116187586
