time_ms,ax,ay,az,gx,gy,gz
0,-0.661187931561557,0.01868041863889232,0.7808434270086702,-2.278197104762074,-0.14261937659819618,-0.27557199220756873
10,-0.6690333040366836,0.0095210023841055,0.7612575377520248,-1.2610777032816838,-2.782336065986297,-2.8891683310929173
20,-0.6697623236544978,0.013001687625307116,0.7653594879294574,1.0850535093471976,-0.3588443246521638,-0.5143919466367084
30,-0.662553016295775,0.022248139359396502,0.780107951889845,-1.624616464983161,-2.6335415352722937,-3.0779874781057566
40,-0.638976301602201,0.051254872925785074,0.8043618421136493,0.20466016368892034,-0.0063940587665813255,-0.34727622262290636
50,-0.6700188308803893,0.014385762685997535,0.771578742696826,-4.035990244883575,-3.8135365523742855,-3.831926177285236
60,-0.6710960516398107,0.011600092645846716,0.772093043379057,0.5447771021995891,-0.40192974182125896,-0.09501946100455756
70,-0.666394303262249,0.013115577827796215,0.7745223488971836,0.3974394533016936,-0.5109098009953265,-1.1619681606608259
80,-0.6735635538435726,0.007154721072513078,0.7672076036145798,1.6454487700903768,-0.03362919933966779,-0.8672975980671053
90,-0.6667772144007009,0.01707195659713746,0.765200890601826,0.2845211058035609,0.6807892779532427,0.373086534345738
100,-0.6786008668485465,0.010661701756873448,0.7663482010000003,0.6750459228065688,1.323129241020818,2.2557173551283407
110,-0.6559291895350141,0.024775708712092632,0.8021164773630431,0.12289130347671579,0.0449395394246046,4.340243189926788
120,-0.6552620922130239,-0.014247986815321464,0.8192359541745277,11.2643535065263,0.08765095572101289,8.941720799830463
130,-0.6424743831404502,-0.10471672261171198,0.8341991695409302,-0.0839644394974619,-5.693869709579713,-4.545987011677546
140,-0.7022364608809207,-0.03535814975975978,0.8343062614086496,4.262064279011762,-6.4967169145835175,-15.790651861572822
150,-0.7188130164469535,0.04572735810145281,0.8999121770542724,16.290395091865744,-16.340135994020553,-11.560465342300322
160,-0.7021905288520717,-0.04607265234330231,0.7885409834353737,24.125942935755365,-23.43731724665902,-10.765478642270471
170,-0.6212532582158998,0.08462322511958094,0.7399718750869383,-8.272171624605255,-11.342137124751273,-15.231888374824477
180,-0.6224006346318958,0.18943708058694597,0.7523793894972567,5.33660235294431,-6.880956750321531,-5.500405820980812
190,-0.6249875662763809,0.028002784448594345,0.7835936135130538,-3.8359511349378748,-3.6811572624985347,-3.0582816421313597
200,-0.6045184981461125,0.016871502787678044,0.7742016884518108,-9.372414596327665,-6.410084766375964,-9.884123534797382
210,-0.6097526021294907,0.03316794045313313,0.7358402433193924,-11.733984899392166,0.34777747776442114,-7.974220244253828
220,-0.6174099838933513,0.12737438857614183,0.748914658958603,-16.08444566286902,10.458033491332849,1.9259909423785384
230,-0.6310860181506985,0.10708459711623643,0.7882357651183678,-17.944557914542933,15.24591938452627,11.688163009353952
240,-0.723893186258596,-0.05234469974674999,0.9143356198278904,-29.58232283061477,2.0403929491874235,8.50483661060535
250,-0.701652430735877,-0.1352205062554323,0.7971742162820216,-20.082115586548454,1.5343108525827467,2.4834469616490646
260,-0.591527815283655,-0.010020882427624493,0.8521864252985694,-13.326940065379809,-1.5463551115222465,-0.4344341315419826
270,-0.6710820463906688,-0.027002382000746148,0.7634287355605667,-4.1353707964773605,-3.6420432157142058,1.3304117752143054
280,-0.6497038947959236,-0.05712002641133304,0.8088972729833837,23.404683682522762,-3.56545998403894,-3.910587249224588
290,-0.6326026813175556,0.025147196730142252,0.7936733678530258,21.375339286500225,-10.408535593168132,-12.75915378597639
300,-0.7435845624283721,0.048183735315288856,0.604777045143915,19.81049476611106,-8.581318432553633,-16.086233969202432
310,-0.7053293479399266,-0.13281194944305888,0.6163822628507408,2.994399717238355,-4.163227363503556,-14.934426511416927
320,-0.7087849546685915,0.029341777744578003,0.705320633773126,1.9056681957655082,-4.800185563538723,-12.810499630176597
330,-0.5863341057644516,-0.001740135278527885,0.8587487405344127,-10.434769423586234,-5.978235165555932,-14.42446214034533
340,-0.6096753997472485,0.17976325812049804,0.726813297773416,3.7240365455594593,0.7671562721568084,-22.989939245571566
350,-0.8146934179036334,0.128241638198579,0.7007962393589872,32.15411701298978,-0.592856598755339,-17.556399917496954
360,-0.7146038890215263,0.04781192475588161,0.74288403739061,4.891773734012791,4.293663910058758,-10.567862231921488
370,-0.6703169133516413,0.006183435394655887,0.7557148118372903,-2.877899246478351,7.04334105965282,-11.041727499676576
380,-0.6959056978270821,0.08684091096504494,0.7523416157695493,-6.835971747301095,9.481837065298667,-3.0548855099942855
390,-0.7316448216642234,0.11762141936872043,0.6358157414277718,-8.78710633516836,10.76151526254084,6.938323441818673
400,-0.6590630206536794,0.08099590248336064,0.7763381420653714,-14.482384510488545,8.018624300478015,9.566013467022096
410,-0.6404090841742978,-0.029516442704910557,0.7189314779526,-14.026271385207512,10.357572706971988,8.635523938235337
420,-0.5632521284888985,-0.13892432905715646,0.9113634098108145,-32.452047584080745,4.100572551986059,11.611389270894577
430,-0.668103756776921,0.15264873036385188,0.7117241867702667,-0.36063300103762497,5.540314079664518,19.004993788619107
440,-0.6670767661696899,0.08169365182097646,0.7010900175908966,27.713540332608556,-0.22235879701178218,19.70619632746601
450,-0.6576356546984888,-0.14682857417946882,0.7452014181770338,-2.9755480323874623,-2.9213585187181286,11.281646752741052
460,-0.6582393226303908,-0.11950048164686101,0.8002551539312148,-2.557894203190014,0.014070030593757554,1.3106259573938361
470,-0.6387153564795286,-0.03575534871023642,0.7895975762764488,11.719242276292526,2.35850377870171,1.388705304390432
480,-0.6460274496415644,-0.03885767646888916,0.7932951023979498,10.738225857009972,0.1577197401336501,1.5133798085519055
490,-0.655339560183461,-0.04415540997278789,0.7922710259819193,9.032199377814457,0.4760839687480444,-0.8238164370921399
500,-0.5923114952983417,-0.1089237290190128,0.8443874322935491,7.685703193626539,-2.250328422446847,-10.025168047867094
510,-0.6721830598712775,-0.05535165107184284,0.7460789430058783,6.81280314700155,-5.449191292046748,-19.580018539109897
520,-0.6764900426388446,0.046911182316439225,0.8350672857617975,3.8165880181217706,-0.21932065662351063,-16.803073898382245
530,-0.7604186297816137,0.26743034183864073,0.7213714809198818,25.891222469012842,-1.7413082209713102,-28.84072450210448
540,-0.7021008139424545,0.12710580895682116,0.7486797179292055,30.059129253269848,2.4718886235140887,-21.399475978722286
550,-0.6382651526230358,0.04999183510903562,0.8377576140649651,22.332486840549038,8.824309381886241,-6.377775968024931
560,-0.6195443583691606,0.04115025907557182,0.8371747061064236,2.2742567317224918,6.950255925943109,-6.783009778663373
570,-0.7083899919563904,0.0014109009100580121,0.7790147660689468,1.086144154098446,13.247698859999923,-5.8960017500543715
580,-0.5316774716731515,0.2097927966577553,0.8777249653094826,27.047402406101174,31.609425039384647,10.175302611505025
590,-0.5950673585313191,-0.017205866953819912,0.9094006161485977,-19.90627287208869,17.199456912154464,12.049059898743849
600,-0.6782489063052259,-0.06056201682353289,0.7322023913896891,-14.8032843472522,6.811733837680151,21.413119257423187
610,-0.6376195659944855,0.04446888405872447,0.788028339597874,-6.845817856843777,4.402623590463607,23.871483437826022
620,-0.650210370722573,-0.03840948946502028,0.7565386741579853,-12.108392899258279,-1.770015550117635,23.916659482981434
630,-0.6685099448956787,-0.1352358355789205,0.8128277047457317,-4.34655548140057,-7.312927780515718,15.480723255613894
640,-0.5928642278009554,0.004225314325883502,0.8573428793770379,9.886999998400928,-9.343646718164983,19.892907759328715
650,-0.651279758615415,-0.022126537613006286,0.7717979633282741,3.825343517067698,-7.202702674997259,7.600190552059122
660,-0.7220475427544875,-0.04859516054260403,0.7488942605876076,0.8601070340889487,-3.1781649094677684,-1.5321768173956403
670,-0.6548068580387566,0.03280302226043857,0.7779573522131915,2.283502116682432,0.02904698816000184,-0.31822214707827423
680,-0.6778287335870176,0.0017707453999659725,0.7576190541396376,1.3646095830961475,-0.8409656232799836,-0.138136801261449
690,-0.6786049009480005,-0.0038043628920449452,0.7621395497579853,5.266853115984498,1.2786422619054922,0.9101813505515155
700,-0.6649983161068385,0.002726793744670624,0.7728526137191399,6.928756644504547,-2.229231650719491,-3.0004496105569927
710,-0.6759740195409314,-0.01154329536908311,0.7580202172621731,8.888637534738356,-1.6874058323875227,-2.4740834250892343
720,-0.6783114965812282,-0.010027519952006592,0.7627437980118285,6.486809940429635,-0.20148657400074987,-1.2600723522363653
730,-0.6695243712815587,0.008995913069627,0.7735180371283549,5.245839247019823,-3.5996176760273366,-4.283500196032909
740,-0.6621726534544662,0.006674700137914681,0.7707286735795508,8.693043793350421,-0.6701548796384257,-0.7672902040760367
750,-0.6609099356101256,0.018314098638507484,0.7928502468146487,7.011339592963803,-0.7373134881334317,-0.49137260372595326
760,-0.6664988774457172,0.022916666354260033,0.7716664814582923,8.666168575512602,5.088688357291253,6.343263786073378
770,-0.6469022488742521,0.038953354025826906,0.7906063646199458,2.2647900423812732,-1.2262357557224164,-0.6275249640851515
780,-0.66531313133621,0.013362589513597607,0.7755735634162989,7.537033519845006,2.10034575627583,3.0503847148273637
790,-0.6592590616539085,0.021097635007840978,0.7774301083178261,2.2799299940102666,-2.3888332545478788,-2.1218939096119938
800,-0.6620798231492282,0.022605084426762574,0.7810479210620341,7.846088001115097,3.6382998005168976,3.2490374778622866
810,-0.6627880915839074,0.010873514647921365,0.7785926753927145,1.5380133217085388,-1.3334549371234135,-1.681002914275268
820,-0.652203379538772,0.03450811514568149,0.7871049509626632,3.6165425081881697,0.5831893674967292,1.1073433027531525
830,-0.6737695969549109,0.015705014058771335,0.7679907761553624,3.3488965311976004,0.19233747185679462,0.7152830052156888
840,-0.6498382717634673,0.041783408442087354,0.7925047981579655,2.778173626931507,-0.5640688341238229,0.42129329061203996
850,-0.6644284054746861,0.01977032024444767,0.7643963492589417,1.2515025010963163,-1.5476723901390024,0.5817503711203975
860,-0.654853836959859,0.03964262146179625,0.7953995335745391,6.600496207891868,0.9358010145722084,2.1723981905429404
870,-0.6674846029152894,0.02702074835557801,0.7734236820026772,8.572165811343602,2.5183215373221173,3.4807808482318916
880,-0.6743173251734745,0.03216044339071176,0.7587920407824581,3.9022800519421805,0.8644808131415372,1.9756069861397447
890,-0.6465029242783957,0.0497934354502522,0.7955746711062945,-5.063695131932866,-1.9161477116456394,-1.518377014467637
900,-0.6545247897276545,0.03874857088155012,0.7786664022046064,-6.298717463828449,-0.3546221996259812,-0.031828856888486134
910,-0.6707379998180397,0.02535762326895721,0.7651943745089808,-12.72073138435113,-3.043529728217075,-2.0206489254480404
920,-0.6566473000722818,0.03008728240621904,0.7847279074649832,-4.92138630671014,-2.5979612481750554,-1.3443343933002607
930,-0.6845407310333558,0.011736806878268714,0.7571350916666459,-8.926556802372264,-5.006495384671213,-2.3686353463963234
940,-0.6360047147553948,0.044902291155230895,0.7999285603611004,-8.169921572137664,-1.4989157756070215,2.2426727577160186
950,-0.6517874561266525,0.0198119251526021,0.7923990135329821,-4.148975112932354,0.4744296078814098,3.9201109723898697
960,-0.678649032213742,0.002640073936448665,0.7632243988029465,-0.48007401930762655,0.6452453957861888,3.0890484624243273
970,-0.6556071748490492,0.030703544379756288,0.7831414788784067,-0.536426000919319,1.7275586809458163,2.2586629327924386
980,-0.6639559636188497,0.02044043875839278,0.7782024676087632,-2.6218945688780195,1.420215654420444,0.03856201235897566
990,-0.6769477276296282,0.008542626574671025,0.7676530765471806,-2.8354430426656045,1.1476020581098703,-0.6475373297745688
1000,-0.6861129240625512,-0.006046590264610803,0.7516376314171703,-2.53420054898577,-0.9139097689177724,-3.050801628146517
1010,-0.6792541266339303,0.003381345552261217,0.7566734965026511,1.7553085185773871,1.8872950893871563,0.6074842338831625
1020,-0.6642526439550857,0.004403581000193734,0.7759815984523026,-3.059755707650819,-3.263126977788944,-4.839451463999591
1030,-0.642728221045464,0.04723808904897311,0.8004655936973687,-2.834103801317091,-2.5198745480658578,-2.6291891528704627
1040,-0.6556651416830455,0.02817819988052378,0.7846570796605798,-3.2216302274773345,-0.7115733096346119,-0.6678275026657942
1050,-0.6520106685386514,0.024204159075874237,0.7880312492925782,-2.5845016866921875,-1.6596162152657827,-1.9376639426852038
1060,-0.6680070359188183,0.0061435767838060925,0.7762956283449709,4.351854846174779,0.22768023938348736,0.30194448891935377
1070,-0.650865731086275,0.03059836826520014,0.7863028019204311,2.084663406888203,-3.727556926494656,-2.940337053189192
1080,-0.6726642328649111,0.01633013661117206,0.7682979786991602,3.1469655207588216,-0.8829633444393807,1.8162988148914228
1090,-0.6785285453743425,0.011468586487462872,0.7650114909893065,-2.262751307061167,-3.209115833882123,-0.9961443896466999
1100,-0.6673463498549549,0.015268522298105533,0.772124907779355,2.1258159458668064,0.47267787408828243,1.6224715133875713
1110,-0.6553938675155221,0.031384561535213754,0.783271039997657,2.3901477036103658,0.044479586796107834,0.6869419393694309
1120,-0.6461909464705047,0.04630644116297766,0.7932816884664593,0.23963951903679792,0.831936691031777,0.5204435287617059
1130,-0.6707657723054533,0.005146017765293482,0.7721328144833638,0.4047199878610228,1.701259072756104,1.0190185447251048
1140,-0.6506468079953407,0.026868111092093423,0.7889145082146378,6.362712561365884,3.887230668754338,4.190492771243533
1150,-0.6524472119434201,0.02933665084005649,0.7843057913991612,3.0393031410545026,-0.57109869140949,-0.31032176149984614
1160,-0.666111459081458,0.02345066420325165,0.7776603546251672,-1.8530877358780047,-2.1565223114217007,-2.5860756801068203
1170,-0.6206447530872305,0.06990579927675397,0.8218158091545519,-1.687072962371888,0.9478098359937805,-1.312387887032547
1180,-0.6348605556228143,0.05064560429411927,0.8056244917471465,-5.5343261434795945,-1.8050528174606701,-3.8810700388709103
1190,-0.658465543618804,0.023024525285508895,0.7806161410246283,-0.23237122114631448,-1.5686924563394282,-2.3397869760077388
1200,-0.6733619904712371,0.0015064413122097935,0.7606338525297996,2.8397607412608794,1.4875836583858577,1.3306615160042667
1210,-0.6489871884738238,0.039174985056991234,0.7976375534223037,0.91997592937385,0.28799804678200835,-0.2560510848128794
1220,-0.6699183010304269,0.022918548053835752,0.7795783962359872,2.5112307204043884,1.62398123692536,0.674078103536898
1230,-0.6389493045116684,0.049056013285189645,0.8043082824029836,-1.5721637009252176,-0.6089224929861166,-1.6203296470486328
1240,-0.6874502264907704,-0.0071070149896707915,0.7600505540319273,-2.454793030480671,-0.7854354338576235,-1.4649108130198378
1250,-0.6543808377417806,0.021724176017450705,0.7863068059291902,-0.7727848730175995,-0.0355462568471443,-0.5745297392163562
1260,-0.6724204766947632,0.004877005165527129,0.7690858055499987,-1.1286371642924458,-1.9180187074737565,-1.6888809366503341
1270,-0.6716832285398385,0.009031736190040527,0.7720639867200607,1.1758297172629677,1.8357625269654196,2.6532349580261947
1280,-0.685153861554069,0.0003042770282678485,0.7622299340002,-2.481655689287215,-1.1792842380572,-1.600369663695215
1290,-0.6486593174256714,0.034354065916243494,0.7949895204082936,-2.711201965369404,-1.4577169609027507,-1.8298272976501764
1300,-0.6810630842333316,0.00014527205424044384,0.7570640677396879,-0.1920365792763604,0.7841402450366846,0.8761547619912515
1310,-0.6708279002953567,0.011909594882229863,0.7699360157207552,2.352230092612785,3.4221678827494544,3.4854445336305124
1320,-0.6668968619309893,0.01796107630958402,0.7764355854879954,-1.8112534922869494,-0.23431805174200482,0.10348068761313842
1330,-0.6486940001321845,0.034359610144113116,0.7904083435482698,-1.146677584030938,0.13440978818052524,0.2645245517967829
1340,-0.6465943216325769,0.030863770625037326,0.7909229339029674,-1.456296329224367,-1.3239452839560495,-1.7583065823449446
1350,-0.6394624930807702,0.03740933046443923,0.7942074161930027,1.0755308560964159,1.7684039225273238,0.5789004269029728
1360,-0.653077361308365,0.02343213845483568,0.7861319785640434,0.8529423074852738,0.3174252405797849,-0.685497633644661
1370,-0.659582055321291,0.019552218082097898,0.7791525393808931,1.1086708880491258,0.6488494364711997,0.08146385024454747
1380,-0.6361386528370362,0.044060743503952365,0.8038137914553882,2.1533768115561647,1.0140895311715217,0.9273744345373626
1390,-0.656762132087927,0.02652785865759146,0.7819308107140369,2.344115725232268,0.44025603374526745,0.5546731535804185
1400,-0.6663017593566966,0.01602119612113384,0.771714210755849,-2.457844053792876,-1.216786113198625,-1.9110805798030737
1410,-0.6663028464839625,0.01723857887290178,0.7734740409582812,-3.2192392748313567,-0.321009895245041,-1.5281431472025806
1420,-0.657034891863373,0.017723907535647246,0.7732682425985143,-6.157628352448107,-3.6901300591218082,-4.3456510446607535
1430,-0.6660002013997116,0.010917371153630024,0.7768454975388229,1.805133298039952,0.7864963804685294,0.726114565881733
