time_ms,ax,ay,az,gx,gy,gz
0,-0.7721090258326269,0.07535813662216537,0.6821093415935467,2.5447302982566113,2.6303681308341127,1.8235180540731684
10,-0.7980113463856507,0.05581775644194496,0.6574025682073223,0.40075986595657687,0.22836953506851976,-0.351930392171932
20,-0.7668503841808488,0.08652959075415778,0.6889412049343134,-1.2435248105880317,-0.3117111581280602,0.03159471987864909
30,-0.7801709114237186,0.08382836064354174,0.6786865368006675,1.1671238734614724,1.1442001547392042,1.5383782549805178
40,-0.7617652190375733,0.0977907933143354,0.6980344762445067,0.08019887033439832,0.77929023666235,0.8587981790476289
50,-0.7703766126389785,0.0889344046512232,0.6854812235821772,-3.2016919258343934,-2.4722687958655047,-1.9882732782552497
60,-0.7945645857362228,0.05317947587715956,0.6606309325577441,-2.132304066906744,-1.9993632076988797,-1.797954002031092
70,-0.8056852640712782,0.040351217458878985,0.6449469723982039,2.259167180135845,2.6057945836085468,1.8456683241550913
80,-0.7890058552090209,0.07009256620141208,0.6589570813192739,-1.7748505845832445,0.24432801032529122,-0.7101965518000694
90,-0.7793190844066297,0.08717287555686258,0.6745574596639754,-1.4708660561267122,2.4758269057034497,2.236917142420584
100,-0.7789927714773964,0.07746459446168802,0.6765190059301204,-3.729769015547779,-0.8439401563010133,-0.8450391866337468
110,-0.7950038091612429,0.05793871793107056,0.6565201497251004,0.07715324077291474,0.8260891266244372,1.349074759011986
120,-0.7864973804773476,0.06310273189900885,0.6628365364607648,1.3686801768872763,0.25906413691858066,1.2871337965320029
130,-0.8018698274492073,0.049173129010393384,0.6507387152512362,-1.5373445555200167,-2.7783069314452025,-2.136670929797487
140,-0.7862968655992677,0.0697004720205749,0.6633024746103373,-0.028768216003251856,-0.928256147816858,-0.26182037607617736
150,-0.7871994205831697,0.07057698562554876,0.6715263037883054,0.4321148375788837,-1.3155470489113927,0.42869491797452164
160,-0.8104291317494776,0.063129112355333,0.6780282230750475,3.14764003146949,-0.04509501638078972,4.100293050186506
170,-0.8383769655654532,0.047899518810398216,0.6766881689124077,9.479080530677436,-1.0419990985650343,9.254642166901249
180,-0.8516420514078101,0.011880976917236438,0.6741904367770284,21.07522076689868,-4.018990941902557,15.960780069534902
190,-0.8406032248022491,-0.02619388773821646,0.7503476267309596,27.70830095358276,-12.180421885523234,18.16741200235345
200,-0.835216302107729,-0.07967699932823344,0.9028629562907162,40.2012034183826,-27.69132805564978,10.50440243548815
210,-0.8102946216898123,-0.06977861673438494,0.9612522736324018,45.644644861406064,-62.98653641093337,-21.669768237758767
220,-0.8242623510065328,-0.058022256523937124,0.9086335948343819,35.09995503935213,-79.78715847844748,-30.557563490902137
230,-0.722700258634102,0.04708151154809754,0.7774196475012092,12.19180189437873,-87.45617044292882,-38.29863218369849
240,-0.6528429640441056,0.1250636425419041,0.5134970482603497,-20.32355945254249,-83.75302437575066,-46.40213139004685
250,-0.6204072009436655,0.2558889155659923,0.3917786854184398,-52.58030438149973,-63.84860146532358,-47.453356767047005
260,-0.4940563627504408,0.31254525621455165,0.48772367097028524,-48.04951382213942,-40.95921226092902,-41.08572843100478
270,-0.6597311974760252,0.26960291185684093,0.7011948692198053,-75.9594794936457,2.129833679535115,-17.702465047619466
280,-0.7692175726115497,0.24519194987640022,0.6923810533214713,-67.5180930634272,6.345754575704751,-13.932903863414085
290,-0.7564641979866952,0.268542418690634,0.6530761091021791,-48.09052009395108,15.48342893814579,-1.691815612133675
300,-0.6739619280232928,0.21250512922637133,0.7238988953314701,-17.491339390612097,21.521337899348158,9.827698892426397
310,-0.6917747235157751,0.08014428632939455,0.7457036165686056,-13.461057986004247,22.30737925728231,18.83878154282825
320,-0.7145188978454782,0.030126303855261702,0.7214741078800638,-13.788173145697064,20.053891762228275,21.836456321392845
330,-0.7291734389045103,0.007676167757162215,0.7490969401708004,-10.56520640463483,23.412172605154435,20.258663747469623
340,-0.7715736466692177,0.025526465220814903,0.7601947650764572,-8.08539920791862,22.44506318961123,22.189951981736332
350,-0.7767063901288025,0.030640823152729806,0.7544720959693841,-0.6476000401512412,24.007035476511795,29.901611547863883
360,-0.7593147795182804,0.04849262762815697,0.733330541668207,2.3319614635554444,23.447006486180598,33.678982551048655
370,-0.7774088618831739,0.008325296307915044,0.7225467597535206,-6.171841640954373,19.014668927739404,32.63081608159248
380,-0.7796243415863913,-0.08175366836011697,0.8320107489495963,-11.381185810031523,17.100907861278976,30.683399902784107
390,-0.7639045955354492,-0.11212518376413692,0.6533731184275068,-31.77145660447267,1.3049763602527922,15.375926450751649
400,-0.6130321949155227,-0.09688599543884051,0.7973113248702663,-34.83707223076937,-14.66181575683845,1.225379899014887
410,-0.6480366118266782,-0.08285727474699602,0.8953118324289756,-13.425559820162022,-27.14726434588602,-12.200495894667554
420,-0.7588580681856963,-0.08125086699321035,0.8516728360684661,5.574878858229938,-28.805394327804116,-21.91373236532614
430,-0.8901709907224007,-0.07549994183016312,0.7596039479692046,14.971836508607577,-29.139508231333032,-24.36901704665424
440,-0.8525964726453483,0.042000415819063275,0.6585103476647065,13.335142252800203,-25.76830227911834,-22.62575159498956
450,-0.8139494671746481,0.07546573493874498,0.7128110294552478,16.242456892091564,-18.430274049087817,-30.1520021119085
460,-0.8491503517454387,-0.18955780615849674,0.992953358116789,32.30504645344293,-5.649100206783366,-35.67779032883684
470,-0.8190084314525811,-0.3573893966534783,0.9622976113005188,23.5124787528039,2.6116294717206645,-44.83899776989029
480,-0.9329015942968747,0.06973004377024633,0.6375767039907265,44.47402904801534,11.156310610943239,-50.146911442375284
490,-1.0080521454536728,0.3771899007013463,0.4955598008602379,60.733984225020066,14.910086208025765,-45.49271478862744
500,-0.8237905743683701,0.4127203173819904,0.29940046084200084,19.922533139401377,22.53983961831147,-32.53565522765008
510,-0.7288486213962475,0.1035207683269224,0.7925009427108262,67.91580846682561,29.57074727261967,-21.473243609679216
520,-0.820930811648587,0.5357066876403567,0.39539937075326015,40.508061572903884,46.017578328142505,3.4097989865477065
530,-0.7322748008122982,0.34844500096602266,0.45132488244353225,14.272828611309324,42.02131856280064,11.074644360115808
540,-0.7819316563442138,0.04376988664736204,0.7421323111377597,-12.25431054364916,35.86781926233343,18.845127791925787
550,-0.755127851417014,0.11697839143685719,0.838937108001263,-29.294506297163203,45.658858055497696,53.94734028017472
560,-0.6904772667054506,0.20152630589931217,0.9583653089029307,-2.87705488706805,42.62385018048392,65.78592208081248
570,-0.7468057952298942,0.26655817741709675,0.6235509365792189,-28.732441889857867,31.599952048578768,62.511130271714414
580,-0.7606185346618236,-0.15216180806396595,0.8567704832047177,-40.11234803433111,-8.940404386337887,21.5731506491895
590,-0.6928279609470055,-0.08669724448602957,0.773416541342643,-4.303592019505782,-7.190405023953589,10.766203857986431
600,-0.8528951743018726,-0.13763157296347692,0.6952372507338138,-27.810838703863862,-7.383328477925864,-7.205114463955761
610,-0.7932363682072809,-0.05830950065564176,0.6788767756899168,-6.0508021624888935,-6.3956971339592465,-9.250870825735914
620,-0.8065471560744634,-0.14403128667560544,0.6734533485752222,-8.723154154736944,0.760595141183642,-11.432227960883619
630,-0.8017105631168815,-0.16112875917088193,0.5806891662124656,18.457848272973553,-3.529388685332014,-16.697232136527667
640,-0.8013688047475684,-0.44739364008230564,0.5849142806128276,27.70459349967216,13.726845116454879,-41.80616079728599
650,-0.8594918263042302,-0.022655168846211327,0.4418486239364274,51.58715041347644,18.78456069301734,-43.02320788673375
660,-0.9283490617199573,0.21650964137164277,0.45961874366409255,55.317153365046074,29.760344982188634,-32.04054826480632
670,-1.0700467375752554,0.528123627196242,0.409779200600996,61.64692078357155,43.781167976591604,-9.393195390756055
680,-1.181371933328415,0.3945913221447511,-0.06472587602305532,50.698505123172055,51.67250611699619,1.3419351199118814
690,-0.9284579690943761,0.5022304145246591,-0.13416657493237197,42.921903007877354,65.3896173329592,11.693428596607388
700,-0.7640533016544184,0.27592747724247885,0.6736122991484393,8.234178165912722,44.73688587606293,20.86935738691864
710,-0.7750514617495631,-0.17514894142646417,1.2702594234190268,-35.36640983748772,21.229441003217335,29.11675407548458
720,-0.724967929637251,-0.23730439101450093,1.009308620225728,-26.910532989570253,12.617568108513114,25.583857638141147
730,-0.7566490831151951,0.1735116589936998,0.4053215404350282,-25.87390703238065,18.422629179155056,38.29813585042998
740,-0.7708332657415357,0.2065107794457386,0.4809149037202041,-75.04330306326061,12.862217503373817,45.73252994492203
750,-0.7614501449142158,-0.23574695974646212,0.9015981496315333,-85.09966163487587,-10.187038832240324,27.87811448906306
760,-0.7698883467896825,-0.08010538119092128,0.8154151391558306,-56.29516911923056,-22.756285251794694,6.387721652231178
770,-0.9518533692957343,-0.08261255427930664,0.4246312385703242,-51.76495263096035,-35.57281355859368,-25.618689854540744
780,-0.9193959584331357,0.21578987918121495,0.32049147344664514,-50.52360758913226,-26.982529173789565,-13.301811960816327
790,-0.7421618680875202,0.13412962604278628,0.5942769845279894,-39.32213060043131,-21.753872119041013,-4.367883171988904
800,-0.877584039443727,-0.1319920570610821,0.47661104458423903,-28.32651836743909,-7.337806041319641,-1.7820975835501947
810,-0.8610520297158191,-0.05014095606566847,0.5313624520030966,-7.954913342742556,-5.890447379673313,-0.9219924080755293
820,-0.8329174006271565,-0.011406089501843313,0.6222626173994721,4.571585500249189,-1.631954946861131,6.346825742207392
830,-0.8222962084567008,0.04288379891660073,0.6317204659134091,6.833455792621532,-0.02596728655025987,6.866492206401494
840,-0.8241124926344856,0.044209010822730016,0.6332376723234514,1.2408205171488638,-0.8392779804981527,1.1172602414014754
850,-0.7921699254648515,0.07687427113210772,0.6589800060312829,-6.50599198169062,-4.662403198014019,-5.813762647448233
860,-0.8160956572307103,0.028570037907086135,0.6364178849498585,-4.4315807348813685,-2.994975292289604,-5.7363245281876765
870,-0.801089019475648,0.05672823794979047,0.6488596895260552,0.36590176089385795,-4.178741209889641,-7.18993693138824
880,-0.8089171651056246,0.04306769503960385,0.6518379110951603,1.9815539750074995,-0.962989286406452,-2.265484487306339
890,-0.7925273729417317,0.05013748444451752,0.6579721487430332,12.306338216492687,2.868815390517569,8.588268917882145
900,-0.7886393866425603,0.08079179838682138,0.6657569215307327,7.776608821465228,0.12373275265934229,7.8256649789206225
910,-0.8007611973359051,0.06899445499742486,0.659106142839394,4.213901292033224,-2.0196097072152064,5.401608136492989
920,-0.8004939152840302,0.05561532828892188,0.6403985733189398,2.8879498318856114,-2.4424069412660083,3.6209712357234527
930,-0.8011786426689576,0.05528709327671691,0.638684852110303,2.714836537896968,-1.740897747183069,2.858474374914609
940,-0.7964681348758613,0.05286709186846072,0.6465574598121566,4.892935995269446,2.918388107622044,5.127893556777282
950,-0.8214746258572795,0.03472224645968827,0.6290943810015429,1.1573632314397915,-1.6812459359781422,-1.2284934415912017
960,-0.7925653479916785,0.06680134209453617,0.6566005984808767,4.108108197233484,-2.9495751158887202,-1.736326247651167
970,-0.8018765658353172,0.048005387501392695,0.6452967497075415,8.234034530492277,-1.025275326964976,1.0737007071210423
980,-0.8121221493166924,0.03303494995137355,0.6327044122252992,9.04009871061632,-0.022194084539283898,2.615216498937884
990,-0.792320425103205,0.06540643038574835,0.6555380641765443,5.157478963999462,-1.1807939976573256,1.5010593638968661
1000,-0.8124622592526682,0.05932736850566374,0.6382674896395084,3.3716327015908067,0.5455581741271944,2.1324958230299216
1010,-0.7833957945860694,0.0857266974509965,0.6663451828361509,-3.4059940101644197,-1.1259465128175337,-1.5690178987193768
1020,-0.8205970971907391,0.03803044132913065,0.6294789715802017,-6.48622766059513,-1.9589603829922,-2.919807125899896
1030,-0.7982368980917867,0.05356452450845149,0.6508216584389955,-0.07812180167894223,1.8768058129352998,2.0144459705668365
1040,-0.8245349240902848,0.026564523607904345,0.6216721263409438,1.4315074393013498,0.42793838416507624,0.809923537337503
1050,-0.7850836984510893,0.07369710538245891,0.6577778135465511,5.788692461097083,1.337713726093794,1.828615682231943
1060,-0.7810345695616118,0.0812700612413989,0.6590397699410383,7.298937094136324,1.921359468368113,2.90295857985769
1070,-0.7872626487859216,0.07221638034592656,0.6584336061802534,2.959290142910212,-0.4166537990609476,0.15495044571566818
1080,-0.7851634799784606,0.08079223321396142,0.663096226603581,-1.5992075927802047,-2.5551025913570617,-2.633611028399157
1090,-0.7968704841449009,0.06798796171801419,0.6524130073393254,1.5727544014286852,-0.5221628657301345,-1.1461510000663344
1100,-0.8199458119379776,0.04015234630787069,0.6286919109293605,2.6329810136489535,1.117214658050736,0.010102564632071376
1110,-0.825251790609874,0.046138396939657426,0.6210067257963023,-2.1600924082312827,-2.2110527222871084,-3.500225824047135
1120,-0.7928479024699656,0.07189617958324315,0.6498464253544224,2.116205702175897,2.5114840463540986,1.336060927259048
1130,-0.7984407395315413,0.06375706406631311,0.648440945767628,1.917708108328385,1.0804117723189857,0.5615793285922486
1140,-0.7718310916054137,0.09410888771144738,0.6675134803903161,-1.3831852643895304,0.3257589950368167,1.7055648350910324
1150,-0.7957235507126271,0.06614549373584076,0.650478550696793,-1.866701439662074,0.5869625663032123,1.4805204479928842
1160,-0.7994614118703324,0.06154064551593861,0.653382498329766,-3.481431943321553,-2.1429036576879765,-0.5163230948480192
1170,-0.7891109159391593,0.058906116814298984,0.6550398590804765,2.3735516481061425,1.9270977365575783,2.6343655791040588
1180,-0.8017889007192129,0.06011467963032023,0.646106697957353,-2.4137835430633388,-3.5877049654038635,-3.243768337384049
1190,-0.8149222674078966,0.05814389527656008,0.6387000497356788,3.245208888899435,1.769565553022549,0.9888858012936744
1200,-0.7881938802700966,0.08325531023506955,0.67049371490485,-6.9419630589963415,-1.576347972726492,-3.428661424425713
1210,-0.8298973021886882,0.037919754947749254,0.6251444430865976,-3.8411978547164303,1.5131081538185633,0.27688427136193505
1220,-0.7910115711140421,0.07100681236473412,0.6533065665270671,-3.086837271731406,2.220650166754836,1.4193239502304844
1230,-0.7989735718423343,0.051776181028939335,0.6428413909463162,2.050506711253222,2.6207234729371987,2.2431427139458977
1240,-0.7846324357988529,0.07129010463628141,0.6537601987814143,-0.9130315436161556,0.4133200698496907,0.2348306635290347
1250,-0.8003329861166556,0.059718862347602035,0.6479943804638232,-3.9579559491010494,-1.1147902848313944,-0.6053172404527101
1260,-0.7857571767163893,0.07780999082106438,0.667305952926409,-1.8384879902574984,-2.4003287035053376,-1.1131766675207977
1270,-0.8047423951822669,0.06955205350662566,0.6454751725544564,2.3914600960669063,1.8182267443154583,3.149468572373772
1280,-0.8501942126730239,0.02473032685470357,0.6019097185246413,-2.8683499394213072,-1.402207585089885,-0.925541961244915
1290,-0.8014822485036779,0.0642898819902673,0.6525939941058599,-0.5971977803353126,-0.12525517017526946,-0.6180938215510767
1300,-0.8268487446575109,0.03646999488820628,0.6243299437810383,-2.5474580334552157,-1.0470109927243079,-2.371050979815686
1310,-0.7820169562120876,0.0817996717311066,0.6665257639592125,-3.795835850625482,1.675632949394434,0.025436920002122054
1320,-0.7937578651677927,0.07141290204243063,0.6549154384469208,-4.020572694388134,-0.853566963917771,-1.0655884915629534
1330,-0.8155668479848115,0.04936856514264781,0.6313017456861013,1.8650805791112557,-0.7481926727786543,0.8747244828257318
1340,-0.7860841452262216,0.07034419426744093,0.6559729122161438,4.123412860863836,1.6599191337888224,3.3911519149271285
1350,-0.782923847431486,0.07602785525590308,0.6605218265602006,1.038675141784209,-0.03363593862731934,1.320491985267308
1360,-0.7903255810221779,0.07951062252081043,0.6605758751457168,-3.3261760409739933,-2.2121665353628415,-1.7847278920139416
1370,-0.8407295885069128,0.031906999698048624,0.6111880073506635,-0.812476119948901,2.0506342130514565,1.4212081761684607
1380,-0.8079298654160103,0.05881712897300473,0.637920866179588,-2.7470502597503623,1.4661215159868284,0.5246543408863094
1390,-0.80926807797766,0.041820627611592866,0.6272626774709694,-2.568125826895908,0.7369303687764122,0.9850487111170562
1400,-0.7992234908028537,0.06040937901981183,0.6490546961576757,-1.646959493431035,0.19108565604735314,0.4639648130140238
1410,-0.7755988246493314,0.07784748990636252,0.6637641468722577,-1.3349396974821928,0.13396115783323007,0.3077705749234415
1420,-0.7961555710176946,0.06724877087677003,0.6448295232934227,-2.7261668467301865,0.1575974523076758,-0.39352945976329673
1430,-0.8043649390662142,0.04844660426340448,0.6418187010384818,-2.422084764891601,-0.340575287344218,-0.7608909713252526
1440,-0.7957294429744264,0.050031680066617845,0.6510369496338849,-0.44395241430242216,0.723948774566128,0.9217024739114742
1450,-0.8026717898628918,0.0533263629282511,0.6452786465642213,2.3986145887383,0.17623680448612403,0.6937801621670097
1460,-0.790427548974006,0.06816248929280412,0.6573445055085135,3.076819772742461,0.3526628686296158,0.15208316750097708
1470,-0.7929882224265284,0.0784555028914358,0.6555425703119867,1.4584368538112067,-0.6577967769053672,-1.3045039327413714
1480,-0.7943312831554632,0.06946534226372209,0.6638460214637296,0.04438806487649449,-1.5975008163485669,-2.978663094713273
1490,-0.8133434370493936,0.048961985239342753,0.6284273286650005,2.8579556025219475,1.7797452512639866,1.049881901843596
1500,-0.8022965798093608,0.05383120696910226,0.6477098293401813,-1.6976616403890417,-1.8034130401883106,-1.710450724081943
1510,-0.8099219547770141,0.05166166260631686,0.6509112480208799,-0.9336878077325084,-0.9060015580735953,-0.9771639607367959
1520,-0.8081885270931013,0.055427207058429656,0.6410477558678385,2.9292466191231545,3.568326344259733,3.052303845863265
1530,-0.8018406101595423,0.05283921159795043,0.6340942549235812,-1.9688014323787597,-2.3263904035198504,-3.0637469927993086
1540,-0.7943724424440437,0.05892483484777846,0.6527324648754718,-1.2825843723270847,-3.0314693076862853,-3.851557967162214
1550,-0.7946255113242158,0.05563441740386882,0.6566522573911523,4.901682628850431,2.9221123826229687,2.739182691792099
1560,-0.7905862246623911,0.058243306663147254,0.6635791734464317,2.672024993959825,1.6464762085260976,1.9029574245165406
1570,-0.7984264195093536,0.06021938916596002,0.654246871952265,1.1589606742370282,1.2744673050185797,1.0683252500022151
1580,-0.7969877078955317,0.06614445496310589,0.6503075543658401,0.6586271445680696,0.7626500297035442,0.03848404323088683
1590,-0.7970837296764088,0.06388139983432713,0.6541095881788817,2.3694377567971743,1.9403649316477372,1.0328206967220834
1600,-0.7882616397129741,0.07455966178179377,0.6668688046928332,0.7455447823603037,-0.1491994025559626,-1.0269068572470084
1610,-0.7876594684807308,0.07326029455436124,0.6608477618893976,2.371903762328671,0.9842046722215473,0.22628052625045936
1620,-0.8393580325155592,0.018616743615838448,0.6057472396979572,0.5095402210566096,-0.7536530184000857,-1.3762271129108554
1630,-0.7800772593503281,0.08166156853478666,0.6703169388201906,0.9727652143027402,1.05001052968051,0.9004757235832371
1640,-0.7985526157484875,0.06024612150280221,0.6521970956947823,-2.31293192420474,-0.6610171231685636,-0.4624053211519938
1650,-0.8195257000958158,0.03516018931855019,0.631944580907023,-0.8753227248067607,-0.11275559253442458,-0.2357598764978729
1660,-0.7798706694274017,0.08088890806156968,0.6740701513919798,-1.6546705022167225,-1.3229597732899452,-1.7745855264923114
1670,-0.814846132441418,0.04145286725149396,0.6417988198167983,4.928080343723206,5.516883731669356,4.941632237972012
1680,-0.8032748204876575,0.04822065763168536,0.6447352585128622,0.012935319780201793,-0.15663875783021108,-0.19737468327732288
1690,-0.8006649949037218,0.05273024743426967,0.6500114112650609,-1.8572573167143689,-2.3249822083838056,-1.3458462441584467
1700,-0.7863409731426456,0.06877595055673806,0.6551847308821394,-0.9129061231038245,-0.3330197726815892,-0.5272936379385059
1710,-0.8020717466056196,0.05789685145422964,0.6433904016229248,-0.32001722597679505,1.1124178618362464,0.48097776527632086
1720,-0.7849269552646347,0.06958752129127845,0.6683005628181103,-2.0100330642639093,-0.9143150292146753,-2.3310134205794553
1730,-0.7969529161447598,0.05568786135328888,0.6516895558030376,0.6967220224889603,-0.011019375624474192,-1.1832885801034851
