time_ms,ax,ay,az,gx,gy,gz
0,-0.8583975694562669,0.09154086593533407,0.19232589933562658,0.8499798109403365,0.9715590050085345,0.954035077133838
10,-0.8758323527620223,0.08416576185338208,0.1809051239242369,2.8885091911698013,1.13566079498104,3.7638800885111063
20,-0.8801470013929744,0.07583656614932996,0.17620196868596932,4.1429061336510475,3.115605400204266,5.471997894385802
30,-0.8676622585397057,0.10195051847627438,0.190508084158643,0.6856454457856249,2.473995012981657,2.8394696586356614
40,-0.8759274590408934,0.09852796889654866,0.1838869685637746,-3.1106071389010044,-0.3737846411291499,-2.038353135205112
50,-0.8533120421141228,0.10739343603364232,0.19536242475283297,-4.09387037979892,-1.3850576180582532,-3.875090231359856
60,-0.8621932528472281,0.09125292754384412,0.182275450517323,1.772221599448916,0.11562504946904395,1.561344928000218
70,-0.8572680868356836,0.10318773546559463,0.18829976530068201,2.0972927155549286,-0.9897241163985482,1.5065621676383767
80,-0.8852338190798713,0.0993693122104398,0.18463721031309047,0.6229120710848692,-0.14078380215004477,-0.2978033660531568
90,-0.8698663571265669,0.09434661017073644,0.18765450344294604,-2.2929502939551876,-1.000644661662444,-1.806981591355631
100,-0.8769593008859734,0.07984109573419707,0.17275346051909352,-2.165170528585975,-0.9311177606027449,-1.7041215331175539
110,-0.849935999269012,0.10988486307717871,0.20142938649309478,3.187756256334374,3.7099160703879663,3.6452087508287083
120,-0.8629224563119808,0.097108090529497,0.18211189835915217,1.1581581975439104,2.1998005978296447,2.641635314371255
130,-0.8569200527180508,0.1016787959326313,0.1915063403367617,1.6140858957615425,1.0860655659110734,1.9708172590534314
140,-0.8816072752663116,0.08952530989888588,0.18214877934245657,1.0645559821270179,0.2698988404537318,0.6008683496837534
150,-0.8529684109608978,0.11355887092438087,0.19692101337909412,-2.0380833618142744,-2.474978260028548,-2.8325136647587104
160,-0.881857573325781,0.08084618555040754,0.1706635062119021,-0.7888213343590126,-0.5651651570887652,-1.7115810789061623
170,-0.8652375476032012,0.09219148506002753,0.18365124433799293,-2.8115379591395535,-1.3631994439921058,-1.915281796298455
180,-0.864034874202957,0.09952579765171947,0.18645611470697912,0.36514017273619626,0.8792648533105281,0.4291434790093588
190,-0.8747666271572165,0.08762907078114147,0.17972118526008576,0.13353913742496026,-0.5302098000429589,-0.16797131613274058
200,-0.8636322061211401,0.09687674026093536,0.19094807117373322,-1.356732872851088,-2.542019856699397,-1.9609404321769164
210,-0.847082675943622,0.11031862251986344,0.20747764512094058,-0.519289765779832,-1.079155438759289,-0.332792788647863
220,-0.8625814306139727,0.09859289920245211,0.1890997003556784,0.44607955267602584,0.6612876149400784,0.7640977815937741
230,-0.8807569035932482,0.08532495601445855,0.17167368652308485,2.185184291453627,2.424491870893397,2.142717296440786
240,-0.8765806766604151,0.09348521102816507,0.1808777875535573,-3.035353395565403,-2.917388523300278,-3.80080007345824
250,-0.8848362168976698,0.07105407671723159,0.16376410466297886,2.5892758648642964,3.2346272024693343,2.5682653579566885
260,-0.8806530728574606,0.07353923006845246,0.16935901906647266,0.23048726020653013,0.34513027646986627,0.6521846288030164
270,-0.8761497130449546,0.08229091668985905,0.17620459809873262,-1.392443739032738,-0.6344815037368561,-0.3944861718420182
280,-0.8615102923305087,0.10141655233414874,0.1929847221788356,-0.7432573298228142,0.5592669394688138,-1.145096262473254
290,-0.8703263465438161,0.0955783055438776,0.19038785208815773,-2.555774546142603,-1.1674971934160472,-2.241069200201384
300,-0.8482646142426502,0.11427990100489038,0.20917736497337217,-1.0638107329617539,0.42070913161062695,0.15467420303854662
310,-0.8974487454608815,0.06082572430266185,0.1583025138984857,-1.4770862409210899,-1.012167690998188,0.22008025271870335
320,-0.8711555984606191,0.09925049712509183,0.18902961231299198,-1.4102207233616983,-2.1582152374008547,-0.5122785762829565
330,-0.8817438882928791,0.07107949996110126,0.18505301035996172,-2.4605059153493016,0.1584270299733792,-0.8313647465395138
340,-0.863209917356277,0.0796007430633429,0.18584051312525296,-0.7019548034864395,1.4371865249458937,3.4131355187113774
350,-0.884195317962446,0.07665063681154924,0.1742508220716018,-0.19682821210348012,-0.1509636823394871,4.606606887817732
360,-0.8306305935904523,0.13850224725635488,0.2169833434067307,2.0863264181357284,1.284304913804522,6.461293655217313
370,-0.8691850803327154,0.1116406184500958,0.1796716675628404,-2.005211376450216,-1.4024543474587627,0.8421478161716052
380,-0.8971151734799573,0.07361382980270222,0.1600547522943319,-0.6660584803926894,0.8931470745826657,-0.8975927298942461
390,-0.8721149774659703,0.08229158427302137,0.1726203832488866,-0.14005252691491565,-0.1387317432238815,-1.5438655359785012
400,-0.8785446669328137,0.08558958024823175,0.1720302561401481,4.581198456090806,2.752034556101262,3.648928839467565
410,-0.8592435975955093,0.10202553549272025,0.18459456346344372,1.2085585763026456,-1.3021913041343414,1.4598831608298823
420,-0.8567334455886567,0.1166669057497303,0.19545441813337433,2.2167755005761016,0.8847342549162395,4.009248586969277
430,-0.8462264629676954,0.12523206472950704,0.2150274055935864,2.2626492819822452,1.072620787214982,5.474638704200261
440,-0.9140041228758687,0.10188664724025559,0.16879679399388722,-3.11528846038855,-3.4573716494095845,2.306004643536304
450,-0.8679789534945164,0.11417691878101785,0.20309783380394641,-4.446896913246576,-4.9936138899348785,3.3495865113706773
460,-0.902712525219216,0.0886561003370624,0.2035421946111694,-1.528713395030341,-2.648092232335685,13.277116215358765
470,-1.05497277900512,-0.000990169931408432,0.25777523488658005,10.920504818714436,-11.439764059403238,17.56674965563944
480,-0.9930564234858441,0.0905378268993474,0.3613639997100912,14.58860031395696,-29.304705638110335,8.398972860544427
490,-0.8347371113354534,-0.00038256513823701,0.2954769782383483,18.91577154366921,-58.78184546477978,-12.932932397566882
500,-0.7226375438925972,0.19760983732123477,0.17257113167050178,11.78730764890594,-53.24549193110979,-17.11259826112742
510,-0.7067990559191603,0.23828931415819077,0.21428526685589405,1.1571708308468796,-39.30462232751934,-6.734360494926118
520,-0.7173430840538516,0.21497986250554005,0.2858848030638199,-10.7589320652388,-38.14286753479528,-4.865729671847687
530,-0.7524267677253305,0.13329368225194319,0.24541134229203815,-4.980778586835356,-33.514078712020236,-0.28876621231157706
540,-0.8459245094528206,0.09702767736259259,0.21837211182478028,-21.74504242500102,-16.561251908254672,2.034897686241857
550,-0.884040362092719,0.11754077792636158,0.3076131181535562,-43.49991998862329,-11.066284562434411,-8.857189130989935
560,-0.9230011670375364,0.16311413334186525,0.3055948426800849,-43.50267537276436,-14.859529500359894,-12.546587378002162
570,-0.8491078234831512,0.16876117085944983,0.24261017122109838,-49.22606289142182,-20.2315803075444,-17.22392788339047
580,-0.7437636750620116,0.10731491887039568,0.1710130847534949,-30.870007807874025,-5.665204369864018,-8.425099554783358
590,-0.7906728462935765,-0.00865448239968259,0.20658480869268514,-30.91825378914502,5.120291636953531,-7.378116939148247
600,-0.9610195554690762,-0.15336704046885932,0.26323854785873396,-21.82276909408213,19.86167830859545,-7.265095265951804
610,-0.9365407001962424,-0.026930587267872487,0.3109984503162683,0.0724069376774843,14.795235332810309,-0.8059511658778269
620,-0.8448165641786517,0.017779387362602265,0.33014496638947566,9.695961999319836,13.178422967151151,5.842596047933575
630,-0.8398298103842933,-0.052138852037450494,0.3378438305038778,6.569352158165372,4.53299288079619,-1.8562887130423034
640,-0.8825671584592807,0.057033539163669156,0.2731630702559431,11.762991018007526,1.678929543929788,0.213287847591336
650,-0.8409529955230073,-0.008096866752215019,0.35289591365819445,-2.851452938852405,-16.915121392173422,-12.992076680243013
660,-0.8078653522150443,0.00803201796743467,0.22117775400916145,-18.020107542689797,-21.62759550328814,-28.568597186086063
670,-0.9547623923220868,0.14916700007969813,0.04908264957435659,-8.983590346387171,-17.513164196706153,-29.850926007232196
680,-0.8859276548857189,0.15915938428122134,0.01131578767777893,1.555630146037316,-21.404420027668703,-29.11344461198905
690,-0.900443927670288,0.010668174916832578,0.2112498331785101,14.745242119185118,-10.32897669276162,-22.127092006996754
700,-0.8883705666172155,0.2693083472897936,0.12736763441690588,8.240510977166286,-1.5938429489578703,-29.564756312382148
710,-0.8927521271344497,0.0680657383968909,-0.015667089034790097,-37.169221506811255,9.971619083098402,-38.45314043538987
720,-0.9422792658665957,-0.06351867392629833,0.007045535655277591,-39.93671035347492,14.079053855966915,-31.407056095041806
730,-0.8142353591005067,0.08853456212555894,0.47666872575876973,-9.059576291433276,23.229044039066967,-16.73011784108166
740,-0.8052044906596453,0.21199593274213446,0.2214530966640625,-17.128921749492704,24.497079277886375,-13.891714498824848
750,-0.8592273756224784,0.11519333054559806,0.7650233101920286,-18.528757994350634,29.494250677408495,1.3618462161253768
760,-0.8799092560192036,-0.017386406574852572,0.6105366872944505,-34.8758529625819,38.02548355985759,34.84811022288415
770,-0.8582102505036128,0.12276917422585906,0.24780892862516535,-2.649530124058613,31.10130130520757,42.94939166304733
780,-0.8402431407703875,0.15692302195582034,0.5570274009181194,-30.144966016706718,37.618668736528335,33.493197255849154
790,-0.8448742444204156,-0.07216343116253,0.6203053386709139,-55.006286410678044,29.450534413853365,11.005683732968786
800,-0.8494404996954934,-0.13819122421547209,0.2914276852937016,-22.85974400727035,10.52398608204417,-1.7154511430465067
810,-0.8635364988762091,-0.06319628181491203,0.2755061241696349,10.0282139641743,2.5344940203394724,8.616345008283856
820,-0.8637538865008029,-0.050599880096634464,0.24520509487418982,36.885809172142636,-0.013940503240140067,26.951155117535595
830,-0.9151681467072225,-0.31129561694377045,0.451215614305138,71.96418957998516,-11.660766553206262,33.6885301161108
840,-0.9323024775001342,-0.22297565213129283,0.11830352308284421,28.942670600440017,-18.914575341173567,-19.580792645515505
850,-0.8549387614706447,-0.07126086784314706,0.36406307356482226,18.200036243953566,-8.501685693128936,-31.957632758902275
860,-0.8422486893125334,-0.1556596080078451,0.354158688783281,1.2931820696051533,9.60119094368104,-36.48234295757472
870,-0.8337244629661141,0.14814085230120522,-0.16163211391684326,-0.8106177703026627,28.44032710537703,-27.152837761066657
880,-0.8169884044995124,0.05573162684514961,-0.02922697005070915,4.698678009980693,31.111327443855252,-32.63663546767172
890,-0.7316275126705306,0.16643090966324225,0.3741154286636277,-37.45846559614731,55.129252462463754,-37.42135913686147
900,-0.8646989179722324,0.3168945659507196,0.11584056965773878,36.78292380020863,42.21627631633124,13.934753677983526
910,-0.8035363205487436,0.31097997256497667,0.277854165871915,-3.96745844702471,49.93892875500074,20.65917995376605
920,-0.7762120641837942,0.5865887670789453,0.3685782373512898,-8.711689007232177,19.97658247124741,46.141883242994886
930,-1.0047234339096172,0.10695216149163321,0.24100580029144195,-72.35993774957866,9.63446530024427,22.11717922548147
940,-0.8958537167213169,-0.13663135043401842,0.24411503623518463,-68.84084336486531,-2.909198663147126,12.179963209149776
950,-0.8783105276306926,-0.3001571673031767,0.2825940836903597,-35.8305979384484,-13.147679789329231,-0.8385836689212647
960,-0.8850884337658205,-0.09707817661571574,0.05531096341507015,-22.490392452437714,-8.481631026877643,-12.161894368561214
970,-0.8686153231219254,-0.019815283966250936,0.1441377104091375,-0.6067128826614173,-0.5566798604894405,-4.047226610121479
980,-0.8609820271523206,0.024474826554798927,0.19604784389269847,7.433789913027196,0.5454017979285264,10.506138282229491
990,-0.8729531451578191,0.04346865374371282,0.18314281004464347,9.971258923295295,0.22445105133584353,17.170496535587535
1000,-0.8527450743894437,0.058153440348061386,0.20433568178762068,2.3629723724449536,-3.6725807398150083,9.317472027679813
1010,-0.8876038993620389,0.022500206377566508,0.17313641494040383,1.1050315339740688,-2.9360700778314204,4.09806653065924
1020,-0.8827158326853687,0.03154550785206041,0.17842144406200725,4.372066932279267,-0.6809484126242192,1.1024257323439515
1030,-0.86004393897581,0.042099352537940206,0.19917866438200285,8.65703248808845,-1.4953227299325569,0.2013561104888253
1040,-0.9042089375618112,-0.0019665218002101886,0.15280447946878284,7.478988153076619,0.1562484266141744,3.188289118544489
1050,-0.8686166739607288,0.027530316304676207,0.1808155384038187,8.196097651782273,3.4986437774120236,8.224035786998332
1060,-0.8645723784522055,0.044219449928469934,0.19189211859324642,7.54985051321113,-0.6911731345176197,6.991020035253687
1070,-0.9042469646737837,0.014584841253094772,0.16050830780138878,6.409808148231166,-0.1337736049274603,8.311749519694002
1080,-0.8843417905795846,0.04565634638744036,0.1805983652894817,2.564007712656694,0.6913853255686375,0.6368900421777179
1090,-0.8768256490576372,0.037359996440684405,0.17753270945241062,2.3999622173182997,0.886614381336718,-0.009371148935063578
1100,-0.8742350815438815,0.03709324864519131,0.17773322831126037,4.813613226363308,2.414167717418375,3.7825026277202616
1110,-0.8630281533094936,0.03934969858115808,0.18718408834536587,5.885637833053039,0.553989941971566,5.994044871172146
1120,-0.8682963389685298,0.033372667664406885,0.1849690082009572,8.247920847866832,0.26084863974852934,9.260183536624222
1130,-0.8561310446630589,0.07509533076732758,0.20405191354947638,11.563969561410879,2.23460393651345,8.935282245629436
1140,-0.9051102132434862,0.039682543266166825,0.15830240552572494,2.7682283591886714,-1.4006846320708515,-0.2756126634736167
1150,-0.857238025134307,0.07153839823871966,0.19395805163339958,-4.195097774721732,-3.220545755286966,-5.72289710651227
1160,-0.8942976376257767,0.0400225827189859,0.1546179340638768,-4.408067381689394,-1.924255809622337,-5.237549495194731
1170,-0.8786487642876477,0.052258576403269634,0.18567030630866255,-2.62949157481047,0.47395508392373803,-1.9831250543591306
1180,-0.9072927825155308,0.013929497091831548,0.15437825792447785,-2.625398856016868,-2.0808522680741843,-0.6545526994536395
1190,-0.8766131389090064,0.05176778454637712,0.1809050158766869,4.092596925391471,0.9458146046629063,5.8176028620664395
1200,-0.8580371252740726,0.07488820738999992,0.20059749038596092,3.3387598145461137,0.7645835630779083,5.450249467530185
1210,-0.8629068886011955,0.07200713550491321,0.19999707033235242,0.4475903965310311,-0.7074839890915045,2.8298409684633983
1220,-0.9062929988930232,0.03303678519118044,0.1445677481462793,-0.9683729638840259,-1.5176145109727672,0.3550846746176255
1230,-0.8665127086555486,0.07385231991138297,0.18866494930826969,0.7559398365003653,-0.1889161906480803,0.07758027868982298
1240,-0.8583100904423256,0.06718513234553035,0.186978794329183,2.8159241986031933,1.654609470627399,3.1429944270437398
1250,-0.8612821195932238,0.07549739597446073,0.19785064106810155,3.4607619840387427,3.3091036496762283,4.075552407976191
1260,-0.8852695801462056,0.051298367058191366,0.1696139343755582,-0.8481886938743222,0.23339393432809974,-0.4169925655834884
1270,-0.8768057001362201,0.05663539199748793,0.17339777112215263,-1.4767315553754863,0.7706207657129297,-1.0238344645230517
1280,-0.8682417005026805,0.06572996859661222,0.19046410827341392,-1.8648510292721299,-0.5891648249937698,-2.350132447078451
1290,-0.8584675583895915,0.06818950285800836,0.19518638336062652,-2.529433532975535,-1.5185828296038395,-3.269054385280215
1300,-0.8449595959202792,0.0801419227183654,0.2047167682069492,-1.8663922831569657,-0.8290813101437682,-1.101893894397661
1310,-0.878699325328961,0.055133455158819136,0.1778995771508505,-1.3282187463874107,-2.6508492125939047,-0.8448859051031095
1320,-0.8859858776559986,0.04724730275133412,0.17071364204937955,2.7499977972118073,0.26202339313977174,2.7228428675314134
1330,-0.8619142295568363,0.06435376060158293,0.18968244365557016,3.524932811894914,0.26286540515234424,3.5142561665919723
1340,-0.8609211634454469,0.06073695085278921,0.1946698387604395,5.03411327191283,2.35605448108405,5.522912905868999
1350,-0.8810832885207042,0.04382398251807357,0.1706748429559965,2.7747411386631184,1.5025774906856615,4.360962424203643
1360,-0.883621858925282,0.058752752074336036,0.17833874501472113,-0.2965071934951997,-0.4817911897815641,1.6006064368456498
1370,-0.881528103437418,0.0640825179557576,0.17914694170161838,2.3992667549717344,2.946867221508617,3.825919324768491
1380,-0.8645224044144322,0.07943218231999362,0.191690233069115,-0.14886245818166333,0.992915780813507,0.28091651916409033
1390,-0.8823340713613865,0.05157490757447625,0.17657745484431442,-3.246185634649672,-1.7356466977132845,-2.841759292634584
1400,-0.8685594559631019,0.05985665684224903,0.1798561978131641,-1.0838405848824213,-0.02336017746609742,2.0257213232009397
1410,-0.8394081022257666,0.09566669674083944,0.21177901257727033,2.168415157900705,1.0054573330882313,3.4189636927874743
1420,-0.873723989329033,0.0781486184892244,0.1792728679233405,-0.8888916835334733,-2.365177058980029,-2.008086937539433
1430,-0.8595571410057637,0.0811410733303657,0.19422233687962093,-0.053343413057263644,-0.5144897948755008,-2.460903566952436
1440,-0.8808911059455159,0.05545686623585777,0.18166525534968433,-1.7785400703445906,-1.8803277437446386,-4.405633778774363
1450,-0.8668570540737657,0.06425516425080649,0.19061149169721395,0.4405847618560371,-0.45884451138659477,-0.9274132609305059
1460,-0.8902181785444683,0.04056114657361015,0.15831881411548188,0.8523981793329924,0.1402346201408305,-0.11979602906559976
1470,-0.9049342783299663,0.039277654413001586,0.15305442538813402,0.07181003667352343,0.5619820894227573,-0.11776498707326133
1480,-0.8607918044607584,0.06692514705304695,0.19004464409197594,-0.7358631508022303,-1.300713548768347,-1.6189383088939033
1490,-0.8769115558834871,0.055487173288321395,0.17716397270107864,4.0704965196259275,2.91245169010132,4.418213350127447
1500,-0.8671749026659733,0.06851537449650906,0.19175698460947727,2.805011706896309,1.8305297433153007,3.7754930737382404
1510,-0.8984935754635858,0.04002623422829553,0.156866911402825,0.3954714531700494,0.05938959561118165,1.2051958290337994
1520,-0.8619613561210783,0.06942343346723813,0.1918342306302903,1.2750164450615755,-0.40497610354046776,0.6862614270823297
1530,-0.8743313764814029,0.06537737067802758,0.18639767495345816,2.44117554968929,0.6904516933766809,2.689421165755074
1540,-0.887015046418295,0.05481912729236525,0.17531916080673568,1.292699980238449,0.08835871782933485,2.1732278120550883
1550,-0.8741813662075155,0.0606115632935727,0.18145925825989626,0.5066906522204113,-0.30018204470527354,1.0170623690373637
1560,-0.8289345541056905,0.10941766943971942,0.2218122496026199,1.9368633858699367,2.654308100187878,3.1230575923354333
