time_ms,ax,ay,az,gx,gy,gz
0,-0.8962255141118611,0.08614344142428572,0.41390881506858535,1.6593920924140122,1.4716544484330492,1.083044176793377
10,-0.8936101688685727,0.07808245459479957,0.41604974216043134,-0.6991473945894257,-0.7430939823132325,-0.16442879057326953
20,-0.921486650177858,0.04879871021929298,0.3937974068668814,-0.06636197775472091,-0.1820457010114642,0.1664190381820272
30,-0.9307108582679636,0.04716797937314748,0.3930975992665306,1.7205992867700313,1.1782687509200476,1.1054856942809264
40,-0.9087519493809681,0.07321224898842141,0.41481506831122567,1.9785817565092114,1.27412885596021,0.925160943634188
50,-0.9180500856433498,0.05898797713821279,0.3952394269824972,1.9400840588085209,1.8776831586911862,1.2820995236474522
60,-0.9308508745790419,0.045465802149729055,0.38123931632409286,-1.140636122065513,0.025212163301173096,-1.0353465857982758
70,-0.9181330545280743,0.06457320781533275,0.3962874461260511,-0.7930939135131005,0.35014676429214253,0.10479012182045433
80,-0.9375491678254815,0.041666783611796585,0.3789193090360109,-0.3911247786830615,0.2954358513505782,0.34988935712987596
90,-0.8958289576796642,0.08173985826923233,0.4234543524467645,-1.4555323587703255,-0.754066280180972,-0.9918696468009043
100,-0.905147252445427,0.0694126799956043,0.41384752820050724,-2.277431187196216,-2.174600105559347,-2.616454833004679
110,-0.8771881629793316,0.09312135673539068,0.439674491201561,-1.1140358435340383,-1.967111387820425,-2.2706081207020348
120,-0.9054856028655114,0.06615029251865219,0.413803959374931,-0.4228306921730194,-0.7280746798343303,-0.8907504874732576
130,-0.9454483213935585,0.031097710088018496,0.3735500731076407,-2.1346868888804487,-1.7160814704952219,-1.110613550075842
140,-0.9171362629718094,0.06205090809619416,0.3962130956096127,-1.1177213789710396,-0.40536937429471653,0.4510378151545371
150,-0.8840318709329852,0.09289348355340094,0.4303900720017728,-2.0543332333620974,-1.0342341581537913,-1.0594504903947775
160,-0.8921869513197943,0.0789780214267061,0.42553330180525645,0.7081417089654002,1.4104879740928662,1.271226910240044
170,-0.9051016937559326,0.062168015915639974,0.41356280223483355,-1.47413463894705,-2.1215889101555554,-0.8410689762496817
180,-0.9193003406982063,0.05193998434514868,0.39900991546791237,1.3038399969666716,-1.3713757058528648,2.2659733668389324
190,-0.9321782735829502,0.05052107995448703,0.3985893823800016,3.8482712868905167,0.35249341892681785,6.446851259283496
200,-0.9312654105533251,0.0470941929384019,0.3939621266873839,0.8152893621985564,-3.4935665616438687,6.980393613107687
210,-0.9242533154012742,0.066811493696577,0.41618837206695003,6.26159561189626,-0.06747664015389915,17.020895328305553
220,-0.9476913860375832,0.0014028131932364227,0.5205989971801094,17.645013303394858,-1.856613302290882,23.861051832474093
230,-1.059947736080128,-0.14127489189859938,0.5507233137509285,24.935163538537445,-13.461223668891574,16.399303960676573
240,-1.083919333849659,-0.11007400006335868,0.5467246255515217,27.66204745155554,-25.514730793263755,0.9063457292513097
250,-1.0192786681145076,-0.00013584590941486015,0.539944743903276,30.031787205407877,-35.11274220656042,-7.672172380737843
260,-0.9860939924698494,-0.06523767746007578,0.5772707065480245,28.130272523942896,-43.31122835078382,-13.656206437216595
270,-0.9327163412462398,-0.06565179760368003,0.602107609061775,27.196584565462388,-53.05004264972985,-25.903394071473755
280,-0.8939939908188522,-0.035660358932965396,0.5816512248363267,23.95770819000053,-58.53167826809748,-35.190879050201204
290,-0.7986198173643048,0.06813676687721039,0.4805789830606816,16.70904258600084,-47.60115135300933,-30.394941077351874
300,-0.6406867790795767,0.22170701056352668,0.3928725636388667,11.314240655388435,-18.714871850528738,-10.91601313059164
310,-0.7400771143120549,0.10191545700670435,0.3863880467408985,-2.474578641007322,-12.982602072615563,-15.864796919440984
320,-0.7956784631859213,0.16479724144276936,0.4608643998203653,-16.77305544377939,-10.498258625384244,-22.27518417871362
330,-0.8596155960029827,0.23720895830048672,0.4709906948385443,-26.75526210098906,-9.285112847134531,-23.249768667767732
340,-0.9073936298179929,0.2589371144987957,0.4643917523291612,-32.01293576451657,-3.7746332865364907,-16.330247108882038
350,-0.954365074549317,0.20339248033370488,0.4836645347869366,-41.377160532938596,-5.47504601852154,-15.001095644891704
360,-0.9214405905071903,0.1422012502256785,0.5283830567590261,-46.520360247939585,-7.131040080592235,-10.726425676105597
370,-0.8226639855469253,0.07870098063148154,0.4257723466122808,-43.9752610821392,-3.35818435319025,3.6691740105763664
380,-0.8033288406244207,0.1291554421721134,0.31863700534844963,-34.70759020344576,1.540269648707672,8.826579646049208
390,-0.7831826547655906,0.170989121728226,0.3870013353700079,-12.909384147710824,15.837921780875703,25.401122691855264
400,-0.8558016499708144,0.11997618063959048,0.4329703314198486,-18.762403468284784,13.092738909168101,22.471513337422262
410,-0.9169273216829855,0.07223783399760292,0.49853118252359524,-20.121098805029977,16.644772680953345,26.025235144721247
420,-0.9524098203179049,0.03050936418087489,0.5216704370162331,-25.813425926300653,12.863136743031175,22.84694622911271
430,-0.8838809435965332,0.06016728721323067,0.5379482597785306,-28.805173615307822,8.781241787755915,19.013590022211186
440,-0.946815638339531,-0.09291461921621254,0.41079619428716435,-35.68430612924927,-5.385773282132112,7.617024259379872
450,-0.8899231017942021,-0.27888689301913844,0.5548050962174612,-72.43810749671113,-7.788438337274929,-17.874092573855915
460,-0.8615401880199122,-0.299709272836266,0.6056113530326004,-71.72338088568773,-11.034472741446194,-24.844552080698065
470,-0.8390357396727535,-0.19920311411598188,0.6261447488745605,-50.997333090328574,-16.136920765736868,-24.9587817417556
480,-0.8866789844424935,-0.15402186211499652,0.5169769451163678,-39.221252481146635,-23.621617199869604,-31.763467196122093
490,-0.9772521671143127,-0.22682347888153334,0.2782577631117403,-31.210890356462897,-21.18728581516365,-37.554904321504566
500,-0.9608234865361146,-0.2831169176508458,0.14497390365953,0.8175881293565213,-23.9964911513413,-45.95755832891962
510,-0.7295909454199832,-0.3980691308166596,-0.0206850879756528,20.634905948580535,-7.825736485545316,-61.7963604537963
520,-0.9083582279855671,0.12287442742914957,0.07986772258115037,48.9090198939514,-2.6236922087911005,-49.60967908267474
530,-0.7598892009691085,0.15113342246098674,0.14843689163834647,36.158651033195156,1.6136564030894693,-55.10600782965781
540,-0.7027325497655225,-0.2554175638792248,0.07755733143653408,2.6563421029815752,6.55153802051805,-60.71753651860646
550,-0.8743833107024708,-0.34701645608528864,0.11300513779837107,-5.630838677670504,12.779374786896554,-43.295439613697866
560,-0.9920021178777624,0.1929252903135286,0.28014762712774977,33.8282298310926,13.585859280116898,-19.175688740234172
570,-0.9443273018922017,-0.07645393331117747,0.4309175436970121,52.97398825225682,26.181377703821585,-5.079174075969538
580,-0.8979608462029768,0.10205957718594277,0.4740572613221243,64.95398044668285,41.648858650405295,9.381300846245054
590,-0.871039101061137,-0.02245071281807301,0.09547381461593867,52.53885295894832,41.06193679440532,6.2931763855705505
600,-0.8017678844678507,0.016745712249002925,-0.0507720299421374,32.88316553286904,42.972599833303924,9.248810554887644
610,-0.82129660358063,0.30936707834222676,0.1255198817550499,19.08640085722802,48.34535003108636,23.382543754865686
620,-0.8708294221096566,0.6205596335724741,0.3195970780832573,11.398581341414795,40.8950007322261,32.1330222333737
630,-0.8371232314696501,0.47340481139689766,0.40522030073248055,-8.161652702859742,37.99018791605379,40.029615833199564
640,-0.8582856184213941,0.3603903063134539,0.4374098560400524,-6.867140327863819,36.03223995112442,49.88590510105025
650,-0.8806997807930053,0.20906972092144227,0.5245856899153154,-13.908214984502564,24.012614137064435,37.962023471817524
660,-0.9282458501381198,-0.005536045161954111,0.526511482726308,-31.43719847550233,0.31904474614303635,13.476830980339209
670,-1.0095599879663075,-0.22655265173884775,0.6490927358517522,-45.67010220131635,-12.555165740345409,0.3148722798223882
680,-1.0800420030373685,-0.36243110275358636,0.9866962520543938,-50.56232573468345,-8.322581471057882,0.9555195064177073
690,-0.8921560111699589,-0.2917916050943909,0.5211050464742157,-17.61984517779965,-7.067269786629521,4.254698738659753
700,-0.7904300458841191,-0.26530412852824686,0.47511595376841537,16.382509430648092,-9.061762534503039,8.837729637365229
710,-0.8216524021105182,-0.131143989469407,0.46061485737051666,27.92837210214288,-6.005013039168648,9.086214733083413
720,-0.8982230225969723,-0.11108921111858126,0.4233088212117705,18.95113417859996,-0.45675702978417476,-7.027917279419546
730,-0.9476176031835403,-0.07648597937736987,0.3315927919226301,7.23114605095309,8.232978814509387,-23.478704903354252
740,-0.9727806100711616,0.15137423771735667,0.25087595005439556,3.6504410556399565,11.074943585825665,-27.370825401550466
750,-1.0276822724761112,0.5058946187020691,0.4571879167599095,27.116418255310094,15.720929776743306,-4.582621453604781
760,-0.8047813628685674,0.04432080684844005,0.29705912123719674,11.680380194757364,24.587337447332594,-21.394659385017206
770,-1.017645545334707,-0.018217120295661034,0.23399633576016937,34.50299471942282,32.38242201861341,-18.829820040251366
780,-0.9671387637216131,0.008593379025351962,0.09165142932213566,39.73917627466648,48.238089680505304,-8.568006057573815
790,-0.8499326034596277,0.1850066089909428,-0.00400980382569985,11.531552126720259,50.287746408127646,-2.4057758120214308
800,-0.8041735953528033,0.4541018172147065,0.23564878240142134,-21.544060439729368,42.46930806479625,8.130947575483924
810,-0.8241966141884971,0.1814308267922115,0.7664616990101547,-37.54435107722834,32.865436943901855,15.015358865579703
820,-0.9918484985501658,-0.08836305592405011,1.2501492644381558,-33.08698758315103,17.716778344378348,17.041999206936765
830,-0.9261202560638866,0.08165344074960779,0.7461292270318832,-35.47363011680113,12.533854019530128,18.752439049899483
840,-0.911264638756826,0.2332376029071347,0.09492034724558299,-36.07848468859711,15.879016956109915,23.555978876742145
850,-0.9675574739731678,0.3383950167675167,0.19489986295050044,-49.592660696137024,14.01528632274179,33.70469243599972
860,-0.9589135488149731,0.31061954016402404,0.7008320233346716,-67.6676792718725,6.137841217765793,39.16740922776007
870,-0.943936156020609,-0.14708581382573754,0.3078900565647111,-74.76751699434249,-15.727712452969243,7.909405660114955
880,-0.7519281767086015,-0.02230077892730729,0.8057562256464305,-3.0689254448145182,-25.24019785879363,2.634096734101714
890,-0.6696690576380344,0.18576863418628692,0.774428283002329,-1.0679282691666614,-30.70058342666254,8.394753510421697
900,-0.7247606273277817,0.12175165164365968,0.08648066433386367,-23.743824520488467,-32.96512449213702,-0.7901988552254087
910,-0.9086630883461105,-0.07350430238100839,0.022054367855984226,-23.54646119944967,-24.38093511005791,-13.919513402028413
920,-1.0199135709528087,-0.11446981702286503,0.33204758775172555,-6.037560604767446,-10.409795605017656,-16.499569874595814
930,-0.9730739515028068,0.04836278977063543,0.0907012698252011,-2.494429132215019,-3.697377519278989,-4.128973442198255
940,-0.9454201423000909,0.06191315306359066,0.3467911776914902,3.1633003593569393,-0.36493805313942684,9.643310512870096
950,-0.9241732400250977,0.0782940344840683,0.378422211709507,0.4724594161740072,-3.6318162938187264,5.871081386873344
960,-0.9005422554892292,0.10163069086837892,0.4057922679334236,3.1165194793448987,-2.1485697150551397,5.140760740495426
970,-0.9149066579205034,0.09725399743493576,0.3982027170723406,4.876441093722207,0.4365383186528866,4.002793981783203
980,-0.9115184885231532,0.10614412198197114,0.39992264551155876,1.4815548748565852,-0.3323819975159088,-0.7088559264678221
990,-0.9379306563707285,0.07224515704340927,0.3629745494371187,-0.2878731935403164,0.5245473208475718,-2.5726397535239713
1000,-0.9359665085711869,0.07448676869102094,0.37804587516417054,-1.8182689533195178,-0.31539999759449255,-4.360747758830266
1010,-0.9378663013403791,0.049650791219229926,0.36331893351297523,2.575358830402479,1.8325501137907738,1.5335962538154744
1020,-0.9309889776383417,0.046793665425153695,0.3669946500909392,2.782208599693063,-0.0356318231959869,1.576058954716106
1030,-0.9288716011356721,0.059327462257518546,0.36846578335951574,1.5911965706126343,-1.6832743926445657,1.201738915450117
1040,-0.8958876743503956,0.09998126183842719,0.40426896604633183,1.273907488487358,-1.8727761555788103,2.0073178985788815
1050,-0.9136789954731135,0.07940085654912943,0.39276187411465413,3.767138325911712,0.4376974750068672,5.141194351963154
1060,-0.9211279011767863,0.08013402767599222,0.390228594130943,2.8035649791055146,-0.6818745156016042,4.719421904401935
1070,-0.9262949971558113,0.07934901105797919,0.3799649932439447,4.931643794911682,1.0268214167283183,6.410841648424963
1080,-0.9334150556115194,0.08169091479601623,0.3746132034455503,-2.075501018732088,0.5564756618270081,-0.762862738967182
1090,-0.9477798873203549,0.06902041207237661,0.3624994943080503,-3.197465432116498,0.5182581953517551,-3.237749375018074
1100,-0.9057324177082569,0.10136722557781869,0.40080653684835643,-1.9632927365020376,0.5978042591108479,-3.117472871145846
1110,-0.9214781516254542,0.07237480257062963,0.3827959764246748,-1.8227571944058534,0.19286861518551723,-2.823523464577038
1120,-0.9091602540207183,0.08059422362608896,0.40499210536813296,0.4511452516237975,1.7640340138705104,0.5543511973871318
1130,-0.9087486532658541,0.08082894196978221,0.39296134995988613,-0.721401626743801,-2.822683324964032,-0.6796662811979122
1140,-0.9074655508464262,0.08291084176069702,0.38951642128230113,3.8958341488418062,1.1086836560996909,5.142344702463603
1150,-0.9283093757400674,0.07365637433246022,0.3796034389474868,1.6906401195090401,2.441947413560559,3.9451764459527032
1160,-0.92839744856,0.08809663024546632,0.38230617755790874,-3.7094104528133514,-0.5851457331645327,-1.6377286484080766
1170,-0.8979165695699175,0.12024834538517679,0.40976224296887453,-1.1722430767867613,2.5875439099990123,0.27428819658848846
1180,-0.9328735668720634,0.06842803560843787,0.3786797896357678,-3.457988325537567,0.8934443808443029,-2.1483647295521497
1190,-0.9412929128829273,0.05600813327768056,0.3677429855487883,-3.9904015235891475,-1.5702476834520824,-4.022991409715178
1200,-0.9307302987774362,0.05695041799015365,0.3654979450539194,-1.30647679546714,-2.038390373500738,-2.4145423076794663
1210,-0.9412479894353815,0.05398998735971028,0.36167377786648597,3.632530836300313,0.04562852683058637,1.981292333059239
1220,-0.9329034972522535,0.07409051826309065,0.3740985108132726,2.1441948196975202,-1.103511111371733,1.9325156140111226
1230,-0.9222967670745608,0.08975797104450378,0.384536471737836,-0.4545923388878862,-1.1817659385044121,1.082270403673932
1240,-0.9334867497496346,0.07589517335448243,0.3731388257599215,-3.5411535284823445,-2.169734894220828,-1.8331767834845845
1250,-0.9368806486443092,0.0745911214660856,0.36601029539812885,-0.6557949647540736,0.6016846479082311,0.1265965040268557
1260,-0.9127776595513848,0.09241141357048227,0.39093980948532675,-4.185456329046147,-3.5237322426169984,-4.231166892313906
1270,-0.8949353795381086,0.10576058807333368,0.4091197940149378,-0.3964456160612416,-0.3619201986512127,-0.8433776587837399
1280,-0.9292469359893366,0.07613832622163959,0.3804729520195706,-2.596029334168793,-3.8289077298613035,-3.3226307180805024
1290,-0.9097734363362249,0.09883672054104747,0.39973129997698537,2.7332699381304675,0.9456660169895266,2.5134883734773448
1300,-0.909479455737673,0.09910662909021441,0.3937527080187253,-0.19899746835063192,-1.2471728811893934,0.5110113481064988
1310,-0.9122215487664861,0.1036883891986234,0.3941125319695803,-0.35338468339341816,-0.5166093485026513,0.05690136106904897
1320,-0.9113899338647886,0.08245722673058882,0.38516808091467525,-0.07064503991192082,-0.3065513717945727,-0.22116370756940396
1330,-0.9316699026261706,0.07700027125321164,0.3740566235784888,0.6848438748537369,0.9301104227284319,0.3798355793760666
1340,-0.9385387553425891,0.07029788336824225,0.3736697261791245,2.731790385366081,3.603724679058519,2.263826863277635
1350,-0.9246987570678874,0.0811464928563026,0.3852216998309665,-0.5110963131211836,0.6607257600608365,-0.7269175296235428
1360,-0.9230556275736589,0.08438676466390221,0.3798460633297538,-0.9522232354413994,-0.5592069612094359,-0.8102747772598407
1370,-0.9003273267047035,0.10862235991848901,0.3997003172005313,1.7550642102699059,0.243747197436823,1.6804383217307168
1380,-0.9218247169216663,0.08770750472114304,0.3804914557283373,1.0006479260007286,0.2696808936973756,1.1678611398004528
1390,-0.9354104955594048,0.07277477928388719,0.3728161776815726,1.4179681422309982,1.2126420410048908,1.67028076456267
1400,-0.9327787679325258,0.07148502195298735,0.37481425434595933,0.5339635740704337,-0.16713835443824263,0.3886351306218627
1410,-0.9140547176472965,0.08995417149703168,0.39403931512097407,0.41171772001170814,-0.5669389266074953,0.2044066353649009
1420,-0.9283542790180676,0.07742499538723009,0.38029286112038047,0.859546009679865,0.03752371798084546,0.9298715981842326
1430,-0.9094816359939565,0.09683680569137258,0.397427141502834,0.5928736544644219,-0.06695889697523427,0.9296118462894681
1440,-0.9309409406688182,0.08121034084036455,0.38304362739769604,1.1857534431958892,0.638060580730408,2.0424096865567436
1450,-0.9072731395600434,0.10196652101560029,0.40203017289661014,-0.966587139248363,-0.9654905888200143,0.2719646152715819
1460,-0.8986461392330009,0.10861594410587316,0.4073498022057827,-0.5197062638043219,-1.1519882441473714,-0.4076440508882888
1470,-0.8925714562298207,0.11694119549285903,0.41521341023434194,0.813837020597248,0.5099642832024289,0.33668268934377926
1480,-0.9114043828347572,0.10475622443820212,0.3974434844200121,-0.15731172498006474,0.7292695386272231,-0.4217368269951894
1490,-0.9266226045964308,0.09416641199886414,0.3793724742181482,-2.011741896363077,-0.11450677900147921,-1.858252042123076
1500,-0.8989937096969279,0.11176777581558325,0.40824893294725983,-2.792976380223302,-0.8229777805540079,-2.5190378999542022
1510,-0.9282379425754872,0.08376427412305865,0.38558323302740816,-1.662898964520611,-0.2573868895451523,-0.020391095532977743
1520,-0.9327642600790016,0.06065571457048848,0.371485708605477,0.9584949742518218,1.972382901032579,2.3927175788434942
1530,-0.9222399534759043,0.07407676196885259,0.38241469454629873,-0.36731065876231545,0.8746573734536194,1.0394510307396865
1540,-0.9253056578287526,0.08180383890625573,0.383407602693133,1.2288408032735714,2.3755513674565503,2.3090830706892485
1550,-0.921630912379404,0.08969691329527885,0.3869159790886361,-0.6488703451257816,-0.047195284019960315,-0.23815546948638533
1560,-0.9173436857430726,0.09544225582506191,0.38881456780098456,-1.4597653776834878,-0.8474121961995168,-1.1276855142367799
1570,-0.9092974110954489,0.10714114846604686,0.3979963939751822,1.018324498209825,0.8488279888234873,0.7700075631015553
1580,-0.9272182309647132,0.08016960228653218,0.3819534294379855,1.5355964070261785,2.224773204837073,2.576933377246327
1590,-0.9194991525643647,0.09265437024388413,0.39691446740562686,0.24683984454152486,1.236053445245528,1.8237507672071196
1600,-0.9363582185800109,0.07769036244718407,0.38084141810249056,0.46059872579546945,1.1073926384567145,1.9895124435692555
1610,-0.9551112858226801,0.05763698540979709,0.35948418842317353,2.763517295321275,2.997825585662892,4.066391906046105
1620,-0.9610693532171733,0.05997669586227747,0.3589371188921807,0.8382412752410743,1.2425820036330797,1.913072989987501
1630,-0.9202487746599928,0.10458032113779142,0.39841713880460494,-0.522595110028585,0.5845831352453955,0.30428627707710854
1640,-0.8952586266845389,0.13014412849037116,0.4055544324590173,-4.110047079785604,-2.6624699729622767,-3.5504288137765774
1650,-0.9300189803402004,0.07870806405473312,0.37180560777856814,0.9420861037703029,0.2805043794788369,0.653310699416523
1660,-0.9147009805845728,0.08624986815181279,0.38843665339231903,0.9740016297478156,-1.1026132152594266,0.12308332549301637
1670,-0.8898254802255966,0.11517844765406673,0.41125139010425,2.6850633622513165,0.6856792897806581,2.042424041234102
1680,-0.9068085351708552,0.1033859875845543,0.39388818987047214,3.0146266730768936,1.6591911405700672,3.0299178592522074
1690,-0.9203304603275477,0.09242349155630132,0.37968597324128206,-2.1665281212379703,-3.1936663675998265,-2.4746907852612687
