time_ms,ax,ay,az,gx,gy,gz
0,-0.8755522890507619,0.16812591256246448,0.4694129611071411,-0.891689443511372,-0.36842386666630145,-0.9897438953447396
10,-0.9141957722032159,0.12535877945704535,0.4308825332798538,-0.6262594616547251,-0.25349017330854967,0.5505898742978169
20,-0.9039132070227553,0.14305911030997087,0.4457404892322185,-0.2480463379537479,0.007503551463547309,1.1254956389300474
30,-0.9095096319093517,0.15097018549070668,0.4397065113653005,-0.4139230172087297,0.6632829300335359,-0.6511709089165519
40,-0.9574064979937659,0.09934601390660183,0.39404538769057457,0.509904720468942,1.7773847431362642,-0.6953810956000654
50,-0.9215531558212336,0.1273896467946204,0.43039449419685294,-0.6652731498061125,-0.15133461327879993,-1.5577122434597335
60,-0.9091097578406998,0.13855103150131823,0.44562530044515597,-0.030856284102618113,-0.11586833474782143,-0.35251758871502753
70,-0.9114597635294981,0.139289433335759,0.44126016016768904,-2.1134671483035326,-2.244093767427408,-0.981602396449559
80,-0.9099964373960112,0.14964292744362856,0.44437279489636206,-1.2686000384451075,-0.8433207379438356,-1.0307437583023185
90,-0.8969398254454899,0.15219615473804854,0.4431927018042315,-5.230653693681529,-3.613690504139499,-5.070484075585224
100,-0.9156594482931943,0.12709599433225285,0.4434935743361744,0.05465753628408754,0.5041906350532026,-0.3386895806048398
110,-0.9266767431808465,0.1341561269442705,0.44932062310427706,0.4502535405399257,0.5909297079763236,1.5010723987815866
120,-0.9181549493847909,0.1355677938875857,0.46020899830581097,2.3817620528894685,-0.08565934549970011,6.150346362689357
130,-0.9529273293763915,0.1136588094488835,0.5471089347555114,9.57518734905764,-12.025019911224065,6.021679891546656
140,-1.0568230105948033,-0.018452016213204574,0.5622893604737279,17.690596311319748,-29.74631412777967,-1.775580371017428
150,-0.9784920440671592,0.03697468598939743,0.5946568417705126,22.175587257110426,-39.73323035280837,-6.747238910435954
160,-0.8341622600956409,0.10014270504818341,0.5664324322967191,16.85691928523097,-50.66692837464444,-12.828923664687975
170,-0.8128519772081159,0.12974003476600815,0.3631574345600499,14.505067625838823,-48.599995954117574,-17.515953408387414
180,-0.7648940966973239,0.292208894023985,0.44534600207013403,19.36745810069364,-33.98213371810259,-5.5711644041729524
190,-0.7528937533713158,0.07443568099888259,0.4222392776529594,-13.261231925856283,-17.175354621126914,-9.325829551591495
200,-0.7291527672019744,0.27588977888551197,0.3622850677748332,-56.98999504092166,-10.039217787124322,-21.241243628997626
210,-0.7336458471474787,0.35228710503149846,0.4761905768893723,-54.569922459728396,0.5723141539506843,-14.481735907630881
220,-0.7121325680419737,0.35089505215925165,0.481464773044704,-38.43685248200253,7.593745241987077,-5.3183851413993475
230,-0.7296416978128193,0.2841749338030031,0.48500114346708845,-27.363023486937,15.420519018598185,2.9767363978783585
240,-1.138156104547831,0.06307754508324355,0.790303640346275,-26.52269065935033,-9.342759785774973,-13.852719447887909
250,-1.111471329555321,0.09085806395876672,0.6234770844828944,-11.87682914845612,-15.142331739612846,-14.420718772713567
260,-0.7945901439353593,0.05504423493055941,0.5932676128003781,14.939632325157719,-18.645126658613584,-15.079630127255662
270,-0.9052910944404216,0.0027016813530433524,0.40116556198715,7.641846215496744,-18.672643059946644,-10.111854850370179
280,-0.9808954877669255,-0.15775523888053053,0.6569017975705366,-5.054789974346929,-17.741580237623477,-13.674370771430702
290,-0.7889771316300854,-0.28661513498233054,0.7919393732050902,16.14982675827366,-15.937402824052988,-16.25533223508548
300,-0.855941769382874,0.32043740836679524,0.40486679838850265,32.989836124409386,-10.152121289413733,-29.580613402503626
310,-0.8742075733447651,0.15868719288412567,0.5387439871183887,14.899468661175073,-2.757104616748171,-27.320284507366917
320,-0.8866891227907961,0.12110496474551395,0.5772928384680093,5.35114785329296,4.556892824921619,-11.66817262379213
330,-0.9086451203578377,0.051804477242321546,0.5217808581806762,32.53029136456386,13.757654328669142,-5.36404989471452
340,-0.895793788880383,0.1903488384113888,0.7907327584827325,61.03641961902111,20.84408729054259,-2.881158919653803
350,-0.9521173745216898,0.3485075000211427,1.04975325293432,12.81490253584629,25.350155300187687,9.821328260635847
360,-0.8660796657635286,0.3573637733932409,0.5465413007971441,8.254552440108744,21.602488052286308,21.860931881429973
370,-0.8102635815518198,0.05994104853522765,0.4680433584586735,18.801188925598268,27.58715317985783,35.35526590715867
380,-0.948273298810217,-0.1926499893481642,0.6143522987399834,-24.47536530153025,21.20984516899178,29.648965315472346
390,-0.9116924785122761,0.015679349949347887,0.38799671482277037,-20.524346518978383,18.532541142300158,29.052679707457283
400,-0.8922125401373818,0.016869695957515564,0.3177832388416611,-12.181759307055355,10.266160511266985,17.216231113200514
410,-0.8873250351273566,-0.0925163900757892,0.5856730111468568,6.587482091169782,-5.504644569208791,3.7220353038234824
420,-0.8867961829167179,0.03837619209384305,0.5372214011054228,9.35148967614112,-5.744199235419799,1.1697847049506054
430,-0.898278004658071,-0.08142162775419222,0.6184270367656302,11.232057477879351,-8.266058271873552,-3.9402994359434724
440,-1.0317375578151005,0.040840307171914864,0.5119699086774572,22.22341992878954,-3.2776578206059663,-10.733865468985293
450,-0.7153659525520227,-0.10112696805393052,0.3235309957073287,33.50690467561856,-13.743820872619873,-34.82558440726061
460,-1.0808164570773893,0.26344585668454934,-0.1461530255293426,39.3066907675741,22.78207823938938,-14.05535980972228
470,-1.049596891362118,0.48905017154312713,-0.02875372645092798,23.119005656700683,32.41913535098196,-3.7260857954266857
480,-1.0185577865565592,0.27562051672573556,0.24519237201232255,17.880204065894027,35.866026506093796,-1.158891834218394
490,-0.8959650678330957,0.35666124939192395,0.6954348296612429,3.279036121851859,26.3705460110034,5.824831637623359
500,-0.8032607286728514,0.42819208920367374,0.5729155370622806,-9.720659741385887,21.533921305558174,14.761254205083567
510,-0.8725502696166528,-0.03931695389641573,0.468345798076162,3.7602079743301147,14.214355856788051,27.55812043231393
520,-0.898217149237587,0.11255455187448504,0.3506889909973797,-38.001853407757416,2.006404872995161,21.90928463972689
530,-0.8903386670690409,-0.12097908249090801,0.4844299635605201,-8.634637453453715,-6.946947011999244,0.3695892328521948
540,-0.9408918263691143,0.03498845441902451,0.39842292558192044,-5.8572278035184056,-5.756826477535551,-2.3000295398597745
550,-0.9153164919231218,-0.007053849476805613,0.42262675058710153,-12.313770931154917,-0.9263642749803083,-1.0828145790096189
560,-0.9328276796357938,0.07820084591073802,0.42518047974614015,0.04350015416734329,-1.6391844213012883,-2.524558857342249
570,-0.8989209015666146,0.15002448133488894,0.46064231458695004,-0.15591155973848414,-2.4942504018343588,-1.632394734767407
580,-0.9325267680693399,0.11662393684518883,0.4266940113534343,1.7478878378272715,1.2331963959750785,1.1016362241878679
590,-0.9140494376504458,0.11865945172841728,0.4409976479160828,-0.5404865818729226,-2.109676860555971,-2.3897664931300184
600,-0.9061438024128676,0.1303275144828565,0.46127305660700696,1.455858712688046,-2.4426594346547597,-2.3602258118519277
610,-0.885126576951684,0.12743601166965635,0.47356351660425916,4.723368162366517,0.37071663633788865,0.3580331647473325
620,-0.8811886038024711,0.14496522354811534,0.4794528550373667,5.087275069844271,2.590159757406284,4.127555825538494
630,-0.9131978094251532,0.11929838522676768,0.46001718136081166,5.124986454569217,2.564886675319809,4.547902965766804
640,-0.9004641284362361,0.13414293978007433,0.4611157690219056,1.6145686508413841,0.1296163222151837,1.132215461301644
650,-0.9107468931337545,0.1414657424321387,0.4520735517482813,0.7056195407474037,0.312144691424452,0.32385563209097856
660,-0.9066500110958293,0.13873383899312366,0.44929373190109706,0.7229993052431061,1.1680696289494543,0.21069597464663403
670,-0.9070024817763795,0.13059775274409557,0.44208331082517466,1.3499857052126227,1.482372964493143,0.8136926586138449
680,-0.9101821232135019,0.12718077492684704,0.45004192580387653,2.0358650273372825,1.956658858958008,2.9021592802475995
690,-0.9121610948601814,0.11927456739089261,0.4514230108171026,0.5398036653019309,-0.3455271431158763,2.050134058263503
700,-0.9148956879110574,0.12158362171071667,0.4449956938551194,2.3911466962585077,-0.10382005445583997,3.5482471801043376
710,-0.9313470857744991,0.12097848583122922,0.43980949913307177,0.6896323575602532,-0.2225682524033143,2.649627385852673
720,-0.9190525959586789,0.12744706709321021,0.45636429975622467,1.9151111617378058,2.6224641440693413,3.307997927975646
730,-0.9196890966081156,0.11722486127820157,0.43811331532818837,-2.3545702840102463,-0.5342747386725225,0.8007040002265742
740,-0.9149890883300904,0.11374632750179599,0.44728406143080124,-0.09989744089474217,1.1664641866605638,4.011246272017303
750,-0.9227141045531466,0.11401333103402898,0.44632356779380056,2.208790686968486,0.9042094938880382,5.74546366365732
760,-0.9114597455915874,0.13120035793318985,0.4521617600082149,1.6897517345995015,-0.6218916104046073,4.347422403347117
770,-0.8974507973071876,0.15213736849966036,0.45972182447769994,3.6307505950234,2.256528631950683,5.5647925517029435
780,-0.8766719071956799,0.16428245107674605,0.48400090680573515,-4.247906027048701,-1.686099046858575,-3.0233599136338674
790,-0.8922140900642059,0.13402592823810827,0.4656736462401842,-2.679614634330745,0.3210219994467072,-2.1989929776981607
800,-0.9051776542013736,0.14245152211556347,0.46180580855963116,0.21525288054927472,0.4099729923385653,-0.9813817178813691
810,-0.8923264022179964,0.14494551206396827,0.4551634407439062,1.1730033056444307,0.2599009232893468,-0.30064146942421915
820,-0.8969796501930377,0.14806433121920692,0.4631475367219748,2.1135190582378023,1.170767341239229,1.1532675981592289
830,-0.925942538880661,0.11622105514603864,0.436402696969244,1.920658773117634,0.8464606634951294,1.488269035861166
840,-0.9065801713617396,0.13833024039912198,0.4501658753408316,1.6426632044313982,1.6025743026647787,1.8514259800835493
850,-0.878322606419652,0.1640380765679601,0.47573663384077697,2.1197934052998404,1.717068286661751,2.1265602574197198
860,-0.8774983393418476,0.16839930354213203,0.48565200118144414,-0.24114554984983227,-1.264403397328461,-0.8141022058281331
870,-0.9216797361103716,0.11951464393617678,0.43494939666262433,-0.2814489000457554,-1.6414733498840621,-1.2097103247788548
880,-0.918386035743808,0.1297954209103147,0.4435231491009991,-2.0952981494290817,-2.886582897903366,-2.685877014551839
890,-0.9139431016231297,0.13297899902985727,0.44286220608388654,1.8727904112912668,1.187072001967617,2.5469742128024295
900,-0.8915206988898827,0.1550866861218227,0.46764405033446166,0.4238872363615559,-0.5852352630749829,0.43609028765148794
910,-0.898204388701551,0.14245070600445442,0.4496247496454505,1.76053014273809,0.9182838229983382,1.214523570030372
920,-0.9007094977178123,0.1501813258302358,0.4632662859069428,1.4338316781738318,1.6611807039167934,0.5912676462539346
930,-0.9269258437674899,0.12504949991300607,0.4407009496389338,-0.7374064391060511,-0.8330848736150944,-2.3033702298046275
940,-0.9117224034986421,0.13000733578972998,0.4505140314246914,-2.203626152763359,-2.1108184991226193,-3.3726769782794417
950,-0.9256083558892533,0.12057167793950374,0.4454577230753204,-1.8589271917225243,-1.4317271203845412,-2.2895126835871724
960,-0.9123481034390254,0.1352503230527045,0.4485462789313348,0.20358733037238325,-0.047547586150944336,-0.6833539265804118
970,-0.8986227070987772,0.1408083846510033,0.45990327303218376,-1.7657126697244911,-1.8603906073684633,-2.322633424519867
980,-0.9212279593624728,0.1203203091080833,0.4460799366851255,2.3102419150604416,1.350777612276716,0.7765454244044977
990,-0.8864281970548086,0.1518221560292407,0.4730724689720242,2.6071994323306535,1.6295153255523895,1.5028692933915682
1000,-0.9165490664362455,0.13646539130225627,0.4452339653518216,-3.0147225838013227,-1.458463268836654,-3.2519351009105826
1010,-0.9171887917046759,0.12423980892925268,0.4440674942115728,-1.307261994137469,0.3074798807036809,-1.23525176537181
1020,-0.9008245142548194,0.1425711436835285,0.4636220437378706,-0.263563501048385,1.1236457581357058,-0.25676008337201495
1030,-0.932305315129476,0.11035796743006693,0.4296729134177228,-1.2349707760988635,-0.6959712719540037,-1.533905447260445
1040,-0.9045330737319641,0.13738612685346907,0.4587631369713421,2.1416362443013877,1.9132641366844008,1.6286691354082519
1050,-0.9235693546321645,0.1152059124519684,0.4390366906645242,-2.0910897051596256,-1.9574392740362556,-1.7905695585838473
1060,-0.9158822997810011,0.11743406282695983,0.43350908925497234,-1.3446151892531764,-1.594732776552569,-1.2369894266336485
1070,-0.9186768782552626,0.12251855449853624,0.4323761226190626,-3.401477064575427,-3.067823039139902,-3.6504538490352747
1080,-0.8938896892371754,0.1505422104891554,0.4721867226401816,-0.20219447072337532,0.1893979174907332,-0.9723090345904385
1090,-0.8906559056767976,0.1528122958535033,0.46708824486965733,-1.8654200492833029,-1.833144317984326,-3.13666265624431
1100,-0.9269823880170984,0.1155284307728906,0.4305892275399499,2.875340847296354,2.8374072237537478,2.545939666797352
1110,-0.9209258033476079,0.1217285476789003,0.4322401995904366,-2.6500353211086063,-2.2878499754378616,-1.5875581173110445
1120,-0.8862340869776536,0.15684407720902235,0.4739620900938423,-2.620701157862593,-1.6922092029712763,-2.235930788203611
1130,-0.9063184426731457,0.13450405978869617,0.45430176294003427,0.8991178270724637,1.6048634202934304,0.18385456173843817
1140,-0.9142460572185077,0.11789655259419528,0.4452295287937871,-0.14594855481633295,0.6329544373542583,-1.2917483120807258
1150,-0.8904792961353981,0.14556605600370773,0.47412168347367784,-0.3810069467700221,-0.19820540284347168,-1.113928777288807
1160,-0.9061855559328778,0.13015900864682692,0.4510828368620261,1.5437080722680272,0.7865879071276192,1.3452180990796156
