time_ms,ax,ay,az,gx,gy,gz
0,-0.8267623941055351,-0.0032230912800497794,0.4037767897275728,2.4160880490358,0.2584813003147335,0.8506007690374768
10,-0.8439896130987792,-0.029838205569006127,0.3851562014051864,3.894854014861206,1.3891758768465616,1.5190254367488758
20,-0.844192887619684,-0.026839496753213267,0.37802798656103426,-0.8987591397259822,-1.3698199110264937,-1.6298151579887947
30,-0.8436599822177068,-0.02562661121461985,0.3789473496853461,1.3401017096854984,2.1081452092454622,1.6392112246470687
40,-0.8592777506584535,-0.04172606334264635,0.3681753318206633,-1.7044838605023906,-0.9819779918119564,-1.0875618237097984
50,-0.8540535460171048,-0.033678216275908536,0.3757080645691887,-0.5009613295021507,-0.1696648931713004,0.42636041258730106
60,-0.7917531895916666,0.03311971441106426,0.43517368144808355,0.5062449534634197,1.1369372623098624,1.8081763369060233
70,-0.841286562959774,-0.024299102993787187,0.3861871836725968,-1.1477987765743976,-0.6967234501447778,-0.49625798141792443
80,-0.8432371237935145,-0.026601656456938884,0.38222857639763347,0.30799833390598297,-0.46722521855495125,-0.6934682599635253
90,-0.8325059100366217,-0.012466627383373598,0.38951871831100104,0.12619864844713374,-0.27268620675693356,0.08882435112059212
100,-0.8550425353232813,-0.03532790432113392,0.3697832622115114,1.4488982316209988,1.8247769388466621,2.2149081947673017
110,-0.827750548030487,-0.008472264592772292,0.40184031056493863,0.503246491897967,1.2688482562113932,1.1180369647646184
120,-0.8433271109422159,-0.01981473180749946,0.3849052464889368,0.2717324987034838,1.0394308629113507,0.5871919293432202
130,-0.8581944421823786,-0.03468894000713047,0.3649780278601249,-1.360205028584399,-0.5788733432483839,-1.2104518478428972
140,-0.852723126603982,-0.029266355138253573,0.37610019109763226,-0.8932220757186236,0.25266734936484303,-0.12908918841904138
150,-0.8562426129117789,-0.03271955910623289,0.3728800883308043,-0.6536563642339788,1.2993635118114049,1.152560429370693
160,-0.8508192361498766,-0.0312792486629883,0.3796986869883199,2.5362301458383216,0.39622827965198504,3.8933283290422445
170,-0.8401728444453103,-0.021293475466118858,0.3963280880730007,4.542760472031707,-4.831330796831522,4.48892302248348
180,-0.8500946189065869,-0.014776702178599364,0.4021654170651353,10.315223522593165,-6.448859329455523,8.59306493279604
190,-0.865263230625154,-0.001147209990752524,0.42255685333409637,17.797620139220534,-6.2254796556651275,13.54505885481843
200,-0.8979942022388021,-0.09636713803376613,0.4676860974377232,31.74081198871611,-6.745997537553895,20.177687989494622
210,-1.0049827749676266,-0.1576756369664275,0.46801028336317524,25.503215217305183,-18.91398752325235,14.184102317036473
220,-0.9883015529741059,-0.17186902012181704,0.4646282836574492,27.842911834521257,-28.068467268162486,11.349352159444662
230,-0.8223287230165955,-0.14053371963126485,0.46104761799377114,30.125108655683764,-35.916074743172466,-9.627253627391857
240,-0.6880876072356188,-0.0476133915625325,0.4065321510853387,28.165467152551223,-38.688307655153075,-32.07731449331236
250,-0.6687798048920869,0.13457042229916097,0.34186738961620305,22.45069703352644,-32.03003532218152,-33.03896756124627
260,-0.6720034038684678,0.256109657917928,0.32589501958436395,9.484615404552049,-22.86235799223487,-24.84896512284029
270,-0.6555484074500378,0.24652117568228965,0.3159453035309214,0.5869686060489296,-11.834559950773361,-13.008845248923539
280,-0.7006911748445495,0.15425872396723275,0.34239773988246897,-5.6573692855956565,-2.6251203400264442,-5.70770440450354
290,-0.7431073471483753,0.09361721715909029,0.4000834457567567,-8.575146932419695,6.084714256132737,0.9268308697918797
300,-0.7809974847780913,0.045515301696657226,0.46339184027443575,-15.079373327501822,9.006914734041203,-2.167405350399363
310,-0.8317047283311236,-0.020238454884939066,0.4587132074451397,-18.83226834585384,8.656118689014995,-8.316486149161268
320,-0.8014584318096791,0.005694059482180218,0.43511670682744286,-12.516976950505645,8.69800196410566,-6.038458131042512
330,-0.8287540773808787,0.021445017234501634,0.35755160811413916,-11.363109598278378,8.344625925694922,-4.633461012313951
340,-0.7868152169348157,0.05507312786730142,0.4121073447955894,-9.89600685824033,13.534983019322922,4.26722671766672
350,-0.8310902392227885,0.0008621325965127375,0.4675890950658353,-10.632605218683421,13.064952713911364,4.990963406325861
360,-0.9294026675123093,-0.07803951447879455,0.4944122268033211,-7.27539303302715,8.612612269750745,5.620714320583869
370,-0.9126536954460786,-0.0799346150731886,0.49041710378778275,-7.4608552089306635,-0.7808751885450187,1.1095811015891217
380,-0.7931492304080457,-0.028426835183639955,0.4588577230642519,-5.162034074767826,-6.656729171560734,-2.9902462731103383
390,-0.8428783558588069,-0.0708057704512828,0.4371150665760355,7.46263329250461,-8.89975631782548,-1.6386455587097508
400,-0.8585333950654114,0.0006982544431336809,0.4700484249187213,5.967948911388259,-3.308884163640123,0.377329858765172
410,-0.8113702444543105,0.050060998994753914,0.38699073704545556,6.784564449395059,-5.46636205723386,-1.6433622705160262
420,-0.830293075768274,-0.04308344840310864,0.40852637020438304,15.2037479963088,-4.969496765864354,-4.1043540730632975
430,-0.8264491234081319,-0.015605344495816851,0.400766934061492,14.989605007843666,-4.351625275475564,-6.289184496098789
440,-0.8454924051288255,0.03984927625759075,0.2898506564408347,16.31381677981496,-1.3246537745987181,-8.679628819994308
450,-0.8036689146817401,0.050759314771538104,0.32755977141561726,27.787717810397957,2.2631080742155283,-15.241185878719467
460,-0.8143326165938242,-0.019827158696636628,0.47959849576297675,12.073272836778969,-0.584097417867437,-17.766263627343566
470,-0.8738109505968149,0.07571544931688041,0.4008521830400036,-5.8824059867118805,4.8064558269608035,-13.067163942587287
480,-0.8318769343158933,0.05521460327012462,0.42611114926852633,-6.43331267387981,7.090524866715317,-8.09443059245546
490,-0.794158281126657,0.019833688138369908,0.46529276869743724,-15.980925610024286,7.701653841790361,-9.828022682588998
500,-0.7956448170432958,0.020399582248315326,0.46708536115879257,-29.79727274755938,10.257366637034156,-11.974450069970837
510,-0.8251166713403906,-0.012236789531479678,0.444040465158956,-37.17569959977479,12.360665300960692,-6.983716173389106
520,-0.8120750552296908,-0.1494539237212169,0.49101840763553684,-33.7176662208157,8.344024917049913,7.0366647116732235
530,-0.8273056001194975,-0.07001431143693718,0.4718311466884783,-23.9643293498752,5.310685082380291,8.304287312056793
540,-0.8157684965170799,0.07405380469773457,0.49894490152547283,-30.564829663450467,8.253123891249345,17.042497827274993
550,-0.7951608858085812,-0.11570848566606641,0.5478220907195313,-31.319769913736764,2.3804908987583255,13.948465651906474
560,-0.7948932193757935,-0.16568711966053667,0.49974921723052457,-24.11552238753587,1.43356304580495,15.414283031154344
570,-0.8239838152293004,-0.06605019839855675,0.394407107204346,-15.979969280539699,1.0244702007029476,16.47723683463789
580,-0.8730831558678698,-0.07067835686961475,0.3351045777833073,6.4451956537857935,4.589528794093015,18.978322145167873
590,-0.8505945778426206,-0.09687547482377808,0.38948307174453023,41.54126265998972,-2.8546053419005855,9.82219179058499
600,-0.867297790642069,-0.004983533746850833,0.34462805378226047,42.8678678194422,-2.5757322697286327,4.939961585289659
610,-0.8655345499945488,-0.13768122593036672,0.3094530382424716,39.16244518196201,-1.2649475326132347,-8.821143479739073
620,-0.8022997933507391,-0.19226024943655876,0.31081065351521087,16.080042259268787,1.613950923181075,-26.158799756628387
630,-0.7820987389959639,-0.26749364204653203,0.2667714350370443,6.744484382339475,6.406480207666893,-29.273336158654253
640,-0.793746641617176,-0.21781844073644147,0.2823520892984775,18.106177358268702,7.815186314928242,-19.34042213789246
650,-0.883344268576373,0.059685046074040696,0.3895456501040187,21.929460779077733,6.806412927350072,-10.518183205860286
660,-0.831570512572256,0.02996949522064398,0.5415638162566967,-14.74611853903887,18.199683211293287,-6.64099456322657
670,-0.8397604054559726,0.1540221209432595,0.3324915919815304,-31.554320205504013,18.799869849908923,-4.432283183795087
680,-0.853954144134559,0.09884528350961205,0.408178594037566,-41.38579008474101,15.779979246806946,2.2788665902312237
690,-0.8426726860483174,-0.07036933618333913,0.7237255584374949,-53.095587148755335,9.620875542936615,10.111712755858822
700,-0.8316430737025792,-0.2184572540366046,0.7849862186067595,-53.14056007985252,6.54488021843604,17.807463503493032
710,-0.7544191073607658,-0.15267307218272572,0.5114736798272267,-47.6961596779519,-2.7430431315522976,10.611469805181292
720,-0.8561538606367001,-0.15937697079018964,0.350895644603555,-40.655040822327194,-5.931523207592126,2.9878871914602687
730,-0.8328951763447039,-0.09816113407827441,0.38242153751469204,15.82489296348528,-3.1597473947554358,8.758009298196601
740,-0.845282133128079,-0.07788587070098335,0.390539839060881,25.77456416028203,-7.966849721937652,2.7978132604942156
750,-0.8238692874154481,-0.0009147164559809207,0.3805267767847465,24.934936500967773,-3.438651331066335,1.32364224938781
760,-0.8169703150510736,0.012306314337039305,0.38736170149170746,19.139591829666042,-3.1503628869534985,-3.4155641010464755
770,-0.8505077484399254,-0.045771776372038595,0.38718834492539067,19.53773514791621,0.3597766963027851,-1.572106040720843
780,-0.8463536390852128,-0.0185253134594262,0.386832995122656,11.674339495507123,-0.07321484591141059,-2.228476304471304
790,-0.8225228753296538,0.0053943395594502706,0.4074220078542073,7.570458081773976,0.30920565920531434,-1.2260445651974683
800,-0.8464045321412841,-0.02847794407052221,0.39678880314905135,-1.0653675846076356,0.2626818202186506,0.49618351737123145
810,-0.8515123150925493,-0.040439626231687405,0.3870890875758778,-4.0404836147632235,-2.047647253292554,-0.6420318651315216
820,-0.8397953997943193,-0.03001171007164015,0.3943896100612,-2.8304417261440085,-2.067039164406359,-0.9367933874556175
830,-0.8541819374592797,-0.04082832977084088,0.3808283223304394,0.4256769269810702,1.0292563742330776,1.3193773928514052
840,-0.8316390016760932,-0.0161385600323868,0.4074904663608084,0.56284711953429,1.4622319126832792,1.3146660568406991
850,-0.8856574514761734,-0.07929944698283417,0.3580102567164628,2.2908963914157283,1.401749178323668,1.1047732712412748
860,-0.829110326976736,-0.030944355997628212,0.40787189979587457,0.18160267586675954,-0.2230662152327566,-0.459903856773449
870,-0.8129763003034666,-0.01553757269893875,0.42659784584333876,2.4403230856000473,-1.7414562109123966,1.4536726594947667
880,-0.8422155401129976,-0.03883915498985158,0.3928400799521603,4.0977614934340405,-2.3897014067221014,2.393722827649946
890,-0.8299627492128018,-0.02033649579998222,0.4086267127233889,6.907131464558822,-0.3683366859850339,4.949726851846769
900,-0.8276899091215749,-0.013087263975376594,0.4175004120669939,5.551700741435246,-0.7276556116317845,4.3126364247370566
910,-0.8157688500357081,0.0045924355606418495,0.42530428168303575,5.0878003830394505,1.9527474820903907,5.285556079988954
920,-0.8406369101642388,-0.014336441827119323,0.40108858187606045,-1.9533097653696379,-1.4521885732275002,-0.9760249325897579
930,-0.8091983077828235,0.017758576751540724,0.430616252751838,-1.9031468348319485,-0.9466430336912224,-2.0108798739132974
940,-0.8202399782064768,-0.01142240921903561,0.41606217717188093,1.186872085051641,0.5673335813850728,1.2412405919855378
950,-0.8239639828861097,-0.01763729349377628,0.4092628369522467,0.8696186522141582,-1.6847379777268263,0.45364904125855166
960,-0.8436602374077794,-0.029664098554101105,0.38961953439718555,4.940694408541646,1.2976322357952008,3.5596494228717575
970,-0.8267652137335126,-0.006610969496173842,0.41029421122433596,4.527386200395105,1.5264499997283054,2.90354254491723
980,-0.8334390535784602,-0.009275428816960038,0.4082655912952674,1.547903824801195,1.053489132379547,1.410673211648847
990,-0.8390400369379521,-0.019529981065554692,0.4017100684661922,-0.8330426802655884,-0.3172920271446081,-0.12133652370362082
1000,-0.8300453930535325,-0.020921880707948037,0.4098861195132885,0.49004113361565316,1.7830702633103268,1.871495098391757
1010,-0.8324280921876822,-0.022106853308066967,0.4095605404947207,-0.2721554469171358,0.4243002034184074,-0.36423784942887727
1020,-0.8344614054321651,-0.022478715542011383,0.40686847944731636,3.768382602658561,3.28971795327993,2.048430682421381
1030,-0.8488706336369949,-0.04118311256873285,0.38818528890925036,-2.1065258414277435,-2.8319954253002058,-4.080676672407181
1040,-0.8341499485060806,-0.031457337586643534,0.40077974197526306,0.7470785309763205,1.183457726834095,-0.04277061692997575
1050,-0.8392479206946177,-0.025417720466936806,0.40615243962575426,0.03899303231886675,0.8035822047164396,0.27261657329816336
1060,-0.845154735620806,-0.034695356714022046,0.3956555096766294,-1.775567269937747,-0.7756812911594375,-0.32779132464513705
1070,-0.8331894679744712,-0.023448771220732755,0.40603933077569004,-0.181857423904017,0.6586507631311842,2.047473975216917
1080,-0.8615345757490667,-0.04722798887045815,0.377320176895051,0.6213829557097279,1.1789131538561903,1.238464503102197
1090,-0.8470963260444023,-0.03171670313067501,0.39135356101000585,1.7200608516700007,1.3156370189249182,0.6103961781313294
1100,-0.8493014091454065,-0.03639825781045591,0.3911412012331242,2.0080563386654475,0.23238117081568457,0.14579248094183025
1110,-0.8386714117919198,-0.022550729737347466,0.40764598771171984,3.7883207706600994,1.3269549192421088,1.024660064530467
1120,-0.8297207330210565,-0.01228084972549072,0.4063723219978594,2.0882853477557575,-0.6523399191212257,-0.6939795566682572
1130,-0.8456974340477978,-0.027852633911589708,0.3967566442122291,1.3527755249385423,-0.569731167735217,-1.5029416490994398
1140,-0.8106040314145725,0.0060505637374040026,0.4293730313894256,0.35046949525988713,-0.22498212037804594,-1.8716530587866673
1150,-0.8367200791708213,-0.02188680366482937,0.4015096273182136,-0.47707169719037745,-1.5931466623454018,-2.4088466923288316
1160,-0.8442731595644736,-0.026409143223329795,0.39206438649750214,1.9056933815359811,-0.43727171384380015,-0.26524809387339754
1170,-0.8417273850737136,-0.0176106018309024,0.39082262414048197,1.4509100120104306,-0.7213547384800642,-0.7060162203658671
1180,-0.8308949054386396,-0.013647239811231096,0.4043998465134352,-0.20878782720878056,-1.0831856058104272,-0.8810179139726309
1190,-0.8245898558047806,-0.015219565944672506,0.413257345322157,0.5888943826062849,-0.059706837960402104,0.3589885665255134
1200,-0.8258029754064882,-0.01852169988102795,0.4156174148584849,1.7848053678328935,1.4310731505532237,2.1087606607019627
1210,-0.8251624610797158,-0.015833517026224417,0.4170701806802822,-0.415037618244939,-1.1855901868835164,-0.10553080603692022
1220,-0.8172082713426275,-0.006784330349575561,0.42281528337649865,1.071731360103965,0.6797371407169913,1.1008554199611245
1230,-0.8346975837713003,-0.02309622095908246,0.4041068839951545,1.3520491762008435,2.1425669552620743,1.5279770172438223
1240,-0.8418857199460489,-0.02499693697939897,0.39974433506795565,-3.2850021686083317,-1.7685158000248653,-2.0611257028770096
1250,-0.813954072441483,0.0047059246993226556,0.4238044828148549,-1.1278646416456306,1.4243974485009823,1.3378547857040013
1260,-0.8465514866040669,-0.03694398769618306,0.3895099302757194,-1.5461950191185072,-0.3938656450686019,-0.06303907970137723
1270,-0.829392614419617,-0.005576399584593965,0.4129049061423842,0.9426033831611731,-0.7827244453568664,0.018390733233251244
1280,-0.8173141871276672,0.005753509141922342,0.42349937484278044,1.9313142517148927,-1.2536110799084756,-0.10723718216220046
1290,-0.839062078422265,-0.02644161879422803,0.39319469300065857,2.26425896325906,0.5973627726365707,0.6907069615146292
1300,-0.8487432045985314,-0.040115780119198224,0.3773376840969562,-0.5352626042827424,0.8056268936216913,-1.095689809385207
1310,-0.8505727503667586,-0.04048798486976099,0.37984240404086894,-2.6569287012284004,-1.028936685229951,-2.6898430762333145
1320,-0.8451905495372397,-0.03759982422843426,0.3888045502867773,-0.8477147164316061,0.4914934074983952,-0.44848702308660915
1330,-0.8593344678944731,-0.0540129401488201,0.38112456095579045,-1.0351951593862132,-0.7628178700185236,-0.8852815149188754
1340,-0.8572770852309508,-0.053038790093307864,0.3808940419275381,2.38683729323004,1.7481321478318417,2.429363655496962
1350,-0.8100136736767466,-0.0007767848712285988,0.4275054577340272,2.519439510845843,1.0433075315905778,1.9808333499176867
1360,-0.8179616476072612,-0.00027366650703449305,0.4170876185813935,0.2957196868805759,-0.444465911691451,-0.45163151520752753
1370,-0.8360254732583837,-0.014461526412308169,0.39155864814335856,-3.5286887709016534,-1.0884560406578303,-3.061464708639823
1380,-0.8496891720767151,-0.033982143189609335,0.3988440916815704,-5.672313103010259,-1.8779785535056337,-4.44285875662743
