time_ms,ax,ay,az,gx,gy,gz
0,-0.7867483615834929,0.07589397577396734,0.1918732351170369,-0.521808725819853,-0.1686442531818615,0.44981565934448
10,-0.7478582157073966,0.11950551020887493,0.23454533163478344,-0.661148604389198,-0.9378624641696915,-1.2308708765958558
20,-0.7328202025397356,0.12351175530553987,0.23852997730934303,-2.232725939737106,-1.4935686870104616,-2.3612902098305466
30,-0.7813487537923256,0.07843718398784548,0.19366063317184157,-0.477835746418161,-0.05660439812839646,-0.336695863942553
40,-0.7366453811479171,0.12070088418776237,0.23334904395818534,0.46134936999748344,1.6426581465709402,1.5222760393079486
50,-0.7393109674815911,0.12223029911418468,0.23816931686051768,1.562079786496409,1.845165349094806,2.0933104596485403
60,-0.7273044976040006,0.1321599276096515,0.24813195754849365,0.9955472143214387,1.0459846122191307,0.8794945406162336
70,-0.720385840425144,0.13287996982926123,0.24655918924113893,-3.0971910780906065,-2.1315492031349255,-3.030217716772656
80,-0.7178252462500087,0.13541841923358983,0.2520060670545809,-2.0594552201902285,-0.9345799455386858,-1.2054717825275012
90,-0.7664292902269397,0.08941477276081405,0.20584351505039417,1.9128546605198904,2.43499469014138,3.716577277679348
100,-0.769165028844083,0.08666809397234604,0.20459781477682148,-1.641772909316868,-1.0489543671289638,-0.002151712716740861
110,-0.7121504886252987,0.14673317791452858,0.26397910117953965,-1.350575818488169,-0.6015475127022185,0.6819483423264201
120,-0.7463492929732122,0.11226079609594122,0.2259682333605102,-2.3896202831780924,-1.0741784502962421,-0.2850686647061479
130,-0.7561763042591176,0.10820277453413363,0.21750733347840193,-1.4658112556316771,0.6491592930130721,0.3753375437686697
140,-0.7625509410357113,0.12544968256775843,0.2490243690991696,3.0070082978449695,0.5093671954172247,7.647992460662766
150,-0.8045222353632178,0.047626857308041635,0.4146407859015606,6.386295225078767,-4.830233680033479,9.546808438317514
160,-0.8019246851206216,0.04783562146794504,0.37432970064925974,-2.165200590470982,-10.907047404413616,5.950183882978551
170,-0.8186266860413368,-0.013047543613647954,0.3026697045475069,14.562341338449379,-31.022671346268368,-6.760629800354167
180,-0.8192238066428712,0.0040134088384319415,0.44821917809440426,22.361358089465455,-42.4112874225889,-9.638140586659809
190,-0.6967374640839595,0.018956979465969945,0.3923969276192028,7.026003208031643,-53.35904062272113,-22.838181606841342
200,-0.5350195965079212,0.13298402461227302,0.18341561588087757,-23.798028012820595,-43.62391857098228,-29.9065483528527
210,-0.6156539856675693,0.08493344302531898,0.19265782955377767,-12.409247725960268,-30.660046005956335,-29.352429992972024
220,-0.6834461322547167,0.2598819539843962,0.2592323676471393,-7.8193843148215025,-22.020462284691444,-29.534202043718096
230,-0.7467543173213156,0.3808449494547758,0.28763380425638957,-21.591299510183134,-14.967436226848442,-18.117110845245968
240,-0.6576573691402977,0.3061421772783659,0.30542232031262395,-35.53303358740077,-9.752599522960832,-3.835035606874739
250,-0.653797954153643,0.040078098130321094,0.3643954497904924,-48.263985791879385,5.1707764045979685,-5.587787018279864
260,-0.893544764778028,-0.10088889254998687,0.3305252983940823,-25.323255216329613,-35.76782104545169,-12.351155938107437
270,-0.7747074883310019,-0.065187558747542,0.3080619181758924,6.213532489026745,-20.369073431964857,-5.72840911300522
280,-0.6905575701981375,-0.1643429234387576,0.3234388243597755,-10.309392111200058,-27.783822898219594,-25.792198936255982
290,-0.674530914909491,0.014925659551183704,0.14385463807798782,0.5576823601613307,-26.9686884880199,-15.872798621071434
300,-0.7387257782066913,-0.10282158241492673,0.19730547914944796,13.332044787964993,-17.95480077550082,-14.956261753059938
310,-0.7727712650535328,-0.237418375083596,0.324085876815522,13.8804331281706,-4.601847144491394,-29.608593208904363
320,-0.812013047652659,0.09242198888336312,0.2860759520274275,25.537488969052315,-2.450730301335908,-26.850254016859225
330,-0.7287868329118388,0.2694022776044128,0.26104288493412836,40.544701759501216,6.200994620491949,-13.040934733432527
340,-0.6588470071439836,0.1447075271785458,0.2182066130839437,26.67001807766912,16.59602635172831,-8.666340420710387
350,-0.7710556051395091,0.014683004945245808,-0.07265242858730904,-2.543912636381016,26.11600606080493,-10.921631430045972
360,-0.7253154635989414,0.0955730715101528,-0.07254181312186157,5.4769714408979,32.107676796431214,20.07002220174641
370,-0.699474143505515,-0.010669183457528295,0.263260050509129,-9.259782264511463,39.027153975830636,40.247576880948294
380,-0.7269446895413031,0.3153687129942863,-0.17761156846070253,-9.631453892380316,32.61831885212558,42.46508619667478
390,-0.5819524155328353,-0.1202512214629597,0.5340421635672442,15.812350169527853,5.51917030466013,37.362327765706084
400,-0.5805658694702699,0.27605251208201015,0.4455302293992311,1.2050393940577058,14.326824128179224,45.464440800395174
410,-0.717065885217759,-0.07906881513415966,0.45147684841020763,-17.771773903868702,8.051474593040284,22.553903165935882
420,-0.7266128457136198,0.023444974053076082,0.35067624863910707,13.500211366809143,0.049726728640264506,5.985608832556481
430,-0.7407255335524435,-0.04881360039086253,0.22344629440954678,24.834997236845027,-11.943950269573136,-8.906977124593476
440,-0.7429919728955224,-0.0018047628393083551,0.09475241227647435,37.22614578928178,-9.736820906800672,-23.190280108244227
450,-0.8250819843437176,0.31478804781018194,0.2807432768481784,74.82139627004632,-2.169812434441902,-18.663673913222105
460,-0.8316684326829997,0.329310176029337,0.382591552845305,78.632146675633,3.8320310493719267,-19.034314127492536
470,-0.73926309720531,0.09658596511204251,0.12381952534210576,27.130210258421453,44.763620693612346,-17.15972976227142
480,-0.6095219715204238,0.14360932085332184,0.2692659856762656,26.88493100096319,58.41655012437549,-1.2753390359564232
490,-0.5331790766919011,0.4023360249160849,0.20489196034726043,-13.475141625194867,55.51342676127374,3.2276396025403837
500,-0.6012504941234522,0.43652091782821717,0.5105998146033994,-46.893934869502985,40.44472723353332,12.881640310323727
510,-0.3939505888496074,0.9816667616798542,-0.025261465573390873,-48.22444386712451,33.995843485178206,39.19539013524929
520,-0.5975899918632785,0.3460176197413181,0.15319548461029636,-60.257504172435155,8.137619115084291,32.407565949620405
530,-0.7687430913924697,-0.07000078905288556,0.20063888357953336,10.92520977097531,-8.68223461847719,9.579411808304826
540,-0.7682496781275261,-0.025652654622255987,0.17202590027091255,-17.49378966657336,-11.962875932024202,-4.8556884061519945
550,-0.6821646016531058,0.037681515771410906,0.09501050159884067,-12.149795678252813,-10.472673981122767,2.1178117698948853
560,-0.7397862725016104,0.011787976846398623,0.17443931469802165,2.3788692865932477,-4.404889744371619,-2.3438673538663135
570,-0.7757448093479465,0.09116093155828002,0.21692948736156548,9.08006962064268,0.4116260635852891,3.791661407319398
580,-0.7249712493950919,0.1464289960118444,0.25375134056452475,3.2924152440109045,-4.467203596416274,3.889691614797924
590,-0.703662451302432,0.17514176705578244,0.27489402870705676,7.971143224518965,-3.4340816492891495,10.57610108357199
600,-0.7271947445515283,0.13576532364174287,0.2608131357983171,14.714668958924115,-7.2243840640087,10.375111470800189
610,-0.7474712148356548,0.13184267856943382,0.24281449303274064,9.471799077793783,-8.2003250816214,9.569675256392925
620,-0.7291998968364717,0.1581739037405382,0.2614029659324073,0.7966966216885515,-8.617895778452315,4.726932519534347
630,-0.7284715345531654,0.1457069093516097,0.26550287116448984,-1.7790176432991416,-6.283238271413855,2.5208540349135324
640,-0.7432936765047107,0.1377293126781694,0.23773812439048697,-0.6959738740546793,-7.999631499796314,3.319989251770966
650,-0.7210320573361829,0.1538920976763225,0.2640912722719096,0.6831282567578398,-9.186812842575476,2.216592608531013
660,-0.7459453643590503,0.134478476196919,0.2666086202756673,3.180859186071754,-8.002687446039184,1.7800013854119463
670,-0.7260878370472963,0.1368601481861869,0.2690788338695106,3.743619893815164,-5.626566000724721,2.064353388600262
680,-0.7250068589408257,0.13586842002760824,0.26715443662711025,6.106133848819937,-0.7542782302069553,4.232909364592163
690,-0.7022406464955879,0.1681033482703529,0.2913380677913076,-0.6160233956370003,-2.749071711164665,-1.6844114685708393
700,-0.7234187173959437,0.15924037886446776,0.2818005290551994,-2.2500174792083474,-3.1367749452138503,-4.417621724305569
710,-0.7201039872471772,0.14871118105698272,0.27663109598910113,2.1994759270495257,-0.9791561758233451,-0.5311737431026683
720,-0.7473988608110471,0.11788870265542167,0.2481987061437795,1.4416621254326274,-1.7863806411038132,0.5428158611686518
730,-0.733775311254148,0.14054162654348923,0.2676408371670709,1.4449351278152478,-1.6943529225624174,0.7463378771729198
740,-0.717705774276446,0.1618695582452024,0.28538546350868327,0.2643010607218784,-1.7050849635941325,-0.3079319933949315
750,-0.7193358137485408,0.1477577147486208,0.27258185659909756,1.7274895307841232,-2.0497897844255464,-2.0042173166428268
760,-0.7251031814900482,0.1398053823301918,0.2637644018798639,4.23224301889,-3.819662747229766,-4.7471231121405335
770,-0.7542495331931666,0.11086738101434865,0.24096620787070713,6.81951674481131,0.249177170558333,-1.6499546564107472
780,-0.7095101948602208,0.15433415311355778,0.2917039886257169,1.7165613021382797,-1.934587962236223,-2.721361847827019
790,-0.7327181427973215,0.13513558177202398,0.2634290618847137,0.8716391609664551,0.9232139274400827,0.8843728127982629
800,-0.6995803947564664,0.16784180509286797,0.29949332459834593,-1.9681151991670023,-0.33838055311001897,1.084956371158835
810,-0.7124380938472463,0.16066843224314714,0.28745250332344313,1.0908238496948122,-1.8450227534357013,1.5220533394932556
820,-0.7421241437224423,0.1290325219823342,0.25750586111778456,3.6872793991307837,-0.06742496805546727,1.802688648829146
830,-0.7325538679657183,0.14070178293255792,0.2650372251139805,2.7416583648155006,-0.1387043972619546,-0.5518329948291538
840,-0.7250328695278974,0.1443409985074855,0.2709697890875674,-1.3080982604479483,-0.9169751728387419,-4.7687656195439185
850,-0.727009938431457,0.14526628874510542,0.2717468565355072,-4.83439537592808,-1.8260769476394427,-7.520754577544988
860,-0.7562147817641334,0.10834539739940931,0.24701372890433482,-4.37289878082919,-2.0803845285280844,-5.673103531642205
870,-0.7231424945999279,0.12893787763834372,0.2790123410764803,1.1257968799416485,0.9228541443086253,1.3816441941518822
880,-0.7154692507915346,0.14371230457688508,0.2877412661711589,0.23491555507682516,-0.6814563665593013,1.4062803968411708
890,-0.7120924301822439,0.1567853700750346,0.29484488877792553,-0.3474374035366069,1.3971176928148368,3.331651437161566
900,-0.7224173036294228,0.14358450310149162,0.2776484633280659,-3.1672796640995524,0.014774320576576239,0.6132628948884291
910,-0.703254012074481,0.16064773843217922,0.2909797430667654,-3.1937249370341325,1.3337780606655405,0.5102677471613862
920,-0.7382792497845947,0.12875820143009484,0.258281562808574,-2.139496456030771,1.7990295518273918,2.4473866395246526
930,-0.748982420948583,0.11857107547299142,0.24556002992926976,-1.166398480312483,1.261317604570431,3.0643848888391743
940,-0.7235700942258595,0.1428375325661307,0.27637350881638817,-2.7136462323032715,-1.0116971557477437,2.476678261471001
950,-0.7282630114090519,0.12057784347559043,0.2732515334938575,3.2353031766401097,-1.5158575475767648,6.084490915019473
960,-0.6971461997384594,0.15538380616516748,0.2840676770957079,9.613946486257406,2.1356635979727465,13.751949124062705
970,-0.7066729570879129,0.17113439639500716,0.28436874369366416,3.1761171381247664,-2.2687824885608903,7.206855244753449
980,-0.7338054861084138,0.15227898862277553,0.2586803467017545,-3.2547869805862972,0.8164411722193536,-0.41518873471812595
990,-0.7232949969841181,0.15872861526835766,0.27311803995853956,-5.7206361893030415,0.6266316509626925,-3.775814445876348
1000,-0.7229488799638862,0.15068185628963052,0.26979220310855906,-5.854651389551433,1.6727892210844753,-3.9039435555556725
1010,-0.707561931661612,0.1641577543787146,0.28409115246137223,-5.9594063711487495,0.5501706892466434,-4.316245143391519
1020,-0.7501748536073862,0.12569163486664742,0.24528726314268579,0.0647395844030132,1.8023182734442067,-0.747081353851031
1030,-0.719287299512085,0.14739546128963663,0.27511959789966295,1.104578457965486,-1.507107376655886,-0.03301480189966943
1040,-0.7202949468134578,0.14729796325311806,0.27718754661159856,5.4998706270127276,0.07922763429867508,3.369164713693534
1050,-0.7090687930452494,0.16931144247464774,0.2930117229657995,3.6670584414782916,-2.4180622582844173,1.1545811812971203
1060,-0.7082569735234621,0.17130216320814984,0.2814766232002195,3.527451268374054,0.06597511833255916,2.4269449042952225
1070,-0.731798547795853,0.14439578117805743,0.26334516340431835,1.971970090070808,0.6516883977337365,1.9750752133167067
1080,-0.7152422686832395,0.16914213051388477,0.2832526487630527,0.44304099694194743,0.6001748936617431,1.0146929568688827
1090,-0.7342017358960737,0.14618618882458315,0.26225398941156286,0.7478416115293114,-1.8576256061765737,-2.8064753993280656
1100,-0.7311746849504989,0.14608351411505766,0.2648523818482413,-1.1553992891274545,-2.5585643336192616,-3.5202387052374577
1110,-0.7423710386149295,0.1333798634993632,0.2584090831555221,0.151394124996316,-1.5323849350106178,-2.8526717562988217
1120,-0.7462584504152143,0.12491404178331873,0.24858132770585023,-1.908993812678965,-2.580777285257291,-3.329421381688277
1130,-0.7507616056077847,0.12289179788400635,0.24691494214932755,-0.34330519426753675,0.5118447510602495,0.61108542572752
1140,-0.7138519983669575,0.16545698238123815,0.28393453175958333,0.4572310385552752,1.4839658335161698,1.7945232689905324
1150,-0.7248346736647053,0.15463540009688112,0.27116159245742155,-0.07680201430528238,0.07659152061854768,0.31391418633301993
1160,-0.7148359880709586,0.15955824757681425,0.27934735392433924,0.7642460440575387,0.1833829828711866,-0.29665008710688034
1170,-0.7268599230043233,0.14900859242048767,0.27131704438120036,2.6165467500920374,2.2092886986338662,1.3361440377674922
1180,-0.7201659525082612,0.156855400508673,0.270162803695441,-1.7388240152160526,-1.237616336245544,-2.104496653004285
1190,-0.7244235494174833,0.14906571882183603,0.2761751984625203,-2.775241759599193,-2.475072833108973,-2.9496535918235223
1200,-0.7267958432922803,0.14589624682252417,0.26266836021989437,5.1964734214558215,-0.048092509218698024,1.6859692906956638
1210,-0.7325981600275013,0.14539255681811195,0.26357240702610596,7.8460989818379145,1.4005652250134346,3.2358512388429617
1220,-0.7521138126166935,0.13114291429117242,0.2467438208377708,8.293772111161296,2.4729776932496885,3.162777769743896
1230,-0.7412507956910418,0.14130305068446125,0.24806635584227898,2.216179634562396,-1.643360010004412,-1.2928447252189945
1240,-0.7104049573282872,0.17302658903292048,0.28563259302153177,-2.0144605617158255,-0.7390667192205295,-2.012813035650683
1250,-0.7218502931400338,0.15673711134778945,0.2725477437366174,-1.1101679562958275,1.4950852932784127,0.582829301727081
1260,-0.736784752304251,0.1406583543345735,0.257334743788206,1.0738909333139475,1.9169334593417005,2.0590073601309813
1270,-0.7459923973008595,0.13186159247729357,0.25291960921461515,1.9365723510292132,0.9874804884261743,1.501312595498904
1280,-0.7221019234617602,0.15948291191273004,0.27817790797757985,2.324045337044834,2.0587924560230513,2.5069813322813266
1290,-0.7254543669302232,0.1452888840299033,0.26510210482925545,0.12429391999427497,-0.482975037229519,0.16298909867114897
1300,-0.715169223103026,0.15915562382750983,0.273964626032478,4.592877334951632,2.979714843652074,3.984296676255073
1310,-0.7222237679224502,0.15863099761443608,0.27129169355224503,-3.1165607952545726,-2.8935970768086205,-2.8970773209011766
1320,-0.7429415312518413,0.13720209462386046,0.2520954347449954,-0.8671337619136061,0.6650658493209802,-0.1699741425003131
1330,-0.7323382350114902,0.15264835110538466,0.26105023044785175,-0.5830709218716388,2.585418526824899,0.39742055458611714
1340,-0.7140301716783108,0.16131978890740603,0.27637068347067884,-2.6039749399024754,-0.05655342668051416,-1.839546030994019
1350,-0.7256402015285645,0.15144015038724837,0.2685227062395013,-3.4193473960263088,-2.667353578125669,-3.409259371177541
1360,-0.7152605710476031,0.1612413095437227,0.28218388177468373,0.5285613519651771,0.24303507904974955,-0.017900156298838586
1370,-0.7068490613378994,0.1764936820690317,0.2822390835522693,-2.1117492363427406,-0.31929483074345494,-0.45644626832641927
1380,-0.6924111153983988,0.19062847560019283,0.29937597656050124,-4.392049315772788,-1.1149455933486427,-1.8954790179777108
1390,-0.7306067754779105,0.14995468673887377,0.2639969878701984,-1.8351757624989136,1.1734711128568225,-0.028234711271707402
1400,-0.7510703267675706,0.12431230904712344,0.24057239367410152,-0.34771070640359125,1.1964739124218928,0.014006910562599062
1410,-0.724511023634442,0.15048575243473106,0.26925564229683197,-0.5866955807406637,-0.8299219991672732,-1.410205828033368
1420,-0.7203371674913925,0.16143759693925183,0.27612084577252116,2.539354706317828,2.6422868738793053,2.0271968387413803
1430,-0.726395647400025,0.15741478540288406,0.26875858522174945,-1.128929054142834,0.8235519358307715,-0.1860696333040277
1440,-0.7184150172543746,0.16079558870604205,0.2807378184024269,-2.511171826807017,0.9827042592488329,-0.4681689093317572
1450,-0.7179051237550997,0.1589648276296068,0.27768221491351575,-2.0862294452631507,1.364202165154901,0.004449833555764782
1460,-0.7118308493962822,0.16150127808986126,0.27950664816262477,-3.1252969065624248,-0.9453800537421245,-2.0007703064042577
1470,-0.7372741682362648,0.13603908660956748,0.250191808193605,-1.3545224692585398,-1.4930685066597666,-1.74656211525921
1480,-0.735780893573394,0.13929933401306055,0.24941133179302236,-0.38286674114142666,1.099742210469247,0.5070840369853644
1490,-0.7043389568489395,0.1743508391018038,0.2851233866757885,-1.5907305317315736,0.46706127956924437,-0.454449534465742
1500,-0.7124564019156417,0.1622773509108919,0.2781249839433989,-0.6310746125309729,-0.005118797148056964,-0.4909275832849954
1510,-0.7412913063060801,0.13486137654785335,0.24730805563159647,1.6816098271905344,0.7705375707139697,0.7854028803071906
1520,-0.747084833544982,0.13291033947187983,0.24632463171193067,1.9687893242134074,0.8388778555339935,1.0410038837747804
1530,-0.7042648342014541,0.17425417051069322,0.2943996954144882,2.855914299798619,2.2686067318289203,2.114597664632061
1540,-0.7018021447758835,0.17819109305497136,0.2935292609584188,1.4350451102442712,2.4290823060042515,1.3749324441870163
1550,-0.7303384045436796,0.14990201773916836,0.26549864578552207,-0.35342788642777045,1.71016203729521,0.4224843880316107
1560,-0.7089091935107671,0.1676752535110447,0.28667090615438195,0.11197917784468792,2.0443964006364297,0.9499745769702729
1570,-0.7374813448590738,0.14024691187258836,0.25633775619830856,-0.6380334518606046,1.846002951263631,0.5055661844063257
1580,-0.7466487255462468,0.13203179563035194,0.24899703900956827,-1.1189199720638738,1.4902164486455747,0.7747636668460667
1590,-0.7269609917478955,0.1534217923254799,0.27155645247172516,-1.3179183792247384,-3.0906311187690103,-2.415023950739335
1600,-0.7325429213726475,0.1426129713182358,0.25350352349299027,3.6116451599687895,1.6405378541210105,2.0405234431976185
