time_ms,ax,ay,az,gx,gy,gz
0,-0.8170718752670392,0.1501781787287673,0.5402113587091295,-2.9515397298962878,-1.4188355677465034,-0.8369302022460177
10,-0.8316600851995349,0.11600111168939885,0.5191436458411878,-2.1855449881713,-1.4323419562363737,-1.8921086682529873
20,-0.8401076063775845,0.12245944501341396,0.5090056700928768,1.4601564831231624,2.2626706862020756,1.368754709282468
30,-0.8105090493130169,0.14952396533675713,0.5392345151969671,-1.8811550325561754,0.14153200586936313,-1.5240707123611645
40,-0.8373885338224024,0.11761469391874899,0.5008524781710079,-3.2509033203064788,-3.5601397468447376,-3.8535641079257488
50,-0.8360281925255433,0.12209217988857976,0.5249560786664984,2.7271440482027733,1.7243190874679093,2.054960651215884
60,-0.8224173835500027,0.13671878276514865,0.5357844057969057,0.07958136136483729,-1.5811366221727094,-0.4893097869848073
70,-0.8244030721936533,0.12327955737031902,0.521864354894279,3.158408249704989,2.4563273807001598,3.2827308507984845
80,-0.8108945241769806,0.16449364196781455,0.5491366202498035,0.6033646702661615,0.13647075947685017,0.20722893609743853
90,-0.823307566057464,0.14228719862023445,0.5245839086828408,-0.4887035771142793,0.11432781744021736,-0.7319970245390791
100,-0.8258183304651379,0.12463651446154776,0.5252587344058239,-3.0063971830442906,-2.147736348123162,-2.239971729415144
110,-0.8301869289328189,0.1247053338982947,0.5151785058484649,-1.0668266508558144,-1.220071800779758,0.21165241428880077
120,-0.8138956215519001,0.14433188012895862,0.5404343703860339,0.7458291161527608,0.10121871933822349,1.927014971514821
130,-0.8465963754611088,0.11733154129278713,0.5095523599339613,1.183859717415498,-0.836433150096165,-0.16416245438829669
140,-0.8280362585020175,0.1379827098560693,0.5269900469284956,1.150264395151904,0.06514282777976688,-0.16441516134259507
150,-0.8128276355391229,0.1582816121092674,0.5427251542865072,-0.08860877736488804,0.8902246017218057,-0.5010949607169374
160,-0.8490978112128404,0.11068470015517416,0.5116256557961478,3.4517303565702693,2.053717423442546,2.522143611941088
170,-0.8136863147573538,0.14639030755081156,0.5427258753845781,3.040802815432964,0.298893574767432,1.1316960402447933
180,-0.8221261179532391,0.13978916201319738,0.5378102333022906,0.5693827688027994,-1.0417183889674222,0.03758638240392098
190,-0.824675940593335,0.13905810616434242,0.5341668814215542,1.1957336559674956,-0.4151215714583153,0.5980398600667857
200,-0.832267342899249,0.13307612472929992,0.5292748354065508,3.6736572506920155,1.5899646902601976,2.908954193439148
210,-0.8168401970572343,0.1528259551583494,0.5679828985562317,1.8495402286984601,-3.9472487503288542,-0.4239932292566615
220,-0.8549688471749832,0.08548151885535697,0.6797974410557754,3.5992424668279908,-21.66586017338149,-3.056660831124466
230,-0.8725839422555208,0.055108421196634144,0.7167325330248405,4.165567588199772,-35.701146497374204,-11.825336238769399
240,-0.788824158060453,0.06141630457132376,0.6948570485688872,-3.9590715877277045,-48.93573157250207,-16.781149624219502
250,-0.7369090324862902,0.09491494079158627,0.611143200724821,-7.0411893559128345,-52.1146474518186,-21.72597370240096
260,-0.7779510501828687,0.11955582946782045,0.576633454488809,-6.621027917442963,-50.54763748786464,-19.35639923619643
270,-0.7526984044185602,0.06884538904342216,0.5612916818968784,-2.91652676118887,-46.84112145075163,-17.79932232705655
280,-0.7216526258613696,0.09295546113306383,0.5561748252535956,-31.112964286944383,-36.62146922059452,-25.72754886962274
290,-0.773550082952614,0.10425550228505463,0.5467508114448646,-24.38957770901746,-32.225925111304946,-22.93586005540106
300,-0.8278637409008609,0.15764881194294064,0.5514997509275306,-20.67294735686372,-26.776015353874875,-18.515150317776513
310,-0.820918910502693,0.2248450833061726,0.5872089113877641,-36.560065567651016,-23.52171275787854,-11.613803624539758
320,-0.767394282746344,0.11452564346635642,0.6144372990895572,-42.26055668257873,-20.282919582784668,-4.320174471894062
330,-0.7328514112626736,0.06679461581731969,0.6296559775892366,-42.74541648220449,-18.185862367604727,-2.214921932773003
340,-0.7797407110865556,0.08673334047540383,0.5827322589614296,-38.92807289705479,-12.1608269643889,-4.975893445457012
350,-0.7905724519347103,-0.020163177137726446,0.5231588863754008,-17.778119803937706,-1.4264178491292068,1.6190473161673653
360,-0.7911838134386998,0.005066910771005907,0.5604792326163978,-5.815499268126536,3.586770209698451,4.222881299551874
370,-0.7689391719910585,-0.025531916840205747,0.6009986594439602,4.073681898340427,5.423081789854761,5.743599788499161
380,-0.7484100956174295,-0.03739002204350095,0.6607312770248325,7.558753099942667,6.148532154770782,6.573544245238007
390,-0.7334360352163398,0.008503557119739389,0.6814577795680178,7.300132589023234,3.8290403535959694,10.248421074300861
400,-0.7793517246748377,0.06113954433637246,0.7674915294729936,-24.24781253398112,-12.457734198336123,12.273343578659789
410,-0.7557884135481483,-0.08585704958421293,0.7283702151761358,-22.681260783254636,-15.560384579683937,1.1889341265837348
420,-0.7836853789490591,-0.009449154228992642,0.6436045338146967,-9.622677682466223,-11.449562699323879,6.498496737310841
430,-0.7786314311131715,0.062352137983130086,0.6300743300873942,-0.6823900671461383,-12.967890319677563,-2.7217521120660897
440,-0.8090948958203642,0.06499685111661557,0.5478461237720615,-2.5405502137715827,-15.059941314931779,-12.362110343647167
450,-0.743219160607175,-0.05310389916614751,0.5819932355985079,-8.809686974026679,-18.093772264112047,-12.65950813459205
460,-0.8143814262202086,-0.10338134916393356,0.47401252383315196,-29.685198514124856,-21.990287063896496,-19.006626598419693
470,-0.6454097666019489,-0.4125543680639741,0.7247827768837167,-57.44529692326911,-13.908104704837054,-23.001039985721732
480,-0.8032455954295926,-0.14812271536795604,0.6056560255938188,-42.47027298444723,-16.804667830720206,-25.34639149117792
490,-0.706569209093308,-0.040457710984624334,0.9759185924309731,-31.200138682394243,-15.914988006783448,-24.238785987163745
500,-0.6549669778628804,0.15953409434239327,0.636329483212412,7.251258290121081,-17.799009022798934,-24.59915587430251
510,-0.685986960257208,-0.25295577084862975,0.4463511658333201,-9.423586255478643,-10.233552758349944,-30.794659721517498
520,-0.7761487669962823,0.1482229384977965,0.3896354294293999,-18.280380967456466,-0.18316190060170467,-20.501719063899884
530,-0.8065675144133502,-0.017556217294559744,0.6169281418598836,5.1689597730016885,1.543620176457768,-22.912667960114224
540,-0.7624135163117468,0.09994859852021194,0.6797380279727185,52.80106690600985,6.074721531079245,-19.402106293832446
550,-0.8310646535023777,0.027253740868874225,0.6113799796696482,55.32230651124333,4.796892847498809,-19.22338764077744
560,-0.7703414450183703,-0.02647309941038707,0.6793041137342698,52.38418245302764,11.64412893801369,-20.649962757835485
570,-0.7195549055554725,0.01873200594716583,0.6157537292461912,37.17408075033464,12.615383359334444,-21.774895275715537
580,-0.7790598541219552,-0.02695649806426064,0.5840210768774746,6.109234791156058,11.708395092586892,-6.933112753074373
590,-0.7080886842978114,0.09011980184366343,0.7578864063680231,22.973025564190305,10.49909719398914,-4.923779439563496
600,-0.7095162938496119,0.004604630106439911,0.7307153363889197,32.2849584725176,12.244703916932174,1.21771341668365
610,-0.7154297981751941,-0.003237120351796111,0.7032630755099458,36.90299845373031,13.02822079605149,3.825191792399547
620,-0.7766898675605195,-0.0008815763605917589,0.6920473834821071,42.72796171468353,16.157876974206278,7.141812282104793
630,-0.8021942435554927,0.08018577072456114,0.5961045693207525,42.97300315526634,24.163060351781787,17.950439333800762
640,-0.7907285547271597,0.13660821456279254,0.6426301614594374,28.95920502400789,29.49590018657332,29.671518468320684
650,-0.5815998322068795,0.056537641328823586,0.9133220697430077,34.762609148293656,22.623096347941413,21.316528759770936
660,-0.6578857636968556,0.02092697064368646,0.9132031629488738,18.9887553404937,20.172646800624758,19.652410652255757
670,-0.7940833431281863,0.12630289521512206,0.8143458237381991,1.4526166676946792,18.186186211161157,25.40813507397375
680,-0.849867624314183,0.09354589194464527,0.7664231764924309,10.089150579130438,27.658543756256204,38.33245227934588
690,-0.8197773343222581,0.17586824580066795,0.6038645081349496,-7.111658081273879,21.33720277438489,33.31873324802798
700,-0.7800858987534468,0.07060633724028022,0.8307394213949192,-55.13404859031491,11.31110588101355,16.920734788858404
710,-0.6968880832230614,-0.06706017929442248,0.8310318748206411,-44.89079651802877,9.203618028056257,24.44813228054837
720,-0.6795149946947932,-0.05181649683637997,0.6348806266983497,-25.557450406473645,4.302685811551072,23.68518947349606
730,-0.8080248300208994,-0.09425024949845687,0.6691206079019442,-27.386896462658505,4.278759038321411,14.627024987668
740,-0.7509823112002805,-0.15050447206555576,0.6906703170345464,-28.419367620403843,1.4202036049461841,4.76104550550827
750,-0.7505454492106506,-0.014319145561966978,0.6681408999752843,-17.93099685325534,1.6719636048476152,5.146868815930432
760,-0.7693251900398602,0.015888212862860393,0.6232721259473957,5.130486055216897,0.41789415736494817,4.699510227444117
770,-0.7578387789072761,0.02446860974956566,0.6367474593597615,10.562104664803453,-1.2448698745549216,4.15567062743645
780,-0.7643716548499727,0.01668170382387597,0.6553503732698479,16.47204508092885,-3.616109805800354,2.8474972138127623
790,-0.6806322054113232,-0.029726809446099275,0.7586935627385097,19.733794035943276,-5.945538862808034,0.06338222567801033
800,-0.6844827694309775,-0.08910820114214789,0.6995463805096394,13.489632883574835,-14.915492989223846,-14.93451228948615
810,-0.7310210194989013,0.10931393039362812,0.693501122404097,14.466693136561847,-14.875499025852264,-26.57852531761305
820,-0.8125156209415427,0.06459129455506062,0.7269391556215309,22.373840062091475,-10.157769432165791,-30.969014959135905
830,-0.7290744140939475,0.10194930074832596,0.5682689247268543,10.865978138763259,-7.854665383121177,-33.21299280360877
840,-0.7949601948001872,0.170347151007524,0.46367678754516856,7.620636655615614,-6.483653096305197,-28.632916996895123
850,-0.8176200295411316,-0.024702027527197287,0.6212394404306445,9.090918835935026,0.31849741880952,-16.468272856359615
860,-0.8300692871937049,-0.02994289114691365,0.5472731741901603,8.776359116313468,5.811733638004116,-14.958671077187304
870,-0.8675006814363917,0.00897551535489521,0.42317267369282074,8.986795449734347,11.982123126340552,-18.118291680011907
880,-0.8671838694475368,0.028121481043684022,0.36423010106389436,24.87044229141794,19.88580302488051,-13.157274126139841
890,-0.8300556877985048,0.21010016867095815,0.5540407272704566,43.49581823639989,20.68090499176071,-6.991860553347278
900,-0.8444057666851623,0.2100155650724888,0.3874526202438969,27.06094710720839,31.86482330219352,-2.817221882666458
910,-0.8199473148881808,0.16342976694218098,0.19410389936050657,22.767140705060118,45.55693468346989,12.316243899075456
920,-0.7079935225029614,0.045763743175810855,0.5863598388223439,19.565402323884737,57.94128787320703,29.556592029323866
930,-0.7637139714770412,0.0906788381168577,0.8017360261173451,10.359355310369207,40.379810536051245,27.294554555046457
940,-0.7357637806726762,0.22395513491199362,0.7702728782699456,12.113360360934678,28.579887958731646,28.274570059788793
950,-0.6723940601793826,0.3377143742922798,0.7826054574950835,-9.754108216137954,27.88035387162077,33.079427818396496
960,-0.7227709879189066,0.33962279847141585,0.5625530648653739,-33.71425413414123,24.76283570479077,34.95880256395074
970,-0.7172444720331357,0.48499480398814687,0.5274431911942552,1.1695784443710475,14.341992658090486,33.91029540375734
980,-0.6540760067112978,0.6447093655681987,0.5493161323630039,-4.943919925122228,6.317104497131472,36.07763273824599
990,-0.7865654612096332,0.01319542893092286,0.5776768329294342,-22.860253593879698,-3.5076428134487507,15.843159475501473
1000,-0.8344590570219753,-0.1299124244237626,0.6131789651847211,-14.728997230046984,-10.31281883780654,-6.473199831447638
1010,-0.86621622201021,0.011409769026646943,0.4136948756018527,-24.740410474302514,-3.814610605658158,-7.603807947871896
1020,-0.8837427475588466,-0.10208866611728727,0.45993602650013526,-14.309420118714284,-4.546450076354907,-12.838873338814622
1030,-0.8638333863887273,-0.0317221965484403,0.49101391916243964,-2.5838379674640164,-3.2204777202310217,-10.880006457039805
1040,-0.8472221001901671,-0.010285058610579068,0.495991127686549,0.10850593202640985,0.8103205495415375,-3.8618038171885627
1050,-0.825665428234368,0.06418462681725097,0.5351570836036627,1.0909700728718215,2.388608898672799,8.846048333457091
1060,-0.8182080015771378,0.08399815988601601,0.5464398519055539,1.4928377961553245,1.8043325930326497,14.968138098748058
1070,-0.8509317283608476,0.05008981395591691,0.5161913540050105,4.7027812709046,0.9079828368922762,13.307905672604674
1080,-0.8421978221088963,0.06265004771131337,0.5191362465536045,12.099147928482424,4.57648928997984,15.47432994760302
1090,-0.813455012222275,0.11365110219908602,0.5521086620649014,9.153211956597557,2.4738765498038298,10.532991511754892
1100,-0.8252530932358865,0.11713864444194987,0.5420729347215547,4.257953540263162,3.986615891589925,7.764785160322035
1110,-0.7882679019984257,0.12043948932705353,0.5714869391659432,-9.378068457262117,2.385919189545773,2.193295949952366
1120,-0.8642312655306089,0.02044589061620107,0.49702268507416336,-11.831367616463915,4.572684267990619,3.985170264074881
1130,-0.8167918560237472,0.07087330036720357,0.5333155119547135,-3.9190494991931017,1.4141738165872777,2.968357710208516
1140,-0.8291607107334676,0.07712376583676533,0.524545795952897,8.325809338937095,2.757099049940766,5.787778114907752
1150,-0.8700015954571292,0.07062671495560163,0.5021468087650285,13.016452922993102,6.876497954842943,9.533937296000351
1160,-0.8276510153543677,0.11995020036336468,0.5388226975002535,5.016437435563814,4.886398526247582,5.628544111033362
1170,-0.8716685127638989,0.10779137347528073,0.5594234506442689,0.31937217197048284,2.5403972643647847,1.8357823128976696
1180,-0.8657419555299602,0.077673330648801,0.5228516106543076,5.26379175541636,1.0176564492246223,4.743644072743224
1190,-0.8093815454778912,0.11353307642088863,0.5287576995584493,17.17340206461999,1.8255338807294343,10.688239510391352
1200,-0.8306662384249883,0.10070265528969692,0.5250251413654797,23.34779478672192,0.6888481054050948,11.903130228097426
1210,-0.8179938508201969,0.11152486788103531,0.5347237097524612,20.25722355625876,-2.0193160458475843,10.348914390164284
1220,-0.8089391260090386,0.13182716653509832,0.5367417357588471,13.142966194101284,-2.1778680470869083,11.967498587601053
1230,-0.8404415952086898,0.1258141450877936,0.5165613840749517,0.4642547310929841,-4.840584944435356,1.5611754950173304
1240,-0.833201085867683,0.12716417684535783,0.5293634318408316,-2.424366966241247,-2.355896290467892,-4.53495109593518
1250,-0.7967473535553403,0.15441549628944506,0.5694620692644446,-0.10263769527613498,0.8317175281353437,-4.7263950388539095
1260,-0.8100255574418267,0.14593469866622336,0.5603469762286416,-0.9071517514231396,-0.4201355741560343,-8.085471261185317
1270,-0.8037351343532575,0.14350994608016487,0.5566805417960007,-1.0577654072923215,0.9032960469451504,-6.696059592249778
1280,-0.8279316289951989,0.09857258624337907,0.5145284425507062,-3.215696119683117,0.4294187171952194,-4.9806831661307305
1290,-0.8142824692795627,0.11145535919501763,0.5433156558066758,4.024738061339494,-1.0938645495024206,0.9870611804358239
1300,-0.8002215925039926,0.1287514831835674,0.5516353650036561,8.485502404555902,-1.0365269661531316,5.37662395860954
1310,-0.8293404238066914,0.12009798188433463,0.5290534324092558,8.459957855585243,0.2724437455565074,6.065100954007372
1320,-0.8400327456472992,0.11990441309129835,0.5274017233473088,4.432229279478566,-0.07486081916208204,0.9064782962597517
1330,-0.8134916725034744,0.15158774427597854,0.5522388118571613,-1.4849426635912146,-0.40617006939633216,-4.470569752650918
1340,-0.8259786451996883,0.12692245741434938,0.538101327699724,-4.951109914593332,0.35633340482164877,-5.495072592385743
1350,-0.8021893696796243,0.1374037608318184,0.5623931740755314,3.556031651178009,1.453242591938067,0.22555453516825175
1360,-0.8287200067910993,0.11385669979242012,0.5418285593978005,3.089900736196584,-1.6235899016955302,-1.2312509274945829
1370,-0.8379610426484687,0.10571574959991994,0.5287613493286323,1.6100874365909545,1.0593226403735216,0.5691131541896073
1380,-0.8487402224332494,0.09151414856876662,0.5069115327333642,-3.1759234510522623,0.6535813492887793,-0.3358312962606417
1390,-0.8322841896663173,0.09746319966698336,0.5254808784990989,-3.820141550978379,1.3644701287699283,0.006776418509668813
1400,-0.8063183938387686,0.11772801404687082,0.5376884528624859,-2.6628714426991267,0.3172165210531087,-0.8055896586009785
1410,-0.8109027059734165,0.1154807566337885,0.5395971992697569,4.5671569159314735,-1.0709809077216723,-1.8834865808893084
1420,-0.8222428305702353,0.10630672988774803,0.5350973602926059,3.1040364154830558,-1.0289677528404462,-2.1574861036472335
1430,-0.8295987716155865,0.11093606488874432,0.52284801186533,0.5237803731233663,1.0777337073587059,-0.2945973550614096
1440,-0.8158689367115339,0.12679705019388282,0.5404951520387663,-4.9066632218615975,-1.5808794181708583,-3.086449963367797
1450,-0.8500508894390588,0.0886547715668578,0.5174150434369524,-5.754084277478723,-2.444462374017549,-3.5961218039425855
1460,-0.8055140631927048,0.11393562421544265,0.5479034932649389,-1.687195587813614,-0.9606599944174035,-2.042265557516274
1470,-0.8369072001983805,0.08951548303232416,0.5191549312591651,3.9605323330611366,1.0681288428046414,2.910243276839191
1480,-0.8210058751226608,0.11663824477242533,0.545745866353999,4.850486942749353,1.1542478198855817,4.086999701969329
1490,-0.8123797757346995,0.1193369692415995,0.5479185073471932,3.0653822581633627,0.8144420952979654,3.3439812476636237
1500,-0.8283712034280886,0.10788998441361677,0.5296419525554359,0.3324422336119802,0.3820145892576561,1.8249918039800619
1510,-0.8177727874552149,0.11768589602478055,0.5417109157588939,-2.4580129861188245,-1.2928991585800742,-0.5227780868929186
1520,-0.821267630678825,0.10177644703001378,0.5344995466682004,-3.687243621234338,-0.5709926972422779,-0.4132108592369601
1530,-0.7852930086596511,0.14436001674806204,0.574502712567551,-3.8202424799985777,-2.748145250999605,-2.542358253706107
1540,-0.8374458488780048,0.09240147284396807,0.5210940312918513,-5.928196858476754,-1.9338245669426486,-1.6008845098263995
1550,-0.8330588790330747,0.09259616414744876,0.5317209679455366,-3.606218031957446,-1.034086746645665,-0.7604794890302413
1560,-0.8145744264452958,0.12185652205533012,0.5586734002990241,-1.8384225553586235,0.12894697239763342,-0.20157081181152386
1570,-0.8259358424629768,0.11000615659406875,0.5464400870792738,-4.502566353684588,-0.7975841418835251,-1.4906751127679911
1580,-0.8232016139543966,0.10908758911401296,0.5399385809340836,-2.862477785560963,1.236098896842218,0.5501829438734888
1590,-0.8140298915251244,0.11601427231165652,0.5494917595844969,-0.6436958284206215,-0.2226406242850142,-1.405399762829448
1600,-0.8236367773062795,0.10241083585672905,0.5327871331040783,1.4663317664837001,1.3484789489420144,0.6083800071035641
1610,-0.8452612243071563,0.08821545702324979,0.5212322532831357,-1.3386809408167455,-1.174832940162411,-1.2020087403899955
1620,-0.806777770332527,0.11763018738923012,0.550295025597726,-0.23206366940957746,-0.7434793014723444,-0.5441067010350977
1630,-0.8176690095829211,0.09348385357993572,0.5361542564931026,0.8610450262344104,0.13280059952484158,1.0871559642465836
1640,-0.833268443701737,0.0894225648542686,0.5239549923968838,0.6664652692735685,0.2057814322159031,1.1621481794588924
1650,-0.8233399839976591,0.11170660136134948,0.5398076197091599,-2.922063195788003,-1.7176620991179126,-1.838021178222394
1660,-0.809370614665157,0.11717058179017753,0.5523265438725815,-2.4139194261394192,-0.43267170534667343,-0.7101489943158987
1670,-0.8446172374112209,0.0805199121380859,0.5109262375544924,-0.03862236363660432,0.7411424302568117,0.7688011086241296
1680,-0.8488112789891424,0.06695375228918087,0.5126457250310454,-1.8977753513955102,-2.379124676221565,-1.0481333879459274
1690,-0.8424559664713586,0.07943145734772744,0.5287019377805555,3.327952772772909,0.43313914425249933,2.5267516169203534
1700,-0.8178790637466201,0.11375426564604299,0.539709257179882,3.9564905807148847,1.3943142734642562,2.5660923435074707
1710,-0.805775595510629,0.11760470104867005,0.5558136766182177,-6.251653277153912,-5.906181280048871,-6.9522094614469845
1720,-0.8103202255388688,0.1184064363697607,0.5527776136800059,-0.09504162214001116,-0.6504128371617457,-1.0878528289225617
1730,-0.8271969064495264,0.09431502163939896,0.5316887158182231,-1.1089740567052209,-1.931810778872505,-1.680163962304077
1740,-0.8466080554211565,0.08133606340875332,0.5122244260243526,-2.745360311571345,-3.4709156252415285,-2.2100341174089655
1750,-0.8139535438539091,0.11511625802964259,0.550053482202624,0.7168368558307545,0.0884493450371846,0.4847807719046655
1760,-0.8106691397727246,0.12131027314952816,0.5549099846571388,-2.6176933438713483,-1.236977032034402,-1.4985490924811704
1770,-0.8280740183961602,0.10126434691511353,0.5464938094244902,-3.0108205643405572,-2.1216464859416386,-3.151108748013332
1780,-0.8072859357242058,0.1162420336175576,0.5473994237328819,-0.8927578999667416,0.5491140191703594,-0.24411004799949487
1790,-0.8431472417830623,0.07444285539503333,0.5159634957208022,-0.07051592381397409,0.5137237441270888,-0.3842251498780327
1800,-0.8251194149319193,0.09093756365681521,0.5463061449666974,-1.6714538366263845,-2.3605251754109595,-2.3080401080744837
1810,-0.8115234368835367,0.10939537996252587,0.5526898056571492,1.7134278694855287,0.7168590749253972,2.5061803036775636
1820,-0.8199619259917055,0.0876693225885942,0.5419097104638684,2.3162436442964562,1.1705692220542125,4.26582181136158
1830,-0.8275092688985891,0.10719921031372423,0.535651077804304,-0.511648808162523,1.6454969458902144,1.7836118750064136
1840,-0.82806427201999,0.10085273950021707,0.5284798322019777,-5.658565581000912,-2.2163516729841253,-3.5755938812272006
1850,-0.8230219514704176,0.09588645077276058,0.5394781886445372,-2.7426207833934004,0.6486072798873226,-1.585107752317289
1860,-0.8192835544740692,0.09961366087626708,0.5419042580561395,0.896385546831845,1.5985828712004453,-0.23168918270292616
1870,-0.7942025323046651,0.11777656897470241,0.5573907497109273,-2.574336394617566,-2.0723869764151353,-2.9210882723548326
1880,-0.823466528870842,0.0931198465455168,0.539591842901168,0.34260560307296517,0.029649053231989915,-0.049145911962137544
1890,-0.8184000900083078,0.0966374175766367,0.5420261522197359,-0.4491421774338389,2.2503360313431227,0.7964161356610326
1900,-0.8127299624125132,0.11020209223159795,0.5557362369289104,-2.195407146281249,-0.6547036628437128,-1.7703676688952603
1910,-0.8201775584123342,0.1008459747672004,0.5405802911744302,-2.9278739723820695,-2.4335960096829847,-2.2558817690589352
1920,-0.8236185927836857,0.10178155390370854,0.5369733406605044,-0.17651922116809615,0.47388265499854054,1.398123740566183
1930,-0.833945507832906,0.08142319870357535,0.5253155582173378,1.0979681858163266,-0.25902307816143755,1.0706596037685865
1940,-0.8154347332682585,0.10667137202067087,0.54386610497649,-0.3620925432489689,0.19741696094396666,0.4212966938244366
1950,-0.8388935073657955,0.0924109051357608,0.5264232864829961,-3.6247984694741087,-1.6011555189769817,-1.754688014304142
