time_ms,ax,ay,az,gx,gy,gz
0,-0.8065535846799488,0.1303773526450164,0.2445386018638168,-2.000960592616739,-0.3153435951967493,-1.3722370005476203
10,-0.7766601578747798,0.17122032570708817,0.27970874386351896,-1.690965553918665,-0.3888999219112641,-1.5367809452459233
20,-0.7865714051668922,0.146755261610667,0.2643464772418119,1.038569367979264,-0.24710176318728505,-0.32661296886127567
30,-0.7805304635424528,0.1582673374825613,0.27317501979705894,2.0012949055690195,0.22981508910956722,0.5289937813892853
40,-0.7910253365395593,0.14695362460225272,0.261376069302481,0.16663361238931795,-1.220770513311239,-0.5050775968982087
50,-0.7783515283699168,0.16216372325398107,0.27752320247822077,3.009302130729597,2.706886565602428,3.181869520560859
60,-0.7892027193069733,0.15505578258505143,0.26559802140042665,-0.14048662052560063,1.0777729142106747,1.1669256654496687
70,-0.7868482602426763,0.16534157113773484,0.27147086412193877,-0.979455823550625,0.6501483177131793,0.21810678961846255
80,-0.7765881439134336,0.17006196452896852,0.2753583256000084,-1.3726158022430546,-0.8868172385157065,-1.2203610137531782
90,-0.7911306670039061,0.15128716077223045,0.2579780753880202,3.197816995619238,2.607400571773221,3.3685448772387376
100,-0.8150401528739915,0.13550814429509325,0.24967533146006018,1.5541715300507395,1.25094004387391,1.4637853219260992
110,-0.7967617504090659,0.15613070732606227,0.25589727507536225,-1.407725196181443,-1.0770610191850885,-0.8514911316518516
120,-0.7895135646724152,0.16401358788870904,0.2627378613656011,-1.4141372972660864,0.30571392783121965,-0.1446714156780562
130,-0.7826490649126433,0.16031812273328203,0.271167009986399,-2.7905773318688487,-0.8391141893019721,-1.303332260311278
140,-0.8233490824918612,0.12135078230490111,0.23407122105626113,0.6435595453145995,0.830876530646276,0.9144565839788433
150,-0.7732634994925587,0.17361985567231086,0.2841146585735746,2.6554392961090962,1.1297560202064405,2.2783109087856848
160,-0.8008359647341217,0.14650561097276113,0.2507249429099808,3.0161200881484564,0.37932130534715564,2.2959322780602505
170,-0.8111417538368362,0.14386705989101004,0.2545966968423395,2.179298362850113,-0.34504287526052013,3.2689018744424123
180,-0.8265988896260752,0.12519465900831225,0.25717692667493414,1.4598253251683078,-2.4007352899742056,4.782602224942529
190,-0.796143371333296,0.15496898419345542,0.28444446416158087,4.235113176644606,0.6015976653661269,10.178971021051009
200,-0.8449722932665282,0.19600789206683114,0.28809679977707836,3.7825017976049073,-17.42473693050254,6.1065936375206595
210,-0.7636452582764122,0.1475246303241254,0.3148006472685285,8.023726650347133,-23.515359898316937,7.144092765756241
220,-0.7099185239786014,0.1746040069804363,0.3042487125647786,4.377769212243875,-27.416107491294895,-1.2302702357488702
230,-0.7415478584892972,0.13202605836855982,0.3256811004358315,-5.929490567362619,-32.33815735923042,-10.651200310766887
240,-0.7210648899022125,0.1517025963436276,0.2588929665845973,-19.51011776676348,-32.103302057986376,-19.979021423991167
250,-0.7129095094536865,0.19980980097692527,0.19002182430699072,-21.518565836784582,-19.031711213832974,-19.586642848986198
260,-0.7632087481263319,0.19341943586428326,0.34360909536698714,-29.25842510537276,-3.2406543108858354,-21.046231591125448
270,-0.7999140346852104,0.19259838480441877,0.3279952635579294,-23.827879955312287,-4.488466529235621,-15.284536650413068
280,-0.7949181807906548,0.1646138304163253,0.32105405033785167,-17.700629187128747,-6.8047977882788695,-9.860994683332384
290,-0.781042469522092,0.1393301588665492,0.3131396425517611,-20.481484154408125,-9.428872483686831,-10.576362538270086
300,-0.7420776019737847,0.15356394645988655,0.2790379393357908,-22.959760892514492,-4.867778778065689,-6.54948201384947
310,-0.8250264849525966,0.09326665115930326,0.336772541748965,-10.120588800575117,-2.3980581056838286,-6.380166965733849
320,-0.8330047364572697,0.06483845231617112,0.30722059687121955,-4.172788808153524,-4.408842054411516,-7.770418709021179
330,-0.8151295828284683,0.047940918268808926,0.2900769811828162,-4.1852097695777495,-4.423304154394216,-8.16746581384794
340,-0.7829794818654386,0.02541305988940721,0.359751333072777,4.929873119351759,-7.440880152148986,-5.8304634116865195
350,-0.7534778520730219,0.15903177415524536,0.3147614519267279,12.481682457521444,-19.06718413092218,-18.451257711966978
360,-0.7773052227205954,-0.021023823884040223,0.29722887904956974,-6.869869321608498,-13.867926261337963,-19.580706399953055
370,-0.7238770804655111,0.03334948687645798,0.42206689996761887,18.418658443881686,-14.033877192030307,-17.92682802673169
380,-0.8167984475532026,0.17436526382920137,0.2042494213428074,15.987197250941056,-9.247831120776326,-17.40773713650754
390,-0.8152695906276288,-0.2457252532845815,0.2883346328882902,-1.640316496534417,-5.255405325676657,-35.371641896947686
400,-0.813423568370612,-0.024678597017808352,0.18497828655201784,1.5419551166699945,4.024119934220526,-27.335636437601813
410,-0.7902804068235957,0.27370931461006875,0.30749102865945266,12.64505508915994,6.3087868680492845,-5.874208350325803
420,-0.7565362210918466,0.211462416608734,0.3737118921217633,10.504595228893034,7.388473539551464,-4.956958956977077
430,-0.8502667182103331,0.0663364348482531,0.07075380114011937,-5.777631743842084,18.089608303451307,-10.56801822300328
440,-0.8178760871812548,0.23969964258348847,0.17633617181599195,-15.526917455544627,18.248450897269965,-7.078893799470939
450,-0.8274497696645359,0.1780426301115069,0.011631239133026373,-21.175063914586907,19.082567447695677,-1.3837269864343433
460,-0.7275104513352104,0.09518988846439783,0.45590759156980265,11.265707344481374,2.0592598711016397,2.713219149746073
470,-0.733651385799448,0.1490564437076389,0.28051454447421337,-19.9486785679777,6.579235036743562,-8.704966609227846
480,-0.7521398988812659,-0.013403274306883376,0.3916853210491386,-10.659749781726138,2.142868607377252,-9.052936893223887
490,-0.7609194698619139,0.08446864357250652,0.34468536257645976,-19.66698951428824,0.30190003520069253,-3.078132675234127
500,-0.7892374432176933,0.09346665854471163,0.3066438249059873,-2.9356237133938903,-2.8574900329468025,-1.7301279106027223
510,-0.8026520650383905,-0.037398892810148854,0.2799904437628398,-6.3039104213135015,-1.802217700688802,-7.886271309184074
520,-0.7841330693415038,0.04578372100700664,0.31146316123166584,-1.3199316650041846,2.369461455649214,-0.1410454464466313
530,-0.7904922116424629,-0.0770125192955989,0.37820009804402543,2.5954161157450044,-5.457002639615391,-9.774280127640395
540,-0.7869192725379909,-0.057086949281431605,0.2639208587455162,5.119446211831549,-6.483381492004092,-22.958466239819522
550,-0.8097802257227248,0.10720931921375404,0.2188497540249812,10.941726613269353,-0.16766677460617707,-14.440578819617961
560,-0.764282716943747,0.10230593186287462,0.2953812818558529,31.711282227704746,3.0330824646084675,-5.4478282256660755
570,-0.8536609333142723,-0.036936934845181804,0.24157981557366753,16.776734890577277,4.961128441427222,-6.505202765949246
580,-0.7652169303043437,-0.010107944318822355,0.2404342642264978,26.89475054742627,8.785406780764976,-16.25880964765529
590,-0.8357385165026145,0.11941815435274093,0.2662444820559827,2.5521080670456633,24.346908702827445,-5.192487241731014
600,-0.8267099274138628,-0.09431449370966195,0.6720570680143737,-2.5173917059620954,14.789261853854361,-0.9624670266033571
610,-0.7673194788546863,0.04060855734797152,0.33767751596586004,-9.505157633110128,17.635458876724734,-0.3645284967493849
620,-0.784269711890011,0.19078901657706082,0.15370186202071812,-9.647185101606,15.739097427264191,8.605518415627705
630,-0.7535700922527182,0.2811425008363751,0.13512821670817943,-9.955458153484932,6.459821639476149,17.853594572785536
640,-0.7778286420678936,-0.0011554819245776816,0.07387722416563175,-2.1378324158391955,-2.354852858335649,3.1449631826861113
650,-0.8050047341525524,-0.06133632983079117,0.26052632866448033,-12.538778506388118,-1.3304462322976547,-22.138110540082558
660,-0.8246280575203686,0.034504217724335616,0.23274983957610743,-10.973567252189927,-2.260948748682793,-26.56408132384717
670,-0.8074359897147511,0.034238119048040354,0.2656009720858682,-0.45204723900835386,0.38516070686505843,-17.31463635183852
680,-0.7750187165624496,0.038376426928950914,0.2868191202199002,0.5787639672931004,0.19676394108030992,-11.67245642762146
690,-0.7929744973022603,0.03546506634326057,0.2762900472162061,-2.644336215496561,-0.6643475090969579,-8.572194102669467
700,-0.7803590716124633,0.0700506634472287,0.29156167721758114,8.604629249299995,0.4217489498234047,-2.2225127476797737
710,-0.7753610124424442,0.0867440322119934,0.2991268686756796,-0.0013046208687699234,-1.9716978402408252,-15.647564632996932
720,-0.7995659906282915,0.05842499608961768,0.2849345008898424,-5.416372209095815,-1.414072561044119,-25.280190268611346
730,-0.7850397814655282,0.038358554054025,0.29033727794185804,-3.9893558945847087,0.622682156687151,-28.38218814109296
740,-0.8160466729517039,-0.013911505372250468,0.2478873901944892,-4.795192403788164,-3.777577711094691,-32.225871156497
750,-0.8026737351402335,-0.012842020998910427,0.26141490477578105,-0.7277342842200407,-3.445082272610742,-23.5485715293066
760,-0.7962225459548018,-0.017281106233668124,0.2771444561049182,6.498736769978267,0.4951649489710534,-8.633906280052802
770,-0.7563536330889442,0.026606083660653874,0.31804678589649554,4.135950520986619,-1.0740926832536082,-5.603562971737163
780,-0.7879036942628612,-0.0020428106318769344,0.2865200610009595,3.6639903924887034,0.6305185769706537,0.6845487924875209
790,-0.7940847013586081,-0.00465618872967587,0.28198834592727984,4.046493791147904,1.7813767697587046,6.390931142312942
800,-0.7738099746586459,0.015499340920852362,0.30375298751481006,2.89885322038406,-0.9573024664909136,7.835554143281984
810,-0.780834911975259,0.026845213353026157,0.29356199757158535,1.6071582700074454,0.4361805955284549,7.291529476785217
820,-0.8023239373506728,-0.006528248841760411,0.2666531593793908,2.666806820317854,0.44068692075450444,6.311436122600395
830,-0.8057169155538234,0.004135092039995875,0.267497094402895,1.6606217382534394,-1.1628891074757883,3.619273355188759
840,-0.7861049899884375,0.026735197520905547,0.28140873763570406,2.402234310358256,-0.07592727565361579,2.56239787529387
850,-0.8180206537452989,-0.01059248281157433,0.25376181933341985,-1.2143349632721512,-2.0017855570143115,-3.5525043114000563
860,-0.788097027272108,0.017254497677965157,0.2929166318418644,0.5292757539461768,-1.0233077008535902,-1.6646487174637066
870,-0.7889020825419807,0.011766584696434471,0.28759894996214724,2.46772793534422,-0.8314993887183243,3.0938113593629666
880,-0.7856326772518788,0.018630712276117456,0.288631571798053,6.174075191457288,2.654010588708452,7.6460632856961634
890,-0.7809782979050364,0.025979959258745022,0.2944382270257523,0.3244428814010132,-0.8094448796422913,2.8223699649367897
900,-0.8126074686266879,-0.005120289956872319,0.2576953541366685,1.4248900678612422,1.5663030290064195,3.6539177096090576
910,-0.8257130725768441,-0.01814439417099427,0.24584721592251269,-1.876577984714064,-1.456668898080774,-0.9899760728608813
920,-0.7835564991157824,0.0170915727577661,0.29201516685220785,-3.016671572397219,-3.0040597390705184,-1.8388083209540467
930,-0.7791372430928848,0.025699571031422307,0.2935478778424995,4.985299978843273,4.255325145032196,6.521255974972517
940,-0.7811091743448193,0.030339240076212914,0.29739706399425414,0.30151543388516,-1.7418938325144784,2.4989686892600425
950,-0.7999003253090742,0.007331671788169337,0.28151781294422795,3.208351104996463,-0.3013761831855156,4.49116555748828
960,-0.8065195348331555,0.007136295861588765,0.2754311446798213,6.552723731590808,-0.9590716781300873,6.046780993287314
970,-0.8058831253231642,0.012823748413912678,0.2728498498940383,6.283678412892119,-0.490559145965177,7.767356466667604
980,-0.7925805189310327,0.026628914362038604,0.29026676003809065,4.662393079793316,2.8051919254577817,11.322865081506379
990,-0.7693046233518874,0.04900023207797545,0.3136969838861884,7.425482418746008,4.592658462828823,14.91259418446129
1000,-0.769897512289686,0.05731855563914748,0.3007009959149577,6.088054165577299,1.507934507153164,13.064803770235935
1010,-0.7825751111988059,0.05476146160286974,0.2831651538467989,8.474142483999774,3.9973665929626123,14.031381533912299
1020,-0.7607119566847929,0.08153970793839754,0.3074154374198954,3.044207606801716,-0.31015108408705744,5.819539923236118
1030,-0.7544644687599311,0.08651661426288626,0.3297150948135846,-2.3773413948464146,-0.8883060084888206,-1.9942700393812232
1040,-0.7799565590599782,0.04730440434382076,0.28986895710195926,-4.331757642827805,-2.8596930814510766,-3.5574855901385236
1050,-0.8003824583522713,0.028828958383009706,0.27814002505210866,-0.09335236632827404,0.3271381943005671,1.0908476845065558
1060,-0.765279707798814,0.07112974074851834,0.3048935651168021,-0.11923665190800448,-0.004651822142728107,1.6125492579115446
1070,-0.8117332422046281,0.016716886150705303,0.2620636370633661,-1.324427839535249,-1.1430882438091043,0.0919099687530407
1080,-0.7725236445962702,0.05841793602626537,0.300905991575528,-1.0063864874521524,-0.4295868620516024,-0.08849147153396136
1090,-0.7946731933144927,0.03781036697609011,0.28204496277935825,0.31498653109532126,2.047710230260594,1.5231637443887034
1100,-0.7963575081326756,0.03716045158570921,0.28730726148453983,0.2213754238092791,1.4495521163589113,1.6641720885559068
1110,-0.8034971818794397,0.03379547290213597,0.27777837836262587,1.6155754003038378,0.8425505720625647,1.7707523172944106
1120,-0.7843924224718797,0.04996041572230473,0.29367400190837734,-1.4877580820171057,-2.142249731463112,-1.529170535990466
1130,-0.7910824951714401,0.044272819304745685,0.27993127508285814,-1.63275145349046,-0.7429703752942125,-0.922762063999996
1140,-0.7949105124118406,0.033570218329616014,0.2826103255577295,-1.056661087288524,0.6061725319651775,-0.7564913367928106
1150,-0.8206747953046915,0.00862843205248193,0.25465286607172144,-3.746624731263697,-3.793689620310075,-4.412646266002331
1160,-0.784666980376512,0.038695239960651655,0.2881088347458163,1.2270044820356953,0.7129531392694549,0.8422352411000404
1170,-0.8107722872969176,0.027014020445240226,0.26802937030566487,0.8893125081180384,-1.0963447516733342,0.15508804216896888
1180,-0.8135002805112086,0.021749758120158953,0.2627698177656865,-0.6991268089593077,-2.092189941630918,-1.481249301425593
1190,-0.8093515526363488,0.029631053265788042,0.2699166860795646,-0.9015055048826542,-0.8961500712920353,-1.5187858723606005
1200,-0.7910253493113456,0.036236710494503166,0.28711135332766896,-0.9441557355143729,-1.4595991769483017,-0.7914317191782794
1210,-0.8095432165672143,0.022241607300498845,0.27073152742296996,0.29064575728703534,-0.8800553772826701,0.5588139997252923
1220,-0.8091276346168261,0.028502814285147615,0.27113288298023286,1.1713011392688595,0.003855340025576637,0.9721755002032797
1230,-0.804672349363122,0.03333792289348531,0.27255414878220285,1.677527329561217,0.7338042590407652,0.8096122178458633
1240,-0.7953055351412818,0.03937839366128095,0.27219538787199604,-0.9902317967868028,-0.20850453555509085,-1.8072976383013857
1250,-0.8137504885383995,0.015952714893774304,0.2592762184275249,0.16916838969092607,0.5159365693077373,0.9863228502041756
1260,-0.7947350701735855,0.03183305507806704,0.2813966619518493,0.0692123399060589,-0.8115086124492138,1.2095963073977716
1270,-0.8173497620524253,0.014878009514984046,0.2645739218317023,2.811741396011165,1.7072616977049302,3.991357420068419
1280,-0.7847856983751496,0.05355721352537537,0.2898511281194612,-0.057750471667370074,0.6489414145855389,0.5666786079510444
1290,-0.764532155755067,0.06957431914224405,0.30942754208834167,-1.0722358331629378,-0.1328238895061985,-2.0645420368323206
1300,-0.8101009410593258,0.02534796380239478,0.26675722179533284,2.1359083571655826,2.915801025279835,1.4669576310638304
1310,-0.8068297456189809,0.023009416416831286,0.2667485243048406,-0.7178412293801288,-1.2128355572160594,0.09996555858039757
1320,-0.8008686707819849,0.030608419208439687,0.2751798860318087,-1.1068479484624036,-1.0930774942654649,0.03107820837744657
1330,-0.7987158686816708,0.03733532444693268,0.2820858776168729,1.9513414671680223,2.143875310662652,2.307835426991039
1340,-0.8025865739400477,0.03930351027340183,0.28099717945087227,0.29240044300805806,0.7867932660866472,-0.07362152200201655
1350,-0.798750587964814,0.039155871128850696,0.27404398746178255,-3.205375990659194,-2.700798979047948,-4.166343488958561
1360,-0.790850963328844,0.039312652715546306,0.284488965015155,-1.8025508432556387,-1.9472652771360945,-1.389405600905278
1370,-0.7921115977487581,0.0376126065312013,0.28335362757564697,-0.4008047397096427,-0.5773479003231337,0.9536070222639892
1380,-0.7969837657951963,0.04089645310697685,0.28905391584880663,-0.9550125177003226,-0.8132756815913076,0.16671862698878082
1390,-0.7972860727173574,0.04050185673545402,0.2810387263066036,2.0562656818396827,2.473144368481453,1.8789649858888982
