time_ms,ax,ay,az,gx,gy,gz
0,-0.8365483367771571,0.18368708689275062,0.31138835849635066,-1.574254996971196,-0.8477455683251467,-1.0945913498271735
10,-0.815555006231631,0.19927799833701382,0.3300703937872074,2.4014253925583136,2.4566305608655727,2.77712959735449
20,-0.847733372128907,0.17235203430219992,0.29346422857936066,0.005136124284323973,1.1627059877004162,1.7766001690710072
30,-0.8288790491206965,0.19253511822148503,0.3177316393555573,2.702062370289997,3.206852122964621,3.218735238154913
40,-0.8142557403557854,0.21249155539113004,0.33381124581321986,1.053754071741687,1.172064477134458,1.3438773726691935
50,-0.8193159456542357,0.2039027072859229,0.3209336810206742,0.366700029143067,0.11935449665155318,0.4906834243679814
60,-0.8099879123606042,0.2120581398139057,0.3308228622926591,1.0746741133531001,0.7708415117279686,1.1794459573369194
70,-0.8127293743195431,0.2093178680217933,0.329531944575079,1.0713560115807135,0.7194291917251808,1.08722641919619
80,-0.8295658156347976,0.18958976886851295,0.3100306416346261,1.228076781611861,1.6506431901766694,1.8042694630328884
90,-0.8127480707830257,0.2078061123488612,0.32522746614643167,-0.13027629214876046,0.9021335387079621,0.796492102195055
100,-0.8504218521451046,0.17562324386475123,0.293207164719498,0.42631068659270466,1.3584742748072254,1.088494255577567
110,-0.8469881463839134,0.18020729915656394,0.3000273691697171,-4.360307126096666,-3.364882711638568,-3.6992482995293083
120,-0.8190865302455408,0.20513788447016656,0.32187759183964537,-0.4532038735506164,0.6115787740149227,0.3931319117487293
130,-0.8024104860409643,0.22127460650449582,0.3390646206157689,-2.1729984716649606,-1.1743490438245732,-1.384642605182219
140,-0.8083963807204135,0.21705133967537651,0.33757953350219283,-2.555493861701148,-1.3171572383099468,-1.9920287020326066
150,-0.8100919677083304,0.20605718473526202,0.3379945816888425,-1.824236927828211,-1.2013860110059125,-1.5518309845353044
160,-0.8107563303110604,0.20375646082044266,0.33518310546161095,-1.063452012722623,-1.0060258540777196,-1.0961319592157297
170,-0.8145823613241452,0.20677149623653102,0.3314648489574914,1.0433016647867885,1.4854055001476152,1.5868824827526447
180,-0.8229207572189252,0.19521391546033767,0.31604891862643125,-1.583994429322252,-0.7831438197133282,-0.6593469046898759
190,-0.8379213750390582,0.1884738527953532,0.31598110258885664,-0.9262079688532829,-0.7865174815759011,-0.6378822977315532
200,-0.8110286284412319,0.20455114828498092,0.33671439541593917,-3.729091020888105,-3.390270056667159,-3.8166907562707495
210,-0.8005186420394611,0.2154337549364994,0.34464824607927785,2.234828291470235,2.7287750218068267,1.9132314844954221
220,-0.8283476582600376,0.18840566331031905,0.32162698856777944,1.7821452043031583,1.5096543285988862,1.2027638176589481
230,-0.811577204421836,0.20376600416819865,0.33912543280220586,3.6047171760614147,2.7388303596509207,3.6685603478171203
240,-0.8224121422809852,0.18896002226285138,0.3198008345046185,0.3140474435270162,-0.44049781838621693,1.903824509612687
250,-0.8079978866616102,0.20380190199852188,0.330838684965017,2.44961393960334,0.726040050980163,4.902822440757215
260,-0.8348553529439846,0.1839620246805686,0.31027556775277015,5.061453495976355,2.7802938712127157,8.776873922119481
270,-0.8298784927585173,0.19373839002314122,0.3218035255919263,-1.2574008969523685,2.074716460634863,9.107555225855625
280,-0.8122674246498687,0.2443381408071753,0.3742977479010641,-2.272925420233955,2.2101390789304807,9.495377212492043
290,-0.8891567100406719,0.31716550204160887,0.4028579104563822,-0.005517480800384167,-4.099551637246781,8.916396539199798
300,-0.9452514336689956,0.3902779966112974,0.41935994374904334,1.8481244841143494,-8.29909514213219,19.856534400512455
310,-0.9043881105493096,0.2583946395325862,0.39088594091236123,2.95838697099596,-14.567520605435684,26.395658264979776
320,-0.8057743499856808,0.16644039411372372,0.4619358858702191,4.44576308332489,-19.719584300390423,24.37733741744979
330,-0.7725234042696523,0.1256758701087065,0.34187786339608695,2.976032358331191,-22.59107491989794,16.726758773581466
340,-0.6810788556489482,0.34179120862680096,0.29099779330926817,-13.44742359958949,-18.458893487722143,2.6695798244725264
350,-0.6895058054194404,0.3833060178015925,0.2979400542607729,-20.53551084755629,-11.090472854189581,10.20984407208996
360,-0.7089849036870353,0.35042989412474884,0.3396969057604951,-25.071240904311324,-7.361907997693912,12.94868905667088
370,-0.7641180660054888,0.29913785954895694,0.3843525227252092,-23.21169092881682,-7.803049082770006,12.79766343062041
380,-0.7936152109582024,0.27289532208728173,0.3814003958267881,-23.976250065899517,-8.971453181251087,11.697236486819728
390,-0.8266892273734439,0.25662359758070674,0.3612325940379465,-28.431378293223915,-8.281665017285311,9.41345588321368
400,-0.8092688258851122,0.24517419760216264,0.387928750084479,-23.322567898958862,-11.109100288515199,3.978927383876343
410,-0.8149092514765722,0.24194014133396471,0.4058334901412534,-28.79209610155917,-17.48120256574243,-0.9660540087322765
420,-0.8157004896693235,0.2309916359084528,0.32231092357645935,-28.790872357361742,-14.602417811867143,1.0097318755667182
430,-0.8018143325572595,0.23203176394645897,0.3272595014707764,-27.6062148927287,-9.155095937002901,4.010427165259458
440,-0.7340188034410495,0.25646967146854904,0.39858186348486574,-27.87563236811493,-5.093669885685656,6.732329810647148
450,-0.7689255616529665,0.1424112252248426,0.349536356333456,-26.377697414745917,-2.7387504160253946,6.4316081803180145
460,-0.7918395553691214,0.1747360456566725,0.4043969365695697,-19.141329552995316,1.4112178217135158,4.5340315547222545
470,-0.8264525336819412,0.25287732515425665,0.4636682567851104,-14.07186325036731,1.9044150815485028,2.9929267342214567
480,-0.7974109240668075,0.17746671743660647,0.466994796366172,-14.589976032249977,-2.2652913048127354,4.460829373450329
490,-0.7683678320386899,0.11724580538158834,0.3953667792575318,-14.967404951090517,-4.281201070018869,2.248234002533893
500,-0.7090347784737205,0.18404196757125652,0.3610255524257923,-10.359541521700491,-0.9468435810387662,-0.15726481507255818
510,-0.7356193843527825,0.20525050423679744,0.35515364059568433,-5.987844871496448,7.575621852323528,2.051602552681169
520,-0.7321322814677818,0.19843948958466706,0.4185034917153354,-14.12774408304465,6.008956283514956,-2.51259431538267
530,-0.9691340072390326,0.12906691975115198,0.5354024961092869,-5.326350087395908,3.207585933879325,-0.038529687440835736
540,-0.8534909426310063,0.2069327573443306,0.43757618884377636,-1.8260095444307405,-5.401655627672002,-4.115534790318459
550,-0.7948058217866731,0.18696655966679088,0.35576461590311753,-4.138910097408955,-0.8654017321061197,-0.9032593542557845
560,-0.8007482272193847,0.15814029213351238,0.39765349516947335,-4.259533267909479,-4.141213067295677,-1.6076941467241688
570,-0.796967427064223,0.19561661359972884,0.4962716514271578,-3.1951320162042394,-5.214125561933386,-0.8479952560775307
580,-0.7450608322562738,0.19870644473325866,0.5022924755927046,-10.405332982606028,-11.152292601679619,-3.653677493675297
590,-0.8824896354450514,0.19810838240871845,0.06087555733160307,-0.6357177119337513,-14.685293089459327,-7.377230027906318
600,-0.8785803497698919,0.1295878722554678,-0.012736104396478258,4.713109588740747,-15.076941448290352,-10.112881178472385
610,-0.7648996275507601,0.11378346483219423,0.3707328070708906,-0.018148663427407286,-14.688643062846062,-12.978105419504354
620,-0.7689008272381533,0.25468117210595986,0.43017550835899776,1.4525125459613186,-5.797724886529714,-7.190172892153742
630,-0.8305182935387249,0.19808321472879573,0.3381537491740861,-3.5513277889971855,-6.752295730743443,-11.787009995973367
640,-0.7538782976011903,0.11148065862758258,0.5005715381239165,-6.623304298541749,-16.298010261155103,-22.71718223379393
650,-0.733819356686957,0.13404516834993804,0.5487327318653726,-1.2816449427846601,-13.553077141028906,-18.204876369239184
660,-0.7768064108779247,-0.004823554747146425,0.5944830778869596,-11.987691436055,-12.355621524560586,-19.094195314123535
670,-0.7433339331538978,0.10893044142752083,0.5451999884385687,6.227434325589962,-6.106655384186128,-15.423141347335354
680,-0.772346344858131,0.27220682555805337,0.3799479481356438,23.332593847974678,-0.6412829057645298,-7.108395381556054
690,-0.8378153816880841,0.3214676582417837,0.18474505374842007,23.255156275962598,-4.759720833310324,-15.153086897296886
700,-0.772258629646942,0.24900951221671352,0.4858174765746669,30.086025147141555,2.8817918226359325,-7.739894952093753
710,-0.7308362549332791,0.14445846920668665,0.3339699713119263,-6.451503002154345,-4.147715791991923,-21.529530967960056
720,-0.7203572129427892,0.3835545949126047,0.46451124106804653,3.1634473685195994,-0.26451836427661224,-5.998624147342252
730,-0.763620901309251,0.14961867885417832,0.380882469915605,3.1332109981928356,-2.8276151203388578,-11.420269588056644
740,-0.7749958151609185,0.01059361731210024,0.4600089462971242,-8.097777426075195,0.10694517299744732,-11.799803136051947
750,-0.7949422008938706,0.09951344557004951,0.436155576952771,0.3144757681459267,4.575459526684815,-7.0686328451240925
760,-0.7597422916991738,0.044139912140960066,0.48517515472112055,-9.257080052699527,-0.5472421954340057,-14.333876272801607
770,-0.7566379063887566,0.10548655965840205,0.5245322852094616,8.920360918551038,2.402843578480537,-10.320954607440079
780,-0.8061530776380873,0.120844115498604,0.44422541098262214,3.6289242480765624,1.1477035194046836,-6.339602543451291
790,-0.7604890891026481,0.1319891220986178,0.4267124084953779,1.9097170604538847,4.787318005176836,-3.525859561911543
800,-0.7708938293831222,0.1296701085948562,0.4382570933669084,2.1407926242780766,3.7967821035176,-1.8332026615539834
810,-0.742622924452558,0.17265589227965336,0.4934432128974304,-1.847579813498934,-0.4031882747931299,-1.696092765946413
820,-0.7805113468467647,0.09705853572014063,0.41907455866733245,4.205018653189375,3.178002949764949,-0.8526343867484443
830,-0.7995301796352327,0.05822524847576464,0.39994490578046565,10.717744904623734,7.541242930511227,0.26665024534875503
840,-0.7846107785886995,0.0688125704982516,0.43210538017847505,8.919771370433459,8.203347446183773,-1.3881802285278075
850,-0.7670762037520271,0.154031298409132,0.44205075622765216,-8.887314693632192,4.7553625972545355,-2.039757243761204
860,-0.7839851756463488,0.08457761370269878,0.4097952696889928,-1.7314960942285287,7.910711827847299,-2.4234791152527073
870,-0.8109111607245474,0.13414769892613448,0.4184867109360071,-12.696431876180938,0.7953446239721007,-5.190763666346714
880,-0.7748335314566043,0.13096940530131163,0.42796227101028006,-8.533080138824564,3.3171409011391497,-2.371687267518131
890,-0.7623837042458794,0.14875341149610669,0.4845021816565391,0.39965477347057443,5.961957490441546,0.6752168638946747
900,-0.7326272171411741,0.20957895858973696,0.48695332828474075,8.155129689680033,9.409861557259346,2.2553878045175138
910,-0.7974797665139035,0.31807656486901814,0.15709277695138654,21.66063655018928,17.511517212029997,10.19511773064132
920,-0.8104742078799876,0.19653129135862538,0.23956567084482122,8.685808674518825,10.666092765610555,5.944391134671216
930,-0.759709783583914,0.11125071743337636,0.49281955463999977,4.190086059758522,8.36562841888224,4.721829095514103
940,-0.7447530580502338,0.16140002471455245,0.5727325286903542,3.711671782005487,10.79275210744386,8.277470605425815
950,-0.7637384398263949,0.12606900949238417,0.5417815453258318,-3.0207018586818064,6.394413078002512,4.070445407170186
960,-0.8017067673305,0.12469379686861905,0.4202078158175246,-0.5382034641586455,6.746750695025021,4.16870350257982
970,-0.7850825292957825,0.12968582757899055,0.544884509434108,-4.4952495027710135,4.758931107436459,3.8944682491335643
980,-0.8120906511072923,0.10551417882946038,0.6223084537483525,-12.677628263851926,5.391328560477931,6.05500970740674
990,-0.8124278035489022,0.1201240041403583,0.5202830008930672,-17.67875342728935,3.144317752094663,3.481003101219332
1000,-0.7932310878221176,0.058434703897188356,0.4863455986631465,-17.01488889077303,5.064934171310998,4.890756645146949
1010,-0.7927105812812338,0.04996517374616497,0.47504670440970564,-17.554190764244712,5.105722461714745,5.364672609837465
1020,-0.8010905014545279,0.1528408273418631,0.32556472630931066,-1.1996726907466666,1.7620600523806664,4.275195724303279
1030,-0.7410312785591354,0.25892741958170923,0.3981036743993983,-0.22042117126714889,5.307123905048291,8.846106637720913
1040,-0.7246750308947779,0.15125473682477933,0.27479513720168386,1.1339468715027483,14.77068732903012,13.363966198497216
1050,-0.8842668708927712,-0.08193513465630267,0.4290324579324061,-33.51866609723551,1.259601444751154,2.8335387992686307
1060,-0.8124619139275782,-0.0888804654625241,0.5064758268882671,-11.679092608857838,1.5873151260572116,0.8923904343103664
1070,-0.810373142013183,0.15871784871341418,0.4201011490786053,-16.07485838321624,2.703490902112806,2.7477567538989756
1080,-0.8165177594643597,0.32161906819459796,0.2406480158053108,-11.98815009144103,9.53869146228724,16.31549386088662
1090,-0.8757863331729432,0.05367875336822076,0.4712689866789841,-40.26073494845248,18.899490296340602,20.31582294386463
1100,-0.8162559817856154,0.09113603029380302,0.4025855353602261,-12.525316165990466,8.812190453226641,12.111734429106225
1110,-0.8373663349832576,0.05290617346275901,0.3830073262933175,-3.0122293956735833,5.518367751726796,5.923903018479647
1120,-0.8062158496853824,0.2234410534688095,0.321068150995711,-6.905979636686281,9.85603047669318,6.285883809111395
1130,-0.7856026812723154,0.2698492729007289,0.3065076533172361,-10.471333063440929,8.512630797458087,8.650696680805437
1140,-0.8059900764899987,0.15822346610535454,0.3625514799800236,-9.3417990929809,6.115364550414403,6.385654618306228
1150,-0.8061560003365257,0.10606668153144296,0.4266111592968675,-3.9915597067306035,4.114534772098412,1.013523232753346
1160,-0.8010083393731194,0.12235500785755811,0.4164214648044027,1.218417633877033,1.1652951089106904,-1.6139613885392339
1170,-0.7827416556992804,0.1607142399688178,0.4084087232184741,5.594638178066597,2.683819541207975,1.800627060324664
1180,-0.8012507775864814,0.14618065739255576,0.4014447754390867,8.233188525118155,5.546493074853427,4.288119652491315
1190,-0.7936890691390515,0.13476292021043296,0.4210615540770886,9.035339138538605,4.5233273450297995,2.0691682863499805
1200,-0.777142389269399,0.12984759726495945,0.4519996540424658,7.9464781717938155,1.3105742112921248,-1.8559725478936469
1210,-0.7872341916522493,0.1336328764684081,0.4421484337976976,10.921602750878032,-0.8125393484381458,-3.986555441633722
1220,-0.8271632834180574,0.03773792347891862,0.4460159330321886,10.668345226468746,-4.999985475472083,-9.014068565812877
1230,-0.806536657709732,0.14149077719856634,0.45166053258462446,0.8130891033955876,-2.066776700574412,-5.6123670239317045
1240,-0.8028843905967641,0.013895869713071822,0.48676900504196347,3.928397339271884,-0.8806769895307266,-3.047480644236493
1250,-0.7612897778810143,-0.02665331140950081,0.6582041238375408,27.373397712257052,-22.36151684924673,-22.232724757038316
1260,-0.9766846908452148,-0.15867475017318844,0.4909456103902356,5.978745142230757,-9.511768513247226,-17.118670423851082
1270,-0.7793812756920567,0.05900758631963031,0.4282891748447189,3.9017159197849045,-11.774853411518011,-19.51226262785635
1280,-0.8339267625302581,0.2756127989878339,0.3803115420366969,8.145113284288565,-5.592713905458929,-10.692397006662707
1290,-0.8107301628989282,0.2103001198613094,0.40741894212754054,10.292091501140526,1.7686244592089109,0.896942119898646
1300,-0.8120641873916011,0.11667841825450959,0.3539999514522608,11.42167773533928,-2.468356006881704,-7.786779982944668
1310,-0.7842330853582214,0.16309045962604837,0.3939595226074138,4.7545197963212935,-1.7676272578355925,-11.150151272332188
1320,-0.8102361124138955,0.12046907592911414,0.37074960582120675,5.203732162805318,-0.6160895292756106,-9.987077966559728
1330,-0.8123475539638135,0.05367039032680359,0.3702480460677905,10.592756546015867,2.352878487341163,-12.310777821077785
1340,-0.8064515722087742,0.1322657826621809,0.3781467448263804,13.7467988402677,1.7635995782594183,-12.128663554535393
1350,-0.7450364288557243,0.30930513827756817,0.41441073129617817,21.31228410864915,2.8111461702183598,-4.125341890638964
1360,-0.7800640297349728,0.2227585785673091,0.3678817788972487,16.31163816054756,3.9456764871220966,-3.0550793528214846
1370,-0.8010077448220018,0.126512978009652,0.35588910047275146,6.155124005683695,3.818974592443217,-2.113305715184539
1380,-0.8317749691424055,0.05499704551188428,0.3637981706343467,11.649849637690817,5.670388787072331,-6.143153173171139
1390,-0.7342018945638291,0.18914845946988246,0.5307158746736075,23.537139057596736,9.245931538511957,-5.210806899671571
1400,-0.789869892592825,0.17910373404890836,0.4204757338659625,4.753195022959712,0.5528357678393032,-6.398707257023181
1410,-0.8096823717064776,0.1250938969499346,0.3485219059345964,7.713544341965956,5.831548290671996,-1.9980259852429418
1420,-0.7526966715715728,0.23087458123588428,0.43372483266219436,6.8359730451685925,3.009852544094835,-0.337236776757167
1430,-0.7915747199860439,0.15586373477360754,0.5173377889932229,7.4928947735383415,12.992220622516335,3.0059880750849537
1440,-0.8593145674140725,0.16630410947679927,0.13612875483824957,1.1992840326147396,14.398955609190127,1.0875982539072275
1450,-0.7748380029728774,0.11396523679393039,0.4858723107761249,6.951972468446542,8.254473030128773,2.509717004781013
1460,-0.8013538768892404,0.13420048304627,0.17130426770133436,10.483030666188514,26.19672157494964,5.032288188896269
1470,-0.8521678021610695,0.190027794316383,0.12501135746575345,2.4747638304123507,16.589908217978138,2.6480698624905403
1480,-0.8485824984160473,0.20699431102321775,0.23806901831118632,-1.5363095229694048,9.765469269616357,2.611517949143787
1490,-0.8316756990126674,0.2639689123301552,0.20978246285046043,-4.411627774127558,10.317730648464789,3.0694756641858536
1500,-0.7605168194124383,0.18677476750414992,0.4424441148877139,-4.132508830353541,16.519445821589805,6.4322765752619935
1510,-0.8423442919297469,0.07217066822198838,0.39303227942364805,-2.2431511560997643,9.46238845566904,1.006586832124805
1520,-0.822646631907891,0.2211115057145971,0.26770782401944754,-0.24637411262124287,10.504159369893575,4.572923358093782
1530,-0.7849037598689517,0.20004839272235675,0.4115591828762143,-12.315251968154758,11.540965778821372,6.133276824891627
1540,-0.8043885837794601,0.13599482700445029,0.4615851882075436,-10.604947523115444,6.069294194200553,3.759428430267299
1550,-0.8213245560681791,0.22644194052205613,0.2742245866931725,-3.9563248647338343,2.358688047633617,1.2852007026899552
1560,-0.8204545580501212,0.06477842031080737,0.478147490364605,-11.99556706192734,-2.611326805344368,-2.2009347265413846
1570,-0.8458416503174042,-0.08894153831945874,0.7601149525058485,-13.647880392947945,9.981690475159313,10.270667725011684
1580,-0.7951464959787334,0.1064213666299545,0.45918352465628787,-6.50669402806845,13.901721692335148,19.332693863996788
1590,-0.8536223188586713,0.13204966299743998,0.5109509332757192,-17.329136656356706,14.103144323376416,19.82126744025593
1600,-0.8354762545050329,0.19888086867103066,0.2339626818337951,10.869284504394685,-2.429027835003199,0.7338732170669112
1610,-0.8096651345477336,0.2331029482069809,0.3308703541766214,-11.34773959965563,-2.743979637981028,1.2681685244522765
1620,-0.9193066521572174,-0.10198188159800495,0.4136999210918092,-34.88793098720059,7.153371526021786,8.028338528290977
1630,-0.7935457624728118,0.15500428478752581,0.27102954733933843,-36.721759122968834,5.10463806903809,11.679164275312417
1640,-0.772870778415842,0.31442778736731547,0.010264191995285802,-13.594952066836878,6.407987044963173,16.349792277915146
1650,-0.7549612123356845,0.3999683391409261,0.08922429573425227,-19.438548425540457,0.2697273757157168,14.672624198270364
1660,-0.8171323099167673,0.11627469688043116,0.2897219558231449,-16.426537835534308,-2.345976224166059,11.127802888517722
1670,-0.8171730807956992,0.10903091563392775,0.4512391115618025,-11.93662495545058,-13.476858869744595,-3.2449755393879194
1680,-0.8258576757564893,0.23546617739327763,0.47057022248538916,-4.962204745002402,-15.467665593566727,-5.404953616248769
1690,-0.8398131892252068,0.19776907774720698,0.4198514796855501,1.098796452337595,-6.758656122428941,2.419056948894578
1700,-0.8405055273396876,0.07498514302917687,0.3473738066128573,-2.8701412206826054,-5.849392676338768,-0.09083712177077219
1710,-0.8210922053369138,0.05843902645687862,0.3096504214118314,-5.515014931275827,-7.13958575373417,-5.308020335376913
1720,-0.8380249169124178,0.10384212652229532,0.2957870664366953,0.11685206334779363,-2.0313161650498595,-3.342288811758257
1730,-0.8394050146292078,0.12866814446852728,0.328865408539832,3.846254789600027,-0.25905475225829644,-0.6337858687472087
1740,-0.8381499754730634,0.13063255606493468,0.3319039823515305,5.477294676603517,2.756713838681355,2.698027826165481
1750,-0.7985530026834196,0.17048626089456248,0.36818976706495543,2.967060707320815,2.7830831619977494,1.9040182095133817
1760,-0.8410034947441134,0.12084899871420209,0.33524139592151553,0.7295317488989115,0.18673864675796248,-0.32635850976083813
1770,-0.8210877159658535,0.1485439242194603,0.3566404219297196,1.2888391363200287,-1.0575325397580961,-1.2104668844886077
1780,-0.8055022898719431,0.1542402202641569,0.36765370402624864,-0.6771884145440943,-3.1937854705007704,-3.642190700205533
1790,-0.7999960516935177,0.16286773385811418,0.37249051086110485,2.250553756397238,-1.277693339319601,-2.367271985752627
1800,-0.8181847053822136,0.151996708061842,0.34720331924721043,-0.20448567208851598,-2.0671212013170477,-3.436011810146204
1810,-0.8297857439953351,0.12880226155764096,0.3430696478108704,0.3308532334576372,-0.7754590432518179,-1.572820097601561
1820,-0.8069663256160664,0.1549411464823997,0.3669290537914358,2.013786525602125,0.27411062791336666,0.14227139076378992
1830,-0.8248890686943249,0.13165084271007388,0.34774139970176254,2.6470930194977402,1.5149869783648395,1.680418478840088
1840,-0.7982467009758536,0.15668739106633606,0.37707318193347467,-0.21270268429187222,-0.9579545071816534,-0.763787783779421
1850,-0.8112528698262723,0.14264606521795076,0.3621050063341923,2.5241038542505816,0.9352208352037543,1.5394852951611364
1860,-0.793869179025771,0.16539379693664605,0.3737769202381954,2.396717649448521,2.550063880339958,2.5690255125521415
1870,-0.8141501318491741,0.149222559232786,0.35426559858037043,-3.930651980065973,-1.9933966495163373,-2.66362133733998
1880,-0.8095000494852574,0.15157714325268218,0.36575664204654557,1.344502401094662,2.6758110267432884,2.3956879603096124
1890,-0.8041042646188814,0.15714630614886227,0.3722653390252544,-3.8698005466674887,-2.516175290377875,-2.373011580710512
1900,-0.8300031422094982,0.12944522817398008,0.3411908031610342,-5.561736219417607,-3.900225708556944,-3.5107588405160985
1910,-0.8090139768209024,0.1479506523067032,0.3601047421161331,1.0975753191050717,2.40274773373633,3.0703475306264725
1920,-0.8077883106113654,0.15362591761019995,0.35419906929332345,0.3312811732846766,1.3878334155841006,2.1803146313413584
1930,-0.7954800823612633,0.17156602046815758,0.3725106332898689,0.6934952280056552,0.11273150623844891,0.5768437690575401
1940,-0.8005469500836643,0.16508518279277787,0.36286864235131366,1.3076267468721285,1.585899501684426,1.1674157580892621
1950,-0.812055454564811,0.15724210963633217,0.36739183489265564,-3.022939880237484,-1.8254009954127073,-2.5753698282086166
1960,-0.8409469609596413,0.11884028935878724,0.3355259271243239,-1.3494664460634005,0.5980643813329335,-0.5113965928641813
1970,-0.810841461694103,0.15528140284118197,0.3620130299390199,0.5466776962553703,0.6587725450287802,-0.7718192603346479
1980,-0.8273037017247261,0.1388539007549149,0.34350194270729073,-0.47931991079019154,-0.3572056182542152,-1.5714949200857502
1990,-0.8337268958795638,0.13198842547792636,0.3399497544618091,0.3520633012273829,0.2951063969483758,-0.2113214576439666
2000,-0.8200613765492151,0.13238086027137805,0.3488291408109408,2.3036430890739976,1.5008488143819925,1.3986149990571715
2010,-0.8110724628424384,0.1487679248458492,0.3586246016344851,-2.4664327550656537,-2.0905667417882166,-1.724746340241946
2020,-0.8246352874836534,0.13975664986468445,0.34971961872381474,-1.453485699259991,-0.3275557215077347,0.3641427772219188
2030,-0.835805509443277,0.13031232585456148,0.3389734549675287,-0.6815517845976768,0.46462723073198475,1.3163282997992014
2040,-0.8275422534544529,0.13815520448763957,0.3451218426329433,-0.9683299208209519,-0.7387087276038372,0.5644593877446424
2050,-0.8090018227397535,0.15379364747154062,0.366517050473134,-0.9936015579602828,-1.3939688822973304,-0.18568312166626
2060,-0.7902101055599465,0.17454479252952004,0.3873906788178812,2.1377507482129605,1.922043013642639,2.7934513508376893
2070,-0.8075251267572849,0.16042521733226592,0.36703343535728056,0.8308598354447849,1.0373921172794367,2.3464366077301166
2080,-0.8299993492618539,0.1364961942839964,0.34455817189243715,-0.18689426531285436,0.7615119582405051,2.2030542070422894
2090,-0.799244981473491,0.16646481571553243,0.37043292546639345,1.8451206513787368,1.5037072482544305,3.0682663690463547
2100,-0.8046854298333304,0.15505167454578356,0.3609852074273692,3.0895491722327604,1.7930080347276767,3.653139358206669
2110,-0.806896033104151,0.15341238638747684,0.36239582025904915,3.1768384536751793,0.5049739066521568,2.5090308739725558
2120,-0.8204556331915691,0.1536299341984732,0.35331187279675885,2.4578001453782616,1.0613926046359317,3.547945310755356
2130,-0.8274542878994073,0.14215904278653385,0.33728413920604516,1.6804373458082833,0.038001963504634126,2.9198409160271104
