time_ms,ax,ay,az,gx,gy,gz
0,-0.8082320415212815,0.09132673308243844,0.4015834560319746,-4.08157908180964,-3.902613202356412,-3.496762858311971
10,-0.7871303000716601,0.12115043907307656,0.42791623120051836,0.662600995320725,-0.3712055970528936,1.132947459519786
20,-0.8443730258585679,0.06110108803462355,0.3680013331518947,1.3117874582335038,0.42650465327333537,1.112828958232786
30,-0.7980744036711391,0.11251203121954172,0.42104415155271613,-0.46185510816971176,0.2644757136585833,-0.8610847340170782
40,-0.7879133791103549,0.12315634464923277,0.42862212682732737,-1.3153187642007667,-1.2824784475930664,-2.1671331766548065
50,-0.8177030794104588,0.09089814533288008,0.4010842911011653,0.6852781849470274,-0.7132877301814811,-0.026119390323800062
60,-0.8154515005051545,0.08877565602903285,0.39803091695584575,2.79433926145827,0.7250879653085333,2.4977624167515584
70,-0.7718727178495074,0.13898399685822077,0.4474524066194127,3.6384461803631805,2.7745420910680245,3.7599883217352295
80,-0.7852023658679714,0.12657417909686544,0.4363144919601391,2.3350970681882304,2.255186107132769,2.5183376059595037
90,-0.7749685684914929,0.13154937022047042,0.4427084448449118,-2.465792796893742,-1.925038293110307,-2.188611614559448
100,-0.8096977315112275,0.09523316780997107,0.4042202417490285,-0.6937199948717432,0.480576895070217,-0.2401962764462502
110,-0.7854293595862708,0.12200787690638666,0.4334875896043756,-0.6957966104415085,0.2888726268611894,0.11461325768573605
120,-0.7809176331314898,0.1275079348324272,0.44116087085137634,0.5362552120609205,0.84362243185169,0.7751532058520274
130,-0.8235876101712717,0.08809909462215917,0.39606394651162613,2.9826176116159715,2.5197771526963635,2.3604027201984135
140,-0.8096523136536165,0.1019908254562023,0.4100345765615211,-0.920896422002617,0.6537013677832442,0.5248950202266964
150,-0.7977776612890704,0.10997453104803367,0.4201288525538585,-0.26133474719479577,1.2865674157321276,1.3761079455946796
160,-0.8163352874971289,0.09028765758616553,0.4029237893232902,-1.0449252681007044,-0.048463348039431864,0.9458795337630563
170,-0.8130001376464854,0.09042985171378341,0.40804362465057686,1.1304561323801359,0.142663598534659,2.990580117731146
180,-0.8165906345923964,0.09530728618038621,0.41390551350015636,3.55994725720357,0.584003359125487,4.671781828192877
190,-0.8027311116119017,0.1098677942838133,0.42889696103777486,12.805697698652269,1.4863577883765509,9.040357428469704
200,-0.8303106231882801,0.06190168251698561,0.3861876461494584,21.751328397152005,1.771089323737146,13.817338978985564
210,-0.8119724421232384,0.13194255335190463,0.5145400633902816,30.57096044371979,-0.021833651445671953,16.66700794922034
220,-0.8622023485990561,0.08616854668582474,0.5525054573111985,21.500210742070475,-7.958328753003816,12.138135898623123
230,-0.8893959347588712,0.14435786601797632,0.48192582821574786,24.802529843630833,-17.094809599810397,7.799546925224809
240,-0.8175098927538059,0.10821910703698104,0.4344061069091644,21.312973323429222,-19.395563432310603,5.092597303604144
250,-0.7551588964795884,0.04918575928067716,0.4041268009261514,-1.9848746319770707,-12.143945129157153,-21.11576026922274
260,-0.8103039939271938,0.14791500414274128,0.4326557135945783,-2.3372215689661955,-11.402313910907555,-20.035617348015712
270,-0.7670925860750567,0.14813427182811456,0.4613052362506421,-8.154936733695038,-12.042462661001865,-18.37715966794913
280,-0.7298108878613956,0.1355518809749594,0.46642965815408954,-8.745981065250547,-7.800522645318468,-15.999989456227965
290,-0.732788140994679,0.1434358861612163,0.41847642326537177,-7.05541215830199,-5.180103661065017,-13.7537286780559
300,-0.7896293259419612,0.08875730282347023,0.40147173605090225,-6.188414293711569,-3.8029902619962153,-8.896559440795901
310,-0.7641694191131385,0.08647332573588369,0.417087590502326,-2.5330017738537207,2.3106706652674807,-2.126242232621651
320,-0.7797683115045075,0.09680467951511786,0.40365214492970247,-4.41188984479259,3.031743478909044,-4.646442603877097
330,-0.801795181699957,0.1303243501700117,0.38948864868993655,-7.41000851345124,6.491364519888352,-4.435018254217729
340,-0.7684839531688766,0.15360306233327445,0.4154709750609216,-6.91826881530746,9.27424627392015,-0.2574237286961446
350,-0.7610331102410108,0.10330037276594255,0.42150881348500147,-12.734723125119492,12.245472242830221,-2.578832875833538
360,-0.7942587625257466,0.09095239292016101,0.4436519687704419,-5.816806466770848,1.3488500907128282,1.6936691792419312
370,-0.7953298397054832,0.08015704503358151,0.4512063611923171,-7.518839142375491,-1.9517437729678804,0.7706799735647536
380,-0.8034120868106809,0.07908560597961922,0.4462023110922683,-4.901381483597774,-0.3940795359836504,3.3610215501427563
390,-0.7704619976504694,0.11935286230781836,0.4700966740383568,-7.041787519175772,2.9465605145497467,5.444085354184048
400,-0.7553035350467265,0.1304996515418204,0.4713139701613237,-7.883079849536118,0.9420337581230304,4.717162980738396
410,-0.7951950683137763,0.09927323321188614,0.42428421135417915,-6.138168951133092,-0.283906531094473,3.68278847022171
420,-0.8214769269590994,0.06119228828215065,0.4107992175975437,-3.7102577477851453,-0.12379146172703503,3.5652112266917344
430,-0.8054809697820258,0.06986378182661335,0.447088790093231,8.693160134549055,1.8931136166657387,8.757778648887232
440,-0.7260889174896107,0.10396223501457583,0.4571015330549063,15.674592233087251,-6.936548440641551,1.9065294471589724
450,-0.8433899383627653,0.054748634180392934,0.44186653069898973,12.963731027109816,-4.19782838771108,-1.9015734447229433
460,-0.8119939174149585,0.12548403071545328,0.4358581408000203,12.562521478606818,0.8051902563104878,6.636805038684999
470,-0.8042154198283954,0.1851415424282233,0.38697913313421184,15.564834013629527,-7.600232394086637,-8.855411456813549
480,-0.8017348397064119,0.10372180643242146,0.41221925459642655,13.537425474636892,-4.568732153453942,-6.629085071842957
490,-0.832557652785749,0.0686864506064947,0.3540917477442102,9.6803757350049,-2.3230376470504073,-7.521332488188211
500,-0.8449174980349705,-0.13792125230778582,0.455052117951233,-10.481827885588526,-2.472170299058335,-16.914767805889763
510,-0.8202255219795749,0.073644191024741,0.39638995693009216,4.826822561820835,-0.710221788446246,-7.19249293115927
520,-0.7976279487473797,0.15470070754707155,0.41655122669694583,1.4943429772852013,-0.572707739545182,-5.599204880383352
530,-0.791436815636188,0.13545412863617767,0.43206543276851017,-9.649101264698709,2.932640678249353,-8.393350842883034
540,-0.8168410413105476,0.08235878610079309,0.3997478617895435,-16.255489937452072,6.455635725391407,-6.210697989097859
550,-0.7919271612975909,0.09010187293518007,0.47523568568872476,-17.69789236892554,10.339351245941783,-0.31576201941422527
560,-0.7810405276561871,0.020046365952336307,0.5383917877882151,-19.359474182838127,10.426195116339143,5.35034299285715
570,-0.7561146235149492,0.2043408589553442,0.475722686287197,-12.258241637104824,9.204575429464594,12.169101405122216
580,-0.8004101708775782,0.10866541938007512,0.42353971483671504,-23.998501386506735,2.683561071013002,-3.962240346784644
590,-0.8044197752847781,0.22092389500691326,0.38355683908611743,-11.566524979632856,3.96455734292143,6.782047617594636
600,-0.7493652734053214,0.21387208941747948,0.3603120791776903,-5.467153660073539,15.354434789524388,27.189979456978023
610,-0.7883107510073508,0.05069043580852341,0.4715574132459519,-6.579556446073171,7.170761329330207,12.237513823655572
620,-0.7949739469498714,-0.0016461785390692527,0.4695856959025566,-13.420599986002326,-1.1456536926214111,0.3132394007110644
630,-0.8125635579209399,0.08336933442518242,0.4150406884575483,0.49876865025124006,0.45677654135931434,4.565664636416582
640,-0.8046023309092803,0.07039678275029068,0.40325360958243694,13.966771639392576,4.057906615516161,9.010019549208803
650,-0.7968635013815902,0.10841068635258558,0.4254310917366496,9.392068509717587,-0.3908686816786826,4.584677785394378
660,-0.773537486270519,0.1244964412535233,0.45370682858105665,6.709416172838477,2.6291890600928314,5.050366679156283
670,-0.7588052131729334,0.11354698583629938,0.4704127617204628,2.07898666040328,-3.243711157643161,-0.9589096125126706
680,-0.824564816252316,0.012588495745985927,0.42584112713120886,13.106524754366426,-2.692528266327171,-0.7006459770821154
690,-0.8131421061674904,0.0905075317238292,0.39605725721264556,14.500071739517747,-3.7117184236628784,-3.269652904576355
700,-0.8372983167617569,0.09902109144457188,0.3838247482234803,14.724026094914205,1.5045409842571251,-0.45741817070113866
710,-0.8312031743043896,-0.006564475186572906,0.3961670810027299,11.01304039133101,1.4161469239222455,-12.698339932984092
720,-0.7867366228032638,0.17346267073410535,0.4300014760876188,12.922788530316925,3.121009264422699,-9.628465537305988
730,-0.785701002532314,0.11738524982808742,0.39768122518888016,15.61250158689391,4.972704744502103,0.9615926679604754
740,-0.8455411206513206,0.06130739198668371,0.3529766946510788,2.221155709754127,4.621168480164899,-6.157583484669754
750,-0.819461357873304,0.12570873031277383,0.40130830851760074,3.4804484547288297,3.019993384572568,-4.054129646558355
760,-0.8094406767986237,0.17661033820481675,0.4037621755199011,12.025222902736528,14.841151441919948,9.497418119287683
770,-0.7948782119055969,0.06854827844325295,0.5279032436298002,0.8911462541324815,11.882953808867937,6.637084440527511
780,-0.7961178849468559,0.07834421479679018,0.5060119777098842,-8.35395987439566,11.015383061756532,5.127545292342232
790,-0.8083696013004861,0.07344544531480625,0.4709897193402687,-14.430734495360445,7.175170620382435,0.6578148002480582
800,-0.7786956792750988,0.1009746189943195,0.46726530947543504,-19.834193507872445,-3.1327823748626336,-0.6829767758156606
810,-0.7687962707384669,0.1721117793710576,0.43153263943457293,-8.740363934555912,1.3112664426641476,11.631938431729967
820,-0.725840764148099,0.25003318058798907,0.4940116572795672,4.386916634541864,-11.563752333239758,10.952784995788264
830,-0.843420765884072,-0.08306523812065829,0.3256330359363148,-5.106477054859716,-4.038277459720493,2.1580198606519296
840,-0.847350079779479,0.05464541346139125,0.40569478322764196,-3.0421895394617096,-5.386083591854097,2.5866469639742196
850,-0.7905621379411555,0.06139073370725781,0.40944114124634656,4.0390195092406955,0.7926885804928014,7.518242234767586
860,-0.8245470757679597,0.10100818261951278,0.38758764854721933,4.367881802792715,-2.720193695914544,1.8998408598512841
870,-0.8201269176703377,0.10997497541173842,0.39573424094786097,3.0062552996955105,-1.9120025445728657,-0.30687722838936526
880,-0.7975390301401084,0.12463892765954399,0.4125692912920278,1.4583662561978201,-0.7860406990191876,-1.5323511078487484
890,-0.8041212536764392,0.10200466842993614,0.39532864509325316,-1.990798458186521,-3.2428147112245576,-5.458799001813461
900,-0.8208146345447334,0.09513015685988821,0.3963562773856104,0.8475359003212688,-4.851414952687769,-6.191743417907071
910,-0.7841552017712744,0.12418515735690058,0.42956693444785654,2.9441777666307396,0.29565169388249,0.32079041786651374
920,-0.8242830511314887,0.08821512759535526,0.39992090534743907,1.7858355135148472,-0.5333192087058877,1.3146341186765986
930,-0.7817093372223413,0.09929396758392572,0.4329625973190576,4.831809626236355,-0.4415960696371041,3.5002976761419093
940,-0.8228380135669142,0.08023429791349306,0.4006054444671507,9.550783150141234,-0.43376822914975505,6.316735362427802
950,-0.7854108272627435,0.12194688311907792,0.43034695152644475,13.725785098553667,3.0264271120995776,10.904053831338631
960,-0.7808628089722457,0.14295648000041947,0.43732179860779125,5.650230182528397,-1.7773693605883423,3.096323492770493
970,-0.8019637952845803,0.11737938341645057,0.41448826762747976,-2.146456213748138,-1.685566166232736,-2.9339146690880313
980,-0.8277878460897353,0.08703423623980223,0.3894196230973152,-0.08530184264127394,-0.6319544586581034,-0.7823296368975114
990,-0.8066829015829889,0.11732221725199594,0.4132509654163222,-2.6502301460447417,-3.155234225625555,-3.0461990263502434
1000,-0.8020993315990868,0.11692608513418044,0.42180794268380567,-0.09160172662118193,0.052908034054244046,-1.0286978906084827
1010,-0.8038040478647742,0.10830036036801152,0.4163315324797944,9.843387486169197e-05,-0.49412265428831786,-1.3419661588219813
1020,-0.8131120734249695,0.1067302036754544,0.4038636523024695,3.923961898813158,-0.10793581076562858,2.2010694208322326
1030,-0.7924955285503517,0.13731273678214345,0.4278629110941738,0.7733538901581984,-1.4779382471426226,0.3240232908598286
1040,-0.7893668122756917,0.13338252318097674,0.4246662272013478,-1.410348715818478,-0.42762956851067147,-0.06824084599687863
1050,-0.7953027507124184,0.1326418512820291,0.4267098530636127,-4.823169460205561,-1.8962818596615816,-2.872162893566788
1060,-0.8331392268721184,0.08146169298900793,0.3838259810617135,-3.4801609569440943,-2.286571071512944,-2.772364810017166
1070,-0.8277664203571392,0.08398083259892347,0.3917565590330003,0.7980177257816151,1.010532716682059,1.5747309869503257
1080,-0.8192282571460039,0.1079363607946058,0.4072150100701614,3.5407566526590672,0.792297047469853,0.7815283173957166
1090,-0.8211192770949985,0.09890209242580286,0.3973550431068418,-0.1166038409429696,-0.8896001725561906,-1.4642973405601096
1100,-0.810055959171987,0.11016168444443371,0.4083474943419615,-1.2396102962765654,-2.098339037509276,-1.7267754234595303
1110,-0.7990126693480138,0.12129120335365359,0.41989528869157644,-1.1216253265398133,-0.16282103176020235,0.13941605478864996
1120,-0.8121647105237985,0.10380900676165346,0.4065990823330511,-0.4802954862432709,1.248698845629912,0.5498729483905676
1130,-0.8015961675886099,0.1142230551927714,0.41295347946349664,-0.8567039714414141,-1.4295696215772504,-2.241910380804489
1140,-0.8066350913048189,0.11330687064789133,0.4081527331828295,-0.2975224919501598,-1.2432978720075185,-2.18847835032938
1150,-0.7588220076013206,0.1633831048269873,0.45707881647522425,-1.4616109021749026,-0.2304577500561602,-1.9607904812880586
1160,-0.8122268911162044,0.09875350966918804,0.4046929868375732,3.256472862630258,2.3460283865316853,1.3109396217269182
1170,-0.8331537661806427,0.08322203201672522,0.38579483979237983,4.105958189783752,0.25040199438301286,0.6735412654599345
1180,-0.8161138648076806,0.10194333211769137,0.40002772388089963,2.401945794537976,-0.5444981663647275,0.04267169927468745
1190,-0.8126626760083502,0.10697278096489912,0.4123437466883162,-3.293032317883079,-0.5704860680154139,-2.307980053621105
1200,-0.8005412819944216,0.11751138370944775,0.4233130934364181,-1.779109573565231,-0.717582239195679,-1.456535621759919
1210,-0.7823010431441519,0.13240890718708645,0.43408705675440373,-0.7203442929483166,-1.850502582594274,-0.8581389324524539
1220,-0.776986967396749,0.13682279812530657,0.43348974282516883,-2.5091949279192276,-2.2811811979857173,-1.2049803838964577
1230,-0.8035262588031723,0.11045493668237598,0.41064637080138733,-2.773872478452266,-1.4011632429226029,-1.0080659252961204
1240,-0.8102141258959303,0.11203748627244295,0.4136324478758118,-2.0686599540269834,-0.6644377343702773,-1.5210248307566179
1250,-0.7842735819468731,0.1308064142223313,0.4335720764428978,-0.12859567073718536,1.0827433458952291,-0.5247710673360413
1260,-0.8165382618499623,0.0915772713891965,0.400500658612463,1.587609857549635,0.6493026518115432,0.6177224893932032
1270,-0.8191987974459243,0.09051021325430691,0.399073506706339,6.077797789455155,2.4078007173317753,4.872283806935137
1280,-0.8103669859156186,0.1099795965419346,0.40633098247713023,2.450463120015395,0.07658937954776562,1.9969113526590287
1290,-0.7859825975414735,0.13609740019706876,0.4251783303313983,-2.1044011208186566,-1.1718618092081337,-2.306613309178096
1300,-0.7980959141612958,0.1136572820409708,0.42183230605178135,0.7685003274824489,0.23226102442416507,-0.08136864849733094
1310,-0.7864752530754531,0.13377181250650522,0.44072832447988075,-0.6966475981906182,-2.189551983262673,-1.8065196349562544
1320,-0.8014802112466517,0.10728464584726843,0.4146051453152431,0.7314178034407651,-0.4650253390976136,-0.2298526295209421
1330,-0.8148504668275519,0.10183674597906264,0.4039035032209046,-0.5981631949470818,-0.8397177796655104,-0.6064631481720151
1340,-0.7821463243651365,0.13634993430327247,0.43328549158788454,0.9028019341986837,1.7523891508428122,1.6593381806821208
1350,-0.8121237854631882,0.10511035988848735,0.4043166882448975,3.0182757029565024,2.9060198324105224,2.5643787943343166
1360,-0.8230382881911864,0.08550845987722296,0.38896944167290937,3.6800902108156794,1.8664414784374208,2.2835841888719823
1370,-0.8016363053343645,0.11166505941203322,0.41637449478456623,3.061257408287044,1.3182353842902625,2.276433441978307
1380,-0.7911243886430454,0.13188296418488082,0.4230497302092386,-0.9118063271621577,-1.0180048849545722,-0.897677744628653
1390,-0.790937256663112,0.13175232328988243,0.4276642292150893,-2.2854675213561486,-0.6173397727900989,-2.1880512465215034
1400,-0.7946795117285598,0.12722827940678522,0.4375787086048266,-0.9382142806288192,0.41757928350626045,-1.4812088822620415
1410,-0.8015102816183692,0.11232556911389412,0.4153085218763645,-0.1592384122925553,0.6794296412542524,1.2040800668626326
