time_ms,ax,ay,az,gx,gy,gz
0,-0.8902915789376125,0.16178455448143336,0.24272458877615016,-0.3636606637273702,-0.38959727875104233,-0.6584836056115526
10,-0.8818113667295269,0.15390717699956966,0.25521880593833357,-3.969794983079066,-2.0761364010219383,-1.8490305347386067
20,-0.8866679856646178,0.14180949702091022,0.24705711226465552,-0.6888097292022283,-0.13220480262292517,0.8701078587982509
30,-0.8662985590009478,0.17708375366746276,0.2717438993829746,1.4565599451938436,1.5702454544394726,2.291457987600289
40,-0.8792631922207164,0.1654179457672268,0.2586448723441087,0.6091260897199792,0.9822529376070201,1.2717032468922933
50,-0.8811666869700925,0.166364253439554,0.24636096176731842,-2.246978471828448,-0.4927667994774046,-1.5409653801175272
60,-0.9010833352157803,0.13974123927190418,0.23326862560438377,-3.3507260781137695,-1.4320130834682334,-2.772489768884272
70,-0.8838613303802725,0.1519637226181686,0.2559719701787834,0.14423091019386458,-1.3300075327341676,-0.9223656869374406
80,-0.8746937501402501,0.16203208834824281,0.26355853823248754,-2.155289037714433,-3.2937773370487466,-2.4806350489471503
90,-0.8797796488499096,0.15590370478470547,0.2569339859502453,-0.778156240631222,-0.4691438428057239,0.3150959474029942
100,-0.8759185755392869,0.168246435201194,0.25636047595117467,0.024624525365437466,1.2216255572471209,1.4387200004982983
110,-0.8886668333354613,0.16362772670472253,0.24812693810985165,-0.6577418957057459,0.5157492494223134,-0.5842100673268904
120,-0.861179656824609,0.1871849657712729,0.28619103756353137,1.688147395742623,0.2006013524298251,0.6194135812578987
130,-0.8832837381011309,0.16323326332179863,0.2700287364705261,4.406162949247207,0.5540974634202982,4.272070900815162
140,-0.8994564917461405,0.1529743495102545,0.26146654656149687,2.998655780354034,-0.9718401605622169,5.454416282512793
150,-0.8988564603944869,0.16385223031581028,0.2696440731935273,4.392858594844361,2.0286088594510523,13.13701490218979
160,-0.8957685741763017,0.18027048954045033,0.29574817023959254,3.8330197423038843,1.2505417819933529,18.105436575529662
170,-0.9639781233751064,0.15809476275831383,0.3681762312226444,1.6345340013748553,-9.97332225197887,17.894539963058982
180,-0.8588402823792152,0.12832075219996852,0.35434804155895805,7.086189420110509,-32.639950501422305,12.220095109263058
190,-0.7713184421225655,0.14654962793213014,0.3128356166259505,8.712799814063857,-38.907771643897846,3.2099103289670428
200,-0.7012318127444627,0.19194863381987134,0.24330869434472732,5.209542470604157,-36.091006473176876,-9.642727641802365
210,-0.7279080669694915,0.31630415228763387,0.2423619862171638,-7.6559399037691325,-21.182261957051075,-11.278606648251753
220,-0.7825681778072635,0.2693948766725662,0.21171106810098853,-10.129703161562261,-9.260104284498585,-5.49389011520861
230,-0.8418499771262586,0.16075952287659295,0.24790735517878132,-16.223091265311247,-3.2972738156716694,-7.651252857530428
240,-0.8698547181869453,0.14560244337950703,0.2948587392888441,-19.716234633166337,3.849600889741298,-15.828598727452245
250,-0.8541529581378378,0.1830312452517062,0.25512870867577075,-15.675763768227862,5.434721082782876,-13.319228189503631
260,-0.8273154817010178,0.17274758429532144,0.3395193448835537,-13.70568834045829,6.383607743417752,-11.10076968944929
270,-0.9362450814261513,0.140565104494192,0.336611231396598,-0.6738011542835267,4.533279829272192,-1.9344136092138011
280,-0.9126645320321164,0.1355549800125309,0.34550102510508673,0.7960952626885469,-2.2211248628139733,-1.4894372554123336
290,-0.8907642492187915,0.12431373352705084,0.3062282190998035,-0.03191492225272574,-3.785596610634224,-3.4962958027314652
300,-0.883058112250223,0.10127166155324599,0.3162766331856687,-5.368806984635697,-6.561273302109119,-4.0602583384817175
310,-0.8712136951750622,0.09672503699777892,0.34233184643428316,3.7189907349829996,-6.921382432075512,-0.9753554839783489
320,-0.8711057301939054,0.16440039635371495,0.2845131758672097,12.422275814997997,-10.157556535817907,-1.8022281010191588
330,-0.8385030384747587,0.18333506239428876,0.3332045270884359,20.42970452225143,-12.72393583241117,-4.5240469705804305
340,-0.8703623003771034,0.1527490277593636,0.2821202579398892,11.820599024745412,-11.82066016118037,-6.637943382612784
350,-0.8735196968979513,0.11162613129632568,0.29290369940119815,11.09348469279937,-9.191076371012102,-9.49621339426134
360,-0.8594511937563297,0.16609401969587778,0.24667947042668084,25.596495221951717,-9.171672921731462,-10.292511045421456
370,-0.8811656772358842,-0.05285758157414318,0.34698674516345573,20.027269595554294,-8.369428525239206,-15.591940092487736
380,-0.8971055190284345,-0.06437741807348225,0.16854920367707316,20.3968820715711,-11.576626901085492,-22.540393091361025
390,-0.8915263758392125,0.12349985882730903,0.16969923786799157,18.654700973814773,-2.8260001675290862,-16.176438572557334
400,-0.9032384375494291,0.1389037655938054,0.2291027805080804,-7.199886821813309,1.6050544347193152,-21.77343898694601
410,-0.8278624537400947,0.19387647442212963,0.278312313592601,5.148199004566988,6.910694967783603,-2.0413290208756427
420,-0.8822107443107399,0.19509355516308943,0.37579999689493016,6.0968075783502895,5.95050952997443,-0.2777977795043651
430,-0.8604296210468382,0.20679332141454917,0.2451288379425492,-0.3845789826755044,8.2669141812132,-3.832472447178564
440,-0.8937189553048993,0.1922957485730153,0.19929490396278876,-1.4855837538601062,8.528290454850607,-3.48090772664972
450,-0.7957739555941101,0.2643559505340509,0.4141103628799131,-10.993788174817224,27.511899010923162,9.870011891663758
460,-0.818104111487915,0.1826373262195911,0.05844052927356612,2.0345027684158437,22.879047697583445,12.500151157066012
470,-0.8110058278642245,0.32267586614365246,0.26882290903777306,-6.497530017242812,15.971965573486134,18.72618919495658
480,-0.8357886304925662,0.1941306197053097,0.3307672106588244,-8.321430582616587,2.640488588778278,5.28273373972224
490,-0.8626258793747941,0.1194812639237267,0.2851126746484766,-12.698608100059563,4.4546753681153906,-1.9457263262152775
500,-0.872539293497882,0.16057423222086448,0.2533621359868989,-11.007617214679426,3.170663997838817,0.7354955927940344
510,-0.8615734434430803,0.11351222927484489,0.3029716406241736,-11.28705907735139,2.4617760410912863,1.2706652731201418
520,-0.8699460960912647,0.2392043455404769,0.29549217977569253,-0.5354474043404421,4.192913772154186,10.948410573491566
530,-0.9047787606812469,0.062270039425437254,0.29287709908246257,0.5038810847403488,1.0923991805754258,5.451358588383287
540,-0.841750990163583,0.15061077567649922,0.3341321824,5.791919980877706,3.2982966275981083,7.98082866418295
550,-0.8841474450170259,0.04168091424251138,0.2850428419904069,9.14043169486685,-2.2758348095459024,-1.6756702389100926
560,-0.8831567219405497,0.025918169781045535,0.3096542044867229,11.277378863167865,-1.7635555952368684,-6.125678584943438
570,-0.8953832725800066,0.22314804884226974,0.2771976192691134,12.944659827606616,-1.74497647940739,-10.758059150021603
580,-0.9122472003911013,0.19147142715244841,0.24517620448031663,14.239943519338276,-1.4999653349416886,-11.366393616792964
590,-0.9048643990316754,0.06675287813810946,0.2771865235265331,39.740341237597285,3.412982589846516,-7.76468213075771
600,-0.83920610617048,0.2366832422947618,0.3518025319114184,35.770617696965815,4.11541013571316,-5.793767203098698
610,-0.8293779684651581,0.29447336417751396,0.41238287789689126,30.691165272773485,12.828454532756606,-1.5163224275347678
620,-0.8719260790490958,0.19501035479452417,0.39299968701176086,25.67434731619866,33.33714956518985,1.6162352712822048
630,-0.8056967939951348,0.31752604298476894,0.5072783937042395,24.564742413580845,26.49501084302062,13.783202973575001
640,-0.8676040337594513,0.2788457410689402,0.27015517168127223,-22.607242733967905,18.88367097412592,12.807315552405232
650,-0.8632455893916755,0.06518807893547897,0.450320376608111,-21.818551240942547,4.979717412319561,6.515063355361804
660,-0.8955272842304377,0.06116666024450441,0.34300666230339294,-21.25974812617874,3.782965546606795,2.6989778977825356
670,-0.919013011195332,0.05116028260116864,0.31177243277121836,-19.880641875511134,-3.847445432928161,-4.268151224051584
680,-0.8916121722493108,0.07850030071057362,0.3438863759807213,-30.15791260055163,-0.7592847712592228,-7.072459226342838
690,-0.895681300212891,0.09120050582516268,0.5464952890553817,-27.299234802069606,-0.28140761658290303,-5.435125792677733
700,-0.848885282204501,0.1482927117781927,0.2834520369456839,-0.48286987268687653,-0.8045192410735447,-0.3067594477419528
710,-0.8877860022323797,0.12441544792998645,0.24302469441323957,3.851400478529838,0.5049713518591978,6.272926742554048
720,-0.9023385068079289,0.12221333421570167,0.23756962774014825,4.179554520814505,2.6644570787056434,8.217002494664715
730,-0.8979541941081328,0.13955521150444852,0.25242524517917053,3.7376870379229787,2.370380155969139,6.666311958099706
740,-0.8673702887822269,0.1601301741559636,0.2707555078370013,1.9831545173943765,0.7397945725307986,3.7367090207972598
750,-0.863460724769487,0.16638509056252151,0.2775811077002084,0.7329467155795883,0.37796318995675193,0.9260946357292512
760,-0.8772983731687364,0.15572939364670263,0.2614462229826055,0.7210703591232539,-0.8221644200833897,-1.2542954366225532
770,-0.8829152368672708,0.14543034852658662,0.25767823370200316,1.091805613608332,-0.5987046501345749,0.2623068621400264
780,-0.8742717547848611,0.15330972790080513,0.2635333847528517,0.17408181341570028,-1.7106257875034339,0.37846121191045046
790,-0.8838234944273663,0.14250800328309626,0.2530627497042662,2.117062174858523,0.15299721422617885,3.5605774206822645
800,-0.8921540735853842,0.1380648787558574,0.24812345478268638,3.6972788570272916,1.8600428950806105,5.83479641195278
810,-0.8742542215677614,0.15691158506317132,0.25894958180299965,-1.1087657516019174,-2.8003815511666934,-0.402729915038639
820,-0.8772864064969835,0.1493637232418956,0.2603270294836885,0.7384419937909188,-0.406123213687644,1.1073928893246159
830,-0.8913986711122829,0.1403081593612043,0.24963275707328936,-1.069572247387352,-0.6092492059808091,-0.7141203087849735
840,-0.8752302869177067,0.15876280730375844,0.268074182313153,-1.4569873592289873,-0.5129721055407042,-0.2762901663457147
850,-0.8934127812920902,0.1369122432643645,0.24593796391875322,-2.485311002745286,-1.878291801320611,-1.3108413155475167
860,-0.8778506178803034,0.1548046442888115,0.2588760950187393,1.6824758514434566,1.2790140552591247,2.2396244118186104
870,-0.8686093819058242,0.17138377126047497,0.26886496206054866,-0.7947135431094658,-1.9140168472639938,-1.6551531090942502
880,-0.8919266585586236,0.14713032686007863,0.2552698941033615,3.178358609437841,2.3722030856662624,3.6876299772468224
890,-0.8971146883058254,0.14176230644710916,0.2383847504265788,-0.6182141407060326,-3.25159368943483,-0.5705937554798597
900,-0.8746994738948262,0.1623097299554033,0.2620446330764537,1.2881896636858163,-1.8594531161020214,0.4452549843170943
910,-0.8778795653712378,0.15510833716333122,0.25784591641662247,-1.2113357852888502,-2.491720824432618,-0.9160872534129327
920,-0.898404023739436,0.13811687932575142,0.24326245229572632,3.542705671989105,1.6372227083606603,3.2639644086359754
930,-0.882629154183585,0.16140445575524268,0.26481152117768497,3.9626914225367424,-0.4801601752373539,1.9734727265107868
940,-0.8806182839449197,0.16376625109427081,0.2573131799526219,2.393951294895814,-1.9631482776786746,0.8319074643587627
950,-0.8828556097098299,0.1678751126746765,0.25062115465276896,1.7233172330209057,1.2190451415205086,2.0154946305177623
960,-0.8932980279337435,0.1525250114592942,0.25108837179809673,-1.4307798848866389,-0.9000812216991415,-1.7003253701153556
970,-0.8938564918413845,0.14963066682627754,0.2468557887813184,0.22275210849496951,-0.09761876558567284,-0.51550263179238
980,-0.8775568516922411,0.16007278880815237,0.2620232618532188,1.264372877452769,-0.4611963555098331,-0.5490692806294264
990,-0.8404843644772825,0.19120944164471645,0.292741110497195,8.124103803123429,3.756156895233567,4.634966013788637
1000,-0.8690096873491033,0.16119597015101228,0.2579775851528555,4.821926332284667,-0.013078780340230522,1.3711840026748554
1010,-0.8684335635797942,0.1764102087751281,0.27414870501955935,2.7790086620101784,-2.2105821218999835,-0.859269323015641
1020,-0.8700090912172358,0.17680031531401075,0.2757440136854519,3.7074184204244336,-0.013585815534665369,0.8134254472002833
1030,-0.8870256740041772,0.14785732364823165,0.24346480633967701,2.137640073500288,1.0600242552031498,1.5317388564748127
1040,-0.8688677254913327,0.15171629681374746,0.25846012330064055,-1.4406878832535253,0.009798441838088812,1.1831251666815727
1050,-0.8616916664463864,0.16827274581664758,0.2710937279395907,-2.2749214592512237,0.39138203741990263,0.9163138154047812
1060,-0.8941604066550624,0.15367876005630665,0.2562919652903324,-1.851420122901602,0.9947681192870685,0.7753942420613553
1070,-0.8656684010318504,0.17687030428465428,0.26828631328097796,0.4081975621578162,3.25242928196577,1.564145976042688
1080,-0.8906382270293859,0.15205481529202,0.24303428192723178,-1.115501644196629,0.37293681182469074,-0.7596493227725805
1090,-0.8956485466996347,0.1462182101996989,0.2359451028181484,0.3089403960889334,-0.15540211987235197,0.25380114784489144
1100,-0.8890734024195306,0.14195857565555345,0.2459577634422703,-1.4795255692338944,-0.3936920490433851,1.125773938875017
1110,-0.8780023939921159,0.15913066132735668,0.2616698811243326,-0.8090650312432995,-1.5202670217774812,0.2689587843832342
1120,-0.870820040334045,0.1733710904754694,0.27277852112666645,0.5312973745406984,-1.5524822139930683,0.18691482586145236
1130,-0.8760449650767153,0.16824270479128817,0.2512753858367578,0.6219127779479744,-0.2348468528768143,-0.7045900489004895
1140,-0.8829279809857244,0.1576606029657876,0.24901729985798357,1.2420556527487085,0.7373974281986112,-0.5433610576528383
1150,-0.8833100800465018,0.16098152158765783,0.25512673020908533,0.5579003535461313,-0.12289036147638777,-0.8446609043653495
1160,-0.8731845544473186,0.16796347269441964,0.26013734999045995,1.6431954221441907,2.3419495829458032,3.3756722285219336
1170,-0.867314868431833,0.17905620595136265,0.27262403344752595,1.8083956490833895,1.358879693858324,2.091867023277035
1180,-0.8844537270497572,0.15856998774496228,0.25505666536583205,-0.29248177681811116,-2.6546917206165865,-2.19547405042182
1190,-0.8814336632026849,0.16649287970825916,0.2586592153005442,3.4573874220726664,0.3961930002252929,0.24461304989864607
1200,-0.8829989444086924,0.16251580598613372,0.25234950176787596,4.253437537339392,0.8699684116851659,0.6683463442609061
1210,-0.8857856435562244,0.1601636051829128,0.24585810293532945,-0.6813814464290491,-2.311804320745855,-1.3548158276659008
1220,-0.8893575799775255,0.1575120963778242,0.24633635919351898,-1.9032230217640032,-2.162445508990792,-0.34972052176462265
1230,-0.8850842844699782,0.15899108377949048,0.25003148960969074,1.9855378690549172,1.9783317885220282,2.829732465597824
1240,-0.8969679905135066,0.14453183457093163,0.23256533889534678,-2.0572985107055977,-1.251511802443126,-2.242408191920981
1250,-0.8467036984285812,0.1954547892813955,0.2846198786742381,-1.2201935072935828,1.222877447087835,-1.2471334945643737
1260,-0.8983371635082369,0.14871163867431775,0.23779327457713353,-1.1578481033649493,0.4963520781361768,-1.0695829470556142
1270,-0.8672296930658723,0.17253892197452872,0.27043865478586443,-1.8691644937284673,-2.017462924507208,-0.9066756571161672
1280,-0.8806115841860439,0.15600798783786218,0.25325417771334785,2.0312809775893195,1.1775867996717164,2.9086575707108393
1290,-0.8593309355080779,0.182956582767125,0.2749070729324954,1.5924229098246465,1.378169115802176,1.9047275666814605
1300,-0.8747547338714204,0.1698389046324653,0.26512104381801616,-0.6017951595809803,-0.19041450185357678,-0.7646851751750905
1310,-0.8969931390996387,0.145752223069018,0.23289057045114533,-0.6008691370566067,1.0302930592243666,-0.6222635146181165
1320,-0.8681727984283802,0.1693505179529372,0.2674517909684498,-0.5057471983953978,0.6222976675532644,-0.5440711257898974
1330,-0.876790078007119,0.15858239373616279,0.2519383097760944,-1.5665643308130592,-2.584745698422847,-1.6841592505821426
