time_ms,ax,ay,az,gx,gy,gz
0,-0.49814504948836646,0.061523856399582834,0.6461560373455038,-0.29343538989570056,-0.35842829479844224,-0.25245098080899686
10,-0.5117378444016641,0.05453230232383434,0.626587644873449,0.2952724776199979,0.10522513921147889,0.5554988297082086
20,-0.5298702839487629,0.03528075561637654,0.6127046511530785,3.688637206159694,3.893279812944099,4.002785370630268
30,-0.5069841256223107,0.05581353316665641,0.6378314683615274,-1.7959099493873971,-0.8037613858344386,-1.1784934973307617
40,-0.47894881460260763,0.0800765892225005,0.6659159748373921,1.0331852136554305,1.2023366769396304,1.0511610095231771
50,-0.5049976618908932,0.05993103113833286,0.636684886723766,1.726893994765065,0.9198932793751117,1.1842474827953637
60,-0.5280438087592187,0.037435973705982756,0.6155543541027745,3.1171556257148136,2.5039087597647858,3.349779107307339
70,-0.5076377332039458,0.059099755470184596,0.6366178444521271,-0.6616056297829505,-0.3219392483638046,0.7035054507333295
80,-0.534801369516539,0.024669523478273125,0.6047830544875559,-1.3196578457141754,0.4288904536018726,0.5685324050409273
90,-0.5155539898257727,0.04736558893360021,0.6307158532359152,0.5374371174061093,0.26399886817268575,0.8415435391704693
100,-0.47817652081408385,0.08896244140388523,0.6650991687637322,0.17634653118582805,-0.5923693276914865,0.15641401799489107
110,-0.5042988216405706,0.06223480412472137,0.642503369435694,-1.5783363437539315,-1.6990300279604647,-0.9810879509507062
120,-0.5140130802730114,0.04705723771631839,0.640849139767848,4.16648396507216,1.1454385842458044,2.732104007248877
130,-0.5602485215244354,-0.18240429633741567,0.8190726563366699,2.8087538545539656,-17.318347491523692,-5.036521059187382
140,-0.6119886675205112,-0.11359193502396214,0.803367949337937,20.021433380783716,-36.282527483200994,-16.292201083854806
150,-0.5178869961154501,-0.1899326160018044,0.6606773908289131,28.898196609952596,-47.06923675051102,-31.87965530061984
160,-0.48249241868134873,-0.08157327850946137,0.6064576474444618,29.717286085036996,-48.365759115781835,-54.390051581857925
170,-0.4450551860483026,0.21779219592927432,0.6597060242322105,-18.390702037052154,-47.28509967949618,-37.79057723246
180,-0.3223160439782149,0.19477431761892577,0.5328473277217982,-69.87964894655077,-18.717562715490306,2.6080535703468546
190,-0.373050905722336,0.2042261784327905,0.5674104625645956,-66.01387840332478,-3.0814285304164764,12.060262364260005
200,-0.4509995408595271,0.17225165419022856,0.5903316098110952,-51.321812449448224,7.005946807640852,16.70518538773752
210,-0.5440149492415262,0.07141099866928234,0.6668015573938066,-34.236236598667034,14.666379890050571,18.58777189634838
220,-0.5461671196863732,0.02580631477073015,0.7705949265990321,-18.44586499873588,9.851885028993703,17.155694051429165
230,-0.47646112532803847,-0.016227733759933374,0.6486518627325126,-8.33626343800669,12.273003380766303,14.742572938342393
240,-0.467682860017281,-0.036346260747976374,0.6733540339219121,-1.504862666718723,14.564923623848568,15.481810593654568
250,-0.45823440435075896,-0.006516221209196106,0.6282506926980798,0.6672378121239682,11.079351944817295,10.761570044727824
260,-0.44309646960212873,0.019378737679503634,0.627638189513773,4.129466855495048,14.649832688578593,14.889611800368398
270,-0.456335947598705,-0.0068682923133605335,0.7066719590418884,3.9592175000104026,12.992511786520499,15.804380466455964
280,-0.5203017180588393,-0.08486248729979726,0.6654453252124739,3.3788349452104423,-0.925876554620026,5.878082875184205
290,-0.5184302056907818,-0.047634983214680716,0.6163806010903816,8.392421562583456,-0.6138383671499195,-1.7993219782239966
300,-0.46937852961689835,-0.04418350181231973,0.6808552608730676,7.823424978857175,-1.0235199446654828,-1.0130714232016624
310,-0.48874685544692137,-0.049123655437963265,0.6916522765331119,-5.412313930435568,-3.6143284159346827,-1.295882830705347
320,-0.548750022954962,0.023671337721106363,0.5983152861367225,-7.098163890596441,-13.3599837701882,-10.230015083153354
330,-0.49678774213321175,0.11588129656729401,0.5021063116117119,-11.059415047723418,-17.563898669825146,-18.513704038131113
340,-0.3907472677648053,-0.04968665825785516,0.6616595789134455,-16.051191500085586,-16.04664659986452,-21.669998394940432
350,-0.43900813428507796,0.0320663500009978,0.6624302482418947,1.8295059554097033,-7.856442559964708,-19.938020368394046
360,-0.5106016696773875,-0.05591005376218494,0.6438380697777683,-1.0867185883536021,-0.31330981556071136,-15.141699819646734
370,-0.5637699767256228,-0.03141778562331511,0.5746330950946933,-17.007830372373064,2.506777749138002,-17.215262262334456
380,-0.4918114311525491,0.03318522231403353,0.6664646918651634,-0.35606352725694235,7.023800031035744,-15.907727926914646
390,-0.5134836782674161,0.015079674704608729,0.5861643222044904,1.852540662959975,10.058003113582302,-15.473376239321993
400,-0.39986734034033505,0.023514269848485935,0.7438287780999686,4.850514839355624,4.940786691717246,-15.000561245552545
410,-0.5013700269127377,0.03255541176741198,0.6498536705316944,14.497618642028868,9.047145819385362,-8.319120241953293
420,-0.4712163841629553,-0.029567644610085216,0.6423800257723027,12.738181040314558,12.067823925238399,5.972738813206328
430,-0.5160831022311615,0.13240669407701638,0.6252159489309582,12.84645364887576,14.114683379246985,17.576489838895384
440,-0.3512918948228238,0.10887625991743331,0.8242389019090665,13.203396855013722,8.998847883120504,21.700885615834014
450,-0.5916295247623727,0.19864226121641376,0.5398707813945947,3.4388901786259947,15.825397552688248,28.269798683781392
460,-0.5282137258620427,0.1522528386006301,0.5023648024801154,0.9099582985171957,13.047627567821824,34.23339283854207
470,-0.4576610099822807,0.07135973896124177,0.5573706674130023,11.566751417101722,6.6792716979212345,28.583217455561357
480,-0.4958054719719935,-0.1272628527903416,0.6789102652488093,-7.461905879194846,2.5101098911018864,5.964744308567557
490,-0.5108790794969146,-0.07620802259626072,0.6324121169336709,8.64588492781638,2.091906754745723,-0.6622687555641433
500,-0.5102647211458486,-0.08738036959918319,0.6305369544062956,23.80222566177003,-0.21973725371672737,-4.891483314163855
510,-0.4827056733343332,0.028951965119253992,0.6576141778653173,32.37315768529566,0.5393820522505669,0.4877803530745137
520,-0.4837913550396882,0.00010781279299193047,0.6680537334624046,20.7004445907784,0.3759447742583898,-1.7909139885568137
530,-0.44692795602420904,-0.12587983542108516,0.6709124949327523,18.51888429254434,-3.8267419727617886,-17.149911941867774
540,-0.4514584206747816,-0.06749212043759233,0.6973933507637844,8.585466430524624,-4.73977293457954,-22.977205345608144
550,-0.5967611499328009,0.1523054029018894,0.5296492189654664,17.148652394305813,-0.4818342254336352,-24.089053362083195
560,-0.5797320115228632,0.09190818147303645,0.5564971983469256,41.88437574655953,-1.0160017887707933,-32.7427145778661
570,-0.5981730413636881,0.1897048358097542,0.5766774621243669,18.900756014539727,8.152687017833466,-14.274983991770233
580,-0.5876446750091563,0.054259262831379926,0.5359423821513646,15.695624533656476,7.352978753256197,-19.59574384745374
590,-0.6235680622884123,0.03981509718153083,0.4410309981771536,-2.5877061308589986,14.243772239638261,-10.757558127692484
600,-0.6621251044690123,0.1048112131038189,0.4922926362406373,12.821732628328919,15.113255589898213,-2.5648117218708055
610,-0.386035175248394,0.008028359042227491,0.7968127297195557,27.612142446642782,19.391886163169243,5.594532196454468
620,-0.5169139624172393,0.2038353060304064,0.5959384829861343,26.183037218115608,24.92089568775834,8.282384853352346
630,-0.4435228203956893,0.19753665860603634,0.708670817599835,5.892001879483337,26.22845278407893,19.181767334733138
640,-0.36723050001093593,0.11001919231597067,0.801991982446085,-4.34774120428556,18.12179099515663,22.431441823141515
650,-0.41598003675074025,-0.23029239796576953,0.8729503609315051,-30.596048193755077,11.742998719344829,21.073216302385475
660,-0.45762350911734073,0.19573260719901212,0.6826694812910261,-29.198540037333384,14.202131928104706,38.927806568181396
670,-0.44444853932622563,-0.0651775929590642,0.5980935742187183,-9.114162493693058,-2.958014790001159,37.48807239734254
680,-0.7661959793388318,-0.41516241218994054,0.3724323136484223,-49.04549099390565,-5.567052677826705,22.229622286655104
690,-0.5480540366662071,-0.027701720060457048,0.6120535959172954,-43.29984003104703,-6.854590797057193,13.21228604899765
700,-0.5832913597061947,-0.03153655661553645,0.5856832146249046,1.6214726242631219,-9.467238833459009,-7.1855183135212926
710,-0.5077537520859786,0.022371733418002384,0.6786843709064799,5.014102430660171,-4.46727510920093,-0.47436537226694164
720,-0.539764735539505,0.044534691568986796,0.6087192944917712,10.324664395635917,-0.4241645607831446,5.291710721195308
730,-0.5363418287633429,0.05164747109518621,0.5999059120732859,14.757239813883901,-0.7138680611552417,6.954195690767301
740,-0.502439204918518,0.08853261206651503,0.6348793193574663,7.6105703279992305,-3.6121972555200985,2.3348865753926975
750,-0.5201923010732622,0.07590599793403095,0.6234981272935767,9.812047503065276,1.0989344181773246,3.075306295331199
760,-0.5146500968325487,0.07601121821131823,0.6218579859774103,5.9584267017371255,-0.1325880664956657,-1.2848204772961502
770,-0.5128429367708436,0.07918842466382006,0.6247802916581079,2.6654896134456467,-0.8917822055339393,-2.3734873589931293
780,-0.5196528705198438,0.08423924084709339,0.6274657576914157,0.700292143597629,-1.8208491933929245,-1.609078320315147
790,-0.5094581271226413,0.08685252821018531,0.62815978566334,2.437229623472444,-0.7315129856897016,-0.043746496136038815
800,-0.5134353427750373,0.06961693365959384,0.6216196334377677,0.05682701619758834,-4.651661581846637,-3.6059194682962854
810,-0.5165065676405752,0.07887944196750973,0.6280722177743584,4.851198887829505,-1.5041819733745156,-2.156804389905651
820,-0.5070208792959021,0.09054126428790496,0.6333960365002762,2.1353221855659394,-2.1466620580440052,-3.534633120183374
830,-0.5056266043529679,0.09599931462797678,0.6365925452134953,2.8642561100656168,-0.4504771135808617,-1.7162354226765784
840,-0.5283198523203347,0.06954312428840534,0.6122786180126883,0.35528345353411234,-0.8161691574025944,-1.7662096685670943
850,-0.5227722489056194,0.06667902675108096,0.6196591619456671,3.018005523886218,2.318312101166861,1.5043675661664158
860,-0.5445430444069324,0.05382366089090493,0.5971048276436077,4.452297904270322,0.27915301751507016,1.554364285211377
870,-0.5094935167421829,0.09525839954783998,0.6301348376953035,6.09320556570318,2.9915228370611042,2.816282002883538
880,-0.5587981756238727,0.041603174349728586,0.5857438696813108,2.4169797013298564,0.5043542072189688,0.09285863371180825
890,-0.5254915489435645,0.07844554462539083,0.6127875354629375,-0.6789205771040905,-1.6849991301173264,-1.6726860933502214
900,-0.5291134018156647,0.08025987227255416,0.6092360539236363,-4.04871523190725,-1.9605255995534296,-1.8167868022452505
910,-0.5129579362302236,0.08147585458199592,0.6322607994664488,0.09760023992698375,-0.8664467601462154,0.027136737108390374
920,-0.5420911920878362,0.05746761049007172,0.59533474453307,0.9792344848415279,-0.7986719316802684,0.1569282935718136
930,-0.5297826198571596,0.07123750064172685,0.6106465115438808,-0.5628579088913896,-0.7811800286528457,-0.12201773728909121
940,-0.5299303238138751,0.0686284510341077,0.6113968744717587,-1.533591253969231,-1.3699740338284894,-0.7671576270217628
950,-0.5192981649369759,0.07909608383581859,0.6267108137691889,-0.9136086130162071,-0.22599350319683664,0.04348767334162035
960,-0.5307733856840628,0.06434636358678725,0.6095753829643169,-3.2097992364547716,-2.6792281959643045,-2.0664505436434792
970,-0.5186273314099588,0.0773127945772221,0.6185307111070167,0.8726788993508472,-0.9946595674115978,-0.39473603460932194
980,-0.5086415852015754,0.0927059601374164,0.6269341792099844,0.5211888522345941,-0.7687494074248893,-1.0481059105924495
990,-0.492941850393944,0.11343269662884095,0.6420441726550813,0.3272345919408728,-0.9006722615975192,-1.4618692945925333
1000,-0.5187968297774087,0.07984861261085129,0.6215068946950232,0.0220903311367579,-0.8391377097959156,-1.8829340097778922
1010,-0.535274372519264,0.0601708145335266,0.6053055466631888,0.6957600824283486,-1.4381147952774676,-0.2531498714763265
1020,-0.4993692790537986,0.09873600606978622,0.6395691466973416,1.2582665946711658,-1.6715776339544646,-1.1817987937797714
1030,-0.5193490306350482,0.08115665102757148,0.6220394641111461,-2.8383723182224587,-4.822718360709271,-5.706310397590128
1040,-0.5461400398891719,0.05901032830272751,0.6027612058333086,0.6326645777214639,2.4322610379946905,0.3805627138110812
1050,-0.5270012707889105,0.0717970821864611,0.6182364105121045,0.8193219838096624,1.7072436256454884,1.7870786096812559
1060,-0.5216188739715923,0.07427935300492089,0.62551662700729,1.8522500301494071,0.5160052325295605,2.3554484995880065
1070,-0.5347590097634285,0.06490914917657124,0.6039691228709769,2.306546623527858,1.8181200106592141,2.663100943830032
1080,-0.5276406102089313,0.08007777360385736,0.616347183041779,1.2299114305968841,2.9065907451760453,1.8410092267320906
1090,-0.5345791617911593,0.06042712148203891,0.5999438107211613,-1.9808685281416372,2.0477752120192876,0.7089061974542821
1100,-0.5295647224074024,0.06137956199969268,0.6079031544687047,-2.7191965410276424,-0.9634953154435868,-0.12311682180025718
1110,-0.5207041851512639,0.075277797763677,0.6238393665240298,1.4247880802723325,-0.07248639485819075,1.3853788820732358
1120,-0.4984319746341086,0.09398354786611342,0.6378516534565677,-2.7748788755782337,-1.7253911624215847,-1.560197645931075
1130,-0.5201552443935272,0.08423975516328162,0.6233939289855477,-3.90700522525844,0.07172250645012815,-0.7141514716010542
1140,-0.5082725751455952,0.0903392168235219,0.6340744256366454,-4.843821963384203,-0.7126074076254906,-1.7327159479901355
1150,-0.5401241270701072,0.049149467440687884,0.5929215606086004,0.02758143702728072,-0.885077472921272,-1.0104209438357323
1160,-0.4824674873402015,0.11385214474541017,0.65498359513363,4.186395094965473,2.7852930575105965,2.314535776261799
1170,-0.5076896383358943,0.09116239609488036,0.6330478133970437,0.4478199538629467,0.9617552116088611,-0.1245634690962718
1180,-0.5469892730811093,0.043872908451345914,0.5939227843685883,-0.6721499844006358,-0.4273939581754592,-1.4077465082290825
1190,-0.5172921080310297,0.07795743275956987,0.6260018570409871,-0.049135320321019416,-0.8301919779364343,-1.0249719283054346
1200,-0.5215688404093048,0.0730532175354768,0.6222767371894959,-2.5217892396637427,-2.5211157329531315,-2.0302844336825365
1210,-0.5248065580916038,0.06895373370057366,0.6187216163896249,-2.6409206103810345,-1.713335948867666,-1.4439278430958058
1220,-0.5249934093227939,0.06765104844345,0.619963479568314,2.346677956861179,2.3645238429170004,1.6601764289672127
1230,-0.5051584851656852,0.08814566044129916,0.6390011569183285,-0.5937282336982799,-0.37230310146094797,-1.1540483724004582
1240,-0.5127540975689783,0.0788926712523822,0.623610563288336,-0.2582185799020489,-0.3750038924156661,-0.6636518194442125
1250,-0.5338005879753008,0.05801824609138876,0.601248506063789,-0.383598922816604,-0.16621138794581936,0.5118136852249675
1260,-0.5081308505101594,0.08649817438917336,0.6360490955640451,-0.31460589559450547,-0.09830073399871395,-0.334922461166263
1270,-0.512140401217081,0.08516434149477123,0.6338537954675844,-1.1307168355226909,0.9848679574308836,-0.395818989214627
1280,-0.5319494546514203,0.06356035411930328,0.6088693273544797,-2.1471569059195144,0.7636515027619525,-0.40239664069459924
1290,-0.5078715830229561,0.07486814767922902,0.6272543204808168,4.875875009527961,5.094384889819959,5.259545654524512
1300,-0.5369591650023922,0.06206863371071859,0.6038533889779005,0.24674346718787654,-0.5924346222629854,-0.8599610758642171
1310,-0.5434559559436559,0.05479823009304309,0.6014295658366553,0.43847323979842945,0.33205708005556334,-0.37094110575715666
1320,-0.5124614998290702,0.07506956976578882,0.6260681721491749,-2.838533653706126,-2.1891207373956747,-3.325732256025619
1330,-0.5038809522992599,0.0848103912872778,0.6350198838503698,0.6797023583621046,0.9312460331981453,0.8101316726262997
1340,-0.4976628562103942,0.08845949512290913,0.6383872605504904,2.816266344094122,2.631885693948082,2.585982463216
1350,-0.5050356658279669,0.08665756905277405,0.6333162208065631,-1.529523067508763,0.11127478239845058,-0.4560708868360869
1360,-0.5341692243631043,0.05946240447788499,0.6078612417919615,-1.152871333531703,-0.30201760206990436,-0.6530832183227153
1370,-0.5436231782372583,0.048370250836075414,0.5987305741061516,1.7748320213823685,0.046430229615251006,-0.2901084929497575
1380,-0.5077108644766357,0.08856435672424136,0.6372577893385873,0.28117670678746576,-1.137130668412712,-1.5253153730194688
1390,-0.5141189016877815,0.07968349727685609,0.6279516682632201,0.29005846061917256,0.3919332501234147,-0.15559141962050319
1400,-0.5175872515071992,0.07607838024316378,0.6289658039666006,1.5670956954940547,2.8246009512673105,2.6806939391022615
1410,-0.5227504057176892,0.06931434413850698,0.6222725805198509,1.439232447593234,0.9923944849412719,1.344932451244492
1420,-0.4799359599489871,0.11187528231481576,0.6582112150644343,1.4325833539921258,-0.5049000067606204,0.48056585648598743
