time_ms,ax,ay,az,gx,gy,gz
0,-0.8883032707862007,0.06927570800838989,0.2592525680558869,-0.48637139726992784,-1.1844079183654272,-0.41427769522574687
10,-0.8809400184488012,0.07904588163465519,0.2696571552804291,-1.0200244246560208,-1.3000508021427253,-0.45234414830002323
20,-0.9123333258289886,0.04620044364533042,0.23872374051478618,1.4935143477435289,1.4323625350912166,2.37139128298817
30,-0.8782766683744081,0.08133266246388741,0.27104974216498745,1.0822976543565872,1.4958890766989954,2.4528260985204704
40,-0.8712405625796112,0.08750281445593708,0.276819266576501,0.25274840006060006,0.43954003926998364,1.4656546842076434
50,-0.885664179324378,0.07207159006420528,0.26617911364549834,-0.5132257637521389,-1.223515675014008,0.0483615053383839
60,-0.8974109183738678,0.0679461045009617,0.2635221917795566,-0.9177065731277081,-1.6801050477864081,-0.12006635110783925
70,-0.8730502508999459,0.08460119428380694,0.26971419572394084,1.9527040899122283,1.4285035720922505,2.2206114400915618
80,-0.8904869644676744,0.07222910151316211,0.2573888585636525,1.6134631723336583,1.9310737152156918,2.646467818619744
90,-0.8793677396646782,0.07819445978563022,0.2641502496316591,-0.6199168076838768,-0.6518460649788189,-0.014519992230503709
100,-0.8835422920766576,0.07118460374130199,0.25826136589416626,-1.5526591477501899,-1.911471462983114,-1.1718580353251553
110,-0.8772349299973645,0.08233288501208293,0.2679541731531319,1.2506099908881523,0.9826530775993176,1.9469437988786298
120,-0.8842570967924342,0.08379516743144591,0.26482733011172804,-0.2916844054137393,-0.4589747211167786,0.5962299886909731
130,-0.8823041199026719,0.08897216786383318,0.2698200059285444,0.5199993596933864,-0.0578255533348008,0.7392264786214258
140,-0.8475553113538152,0.11147819663494529,0.29662070398819335,-1.6125687993780629,-2.646826343823285,-2.1391069066082204
150,-0.8627066382398243,0.10078915604414625,0.2751853502814052,-0.36538073735192755,-1.1260148113218704,-0.7488746069595019
160,-0.8716071984321838,0.09630120838078321,0.2777967647681149,-1.998445928493915,-2.533996036537026,-2.4794297454377014
170,-0.8840099049641934,0.0822811369954142,0.2684467375198645,1.5446637463514041,0.8810323663657076,1.1039883376978776
180,-0.9061525216983763,0.055265309797950676,0.23981423612769248,-0.9090218773213667,-1.8468809266485764,-0.9313272593198882
190,-0.9131736641061396,0.04741136285790689,0.23883076645008178,0.29280784075704624,-0.8209244863410546,0.8768363360590159
200,-0.8812536762550537,0.08499298171724118,0.26921616619578687,1.682520758942597,-0.5153351930764201,3.1404499344768433
210,-0.8768486981537389,0.09010894077229482,0.2813462524054159,2.7193446769372986,-2.3635772195724902,4.3897573412277495
220,-0.8907190411213977,0.08520904991404435,0.26376929274657757,6.188995960571711,0.2364237764883561,9.872975307280878
230,-0.8855845515736802,0.08980417754818869,0.27916544214730954,7.246811094544302,-3.164244667288931,11.752901734040458
240,-0.9431720051098367,0.023089363914789853,0.25978117572507803,10.086053637531164,-4.450329312482172,15.169215451221499
250,-0.9397164148031093,-0.007155839426512933,0.3086379985159712,15.824787932494466,-6.172368614915828,10.020970230607045
260,-0.9761020887941652,-0.12821700187488927,0.2687826053404487,24.061031560680753,-24.139173683972846,-25.827541148907287
270,-0.8991419350735278,0.04264783720541037,0.2808574842656099,26.681744695639978,-26.357376549751873,-33.806840964792976
280,-0.87257097521423,0.060723288001607804,0.25743219644983545,31.395788205919914,-26.338557318810167,-28.493421662284
290,-0.7975971876108741,0.12499262608751419,0.28996141068446224,37.479831255641756,-25.314467007234988,-18.23800956170603
300,-0.7793103741788773,0.06137702097426603,0.2584367127388654,40.63115753247725,-21.904257402978853,-10.07857371299999
310,-0.7358631116596922,0.023232566048949205,0.26249028259338464,40.58628495637484,-16.943171459171182,-9.287752049940519
320,-0.7834623385035557,0.025587870539998458,0.2173392162589589,36.2862484212845,-9.979358299055756,-11.864762802847377
330,-0.7605852293650778,0.19629436205411918,0.2847210531947681,14.126453930354172,4.568917563130117,1.9783735444304296
340,-0.7957805481609198,0.17459649878469888,0.2349345067881293,8.6188081583345,11.195750819395565,1.0064475578266843
350,-0.7892726047530292,0.2198853031216812,0.2692549474456006,3.9537959397368327,16.7685934476804,1.6946163572811628
360,-0.7860411299555197,0.2024122509423369,0.2812613455354856,-5.657161051751433,19.257459144276645,1.5237796655454021
370,-0.7869667308925266,0.15352247850349224,0.2863670778993834,-15.49055429027372,20.884213426376846,-0.7261754903599791
380,-0.8468778218771618,0.09519560725087055,0.31597992021494764,-24.391487108563084,18.61905916908637,-8.245672570791804
390,-0.9750725094996118,0.041712910488969836,0.4018307467551864,-23.01780260398664,14.276317710029096,-12.140331905173527
400,-0.8919124322638288,0.00788893615333722,0.3877386331524821,-1.2775783379790382,-12.110864304797452,-12.414807161516926
410,-0.8705594067376287,0.10726058330608643,0.35645636661292096,6.335396518454537,-15.888495121480394,-8.199183405490022
420,-0.9199823123740014,-0.00433219480755517,0.2938450736666928,7.074764376281512,-15.725062011067626,-2.8871297746630438
430,-0.9148711579145113,0.05638902562316956,0.3175789419398177,8.309047226826324,-6.507032208334774,7.0145563961655455
440,-0.8812499780702656,0.04911701688406601,0.34520109698140156,10.691605998733653,-9.010757641748762,0.4861121863503275
450,-0.8031276688109746,-0.041625327444164015,0.334379009954722,21.99956117584012,-16.718008176065116,-11.83316433268384
460,-0.9034514635191988,0.29060848228084063,0.07446864217060929,11.872131903208803,-10.331005656194284,-3.2074518516682855
470,-0.8710508547395746,0.22642846585207482,0.2622594901726439,27.231577047169335,-3.687637435693259,-6.279756916927902
480,-0.7762343093780617,0.0494331738333333,0.19395864963107998,18.00924740257461,-2.3514427624442904,-17.126183539718568
490,-0.8457188062959087,-0.028067062015331132,0.20329107660216877,-3.7480610875863927,2.0762037623820166,-17.375701269691863
500,-0.9279092330148866,0.024933641959992918,0.25919751679209796,-4.150172433795537,7.459019865498272,-6.641737171454115
510,-0.9074210249251191,0.11026664873634769,0.30492119850944205,2.6559735964468913,2.8838262638623755,-4.639709875069642
520,-0.847861345953869,0.09106213370772084,0.29800799714925696,-1.8347581732361793,3.3229327978295586,-7.772760719070195
530,-0.8789562912999399,0.10189003721855378,0.21704834284143468,-11.880236893681044,7.500234113795864,-9.375628911697117
540,-0.9002380642089641,0.11269005360612852,0.007890155582767986,-10.228938566054271,18.84753710125455,6.734310411588032
550,-0.9145793614210446,0.023112514782676615,0.24905139762774403,-12.228260719021439,18.057387375289327,13.912096061909073
560,-0.8852849464455447,-0.023250586474305848,0.40356841946088656,-11.1202727008542,15.872019540599808,13.899927012847034
570,-0.8563727678937276,-0.006216331365610775,0.40592697329088556,-6.054523485973842,9.89828805367744,9.325250452403857
580,-0.8658318382412904,0.05020361389123217,0.362462649399378,-10.110648390802991,1.5153292868596875,4.267747062445945
590,-0.8750088266494942,0.15299022107758398,0.312898534500897,-18.85911245279076,23.866928956341294,25.540265506661797
600,-0.8562541042659919,0.25263440016720407,0.1995941022074565,-20.509122733722435,8.419395635511776,20.426925033781508
610,-0.8096327521454343,0.24137075463045707,0.19564982383628293,9.20362953891553,7.708003757784722,30.17240203749724
620,-0.8918982373258368,-0.04077724045192742,0.25808641702578683,-3.662640209900294,-0.5314699652087853,13.053692514832456
630,-0.9462914464649502,-0.184241467245966,0.29064242097135873,-2.505930975379259,1.249377635927867,4.928091303788812
640,-0.8714326168257349,-0.039361032555229,0.3340878046023496,4.766394281026981,3.3144895620946704,1.4385310029129164
650,-0.8569603893166327,0.07296690825604227,0.3029136140877222,0.6407405237776116,4.479749601235746,-1.1414802446275998
660,-0.864227573606124,0.05880192121800225,0.30743400854633357,4.323336714325433,1.2198467307986196,2.4625307348003456
670,-0.8735426336276996,0.044278482159137524,0.34271971973744314,11.390008084980428,-3.7858074524017873,2.030998562337617
680,-0.8775120318125206,0.09941105437474292,0.2599290831540364,10.132635609357335,-3.443406629566202,-6.0915359113741605
690,-0.8496303727736952,-0.11260995625631615,0.23149210343645327,5.38443543118971,-5.995629153997616,-20.296554222766538
700,-0.8451596745090825,-0.1906854446298396,0.295468803395128,8.17059540534656,-3.8333804009725636,-24.11076094864255
710,-0.9142955815865652,-0.04164832187606962,0.29149240344364435,11.45988840538046,0.9487037564647112,-20.917327000611607
720,-0.8872897407185731,0.11087676660633483,0.19227080822429304,11.811253594320801,9.288257561721558,-15.668443215996389
730,-0.8645018605422403,0.14884879994775946,0.20921298810830052,15.266736218148264,2.8812396575605677,-4.288287904611476
740,-0.8870907299748073,0.0592755839541901,0.28360336841411654,17.315784597669815,5.1122063255672145,1.6556020701182677
750,-0.8759475542775271,0.05350073536909692,0.2595117239728169,11.600087336549793,15.998183498466407,-0.8150916910058288
760,-0.9098446670691537,0.038270970424866824,0.18038233636520365,6.820956384831854,14.861913201829125,-5.117695585607402
770,-0.9392922384247555,0.05703702248628466,0.133358994267363,10.193447527640165,18.05214915537868,1.4579382275384496
780,-0.8912765753202867,0.15459766538938688,0.22714558062588355,7.384133677435062,21.491530522345563,6.406180629212357
790,-0.8747988902570869,0.1556229484263713,0.4584919946831784,5.737074378810528,12.551398656340929,8.416874496249376
800,-0.9164129284394708,0.15640982880163617,0.5741989950724669,-24.92998110967355,21.015401119561787,8.379573636156866
810,-0.817807251499195,0.3285413403996971,0.24872049433272844,-37.62827009880433,17.037292790495666,13.9699118501156
820,-0.8917681443908493,0.010441568517386148,0.231125433747503,-11.186512129363386,6.63906227966218,14.994318035169442
830,-0.932190430267427,-0.24522500231860794,0.29615549687351955,2.433215616769187,-2.363808305832703,5.025508911376734
840,-0.9428095682986418,-0.15876205259032636,0.18347109117468163,-3.6927700761975135,-2.1383127193585447,0.37406196870699593
850,-0.8246464833260538,0.2923254902840277,0.16498819025838618,-9.629982418854224,-4.496793978397549,5.578842466272395
860,-0.7712738965615362,0.3252788115979852,0.26602910637307253,0.05842380656119039,-7.095540449984252,5.9872643982878655
870,-0.9132867827990533,0.015024519029184481,0.25113745752912864,-8.776797451614566,-1.6357757220251412,-6.411618470594116
880,-0.9204939683064256,0.009021587296869134,0.2419511340917361,-2.669445829797724,-1.5619436642639255,-8.429757437559042
890,-0.9029808333227153,0.051257738018799404,0.23782937899552448,4.4246512549458785,0.0908670228995272,2.0720284159567277
900,-0.877298308480281,0.08565061838436523,0.25729513140537597,9.333720241807875,3.62800310307069,12.810878838797999
910,-0.9031859577967645,0.05981037432126933,0.23285823670742675,7.715448979793997,1.4731603723122322,10.647474100009289
920,-0.8678944162620138,0.09509554789014638,0.2628408037669895,8.74455109844927,1.479992097683683,9.908376708347424
930,-0.8963739178593525,0.08121650192380737,0.25174815410218343,6.6113815033402785,1.55163871696238,8.138029567201306
940,-0.9013247973201108,0.07551847463103957,0.24780498766211073,6.504338357121046,-0.9867538692366478,6.167503359431551
950,-0.8673368619505775,0.10429406357786886,0.2684933453213071,12.013674871503085,1.514981698882616,9.17246742420801
960,-0.8753597386295965,0.10542008164151723,0.2693588054588196,11.329304880241498,5.066812074175555,9.994893248517169
970,-0.9186825129430604,0.06964461252305526,0.2384018045451536,3.413130556118023,3.477511596203009,5.253225421667269
980,-0.8988291955257157,0.08152512838103064,0.244032335762212,7.653577324600912,8.926151491878839,10.966196495551149
990,-0.9037890834706428,0.09135825824090997,0.22760562177377708,4.141890819542557,8.489263450270183,11.732751677744773
1000,-0.902688457310653,0.10580759600901984,0.23275523528640651,2.9942695358286007,6.363676449508221,11.895811609280468
1010,-0.8713426678444727,0.1267467280321571,0.24793430097584845,-0.8678347416366452,3.5315514968569603,10.34934639311846
1020,-0.8747006273926139,0.11909514373716856,0.24763809748127286,-1.3873707502308585,4.749787885010936,11.835596169302653
1030,-0.8789348050647672,0.11418882380146443,0.23094489766009796,-4.941401337929648,-0.26553028004754387,7.836768874754235
1040,-0.8535333284493255,0.1431419269621837,0.24300551314235147,-2.118330713831359,0.3808137841869809,10.431604754403063
1050,-0.8996724242882694,0.10636756866582103,0.2323489578628878,-1.626473976935336,3.243470031907929,15.48412340985396
1060,-0.8707760384721619,0.10562467393133783,0.24889036094062636,1.3118494490221233,0.30380377347894805,19.565205658066265
1070,-0.8518821716292325,0.18349340044061463,0.28524801171443964,3.420455168294618,1.8482663265459833,23.049143444503674
1080,-0.8951620611172912,0.1640818258542961,0.23522335947920933,-3.3856970791083176,2.5789772151517365,17.002878236986152
1090,-0.8837335743807732,0.1794873984508124,0.24448644688658244,-20.01203364593069,-3.114274907791449,1.762293869984301
1100,-0.9018094062448481,0.1399040091551729,0.22557709531342252,-17.47965647765197,-7.613326334257323,-4.719965386267121
1110,-0.8687525277354661,0.1428558856653658,0.2593887645844138,3.4535239656906804,-10.423141958859265,-0.9780466223802334
1120,-0.8762286506638817,0.15504308226019312,0.27930120224294697,0.7449934387716416,-10.313721698919556,-0.73271593342762
1130,-0.8860715059805812,0.10935270315340341,0.24186624874439144,-8.32348727088731,-10.23605604455025,-4.097580856948248
1140,-0.9005577313136881,0.10373217355823595,0.2333450245237966,-6.2641085102483345,-8.509100177310442,-2.5034043969208555
1150,-0.8692837695729637,0.14936865647374745,0.2673188677126913,-3.3437818670763484,-6.418994440968487,-2.0129988779878625
1160,-0.878583309006546,0.1351299263102862,0.25510552264623676,-5.313732157299142,-9.012654605665654,-8.14432552830227
1170,-0.8832919350646026,0.1102876759351645,0.25239592932697114,-2.264434864679735,-4.511466581356803,-7.381382517337769
1180,-0.8839187478517309,0.0958362802039575,0.26305759292237485,-0.4758090882741879,1.0681081144313573,-3.019014438188147
1190,-0.893890454518775,0.08767432573672566,0.24712831007314381,6.119911142481526,4.527881870974503,3.937205481946142
1200,-0.8799118587278605,0.10535963915777626,0.2520412698211419,5.095606011725281,-0.08279197503347885,3.4148084497639735
1210,-0.8795670063319969,0.10914441873407585,0.2521768609486539,6.334758283007588,-0.5624151879403292,6.0056788434016415
1220,-0.882109987241787,0.11855607325765397,0.25643307004704285,4.49548297198896,-2.4162884765029506,5.5327913348071
1230,-0.854902234843293,0.15576155539658515,0.2933366723672646,2.960266908214272,-2.164745021977869,5.480285626427739
1240,-0.8943971248913097,0.11572218595147074,0.2574775292877013,-0.9094854166324317,-1.710539150892853,2.640839734645344
1250,-0.8849387085158064,0.11800789744496401,0.2565495454459399,-6.345663583770813,-0.7264631245062583,-3.709932939528562
1260,-0.8674014249916977,0.13180815644576513,0.2739147938141591,0.27881289735592185,3.1790248955208673,0.18447854678778652
1270,-0.8618284569468073,0.13705675298317607,0.27944631605982,-0.5543533053298703,0.22146804016376448,-1.3001751581980172
1280,-0.8660482353347994,0.13903748622936413,0.2768633227086139,-2.0685374980469415,-1.6306910558399812,-2.9139848205990004
1290,-0.8883341975810676,0.1174402878456602,0.25849814456196135,-1.4871011955159843,-0.04778583873107922,-1.924399323905376
1300,-0.868715372170197,0.1297765784426926,0.2760818574991575,-4.329064456516517,-2.9716485706307982,-5.121120773330851
1310,-0.8703961147713593,0.12233194221736898,0.26915821158771464,-2.4815564660883482,-3.137155533477075,-4.571874176141658
1320,-0.8851981229768725,0.11955181503044168,0.27550712269626143,3.334129208930542,2.8568639815463728,2.307564719750896
1330,-0.8591748513385138,0.1438277951273058,0.2803138302103809,0.3058805916786951,1.9892694959237107,1.3383377585815024
1340,-0.8806961269427293,0.12099812900299513,0.260832144694093,-2.478076019923288,-1.5100811756848183,-1.8457712233436454
1350,-0.8862959539504252,0.11291342606409761,0.2518979893247143,1.9764631380562445,2.05993318146128,2.582528891458872
1360,-0.8709803521758108,0.12574362067096861,0.26164067095105564,-0.5390595886529939,-1.145240984283712,0.3946546606514201
1370,-0.8782628363815105,0.11642298508206307,0.255818790278067,-0.28592294725089595,-1.6865524260928095,0.7711545085751423
1380,-0.9185322491486394,0.07494377535085556,0.2261647106935805,-0.5006464694098685,-2.2642702855976955,0.3020679314290613
1390,-0.8698954419103622,0.12852890245963874,0.2778494185265596,-2.4560052671794166,-0.19129112830838252,-1.6951338309879547
1400,-0.8806001725960881,0.12069888408132992,0.26431500018454307,-2.4857752502236385,0.487169245446682,-1.948515487477588
1410,-0.8776731673306832,0.12261610371797418,0.26417670348914946,-4.403254398049576,-2.463000817647252,-4.766581952217814
1420,-0.901031382503177,0.09623626437710915,0.23941891676932478,-2.923915716109632,-1.913722825858284,-3.2578381156053804
1430,-0.8929433412329829,0.09968520530224041,0.24722199648860918,-2.3699929853215504,-2.4160209006867133,-2.705124455779816
1440,-0.891065288079923,0.09880707027592617,0.2509360832689078,2.6297166496574507,1.179088720160479,1.4964780987330586
1450,-0.9004134025314139,0.0952090275280528,0.24818816001123048,5.483939964366655,3.555442382622621,4.212559779805142
1460,-0.8639089643251585,0.13050960671341635,0.27805434244305877,-0.4992720908538066,-0.49372065952979194,0.927232337947423
1470,-0.874954925681726,0.1294586705756093,0.27257610053318604,1.4021582113873614,1.0348353830804304,1.914348062446026
1480,-0.9009530681740029,0.10186991359662968,0.2507963931547031,3.8075839686427484,2.728044665833443,2.249642013091063
1490,-0.9053825657742727,0.09212545351239868,0.242821458280141,1.1461204054646843,-0.79525687278561,-2.822301394991732
1500,-0.8662018610290121,0.1277594292644884,0.27740163078982066,-0.0768507519083601,-2.8761790057820793,-6.156198605713767
1510,-0.869537718358261,0.12286051156472252,0.2768856313192121,3.5802973783797536,0.0035043019690887967,-3.986968209362823
1520,-0.8707883989487453,0.12276531432339986,0.2763027616455076,3.617687147364117,-1.1253007269173239,-5.230742533735373
1530,-0.8678183149732986,0.11873343926323575,0.27769877698309986,1.9038159458696409,-1.8509617557889828,-2.041854250413477
1540,-0.8721083388374934,0.1140376231933849,0.27069750078995297,3.1483052964245326,-0.9871023641834005,0.5018684040952285
1550,-0.8848065016707982,0.11254228251434498,0.26415911858863894,5.12153222703197,0.8208100724157743,2.5904684013469934
1560,-0.8714106207495762,0.13164189221736453,0.2798876448031582,4.567347850854069,1.1061179917814277,2.4229738257436417
1570,-0.8881943892981011,0.10988193931553257,0.2584020393154065,1.6022476400478567,0.21950866601315877,0.8047204713928441
1580,-0.8775764203618442,0.1195334002939243,0.26986904871663686,-2.0499516069644286,-0.4936542293327039,-0.7486544548270684
1590,-0.902756378853946,0.0984166604854288,0.24246636149559697,-2.402651189311123,1.1412971672405716,-0.34826476202660195
1600,-0.9018280793264558,0.09070151294404225,0.24291027344875607,-3.7367649891029817,-1.8853423946073766,-4.499746741444653
1610,-0.8784887137153294,0.10625125380877487,0.2676195564550781,-0.6577552677992806,0.5718581395589717,-1.495880303740167
1620,-0.8906557153947006,0.0923905371022852,0.2612045091179145,-3.3014541719015043,-2.6780321201648287,-4.047090908499452
1630,-0.8795203246065525,0.10598679223280925,0.2741863965261515,1.2464194120299557,1.3894062837351515,0.4445645262270699
1640,-0.873080792523926,0.11446015510588006,0.2746973855242943,1.204229397408763,1.4766747091945385,0.946066952163608
1650,-0.8706410478946349,0.11676651740904272,0.277465604803373,2.525203318252864,2.9913215988544657,2.897348752267493
1660,-0.866004202277538,0.12486713737838234,0.2763234751017317,0.3666646989692416,1.0225608419163397,1.1742700527316545
1670,-0.8680417057855173,0.11646628619496434,0.2806943153083497,-0.3976532478007301,0.3941134445344229,0.5747903834499745
1680,-0.8880232072728936,0.09841741629056666,0.26231038398076517,1.149434520510476,1.7673394499775625,2.6556880162244996
1690,-0.8926208296128924,0.09640578500620793,0.2547769595461809,1.0439016102439185,0.7095174934255095,2.9760165646995964
1700,-0.8521614586601816,0.13632037903528538,0.2937468284048728,1.015541517004537,-0.005213629674822459,3.044911308402734
1710,-0.8952618356657674,0.09449551523768003,0.25566706911439036,-0.36224877790570864,-0.41231023971140573,1.5281261336613983
1720,-0.8886577829975173,0.10868111334948746,0.27089722589281473,1.2553165359422331,1.834593092919481,2.340258057960866
1730,-0.8715386220381383,0.12304040865271665,0.27631470629607724,-1.8819374813022312,-1.0985076569505057,-1.8767048801471995
1740,-0.8682011354107299,0.11541958465216862,0.2779922783562996,1.7389564750630542,1.9006071331047676,1.007084455455018
1750,-0.8854561777614645,0.09889049942566494,0.257095683764077,1.3024626295672057,0.3917381415449863,0.6338766726838889
1760,-0.8710582988559568,0.11666912117974124,0.2706452690014144,-2.415909521124702,-3.369980934815338,-2.437443330178075
1770,-0.8783403101625477,0.10816711359135256,0.2717228037814904,-1.392124552045321,-1.8299559228113296,-1.1727771812606742
1780,-0.8871548850188278,0.10414719543712679,0.2741357405004716,3.022964650770878,0.8219212696775057,1.976513228003226
1790,-0.8831025468336016,0.10873106066008772,0.25409564912264543,3.1357897110313404,1.3016338804952046,2.130175778646011
1800,-0.8857661296564564,0.10814782493423525,0.2597911521408837,-0.4181882140229397,0.25988245535022403,-0.3959129292085114
1810,-0.8691271840772713,0.12495430004710625,0.2805662404301483,0.5813332551563211,1.277664295295527,0.5950717197565114
1820,-0.871872951004347,0.12157721926610901,0.2797523589029181,-1.7917912742887354,-1.1362957683202743,-1.557901443063654
1830,-0.9047770001972528,0.08647693279810127,0.24555707682972389,0.7059473425930671,2.209634481192281,1.6839378146569652
1840,-0.9053546917960257,0.08198156649167485,0.2394946406519194,-4.615186689100886,-1.9995188500586485,-2.9205355416768715
1850,-0.893275688170443,0.09346845724851247,0.25347452607731114,-4.575061250306607,-0.755990791449317,-2.314633391189795
1860,-0.8841434267682925,0.1037908450508427,0.2673699661317615,-5.76546595256743,-1.3184802815201095,-2.24927691335363
1870,-0.8637401297083743,0.1161867010013054,0.2795995616881517,-3.322619096294952,0.037350064922884396,0.306292856999263
1880,-0.8742499201976919,0.10976826699003485,0.2694451227500147,1.195441515263568,0.6967223501220503,2.724610809761905
1890,-0.8894998991885348,0.10233598695886015,0.2577915248312603,1.4772251480572185,-0.8951237047115035,1.2396165698169839
1900,-0.8809395724188174,0.11466430563607373,0.26523413472583457,0.34612562327399476,-0.5718521006121431,-0.3167367339214855
1910,-0.8576889413226574,0.14007909060323145,0.28385732948766274,0.06824584110195664,0.43497175245600017,-1.1606719780801535
1920,-0.8757997443860938,0.12177804314440346,0.27173731587258027,-1.727361377615472,0.2640640273312492,-3.138919609571799
1930,-0.8661656029329234,0.12158289840400194,0.28680514898872506,0.8975708781754306,1.4471909252272146,-1.0817879075727446
1940,-0.8848626225943741,0.10425412168656205,0.26144003481180783,-0.37515561631351546,-1.0216784014971443,-2.431352102585571
1950,-0.8813858728179516,0.11219172821581865,0.2697694853733761,0.5894933905873931,0.01994127599763254,-0.3812427940641038
1960,-0.8662902459935868,0.12825020637649845,0.29176820982333923,-1.4627919292288025,-0.7694911668033596,-0.6519883131754258
1970,-0.870963948045547,0.11824634079575713,0.2809642116886412,-0.8071155180784978,0.825834807406541,0.9254231764359825
1980,-0.8569126574876457,0.12304950067807346,0.28552979150905367,-2.8057141034565083,-2.9413258041686827,-2.8334565775197893
1990,-0.8944509275050598,0.10170833307238461,0.25839753954422956,1.1931071101358732,1.2001211821611402,0.9600630301340359
2000,-0.8763167524766642,0.1156260675365046,0.27091904375305725,-1.0761592280866954,-0.35047228471855163,-0.40720268222281514
2010,-0.8695664036292388,0.11170033876826695,0.27146402633438754,1.0733223639902705,1.4582581562144665,1.8288139083831472
2020,-0.9056885328566163,0.07988180852530011,0.23804107629303825,3.024772256495435,2.8626549865773976,3.5566993031370453
2030,-0.8933620735979285,0.1037226088152937,0.25778062777476884,-0.12344909395463083,-0.22337511562815204,0.2772113824960315
2040,-0.8929262184075281,0.10058571604963283,0.259721902550598,-1.1059263119582905,-0.5073011884223679,-0.8679445230735703
2050,-0.8904670897014161,0.09736345896721013,0.2601273532711343,0.3010843554065389,1.379437178602797,0.18434265855877352
2060,-0.8823592428802767,0.11241504952588775,0.2739733501331986,2.782957075626698,3.0697814706846533,1.5822651096589884
2070,-0.9035686832860623,0.08772226173271208,0.25230290134995964,-3.158361186112517,-2.7147679027951868,-3.9387187710623293
2080,-0.8727647339657956,0.11582729424687767,0.2765925336376078,-0.7858050627224253,0.4209526736533251,-0.2781557802774124
2090,-0.8709093345324463,0.11829701021222638,0.2724724046012144,-1.3539126981918153,0.21357085707486653,-0.14168387339111493
2100,-0.9017715382120145,0.08771396854265211,0.24051782612733014,-1.5992371670626198,-0.4551810657715701,-0.7390537974914998
2110,-0.88759327111687,0.09724447896533629,0.25663248172527553,-2.4297844472155177,-1.7883226258673877,-1.9613991500089636
2120,-0.8689787245351479,0.11534781697031475,0.2795955319376469,2.097494646577656,2.411174915295809,1.8451457904582798
2130,-0.8812456673545997,0.1039840270481047,0.2687788624857959,-0.31618605994203364,-0.8346301439751521,-1.0553683224781945
2140,-0.8765587340155343,0.11048091585985688,0.27263097675942577,0.6661653204922083,0.7120285279611345,0.5061704243366595
2150,-0.8661111128585292,0.12135067721354777,0.27835111027375686,-0.06085859936592597,0.5300504862145423,0.28269928390697907
2160,-0.8907648114719828,0.09701608458736241,0.25391063507981604,0.9225208409845127,2.142528493171168,1.5940802068877253
2170,-0.8871125183851777,0.10229134283535085,0.2665530025938796,-1.3305725657663954,0.6701009136154596,-0.3186195778583463
2180,-0.8766531037671595,0.11199714834834382,0.2744691961276991,-2.0169188887787692,-1.59624207815183,-1.6017657572855832
2190,-0.9012303682226511,0.07989529851974495,0.2424991087418886,4.4918974285972,3.151301147172487,4.344537083187149
2200,-0.8614558827573952,0.12572533812975345,0.2806195139991846,2.384616448917347,0.6950110162611909,2.2053482792733634
2210,-0.8433698143662594,0.15520726335161605,0.30328822499406993,3.035326080035702,2.7806059278694537,2.8681163570407886
2220,-0.9037295004611181,0.09707320604481248,0.24781211551205384,-0.4612063925482688,0.76531789994401,-1.0745135740928857
2230,-0.8935932796530064,0.09879435508768322,0.25904133839995397,-2.9722337179365503,-1.6581769747829098,-4.258683849846447
2240,-0.8701128921886476,0.11548164123585619,0.28070851125602087,-0.2438927192384524,-0.2745138580838323,-1.7316563022243194
2250,-0.9097522446654807,0.07666425620912729,0.2413731516759876,-0.29790147441134174,-1.4629877952037296,-1.9522247074644627
2260,-0.87820477508126,0.10981456033489617,0.27937639686582416,3.8734835575922784,2.257500685444437,2.5624334924123295
2270,-0.8709898943715823,0.115907776969541,0.2810360016251804,0.3764699631307291,-1.1300549834353069,-0.354277339044031
2280,-0.9010105856097862,0.08641924211099042,0.25105904752249486,0.7006025691961906,-0.3952194846986554,0.21800256828031206
2290,-0.8798598994232871,0.10980296972690871,0.27287719057512266,1.4306041164961378,1.027875727434287,0.928647171179062
2300,-0.871021543896904,0.11769931792512302,0.2766137921887958,-4.543104119755649,-4.289554322548523,-5.0950507525773165
2310,-0.8954390827014714,0.08361062788681824,0.25172315676821866,-3.3363941224354217,-3.3039048827260813,-3.980038527885638
2320,-0.8864575837386467,0.10153833943505973,0.2667594841817101,3.561958237851799,3.1182038936071867,2.952514657517196
2330,-0.8617663020776526,0.1251561327671877,0.29421694808083754,1.720067892652555,1.5719980747517488,1.5426442564115734
2340,-0.8706703272839724,0.11758923782431305,0.2856752421358813,1.369562517816279,2.2154804162633663,1.6520654682207274
2350,-0.8736172788211326,0.11453817079027388,0.27930155708193294,-2.019625218894917,-0.4009414352264302,-1.4115182062920053
2360,-0.8760033463396655,0.1092491559873215,0.272551528083332,0.9692162359701606,2.7624522795215976,1.5719858905693285
2370,-0.8607918366553045,0.12275808406911885,0.28853530807767835,-2.6339141525166836,-1.076010181200688,-2.3596774469628388
2380,-0.8775814863202677,0.11204895678427236,0.2823907350360343,-0.7275193622180445,0.3197189212867069,-0.4297031493419063
