time_ms,ax,ay,az,gx,gy,gz
0,-0.7434677473772012,0.39360618703029193,0.6660778461207002,0.7008569682125702,0.582654407020224,0.6006512456755673
10,-0.7512447204047543,0.3895371780854267,0.6583140416419582,0.2105755365871661,0.977337999073431,-0.4623207968709998
20,-0.7406091612461376,0.4026984345983305,0.6780027520285812,-0.9204263904393404,-0.3926981468451792,-1.7530791697901222
30,-0.7397255906005282,0.3988308232348698,0.6741384789616607,-1.9020772498051832,-0.9704536615709362,-1.9767216074945178
40,-0.7615459478827727,0.3778053071704115,0.6533557495438375,-0.45571173948249055,-0.601536182873807,-0.36503054025072873
50,-0.7574358387940656,0.378866749017169,0.657654394852536,2.3274930603777624,2.403785605224279,1.894972286029676
60,-0.7507826122603539,0.3903850991057827,0.658185876759926,1.535328575036079,1.202026270909601,0.5624503535712666
70,-0.7440364747033845,0.3948691342306878,0.663451901883045,1.3731736634700975,0.6357643189786206,-0.34239649182092624
80,-0.7596215002562727,0.3713754877931887,0.647237821356501,-0.4535290112339998,-0.3845813391410831,-0.6878465226211783
90,-0.7462747509398905,0.39176513430748927,0.6682236511394882,-0.5500761823699242,-0.6910591365763332,-0.7478343730752133
100,-0.7699452735395548,0.36387492356615686,0.6445534007141979,1.2723133273941385,-0.2253919763218059,1.2563346350764744
110,-0.7371260065145907,0.4040386082443798,0.671241329120807,0.015908066519885078,-1.0463666395728597,0.10872658303465765
120,-0.7531224576929402,0.3832264309481817,0.6591511580746875,2.3287491808791954,1.5210734648106563,2.287356001404456
130,-0.762694579801678,0.3744688945859056,0.6539202904545609,3.654538691243997,2.0575491306806453,4.243095721286044
140,-0.7615437746802137,0.3714269334965873,0.6593457622017839,3.6505110353457972,0.23218712018825077,5.363922038677632
150,-0.7893724243174955,0.40830044798737264,0.6339764510685424,6.823705038599521,2.583284608565289,7.385530418699529
160,-0.9393222789572385,0.4855312569469379,0.6104966890883422,3.396753363241489,4.6184038869136375,-1.7849279536558122
170,-1.051007188364931,0.43394431641004894,0.7933266608708796,9.548848942859602,-1.0327412634514825,5.740166200663484
180,-0.9932044408744436,0.5090054853675579,0.7350502109452859,12.910790757564813,-21.179311959598692,20.33962254776354
190,-0.8590626128946937,0.5050718217878216,0.6947739170106945,16.739846734059523,-28.427625539654606,34.04610155191945
200,-0.6702586830581022,0.4982245902774113,0.5984586691228416,10.029367182706066,-31.131757847311523,37.76908378785239
210,-0.5936576483720883,0.45419356104295194,0.5845931058992263,-5.314378957790771,-12.613084865230455,27.661052061526018
220,-0.6393196304512416,0.4251160710423545,0.6659092650947437,-21.625133471621552,11.587197356202587,11.338201278812075
230,-0.7046504356064943,0.4194210193180557,0.6907419917106874,-19.348332448384777,19.22349890478731,14.023680718361701
240,-0.7109028335067095,0.5077803513043139,0.7313819372896359,-26.006693873949086,15.013768511172216,9.547706153811006
250,-0.7417556731085394,0.467455913341091,0.6780871480026619,-19.570815471453773,17.559089035517417,15.716172207954568
260,-0.6994319359333196,0.4140861221060414,0.631538997263165,-17.401819416062953,22.47279119090543,15.89959161694499
270,-0.722434703226207,0.40939425372329263,0.6123443931705959,-15.676108067501255,23.774791192257574,2.4083164941690267
280,-0.772819706759264,0.40259977119488694,0.4955295677925644,1.0075649761761638,14.465390484780563,-5.459956590042089
290,-0.7211425829442534,0.415385327641079,0.5222238695984838,2.8093884186857636,0.4202817065972442,-8.994730284667378
300,-0.7661532220667726,0.42167033899684453,0.6356320765867134,-1.2506367669720604,0.8380949108184366,-4.456160114309761
310,-0.7829878115663265,0.41577576267904814,0.6270002077166703,-0.28905029856332076,-4.187514969314348,0.9093347542352495
320,-0.763279813010572,0.4176619369436316,0.6432325136037754,2.142178783474423,-4.104891205461344,2.484297156581348
330,-0.6766610463471747,0.3082878860632922,0.698308550137454,-3.594743319942071,0.9729991856041263,-6.5829055547910365
340,-0.5915145033715905,0.23098590829354237,0.7969911887951404,6.798831419605295,-0.8445748316948462,-19.930270916960353
350,-0.66348803729239,0.5110622957338912,0.9195801756973334,23.707799409444462,5.596907169487895,-21.60527291332066
360,-1.0821455253318566,0.6572556215511289,0.8036305957984202,52.35650824749187,18.939035449688994,-23.3647759897362
370,-0.8302250368227082,0.6338989720449719,0.5604566100769943,52.2687341849425,14.74615078066647,-23.85703280345704
380,-0.731270462400004,0.7818194542144026,0.4527237507718661,31.9814784394271,14.497903234990524,-18.485723496645605
390,-0.8680730485936367,0.7283367383114477,0.4033478254022444,10.368396435464692,18.927254097357714,-17.3083265361523
400,-0.7751706151812844,0.5099712336994479,1.122575799101907,-20.330968578289557,28.122409630560767,-1.6039693464940732
410,-0.7738896624956237,0.5296741417139309,1.0061755128812528,-11.789674706135047,20.05209236383562,8.174349638481953
420,-0.8234933558416098,0.37081670339054995,0.606004616137703,-15.24612571281929,8.913616010975465,11.51517834768911
430,-0.7860248432738377,0.5376897195972805,0.5598668260385213,-4.4759312844584915,3.6319370608213744,10.931155228277824
440,-0.7523961317405005,0.37966061920968325,0.5962328623696207,-0.1019358490040047,0.32441577796445326,4.5764848011219685
450,-0.7646690622796715,0.3484940556972936,0.6166601418444357,-0.7687932760996339,-2.804587965872898,2.770842213744702
460,-0.7589117092090344,0.34765239360233896,0.6364314825461423,2.398695133864512,-1.0667025938857368,5.256834597312644
470,-0.7550824863290965,0.41315047152829887,0.6474853172814737,-1.9252966126975788,-6.1368232524293775,-2.8628355889616834
480,-0.9713695044112464,0.5234337842755342,0.5470848882865453,16.01686127827973,0.7351316333335289,-7.618572089407896
490,-0.7907494313332992,0.5187632818574439,0.7227760705111597,25.684801260182507,13.877157857036412,-11.888669937430176
500,-0.6657916503329753,0.43121657231638805,0.270308116538759,12.124773421755183,15.642900561560984,-19.3602995548526
510,-0.7877387616660992,0.47354262555614657,0.4375142892412689,2.790302185159323,12.827678397698081,-11.081128236959884
520,-0.8269435464863909,0.5155482276463308,0.4235127400054163,0.589000175331524,18.169870355570964,-12.124254368927241
530,-0.8017210311045132,0.5633862105546887,0.4987687260095828,2.1086693629345357,23.792333053728637,-4.5706003473213945
540,-0.7543739692778187,0.49417757088111064,0.604919360543801,-5.9091855546131855,6.737683495311366,-17.58637671006977
550,-0.8248406101828364,0.3947043108583521,0.6410275710841381,-16.409931277871532,10.976349794268238,-5.489498919651048
560,-0.847543756390952,0.5294775498529084,0.5608586162266798,-19.60765788692957,9.731882916505823,12.17396686129417
570,-0.7728581022424654,0.9373379514910026,0.6995500475966845,5.960246748487849,-5.623342445754761,34.25887300992354
580,-0.6887386162124695,0.3115023244662036,0.741390091901977,8.10764472698651,-7.077072854835953,5.619639270536502
590,-0.7714814570928482,0.34319301487577675,0.5944677137475286,7.3243253732364195,-0.520921579632516,8.08620524082449
600,-0.8231615703694012,0.42308760079097296,0.5535938227531886,2.2115926815700635,-8.370436023735984,16.918294704874636
610,-0.7981319018787407,0.3931314886091823,0.5481329627609106,-1.8269546159783818,-2.8277419265556585,1.6484454688066954
620,-0.8125506650698655,0.41788763637749216,0.571019503055818,1.7529305628930896,-0.1362955876148791,1.141840115095147
630,-0.7957717023047464,0.42192214802870387,0.5863244329556827,5.783761645892712,-2.2024217303665012,3.2767754690686073
640,-0.7964009196341467,0.4331843604798863,0.5839948673049586,6.6766232405552435,-1.5102314329776876,4.6095282390610315
650,-0.7838753550007158,0.4709349673140371,0.5998194733766926,5.299566030757429,2.370006891900159,4.876846200338343
660,-0.7942763893672061,0.4527260836806509,0.5842204051133238,-3.318922284863458,-0.5629113899287805,-3.9518910302988792
670,-0.814827825793529,0.42369398545246323,0.5721951103672542,-0.7658950626597045,2.0197966662399702,-2.609379854874674
680,-0.7795134835004114,0.45000804654195725,0.5958873837929495,-0.8975081773339204,1.2483754103357774,-2.8942163906102163
690,-0.7639632880746037,0.4732040213711956,0.6145349124092884,-1.7376267934976182,-1.3931486124292167,-3.7070191238037085
700,-0.7892489309203924,0.4438432608721195,0.5923349223436918,-2.160836469425254,-1.5478736753594218,-3.2275856559937046
710,-0.7845972922485763,0.4450442292523285,0.5983368588539791,0.5220328686514574,1.0913489792126618,-0.209342704301144
720,-0.7947051703159702,0.4273044556409925,0.5895318381797192,0.6402439327013626,-0.48234110443814127,-0.9064223398576601
730,-0.781466925798004,0.450193370327406,0.6045957967465921,1.7089281389413788,0.7661193714702672,0.5234032871488441
740,-0.8002018241361769,0.4704704010765029,0.5895024719466688,-3.656341342700571,-2.7224257394373597,0.685474973737985
750,-0.8257784988541949,0.5355866752837303,0.5844451710782056,-7.250125022148582,-11.190254592309024,7.518898876064585
760,-0.7874665025552514,0.3736414893459889,0.5947982795319667,-12.515621252533336,-3.041799613446978,0.52042312288001
770,-0.7747299633005335,0.1823246848628028,0.5723984672136719,-13.006262136073754,-4.387362370254109,8.44331310634413
780,-0.792363112484718,0.4078017689595476,0.598681132776063,1.6783575113041707,-0.05470863032010964,-0.4960918352012006
790,-0.7680821338137547,0.48167081043479626,0.6171998642467167,-1.8886569264622035,-1.4467445849376261,0.19084272126724122
800,-0.7927298610138779,0.4381349780680416,0.5999843522404684,-1.2971412980678045,0.029479847425646133,1.0475048523843478
810,-0.782779137489162,0.4335277738233052,0.5979087613066574,-0.5540492713949794,-1.5527899254131365,-0.015114145401559642
820,-0.7716855019887259,0.45736429319732463,0.6100975214484703,-0.7172966669848524,-2.8352219298180397,-0.8614531209352825
830,-0.7886889589397093,0.45461582913484394,0.6059826241474071,0.3225493565884108,-1.2689523929006745,0.03233419162707474
840,-0.8079258572767611,0.44165369159632256,0.5979441837197458,1.4392932864274055,-0.6067474343033094,0.12415349627287309
850,-0.7623546469717196,0.4708654676711779,0.6260791686573076,-1.4540432791182887,-1.7980688042812214,-2.059513957219064
860,-0.7898340107238195,0.4453148597017239,0.5970969692375916,1.9352289521337533,1.8157063450154045,1.552014104575819
870,-0.7942415661742026,0.43753978231394947,0.5914854324446239,-1.0379046763297939,-1.5583886536751983,-0.9410510436303122
880,-0.7767932364171507,0.45200895030070687,0.6101974788571266,-1.1427518357039297,-0.6761711014639215,-0.9926720145070279
890,-0.785465362020965,0.4461592551322052,0.5998605885441516,0.33491271679106704,0.6602884533158351,-0.4302495254235075
900,-0.7972056373365061,0.43016757758214064,0.5860431373192843,-1.343510206041492,-0.6289936524331137,-1.991913627044758
910,-0.7736390210703129,0.4511370148992618,0.6060587262604795,-0.9518887256988486,0.5758422129366363,-0.6468471118829304
920,-0.7510505324049116,0.4740368865812933,0.6294280695258412,0.5936167873568865,1.676019353573065,1.4052867485989697
930,-0.787636150623502,0.4392033862437276,0.5952402855007921,1.2425571664876176,0.8294540441557388,1.7819954026174178
940,-0.77903593911895,0.44644476280838064,0.606035527715504,-0.18182882916153997,-0.8380240068966535,0.04295705583774101
950,-0.7771837358656366,0.44915687842479807,0.6130106592618139,0.17724083278400382,-0.7842912719275039,-0.2028581929905271
960,-0.8127336822343144,0.4197652277196563,0.574314844483464,1.2915874130195135,0.09226641623089632,0.24346860813518179
970,-0.7983995193106626,0.4336309162482026,0.5848740481117131,2.383709616914886,1.7338098413678449,1.255793426843091
980,-0.7993829584371859,0.4310436120537326,0.5870704976913812,-0.22829125422645874,-0.39339630087094246,0.05623840234496036
990,-0.7603264084336765,0.4696269255899595,0.6314070265070502,-1.4659454687847309,-3.048740187745877,-1.802395927755242
1000,-0.7830754530653794,0.4451985449956956,0.6054116373057763,3.0345709861996926,1.4672630437407914,1.5131567168228033
1010,-0.7878726088468,0.4397874874480178,0.5996227697188659,2.2986974410537924,1.9095880026683711,0.8897816478831125
1020,-0.8369898123824758,0.3928301193371378,0.5492483705676766,-1.0820790890878018,-1.3301126604846865,-1.8791941458778034
1030,-0.7957051157609039,0.4286960292344683,0.5913722382323963,3.061950598610357,1.0790149085053424,1.85289461052295
1040,-0.7799574928774456,0.44865088403203957,0.606782788470831,-1.0902850166671658,-1.026919698511139,-1.5697746800449421
1050,-0.7897119755122214,0.4373495062702737,0.5973549343573107,1.0125590270630425,1.537591617684614,0.4129137467024344
1060,-0.7812807162780582,0.44401720286027774,0.606574143667781,-2.860964315053743,-2.5876159520864954,-3.694654547938652
1070,-0.7737925344607369,0.4482451676373278,0.6067426660925286,-2.6193586914340257,-1.9666015156960055,-3.0691257502019864
1080,-0.7956715776394276,0.4315789338916261,0.5888450088178798,-0.8990772908489648,-0.6871513437497558,-0.8729142082100319
1090,-0.7814630256936931,0.44943034690392103,0.6060676131859265,-1.7305806334699048,-0.6552686814690564,-1.1891065256536208
1100,-0.8016378364883847,0.4227354185239672,0.590123936065885,0.8142460394039923,-2.7863010008028315,2.145948397094541
1110,-0.7965394986092436,0.434200630856266,0.5956683999945829,6.591208069873998,-0.06560390297160645,8.546480558123099
1120,-0.7867091453110673,0.43038864760686285,0.5994634619531201,7.071497253039007,-1.058687533858504,8.170332306650073
1130,-0.7893600836322004,0.43866326344107226,0.6089680896464166,9.525140916195863,-3.6957411003378464,7.599282348656036
1140,-0.8021232020594976,0.423455737343819,0.583906404755189,14.289886579910949,-3.0180237962597514,10.937880641042563
1150,-0.8056172973043331,0.40760914530488773,0.5302325342397762,17.790456486268425,3.089330995148279,12.870156825534988
1160,-0.8324445450569413,0.3063070895346403,0.576628919969221,32.522748498815574,-21.298479314502636,-9.117444036425185
1170,-0.7750562966604516,0.4511473066823626,0.5350355898619198,39.938928175649515,-22.25872937858972,-5.698833770045734
1180,-0.7139837452035741,0.5468766804364688,0.5929165011115196,29.81595811466717,-25.2451643393979,-8.244354963489657
1190,-0.6311246048517865,0.5715060934545679,0.5728787745790587,15.480098474203233,-19.753204979097767,-14.490017061116555
1200,-0.6644141542867762,0.45366427101295714,0.5953736439894365,11.924975074728971,-7.290515306733676,-19.038894209547443
1210,-0.6834151406244894,0.5358641977669711,0.618402892081044,10.21002276674457,-0.325976193243482,-25.780605415849003
1220,-0.7742352175116665,0.39451950936545477,0.6462626799658504,8.668920647003041,16.63816913959985,-20.077744070581986
1230,-0.866338492121096,0.4931575868914593,0.6718174474462407,4.755108381546481,13.149471189733136,-19.213031643956537
1240,-0.8686155922417269,0.5530483522667274,0.6386620848388677,-2.0126610429386873,9.380514789209133,-12.474210389417632
1250,-0.8249502617854584,0.4835951025254147,0.5908686985149542,-2.6161295652529466,6.708551016552923,-6.576950256880364
1260,-0.7702392814740301,0.4935296006554182,0.5942195547828799,-1.6766221327527076,7.898248813730646,-2.552588475444423
1270,-0.7649570928253171,0.4666571228130091,0.6110163132845854,0.6451966384561347,10.792875612515578,-0.13153874837510138
1280,-0.8375045928472662,0.3934154719426443,0.6216949324479226,-2.545990661626319,4.928957510766924,-4.641038188255939
1290,-0.8348444213359402,0.36771291497281905,0.6467271644542625,1.205469196415593,-5.181655382155229,-6.92514036426221
1300,-0.7923393415703955,0.39612208544997957,0.5735331150930164,-0.820878340936892,-2.8955314028414048,-2.3445256713931415
1310,-0.7990189227034733,0.4595826196544107,0.5819273942673598,-4.803328721089285,-2.8121116643523614,-1.164501922063164
1320,-0.7645969455350644,0.43025753675380257,0.624715999357941,0.6682204894312875,1.007372893234033,1.3743874846133832
1330,-0.7787155877429642,0.4093855359884015,0.6119050556001335,-1.2865835386091047,-1.5126429233082972,-2.7047831718813495
1340,-0.7935025065306945,0.4345904544672059,0.6104694137993114,-0.911453830778222,-1.850592985199361,-0.9193713824635125
1350,-0.8026423365679459,0.39142538537978533,0.585753057997868,0.4366402816296,0.3364697640936871,0.2458369735334125
1360,-0.7657216382896116,0.44286928265220044,0.62609832984784,-1.0255862017209383,-1.103397783452413,-1.5468762266325848
1370,-0.7856428154491322,0.43990934290609846,0.6027855252193348,-3.1419779148060702,-1.6453347374772769,-3.125437658624793
1380,-0.7827532078739277,0.410435484820137,0.6022262528912206,-0.877837749103004,0.6327635789915276,-0.9444420520566443
1390,-0.7978348288425716,0.39717186759612044,0.5959498410762074,-4.775463911780289,-1.9466492331289236,-3.4730591575866496
1400,-0.7818418867736039,0.3939723219030458,0.611763879888437,-2.3374274307496874,-0.7950106194668345,-1.3035933234704362
1410,-0.7626047491170961,0.41833494356584955,0.6310428685454711,-0.3717997633146784,-0.6774488908562125,0.9649102610760354
1420,-0.7685175153263597,0.4073293401186961,0.6246330524291509,4.012194590367878,1.5118811850235128,5.895718406712392
1430,-0.7951444238200968,0.3618221130327925,0.59130548200937,6.209339967078507,1.857071787443177,8.471567149802961
1440,-0.7640759593867564,0.3747692761055738,0.6218508841580719,10.103157323755337,1.2930313041537227,10.973864750035032
1450,-0.948413495635878,0.42350956092701236,0.6878975920551704,27.21529130431469,1.0969071031874877,-5.770885213987469
1460,-1.120978732191268,0.44817114033506716,0.7156990344804477,51.91697840077134,6.66220544888335,-31.885833329199297
1470,-0.7960205248952614,0.3344019321996875,0.5019985423486788,37.2686219576622,7.609214602926938,-30.945176267566964
1480,-0.6950893070895804,0.6745103205617684,0.5413214506252966,25.891352511626742,6.907118209806811,-17.172331659867762
1490,-0.8437547864779235,0.8017339845631952,0.5514011839494307,8.12834886069995,1.1094743747240066,-6.849009252649536
1500,-0.7833970140315234,0.4955574145617084,0.6221674400572004,-6.118960976629618,6.922777999790453,-9.081287434949193
1510,-0.8062319335665851,0.4822940314242127,0.5558873420391149,-5.083331031096679,5.859478240307585,-4.634475563843823
1520,-0.8237760652029078,0.4254844405547598,0.5032319801787861,8.409740007310122,8.976816837866437,8.399922175825912
1530,-0.8425762989664672,0.4285562808656655,0.5903571730820057,9.036308578767416,6.288225892513436,13.991703220862865
1540,-0.8575928632093625,0.5039722799498545,0.5127846723723725,1.4315762282225943,9.972628343507873,17.164596925635944
1550,-0.7898744817516116,0.487536011900874,0.4761352099904515,11.649788234250934,9.106984097970024,9.957745353878096
1560,-0.818143766066196,0.4898933092069707,0.6495510496046748,3.014970063582759,6.2749083569528015,9.81706765230869
1570,-0.850861361383827,0.527770660944471,0.6026473202088144,-1.0581646980162687,3.067024783089055,7.716786812042605
1580,-0.7444289398111537,0.3047835711894292,0.6905788716808935,-8.40573380864353,6.685609067994206,6.849045552737594
1590,-0.7001363604534205,0.2869498838908912,0.7183514353958131,-13.63628288723789,5.332925210331043,16.299735642205817
1600,-0.7233178282930038,0.3120821271367726,0.6392137188670227,-1.1416348850779297,-2.015064762692605,8.006521528360691
1610,-0.7765438953288144,0.35473073469298305,0.5892334328630864,9.620626956470984,-0.41387885426278226,5.727731269032604
1620,-0.7839437212647237,0.4257457921537428,0.5855224017074514,8.58018325847529,-1.053057011142354,8.014354824870225
1630,-0.8097514543872586,0.40579232773416596,0.6354792090855027,20.4687904548889,-2.5729701357873505,15.739052226586807
1640,-0.6216149028780323,0.08178370752298958,0.3734965929417159,4.445292439460254,6.977227411847994,-15.207495079287963
1650,-0.7850909809048398,0.3094698036343702,0.37182327416111993,61.572596879010426,16.68971544277181,-29.84703368999702
1660,-1.1673064336320929,0.4754038278936415,0.9107260614692609,56.51980012875039,20.575648577268517,-32.61659489469886
1670,-1.0091012566001127,0.5788458001799069,0.8159709033863433,28.384934794688924,21.185978014107373,-26.915781770902306
1680,-0.8010688618050839,0.5993029032440755,0.7891165149309651,3.7195384100282736,11.289743460063159,-4.471718105900299
1690,-0.8196217232234805,0.4996131344396898,0.553038890682022,-9.019120979847596,13.961310861134146,-10.889593147693082
1700,-0.886443199693415,0.5218824429748408,0.20143527367084293,1.962436901796939,29.687087614173958,-2.265480886069874
1710,-0.7625379054532629,0.460461736621613,0.6768463966312351,-3.1854025749038937,23.005420788119626,4.896293251579151
1720,-0.7618641381780986,0.43253992662348706,0.6495312654645977,6.653613480512897,14.917531397711404,2.7443618373582557
1730,-0.7587238487397182,0.42201833579332915,0.7335620416988591,-9.974183329204454,12.369260996722845,-1.3760622478688842
1740,-0.775921213395156,0.29269230180543204,0.6091839269664527,3.0722681433917307,9.739191958771858,-0.15699798487901617
1750,-0.8589732032565716,0.5143999316425144,0.5477298813764213,-1.6918698887396424,-2.095986830549577,5.391997842872588
1760,-0.7288269738557716,0.29582015166952386,0.5753703320216097,22.989698196491386,-3.0390183889039015,13.771117953889982
1770,-0.7781115875385738,0.4733667744887255,0.5949780855341729,-0.6684233414827578,-21.304002721199105,24.37788710257943
1780,-0.8151716575187861,0.6216370713796775,0.7694647974517387,0.2824384569024568,-15.29476257137282,14.805386054448684
1790,-0.7744798235658634,0.13961522684897093,0.511512305201508,-27.298062891271012,-8.789864937343745,4.3603942940654745
1800,-0.8311704331694775,0.2657692055390785,0.49232914798011107,-3.872252020133809,-1.7640773457371455,-5.772487393015283
1810,-0.7909498923203078,0.45697071563013686,0.5586914378550351,7.3566219865462585,2.5752977218291573,8.529976019989359
1820,-0.781010991546506,0.4744979019682586,0.5767547639510688,1.5085907331361224,0.716822480129519,-0.8723128489742903
1830,-0.8125999908728267,0.4405285438372564,0.5467993166471025,-1.2725968690997145,0.26192873241856707,-6.917364016367793
1840,-0.8055574509093266,0.42086513504463213,0.544946799719657,-0.3939239736050285,0.13939116221217196,-6.250746320658916
1850,-0.804914697764863,0.42605845273126464,0.5520209069588887,3.6230012278891763,-0.04321876283087278,-0.7448085189023279
1860,-0.7847219751173248,0.4500543789152307,0.575739461412824,4.798565515812938,0.43389104834379333,1.4171413027585333
1870,-0.7600848633302084,0.4856912474630966,0.5992317607777226,-2.1528422452923826,-1.9635189124933663,-4.084224439034477
1880,-0.808549745499439,0.431185306469762,0.551927225424016,3.7352230357774214,0.8131462679819568,0.2300436501357539
1890,-0.8082133805682046,0.4481333713607486,0.5677726445526552,-4.966727444837631,-4.876319655853075,-4.847818543455242
1900,-0.8291971157419636,0.44322278336618826,0.5777556280136834,-2.8243044811754747,-6.140991634306786,3.725225594980176
1910,-0.848714344017864,0.3798864336735277,0.42964799033115453,-7.429875101205889,-8.43127098903205,1.1500515845327004
1920,-0.7740633207849751,0.4303534525835392,0.5614459559194379,-7.548171523828865,-5.733381385891091,-2.054596063451224
1930,-0.8019830699773515,0.43356381868273286,0.5633920697209122,-5.7042246303977615,-6.500078025093166,-2.1649935729739584
1940,-0.8085168105101143,0.44876909443345697,0.5432662435360132,-4.359472537408325,-1.354684865043733,-2.617069596330005
1950,-0.8034069350214537,0.4511528475630847,0.573529586733592,-4.346081234398416,-2.638025565737448,-4.064498956608126
1960,-0.8169504365940239,0.45992142234014716,0.5709076309902561,-4.42821639148129,-6.76240277617961,4.0472889822100635
1970,-0.8184156945166239,0.39056946335502085,0.5200358406864353,-11.805604201191171,-15.826193512686443,13.394110912674577
1980,-0.826521849379811,0.262314394858786,0.5254622691669018,0.5445660867632697,0.8314137414229567,0.48912741824174394
1990,-0.8278420605445296,0.4087511601040086,0.5245421844302979,1.7183417282060802,-0.3800304292243949,2.5249031620208453
2000,-0.8169507117324855,0.43553846276796515,0.5474326802901965,1.288976377606334,-2.8771849700345573,0.6893349243412588
2010,-0.8138695418708912,0.45034984218742485,0.5679560000790466,4.069769550970216,-0.019852349399482244,0.6149068791217057
2020,-0.8054241266357642,0.4431566377765734,0.5648983231758518,1.0679247027407577,-0.6302437211327803,-1.7425248189586149
2030,-0.8206571481034185,0.43049040564367497,0.5470680612891572,1.2054364804624675,2.2543950060318547,0.44897045028648863
2040,-0.7762971008226304,0.46449774263199467,0.5875713952381735,-4.197286669316538,-1.2710625925191914,-2.4560845569577
2050,-0.8094632012558082,0.4203957081726961,0.5521416424013268,-0.6224580760944556,2.2948403338206584,1.1152987527840645
2060,-0.8061933084917953,0.4292741899674581,0.5604989220024855,-2.355966114902229,-0.801435815647345,-1.224588223340132
2070,-0.8018807779050705,0.44137588016164114,0.5629280427565609,-2.942252961592721,-0.9358047996806684,-1.6944030900950244
2080,-0.7790164307538952,0.46151147869784626,0.5877997042740484,-1.5619598196788174,0.6583016615325217,-0.31888512233390975
2090,-0.8023740914404726,0.4297131128419811,0.5677264857485458,-2.63638230393146,-1.2241322258839729,-1.7285766006118688
2100,-0.7978921610158004,0.43638499805309966,0.5693000178040062,3.1366427550129887,2.013890435281238,1.9324101593357992
2110,-0.7855406195400982,0.45319861108006687,0.58195284787838,-0.6060620168873372,-0.7804500255907723,-2.409233585725161
2120,-0.7988275559798219,0.4367107178309291,0.5712775611796258,-1.4160668308780577,0.12811600558757458,-1.033134935225095
2130,-0.8120704253959721,0.4243602037539208,0.5609558809484145,-1.1631473043401046,-0.878474899040175,-0.7335658601722945
2140,-0.7975802902611112,0.4397990382322021,0.5693053492770762,0.3300336574805402,-0.30422956105448784,0.06882363558918334
2150,-0.8208595070280222,0.4182730204643974,0.5440109450736228,0.5026046591169694,0.012180217446465136,0.10849572495597448
2160,-0.8041222166625576,0.4327195832515884,0.5631284059929859,0.31848249122310324,-1.3855437656242247,-0.4824320020583419
2170,-0.7847302243394808,0.4542555959985191,0.5830633222097031,0.6273346874506989,-1.4777667538396708,-0.2537343840600619
2180,-0.7794815785062542,0.4646275840572086,0.5930225186184266,-0.7084966193852915,0.14083282032923297,-0.7723937361816879
2190,-0.8221368075501321,0.4169275208474149,0.5467632572104043,0.9458038494588098,1.913727604904208,0.041967664561278095
2200,-0.7574890996073461,0.47921408489866824,0.6063221141889267,0.7034021787463365,0.051068977529765636,-1.2591678731479345
2210,-0.80611243066491,0.42661636035667,0.5582845742691391,0.486495552235716,0.5467955130728571,-0.9435595311777005
2220,-0.7863637566861824,0.4449797022615615,0.5784163091538129,-1.9488027450046332,-1.9630930823792374,-2.875952273607303
2230,-0.7795700169357997,0.4523537775199052,0.588607074482843,1.9645794232511151,1.2276256625348523,1.4031058256944127
2240,-0.8074315593728417,0.4355766506804631,0.5636559392267377,-4.942308732324044,-3.200664114314684,-2.393673202869086
2250,-0.8196825650721368,0.4190733655565275,0.5499723761911096,-3.6330881455470174,-1.735978741135047,-1.9020005880567448
2260,-0.7962885243471051,0.4345168013821027,0.5690450816564989,3.5881198705797295,4.066200910197154,3.3230355793449924
2270,-0.8035460881043966,0.4227914358354746,0.5584894144681974,-1.8144342274692493,-2.3080018265835194,-2.2702596664158374
2280,-0.7944447600459486,0.4316069109882948,0.5712545705049262,-1.6053349739771507,0.03192393467157822,-1.4424056744357967
2290,-0.8198515920634153,0.4119642549670151,0.546129548866697,-3.590988949104779,-1.672354965180046,-3.5220376787026098
2300,-0.8242735879673617,0.4029727601641126,0.5416976776189085,-0.31581710843338695,0.47186145240488386,-0.6475398030484736
2310,-0.8081924571390197,0.41979077080478117,0.5596215863445995,1.263150230027395,-0.25469639212906314,0.9317128473765203
2320,-0.7995844793613631,0.43384936727949835,0.5684548642163454,-4.135200992629621,-3.5400728242626673,-3.215620665242529
2330,-0.7824977303432777,0.44813245882852054,0.5855422511152207,-0.3722655222714375,1.2837326573406755,0.6438975941065068
2340,-0.7840174632649309,0.4450592775938484,0.5826773591931133,-0.900615766703128,-0.19903860470228246,-1.5140163695329132
2350,-0.7963881041220663,0.427376599825081,0.5743214530051539,0.7762386854188404,0.03700894513575623,-0.3618194985007042
2360,-0.798827455965141,0.4333770718088933,0.5689986441141225,-1.7836792700333954,-2.0648552067551176,-1.936180798070578
2370,-0.8008957260403231,0.4269003518513666,0.5669669256620936,0.6087548013904961,-0.2521900628657037,0.7622865871753296
2380,-0.7993576918357915,0.4305321222928158,0.5669477666677629,1.0701148459186367,-0.3030352487110911,1.112865601695964
2390,-0.7827913056349666,0.4459327197387217,0.5831940450514105,-2.7480332538033307,-2.522058386065351,-3.02818140077012
2400,-0.7979132470199036,0.42454290819704865,0.569362391294419,-0.5714601277526006,-1.6493151966946833,-2.9074458109757715
2410,-0.7984516190838453,0.433777055038949,0.5692573450349774,-1.9163111754288864,-2.3997108950268267,-3.3513222580886106
2420,-0.7955121100936985,0.437390893669058,0.5669793179814221,-3.133498971457711,-2.21455809944118,-3.6410267984613336
2430,-0.7872434987618412,0.4421614138469003,0.5836004945625087,-1.0097452874647612,-0.16459503671464962,-1.6323791857786416
2440,-0.8114965200775867,0.41673642073716205,0.5551961397774022,-3.2486052604176496,-1.7608543915810768,-3.2991448462161026
2450,-0.8062784846589436,0.41982754921581183,0.5656745307970349,0.059080178714665976,1.4755582966398726,-0.788436655105454
2460,-0.7908781000059972,0.4287312155864606,0.5768567845901087,0.6294216644720569,-1.864893934762687,1.0025171883137909
