time_ms,ax,ay,az,gx,gy,gz
0,-0.8314400039786263,0.08965558943665859,0.5133477731508187,-4.242644872515254,-2.1721627595729576,-3.4661517380995694
10,-0.835366374765599,0.07805439035019329,0.5091268300791782,-0.9637508119340498,0.04999978520174428,-0.05017458275299812
20,-0.8270369641302426,0.08930001087541553,0.5172214625039567,3.3016198903146607,2.5768590329402117,2.967014981662124
30,-0.8225531490386013,0.09433427436297112,0.5223022068193316,2.018406088130799,0.7884204387282983,0.5531896206990852
40,-0.8157250916079007,0.10090024836718217,0.5268316759929482,5.281952854683325,4.293604163088242,3.974221443299129
50,-0.83494965604352,0.09330462900446512,0.504837335986795,-1.492576947219063,-1.0887465259181754,-1.1785992662240605
60,-0.8391944916381886,0.08282115961563487,0.4997951965368804,0.8250854236222395,1.151510522158667,1.4752758071685859
70,-0.8252984091835891,0.09333848943764374,0.5163666318983658,-0.5244202687142521,-1.4908671834097165,-1.2148880464295417
80,-0.8165767914469156,0.10788900347261964,0.5257476427347386,3.149385660726448,2.554203836919695,2.6947561245742815
90,-0.852060592035034,0.07441818236617316,0.48430239945003745,0.7724549792020505,1.8230389055325174,1.644442174402929
100,-0.8509535509339013,0.0646305205529932,0.48940903649191764,-4.138015397265094,-1.7460669051159305,-2.1653022397627675
110,-0.8443668140261604,0.0739197129576697,0.5031449337100661,-5.123246649372653,-4.351978948201393,-3.664079297729043
120,-0.84922141227853,0.0744552159815756,0.5029297745486992,1.1973974941732926,-0.8787734493344443,0.46215450896112653
130,-0.8428114004523011,0.07780838748696353,0.5082953913714107,4.073571167707449,0.3097201556157464,3.433172013699416
140,-0.8582061661931045,0.06264595636444273,0.526428972397777,3.7737891586684755,-1.9362102240167691,8.767581593143548
150,-0.9644357667647643,0.06918801500555502,0.5492980267121097,19.050435769356728,-5.323121523506407,24.489658962014637
160,-0.8653280181029103,0.004612950967384942,0.6646364178616138,29.904995167093837,-35.93947897848503,9.001442029993033
170,-0.6099342865040578,-0.1083044268823598,0.6387062607992674,29.50702136309264,-60.011544551632994,-39.21945606937233
180,-0.6379572200011201,0.16733734336972,0.6743537998560598,-0.9268806142761181,-64.9392804934708,-55.759783194416016
190,-0.6583584134655928,0.39571676114705057,0.39274120359960224,-53.48233698117345,-54.056003571429514,-57.50816474977908
200,-0.6485206796286329,0.26980220381625103,0.45915351606775195,-69.86754504696636,-28.770773874997495,-44.94539729856812
210,-0.8218763921208021,0.2245989163281147,0.5102107865722055,-64.00276177001578,-11.146419081497362,-46.00548659633597
220,-0.8449099000913888,0.17487232121965518,0.594703558464833,-58.26171335248739,-0.4849873594416396,-30.842660651227817
230,-0.7790631269914045,-0.06613128295377879,0.6060829256008912,-52.268044770833214,-3.847483390557059,-19.291158261487585
240,-0.7069861958835467,-0.09337244116384164,0.4997251553741934,-30.367143098067544,-1.2402258511605404,-16.41976456510868
250,-0.6653726324568848,-0.04376541409631678,0.5634208377667158,-17.317665346719068,1.6684397035436498,-11.427256511816376
260,-0.8041688280944586,-0.06030426047504686,0.5218835846757234,-4.3053799190750714,-3.6232510526916304,-1.8978761806799147
270,-0.813070499181853,-0.04840445947034941,0.4716933844081764,-35.83274377165422,-13.361201602966762,-11.800043409233595
280,-0.7623253028593974,-0.30893672602276995,0.8295377747245284,-1.6087125672875435,-10.253858397169619,-9.912575087168527
290,-0.782977536025733,-0.17464702721774006,0.525322542355294,27.89435238544335,-13.630956507624012,-15.033990232339578
300,-0.8200209098942681,-0.17313052737476284,0.5597639083146623,38.98293277382397,-9.678591493314354,-7.430381451105872
310,-0.7768610349620046,-0.15828347525009148,0.6004468132983114,30.70932578809666,-3.6685097115548198,-13.100681600354376
320,-0.7572466871752309,-0.07786065961881702,0.6703040287858286,25.1041880954013,0.8662038217253631,-19.220804700679068
330,-0.8511342115692279,0.0993260823072973,0.5932594123309001,41.43242807048404,2.4100270630896343,-13.583211702590694
340,-0.8798475127681326,-0.0570670176223379,0.24579988324411284,-14.213635645635106,16.88174585649756,-13.029679676212755
350,-0.7222734015719141,0.0786502979938829,0.7048430053958908,9.217501054641698,16.847882948551806,-12.912503416267192
360,-0.8566184990223449,0.24965847696976862,0.4287079419367775,10.927401512752947,26.619315079868723,14.448424524166013
370,-1.0115835074821125,0.26926626463235537,0.23405286559329164,21.188350655600335,25.839353630145762,33.20530953279718
380,-0.7392984601763777,-0.2998471612896277,0.6674620786612997,37.02328932645435,33.510725905649196,56.81957058267051
390,-0.7313573331747013,-0.16777836359997192,0.6991267009350897,17.461928013259403,28.414972659302073,48.222423117122545
400,-0.6552856798044303,-0.4050857873262755,1.1236637240445682,-27.130226886573407,11.065188569820323,27.74512243062607
410,-0.7312608931368875,-0.43382701715860106,0.7551841091271013,-18.302250927932413,-2.9523256802171614,16.594439628079037
420,-0.8381178192861821,-0.25458403952467407,0.521555195516625,4.14032403518488,-4.660207896369521,8.720524337325092
430,-0.8417174578902518,-0.12740292039535214,0.5174772021860898,24.830638889942954,0.27839585580877096,6.444840905557356
440,-0.8246104950771762,-0.13191123768414667,0.5259205345663881,39.700762870077725,-2.839910858930895,1.9496507352340964
450,-0.8249926197328545,0.03871675885682492,0.3922757764028595,44.04094779840729,-7.898660129922389,-16.358389734421607
460,-0.9144318544289124,-0.11614364552215964,0.4052371113712254,28.947257990432927,10.253257522443693,-26.45749862324657
470,-0.8521953200426152,0.09980610910076898,0.23676174307827483,6.103923472852252,18.29905504578826,-26.260044292318508
480,-0.9303514655085302,0.1416153968001879,0.14498558499414285,21.182364190670945,31.427841054339055,-25.54630782196807
490,-0.8790588426091586,0.0926586387552199,0.1728245357730178,18.337667854764604,49.92092825339217,-19.834080893985334
500,-0.8129940047582894,0.39932617683668703,0.43852661057814074,62.36646416125751,51.19502670280064,5.065221895525168
510,-0.8692040782723965,0.16014728304267573,-0.009221821165373435,-9.468163136049728,36.62512919761469,32.40795580875914
520,-0.776403714233804,0.24161463744608752,0.47889598307841746,-20.44732861269628,15.095868943540195,26.51291035116447
530,-0.8185585187741234,-0.07957828162959873,0.6901602719011818,-36.34614693633439,-2.9494690691662013,19.33728759928566
540,-0.7473269760023176,-0.07242683400390651,0.5998338779180667,-15.553272939240996,-4.7229715893169395,23.51231351571412
550,-0.8244784271705172,-0.05388697935454754,0.5595765757028733,-26.981843551826906,-8.312267655429125,6.177357785342462
560,-0.8971265636707542,-0.12624481430144247,0.45542661520720557,0.350279522266122,-0.8388335977462603,-0.7761338476267916
570,-0.8449369392777186,0.06718210561289055,0.4945306544633892,13.434454254115872,-2.8771707312993007,-2.1621803672644186
580,-0.8338850876230178,0.05377802462945719,0.5063075542717675,7.201146079813363,-3.6577718205623446,0.7379630820020371
590,-0.8526730161228055,0.06010644604013297,0.494866457587595,6.452031540084124,0.5801300661925257,6.507400719806272
600,-0.8306130096252679,0.1366970137826555,0.5258751444395139,-6.659201386868775,1.986091921695115,5.902452402075056
610,-0.8167586039370035,0.09719799913966606,0.5256817564941737,-9.53132833301674,0.2875363801959723,3.7609256424137976
620,-0.8334950316226658,0.07668335595559188,0.5175095818723804,-11.65856964162954,4.04673362022224,4.059222074203911
630,-0.8486204334411762,0.06712413942090133,0.5044892206813093,-14.995207767029376,2.650099273885525,-2.0758427751969397
640,-0.8419736686776654,0.0644789043082338,0.5045329181122068,-9.09835701130713,7.572923577365501,-0.7357222649529183
650,-0.8326002750051935,0.07178130024459978,0.4996104408088207,-12.487839078834185,5.877051528893207,-8.112437381233011
660,-0.852548579142919,0.005588919049001406,0.4849857912859518,-11.079523827077068,4.691067733327483,-4.950919875301764
670,-0.8554704196631051,0.025796150073052707,0.4941729302830618,-4.703618707945009,7.278399026797951,-0.07998777994829931
680,-0.8402676649478468,0.02043415750342553,0.4889490817005025,2.2267668429761693,0.7689174728224861,7.071561916441887
690,-0.8347797208354426,0.03554776902945421,0.48468523464443464,11.223950151230628,-0.9050292676376668,14.627407693734607
700,-0.8449834799287005,0.09023881097117471,0.5109918011754293,-6.894296560821337,-0.6909990870958533,14.10687656215952
710,-0.8367294244908756,0.07855923257388008,0.5031817501365452,-9.5251457946576,-4.6234517308371,3.3657893670868364
720,-0.8082277086368033,0.08853553476867954,0.5326317558071157,-10.243475490327231,-6.93023758801141,1.2277462593446689
730,-0.829756370732465,0.051270830024366734,0.5131409798541947,1.9647066976233012,-2.5054224130804528,7.561009526204232
740,-0.8471038430317902,0.03995651593515378,0.49869248743874145,9.139588552788952,-4.557908206008749,6.76247146458306
750,-0.8659423275513268,0.05471943342322923,0.4826085034572676,7.530613718835321,-1.4951133542446657,6.056779421255182
760,-0.8244559145447098,0.06034436426416527,0.5251555798315011,1.0168672105142615,-0.43530448792970544,-0.1867757122092737
770,-0.8272245727759235,0.0495708002621996,0.510684375993568,8.009443150045286,-4.132314842758497,0.8800925592257085
780,-0.8341300091875112,0.07157949816411863,0.5120373080753402,12.370939269222653,-3.6075538288516453,3.9273666133916496
790,-0.8147632890864064,0.11553984153314692,0.5249062778235757,8.042769165240706,1.0843388736554793,6.8685934613488335
800,-0.8660348940501418,0.0517239704511882,0.4768058915208389,-1.399406690173405,-1.6408121369412627,-0.11508004662670417
810,-0.8313927229355027,0.07428130225816147,0.5170027971698808,1.5619086919605047,0.40844402271296465,0.22307716692870938
820,-0.8344600416764375,0.06498515973657397,0.5025552512944568,-0.10761443942832072,-2.923406475231669,-1.2422899662967675
830,-0.8633441107756161,0.04445347023774161,0.485410004470676,1.143878411131893,-3.6687737053441762,-0.031892455292123145
840,-0.8429531904927556,0.057325988068663375,0.5089757627970969,3.7922259208355236,-1.3101235223620002,1.3136719490103235
850,-0.8496167933585341,0.05349842591970207,0.4929985372728302,2.5437946650974084,0.2788220756079214,2.0729940771586777
860,-0.8338818921948614,0.07991290217591546,0.5106827943515149,-2.9817001012387396,0.23412610815271917,-0.6737713845890526
870,-0.8134725556548457,0.08856979489449582,0.5389623637955501,-4.582277616203881,-1.2433005957001544,-3.9653353052452376
880,-0.8250069618891684,0.06459358418433545,0.5209594135227296,0.23551008548031638,1.3907449915307428,-0.66554385594255
890,-0.8548971285903548,0.04349242246879774,0.49519282896399563,1.5729490366483572,0.2076521056082314,0.9436275009804175
900,-0.837790497761894,0.07225703258203561,0.5110675016469808,-1.6061620503621772,-2.1913129752409173,-1.7666503614872515
910,-0.8149973985879951,0.08883088920789105,0.5333673713202498,-3.902358261015473,-1.9994046712899762,-3.6536934837505157
920,-0.8130597058997279,0.08504671625603565,0.5335575771840948,0.37306377754962927,2.92227998392204,1.497344122849057
930,-0.86173740006951,0.040261229391164416,0.49092890874790507,-0.43741276471875823,0.9953199387393757,0.8497352102777436
940,-0.8547258208995108,0.038964332826949014,0.48606796252152384,4.848022680061749,2.791439800033718,3.2978963721597507
950,-0.8159495743469423,0.08082952404081367,0.5299364847040138,-1.5655940510494557,-3.609911124818167,-3.245903649694837
960,-0.8083933673838217,0.09208712690756393,0.5381664506776505,3.312563390169042,1.0265652878275857,1.2176207677119095
970,-0.8204856498575843,0.09269563174342221,0.5276824541275631,-1.5358369278953141,-1.3270038900675478,-2.552540194953041
980,-0.8001693085397901,0.10663585903039552,0.5479869160551005,-0.7778867347227831,3.520898800278318,1.3493180586525657
990,-0.8256636429191707,0.07102188217556549,0.523000162143026,-4.0462417429774264,-0.005376150350274916,-1.8888208497613834
1000,-0.8343509333068264,0.0602312879824846,0.5124678297399415,3.232509468227984,0.9639877572838977,0.9881738749745278
1010,-0.8460281435937783,0.05593210108798209,0.500208417583781,5.076392386667186,0.9839021275826306,1.4217203276495263
1020,-0.8406054567682721,0.06129697790687087,0.5024010510831449,2.5718126999484494,-0.28459311895500733,0.47330613058793924
1030,-0.8259897538751768,0.06731185283527406,0.5139682690665222,-2.387620254244079,-2.373267197791913,-1.2999573928439756
1040,-0.8464489723107256,0.0426087735630426,0.5042750945435589,-2.932368872544017,-3.148782744726046,-2.1463987617087184
1050,-0.8519321443014118,0.04592756390066275,0.493292624238803,1.3282944802738381,1.3793571273049183,1.7851341611459408
1060,-0.8420083946606245,0.06226394032152047,0.5053670095900522,-3.4210616386326373,-2.568351099707088,-2.6501368778746337
1070,-0.8347175524605129,0.06611158547354058,0.5136040219877247,-2.2609379285649,-1.9583915956956544,-2.595244256795614
1080,-0.8442006528012672,0.04751767360069152,0.4990626957318929,2.1696775245645465,-1.54233780535277,-2.2338949258821987
1090,-0.8141719133374752,0.07737178065828892,0.5242572872925053,7.420578664957717,-0.03495075992870055,0.06864213543232184
1100,-0.8011619582796805,0.09937707472338007,0.5427979181520731,13.272879503620945,1.0535773815716423,1.1329176120857891
1110,-0.8370997405582725,0.05830269236910234,0.5074187712464922,8.467413579429337,-1.9601002311252844,-1.152282530069895
1120,-0.8274711530340622,0.07456057733403607,0.5222305167697164,10.7306150108108,-2.1424268191729823,-0.2164673187124999
1130,-0.8276449070592333,0.08136663965995848,0.5192826950702115,10.698313824536541,-1.0533185329082875,0.18415535710594053
1140,-0.8524262098602212,0.04983703928833225,0.49265438290807023,7.834838117559472,-1.3256560181869461,-1.4701781412431734
1150,-0.8247641689172465,0.08799217037195892,0.5245945557868595,10.885377097873317,0.23268820198446072,0.9949991816088459
1160,-0.8295413714877641,0.07579627675441997,0.5231675913474141,9.076680388292862,-1.3327235217155815,-0.03041447433629596
1170,-0.8472280554822637,0.0624912266770264,0.49915864540557053,4.742315678237604,-1.5204078708964393,-0.7225632523871088
1180,-0.8368148884323103,0.07882327827424512,0.5054342765075432,2.0635531490086274,-0.03136593745657171,0.3046650420295201
1190,-0.8287559527876662,0.08724349345841127,0.5203166737402198,2.23987525477626,1.2826965008626152,1.737833114729864
1200,-0.8581749020495294,0.05982826985490688,0.4961674186863207,-1.4342256091285728,-0.0827497505301446,-0.0680410809933879
1210,-0.8393500478033942,0.0790441944398851,0.5159617008536768,-1.8895612576617449,0.5034634635181203,0.04122857629253965
1220,-0.8295818318190412,0.08946845312112099,0.5217839817586021,-2.2691968193679957,2.2390309101697117,0.966001814235213
1230,-0.8133722530507664,0.09971767053968851,0.5362653317332856,-1.8029763201385003,2.0690270780902527,1.2235007574462282
1240,-0.841193302431266,0.07710986240084043,0.5042069990432041,-4.725828977824435,-1.038980507838606,-1.2351000848917473
1250,-0.8351246390142489,0.0721525726604659,0.5147696843889404,-0.9858113378416172,-1.7152953593605087,-0.708572714892157
1260,-0.8352051131683359,0.08158000398618662,0.513865670903751,2.0997294751005975,0.3149360736942006,1.4013975834309282
1270,-0.8279938326095954,0.09354319297809864,0.5129313330231242,-1.979549037347228,0.14140015226967806,-0.33848521567836126
1280,-0.8249332296209632,0.08819570738802189,0.5202512219453447,-4.226011559685472,0.16080569504818076,-1.2589224593770167
1290,-0.8459957222211845,0.06368207795370208,0.5099683782090009,-3.9197072484665108,-0.9002873311388179,-1.900066713611668
1300,-0.7992070917231326,0.12055158474115732,0.5471506569299305,4.028154142087115,3.218407104524878,4.303834037979398
1310,-0.8161439357994731,0.10101787121681194,0.5300509715612035,-1.8977582599551286,-0.15182573152895518,0.2867636556293563
1320,-0.8173822532511394,0.09794917251579131,0.5299334831591584,-4.223433783195839,-0.5520989959100788,-1.5254085390761434
1330,-0.8358922564631021,0.07696991358356806,0.5136921955991242,-5.225441093868185,2.1055744560427496,0.2097428919121822
1340,-0.8367020848977833,0.06851517799968733,0.5102460286087738,-7.151616415880828,-0.26018386943456906,-2.0032769008764832
1350,-0.8239980696339332,0.07976733656442317,0.5217899792717294,2.6176804042432273,0.5762287028300094,2.198199615984998
1360,-0.8714323640288228,0.041778985185348894,0.4801118676205516,0.2631907234185416,-0.29834210688367463,1.5650284349751107
1370,-0.8407131116979109,0.06587564454242202,0.5068587868114788,-0.2754395006532738,0.3468803216221545,1.329006443434408
1380,-0.7887274666455864,0.12196238544634981,0.560537523578776,-2.5275311938577305,-0.9449907044387618,-0.5873598730808725
1390,-0.8356894429954115,0.05762529255469159,0.5103386115714089,-2.466937452340207,-1.1720334489744473,-0.21222311251781345
1400,-0.8458562293942388,0.06634865230077869,0.49967035531773374,2.2579816240488566,1.4824007404349204,2.7383145440648677
1410,-0.8353120604333785,0.0724057064760765,0.5182443874195455,2.458272238143125,1.0103937016913118,1.9270513452488007
1420,-0.8261869759365534,0.08484375770530758,0.5243933653938014,-0.2510931703164979,-0.5796553307664937,-0.6937384217992265
1430,-0.8184138907789467,0.08842906566428436,0.5271893942708703,0.20373683916306695,0.4431424503225708,0.25119910951374147
1440,-0.8266470056167412,0.07277285054320927,0.5172259554892561,-0.9029016568704245,-1.4421446673051654,-1.022502961636071
1450,-0.8109984139040458,0.10433737946270513,0.5395187450302295,-0.48116475715463763,-0.21408933407029923,-0.11369944051165692
1460,-0.8222547741574386,0.09639668555009395,0.5232768271165452,-1.1500342038458924,1.5869033634343417,0.18996866791483513
1470,-0.8156545695085092,0.08869486974121225,0.5286640400267767,-2.104107951433813,0.5796171221050752,-0.6471410629737979
1480,-0.8194067173953771,0.07975197867830047,0.531979273908545,1.1428051177741034,1.3615655410392118,2.294119027889608
1490,-0.8359015058978837,0.06636971601926198,0.506983119418786,1.803460517365795,0.6127575621846153,2.191784586528116
1500,-0.8437907780962904,0.07143391400041342,0.5009516872753318,0.13807338066853725,2.109579963089491,1.4752528739205675
1510,-0.8432351709499734,0.06412875197596121,0.4983135516485252,-0.6854045738369734,1.1481155259014302,0.6422924225260316
1520,-0.8334704158052817,0.0690179503345853,0.5170234160658606,-0.010864412965704489,0.05038107886639954,0.8745558411258274
1530,-0.8146913772052181,0.09655767100634846,0.5275700362661572,1.981725887224451,0.46739191523091717,1.7869561873539228
1540,-0.8301271873567653,0.08471243829620438,0.5218847288559557,-0.2654851779563715,-0.21372470108908426,-0.09757808100425569
1550,-0.8629887294420009,0.051972639418615796,0.48872343892581266,-1.9505666174444471,-0.29574579678002144,-1.6140618985073099
1560,-0.7982254976117866,0.11324064418179797,0.5472671919365404,0.6987087836048308,1.3401659769716026,1.5002167199591967
1570,-0.8227484069924299,0.08682887363295651,0.524840152185589,0.16516475084714563,0.4372291734849336,0.9018697147963415
1580,-0.8296030655681874,0.07695607379940735,0.5145132059122804,-0.3429276686282613,-0.010903186448192964,0.39845424956347303
1590,-0.7987820921765925,0.11293549696170482,0.5526851191197574,-0.1690044058130628,0.6556875919800189,0.3242961707281928
1600,-0.8262594634893443,0.07839023144677332,0.5264255544077672,1.5880318068963362,1.6246115375780927,1.3072926696404257
1610,-0.8245162590139641,0.08350043906648327,0.5240263163189404,3.290287804103153,1.3908606978797275,1.8606255242596683
1620,-0.8553497448112474,0.05464613732563102,0.49399709134927783,2.5240246581701395,1.3743527726931977,2.27335378363386
1630,-0.7956012025895223,0.11150035099580434,0.5489392213168897,0.5390749035282327,0.18158524924049496,0.7847806885555247
1640,-0.8291274558355556,0.08007766893852694,0.5274817734748736,0.12832729753984023,0.7506302508539477,0.7549837131692785
1650,-0.8082563641110385,0.10323521565528587,0.5407151466442571,-2.363188155468854,-2.786020991945705,-2.9760341793720597
1660,-0.8084490422552216,0.09986402665796755,0.5384647095134285,2.2351853609931838,1.8830995147308243,1.9488648579641075
1670,-0.8289175894189013,0.07957561204894863,0.5228098607063988,-0.019128864706259907,-0.2599281016454137,-0.7392446639939123
