time_ms,ax,ay,az,gx,gy,gz
0,-0.7174022551475072,0.006299598146633827,0.3842490086085261,-5.986283291720237,-2.144317722962281,-1.3275524825548985
10,-0.737071559296335,-0.006742992402652489,0.35875802580765226,1.5300885151784904,-0.5225521041275738,0.6807069998584179
20,-0.7141088094130762,0.01487561822601487,0.38717310615276107,-0.06671542990518309,-1.418715375231808,-0.9126155751964172
30,-0.7516402092547866,-0.02771995200822252,0.3504114611784107,1.707226548481873,-1.3475103760070184,-0.6146523122540462
40,-0.7078334441259112,0.0220119395119913,0.3948543321301916,3.190672039085368,-0.3319026710514904,1.216444732824673
50,-0.7439563158540354,-0.014966670238271496,0.3526985801792755,-0.44146727313126877,0.6968436734866019,0.6183776916670001
60,-0.7319873217388961,-0.0027083588682796957,0.3739688212364179,1.0361187748502003,1.9150009600823583,2.313621138924942
70,-0.7091532084130656,0.024069948393170386,0.39080643186855396,0.7120976858102471,0.9542368788833445,0.9148012721390705
80,-0.6984948875835095,0.032541577180670134,0.40295521239311216,-4.081777193062527,-2.504226177309523,-3.2089511173836187
90,-0.716248876178186,-0.0005732818644900285,0.38554042794674936,-3.115820630887103,-0.04933735555902344,-0.9391260692906257
100,-0.7166570322792349,0.007565228439031942,0.39083486018994984,-0.8323373099079027,0.10960762856432402,0.9192782367908794
110,-0.7221926633733833,0.005591750390966851,0.3805764890633778,-0.08792419013007392,0.07368383275906923,1.3220973501152957
120,-0.7118056829268123,0.021114287503831798,0.3931361583742539,-2.276766791857904,-1.0675590733147569,-1.0880121952691402
130,-0.7102894651823605,0.01987228164802278,0.3908432524328344,-2.2735770339002244,0.3824787971885259,-1.1218030684030253
140,-0.7111925851386796,0.015388529100228181,0.3943822751272164,-7.609294793206136,-2.0602316828796803,-3.693844049768872
150,-0.7174023655043812,-0.002076029587698101,0.3807840465276123,-3.5893230764102824,-1.0527373845255283,-1.070002026217415
160,-0.7369526810475965,-0.014328900150061684,0.3639275498749174,3.4122487533476704,0.9425212986474814,2.872216198672839
170,-0.7205326870734767,0.010962817763597418,0.3952894327501468,-3.8957322047698932,0.31501408327161606,0.8609239048077323
180,-0.7014059083848084,0.019256926157673916,0.3970386824894372,-1.0020870392230599,1.9469712254394818,3.418749180739804
190,-0.707921836267661,0.01864017331399491,0.39215473394127226,-1.247696146055247,0.44847870089966224,3.0067715532225754
200,-0.7189946198060984,0.008126524285575908,0.38563691926216276,0.04740795708873491,-0.1595220471138572,2.576427503021449
210,-0.694814964386726,0.028658943788482,0.40938699308454446,-4.2482896615328585,-4.644597181758905,-3.222465981382634
220,-0.7346075469728837,-0.013640419620350723,0.36909448601154576,-5.229621861788839,-3.487922605616886,-3.82346510104581
230,-0.7116189824515482,0.014308523599965994,0.39437762996274284,-1.1950156667348673,-0.8864022341842526,0.7071540393490506
240,-0.6830229741122947,0.04237827138948351,0.4215085923814337,-0.8350169094824615,-0.7757362594685475,1.8172490155915793
250,-0.7108484509784454,0.011735577199977533,0.39846681970597303,-1.0302858910990926,-0.4437575935941979,2.2537571479189173
260,-0.677384581509429,0.047587790432652495,0.42816572934211694,-4.779043994987913,-3.443843290157713,-1.1430778309478984
270,-0.7642993289808235,-0.032243885068676294,0.3366010970445983,-1.7721126597755879,-0.3041365278478393,1.2838318457203095
280,-0.7340302924657965,-0.0016254786695942564,0.37026248450445404,-0.8654135272578658,0.1267570108399474,1.1925487329058226
290,-0.6952537930695606,0.027243737987207625,0.4036960552992411,-0.12817632245566923,0.7100871562374379,0.958845832641233
300,-0.7419515235640886,-0.013848957913635558,0.3611638856548944,-2.02148795471642,1.5997692037181421,0.20804387694340765
310,-0.7154836206676742,0.013673424290254936,0.38067640862571445,-3.8427213341526536,2.8320344436367866,0.12386971814747016
320,-0.6835766419243083,0.03553251351723604,0.4123315516026274,-11.907508091599858,-3.427747095231969,-5.553928267815584
330,-0.728835870091514,-0.017111783856601455,0.3717756639377906,-4.12067196684228,-0.3304240463159549,0.7345008033452518
340,-0.7241602085282266,-0.0202180233474705,0.37470120347362457,-2.1907520551947606,0.17198649021551438,2.805707893040707
350,-0.7398302295773804,-0.02872605411602273,0.36071935871478833,0.5338065757913837,1.2753201488248942,3.772330464008797
360,-0.7229755314007293,0.0030780248028574554,0.38246962854775607,1.2981985922374204,3.4665076203593777,4.672874960774762
370,-0.6971227477485945,0.034648088415198744,0.4104107746054338,-2.6572636377533994,5.799919248992456,4.337061124148649
380,-0.711933929600865,-0.0027962614061276176,0.3965923401921049,-2.835618290524626,5.157318321552927,2.611396952508461
390,-0.7220450217035476,-0.07074691686591764,0.4235954139779761,-0.6124061400981483,-4.868649076775211,-6.268031761007141
400,-0.6844605306630289,-0.19971012038385574,0.48511635824359933,-16.77233291053966,-20.380133449851776,-30.923683595870244
410,-0.712460193181983,0.15356783007243022,0.37146082104036054,12.068420460186342,-5.9811809131777265,-15.609341372254228
420,-0.6467456315820637,-0.12133666406886498,0.5823397297386832,-26.886566410292012,-9.098110091738222,-38.52578633247737
430,-0.7258454343786407,0.11001411476173713,0.5484551908592714,-14.600498456236261,-2.2006536725793806,-13.343521491980612
440,-0.7966624422471047,0.1995158699149578,0.3430952788132114,32.27412917101544,-0.20504856720745446,-7.40747407630235
450,-0.7471629804205067,0.0809919824945887,0.211634113460649,55.22974997426194,2.2498663599910547,-15.870472398533446
460,-0.8379423865453284,0.18538864714422143,0.483215705262762,32.68168288236167,4.6763361989129795,-33.68299088453338
470,-0.75710661287114,-0.009845855721160509,0.35500895530299004,3.075417404257635,8.558802578588008,-29.39688010322453
480,-0.6760235250967425,-0.05736981186254202,0.2821569681544476,5.754377220183475,10.043484606279993,-22.325432229011454
490,-0.7099951826203222,-0.05994105798354342,0.4968031237882458,20.962627957042386,11.83192241779362,-21.188715822103198
500,-0.7186203893267872,0.1798677747648883,0.5470263397283008,45.9977671703789,14.228959181494892,-14.771959625722516
510,-0.8126684016071607,0.24429024425651213,0.2548475155028679,33.8005585774645,13.406231619021751,-15.96570404215476
520,-0.8053795264602446,0.12881402797941227,0.12544432094242908,15.096093457950316,18.566189221645626,-7.620571175878139
530,-0.6702164074454496,-0.016038276537856885,0.637984181980988,8.460041122877515,18.5832443083643,-6.635852506171417
540,-0.6909974584380355,0.028077372978983137,0.5022138925441445,2.18559308845061,15.73358181984385,-6.388173077366216
550,-0.709356437108645,0.11460247383964806,0.3058276723740793,1.5851389312045856,13.134615454957524,-6.310522024221946
560,-0.7488524331011586,0.03970852117649774,0.37003237971117187,5.161924806334273,15.669131624525951,-0.017836628607126342
570,-0.8614516129192984,0.1667506187376647,-0.030127742460395922,6.039538938743215,21.51414531827057,13.587865024354556
580,-0.7209595083075919,-0.05181559854435755,0.37102942354908647,-1.0102250303670075,13.27820503797337,7.875561390088678
590,-0.7261029966631226,-0.01278973151392978,0.34285249165607057,-6.05409702750645,2.9197147507130383,0.6762908843117961
600,-0.691166241142838,0.12684734124384242,0.2073719895228149,0.5404266239894241,11.62856380843857,19.42578253770129
610,-0.7247334850433147,-0.10481523924216522,0.29200839470821116,-9.295121211781101,-2.327504124460701,0.923169954345407
620,-0.7511067603603008,-0.06396545961313091,0.4245565032163469,-19.834548813221375,12.069390646045157,17.214776381193623
630,-0.7359188448277335,0.08984295253838527,0.2779221120476387,-3.984859054338524,15.63396165230698,24.962499426476498
640,-0.6826994207398503,-0.13513522845615628,0.43043842077587446,-26.267797097812917,3.3088649593183037,0.9550950936496094
650,-0.7014653574749464,-0.2176901563890049,0.4953335100766197,-38.64731268781338,0.6823670579454416,-3.777494761981982
660,-0.7394236917122106,-0.12836499440136684,0.4252974206690853,-24.62568487781698,0.8926456390170348,1.6648565542928664
670,-0.6810293422417801,-0.05507768518106852,0.44021666060126474,-25.75505594844476,-8.952970152332654,-1.5546515205511708
680,-0.7177510143035896,-0.15053480124846427,0.3434173332561043,-40.469338173134034,-6.071488915981337,2.2939631577766604
690,-0.74627442921548,-0.18973780342779245,0.3284214601585086,-19.88237047935418,-2.0030878298208834,6.625591733242968
700,-0.7320866703140423,-0.07729832072119348,0.3384152967601928,-6.098524025115379,1.5470934536007561,9.560779367514993
710,-0.7480193733242974,-0.06385010628342193,0.3083319003861118,-9.761251814034333,2.497724693548869,4.131328690709888
720,-0.7390490068769509,-0.06803395332978829,0.33768127372995344,-4.821263906046117,0.47375830013125486,3.513076447147523
730,-0.7243313596631605,-0.04538656649299445,0.35268233824593087,2.421800852101867,-0.24332590507961824,11.123299811348538
740,-0.7150482593241116,-0.02428699463246278,0.36146425418621275,8.982616567097734,-0.15332675241935068,20.565098045426012
750,-0.7486579993957053,-0.03853454671574102,0.34203742338400095,13.026811480608112,-4.808444796712458,23.745226136115306
760,-0.7339960646923255,-0.06305952863548646,0.332439220794179,22.179282252840014,-4.855279225883053,27.972450268209343
770,-0.6524202350372735,-0.24245428594676127,0.38471491632361876,20.452339516662217,-8.662075914858125,-5.395179774296178
780,-0.6988879360027963,-0.17781957223722195,0.3831928540820251,36.100423121498025,-5.136750930932027,-36.44781629692675
790,-0.7788648406554416,-0.027846021213949926,0.31630372638561755,29.832238247425256,-2.00081171904909,-37.48659896764148
800,-0.8337604022428995,0.039208277311387055,0.33798532584998203,25.43654579218945,0.8895656023386981,-27.251283316296853
810,-0.8393814889486422,0.19860499251336353,0.17998360348039155,39.782016649204905,2.636270752335521,-23.00107744978644
820,-0.7536433432984457,0.23711268887772735,-0.028333292471031002,19.958799356602253,7.124436900814844,-21.84360291752314
830,-0.7826907610719556,0.25383987768582816,0.1744364406170679,19.982337577169243,5.773356033006216,-16.95125186420774
840,-0.7967971348316317,0.12120601432411365,0.39165059512282946,44.44965493177586,8.280530784762089,-17.21337620079913
850,-0.7878509156923283,-0.02651335898023037,0.2101606647109298,28.495590695837926,12.45407276773421,-22.43773964953798
860,-0.783250046564489,-0.05600493943159724,0.022491564876471554,15.307390367355246,20.246249598186505,-16.438136473844963
870,-0.8204993851153966,-0.11809839231794438,0.08606472554030523,28.350503906957663,21.886204523429267,-10.590340388776438
880,-0.7962798237638766,0.059128129452756854,0.3873775832389926,49.52724850078648,18.209051687410156,-4.773516687469247
890,-0.7830546445026112,0.08777165645351917,0.41815370469463187,30.879513398227974,20.58982354626644,-12.107459619886884
900,-0.6749787110508072,0.1823085902075789,0.39554065387276044,-1.5023972369936451,23.649279147936316,-21.27516554740418
910,-0.7358409556632497,0.18456967467944133,0.39748345943501917,-11.094781733438662,19.605270031079442,-23.00080263175325
920,-0.7592852171025228,0.30748389601306925,0.3452470139498814,-15.632436448267311,21.617542807208416,-10.520036194054072
930,-0.6463142345103623,0.5150999416588151,0.3133996084101116,-25.698425864390035,17.408254622992455,8.344879402257625
940,-0.5972244658824573,0.12624177935940445,0.44562631194066826,-40.38808797536667,7.280423418047112,14.978692200305547
950,-0.7940572805190796,-0.47382232261915147,0.36108429510532053,-69.34038367871874,-7.0812339735097325,13.13157538244493
960,-0.7047729346448917,-0.2690194556484145,0.37809006006636287,-40.23092263421148,-17.535173452890735,26.671279371743797
970,-0.5739138602457355,-0.2720286876402891,0.4794786812415997,-4.819462283363833,-19.636702830962278,31.41795139021433
980,-0.6647950167120764,-0.21916072238075113,0.3809329583929544,-50.28225747049182,-22.409780889938396,17.376363420118285
990,-0.7309374899325513,-0.2033848494681937,0.21244857837759293,-58.67889483903169,-15.925943745764476,3.3829625756491746
1000,-0.7290799418815684,-0.6329993351670078,0.2588029582761811,-47.93703553977649,-10.22403965003162,-28.365737157003714
1010,-0.7560941392535094,-0.22311002235731112,0.2452617031212052,2.0555113763023236,-5.429808132301448,-9.967497844557512
1020,-0.7611593836136936,-0.06535025637906862,0.30020708896453624,15.302796486412305,-7.1120764199596636,31.31905286907785
1030,-0.7455837157052639,-0.037245602734641975,0.31854080997011663,7.257821590849556,-8.819243555412053,27.19876642013995
1040,-0.7447243989661314,-0.03396605588056121,0.32519049779034304,11.126462676646522,0.5759663424227868,27.188022912348455
1050,-0.7294937268699766,-0.0005990472718022336,0.34285343614082425,9.334883928024041,1.8312408850467061,16.169191406248235
1060,-0.7175147053771551,0.010261056823155977,0.3497812831798776,3.302397033776377,1.448919702172609,5.354130894486439
1070,-0.7245570828243695,-0.01202480482289661,0.34171058130877646,1.8247829006255762,0.11908403964899403,3.6809956689163235
1080,-0.7375095930425803,-0.042942877005712254,0.32597076993996504,5.35282160558092,-1.7842988376870434,10.876190166442907
1090,-0.7402093880016594,-0.03623644399145298,0.32917179050145934,5.2825067724904935,-3.618992504114872,13.36890555514157
1100,-0.7551526635506763,-0.03313605995666495,0.3156491661239924,8.705856531440784,0.6305974440737359,19.171029448326806
1110,-0.7365265337269413,-0.00553744063556988,0.33043730368406776,6.059570262014118,-0.32454784464743636,16.682157982337266
1120,-0.7256737861660032,0.019208177308804232,0.34008189593333016,4.6913599824491445,-2.102656233776483,10.998681924013468
1130,-0.7221131838422983,0.013777349980150526,0.35042493730570284,2.1137135369461717,-1.7301939180297228,4.344423130702803
1140,-0.7272413942479597,0.0017707231785449376,0.34438670180307224,-0.7405281090383786,1.7156091366293749,0.17947313907591878
1150,-0.7321080030459554,-0.00027083496409280143,0.3328404834984492,-0.7109103743996048,1.60401074384882,0.927649149488156
1160,-0.7164228237000736,0.01947327945819333,0.34940604043702805,-4.0893417080171135,-0.9533092216398034,-0.8705074369078356
1170,-0.7623705146906856,-0.042292625402115626,0.31071875818944555,-3.2115439797062746,-3.064949078308944,-0.5629876584715936
1180,-0.7341569875656205,-0.023328854116792686,0.3372009933027102,2.8044101475350263,-1.4940300218843412,5.049614818279072
1190,-0.7419052522337842,-0.021987056311930007,0.32572328313295856,7.4292436370361985,2.187705086322998,10.294142951102526
1200,-0.732079944863898,0.015552799081653542,0.3343556045888646,3.17656551199255,-0.8575815171123052,3.721623002934328
1210,-0.7365819280819528,0.00458707821365072,0.32887530816483723,1.3870840727160372,-0.9717229786027499,-0.6552089048590168
1220,-0.7516825667383833,-0.015538610933052834,0.317597404180962,2.1664191364796945,2.0288524664452785,1.2920580952039429
1230,-0.7322028371946872,-0.0010643468688114957,0.34119019863609606,1.14019194652942,1.5103128845892089,1.9363124115439905
1240,-0.7529325694532532,-0.02634346362850687,0.3137956068863898,2.3081690993358155,-0.1610560863430372,3.4985104338309707
1250,-0.7509361988772729,-0.01566309786278507,0.31778831802751767,5.892285130281378,1.1409164673237904,5.637204459112393
1260,-0.7457526907009405,0.008870722440135677,0.3305249733882522,1.5446952416167812,1.963320696085945,0.3087851774293273
1270,-0.745113682295986,-0.005373157692962028,0.325372448791514,-4.664890457432872,-0.07311759268829987,-5.255657284564224
1280,-0.7162520133894307,0.0160200360798482,0.35155597476447287,-4.171302685056792,-0.06437806736898422,-5.2225965330812665
1290,-0.7395502995163922,-0.012078712487919242,0.32807724341219313,-0.4763490686746809,-0.16409747518190443,-2.520816945177584
1300,-0.738970724282874,-0.008216562368154098,0.3275731074076583,5.108181562023682,0.7227677760520645,1.995841372957846
1310,-0.7586616622523452,-0.02593072871186312,0.3092372338954605,2.524087788305963,-2.362014647131587,1.9893221885243348
1320,-0.708736234562693,0.039526927637511346,0.3626412739587419,1.16296228940011,-0.31581505192687886,3.887152725153251
1330,-0.7700972058642043,-0.028212916044013027,0.2978503792374417,1.4437909789657868,0.7136261856129816,2.3936008719764374
1340,-0.7298682071838712,0.01104224514999698,0.34342778670966667,-0.9236281489461746,-1.4144268029422418,-1.7119223742638394
1350,-0.7205385651907519,0.016451291831852993,0.3518814459541965,-0.4055290574620234,-1.347348496257304,-2.3827514211553735
1360,-0.713587499814434,0.02494311420157905,0.35620091296863793,3.300510182813118,0.0961668612552592,-0.17699955814257842
1370,-0.7494058431220321,-0.009918601401602148,0.32025276333063074,-0.9384357959428498,-2.3802834196736424,-2.6230826315537286
1380,-0.7596579288580265,-0.024988503052596384,0.3110293297216989,-0.10175980451747324,-1.9874333842354974,-0.6421035018119489
1390,-0.7650789239381183,-0.03135526543623913,0.3027226320080006,0.9975354722743812,-1.551260602491321,0.78466317377203
1400,-0.7424417837017976,-0.0053900667155050855,0.3326649555244809,1.2396586900893865,-0.8001009190095423,2.165511249728774
1410,-0.7426742923608891,0.0038955305379487575,0.32200432470008195,1.7834136612125127,1.691430937862855,3.8882364206900313
1420,-0.7426308763484872,-0.006535079174449354,0.3217786131753597,-0.04614775346485356,-0.1288898665672874,1.7456414245157101
1430,-0.7188375050379436,0.013944174682371016,0.347084341402874,-0.6030504770727542,-1.2366033315941687,1.3888315529326576
1440,-0.7478710735103031,-0.00441199663241427,0.32462909708399673,0.933028810386777,-0.8182556740529753,2.928864093229024
1450,-0.753502026172458,-0.007617580898592593,0.3201700736994967,1.6525128381468062,-0.47334493861789656,3.5886800826550935
1460,-0.756468055485703,-0.003975605276438993,0.3147434760181665,3.1454367722809713,0.5062727612643418,4.198754465745654
1470,-0.7514605616508031,-0.007367316871113819,0.3187680297228089,-0.008213511112296734,-1.6519060698524857,0.7598318914767721
1480,-0.7546606586533426,-0.007946422638921497,0.31811991122822986,0.22213339840186752,-0.4174156800939313,1.6998326841723792
1490,-0.7324224838140558,0.014211248971796295,0.33585296860784164,0.8814961814598443,0.24634458002471227,2.1348674074243887
1500,-0.7545375631364274,-0.0026418257614059647,0.31399386298003745,0.03404378813125586,0.8244938270345012,1.3280209182383453
1510,-0.7337116437409645,0.008159980139859717,0.33457145596657245,0.5503886949514123,0.3908558224140413,1.8298785191608862
1520,-0.7434848521071353,0.0013711038895634483,0.3206659505295543,1.641400262579164,-0.37567637023954187,2.23064355531733
1530,-0.7499637986207092,-0.0011901659986087425,0.32697399566797036,-0.12783497456465254,-2.17825281648611,0.5291718385801976
1540,-0.7423553378805885,0.008217096177830155,0.33376483617967007,1.716177269148451,0.35526120862481814,3.272933635106572
1550,-0.7250141386241186,0.02856350003279593,0.3476007745025309,0.9368971838010378,0.18258050259600644,1.9498297194822127
1560,-0.7475622213939652,-0.004656276333173732,0.3226368236398678,-0.18902424993269634,-0.34080324837775233,1.5916682327604914
1570,-0.7443435603386299,0.003512602761514551,0.3236617351837367,3.7594386266900557,1.8939875516607003,4.842876467893598
1580,-0.7358592563629135,0.011345841685613214,0.3308794754990364,3.3683285792060706,0.35898958793940505,3.5227095972646967
1590,-0.7246089246023608,0.02485382357289799,0.3445215836073957,1.6595401050566814,0.5297883984213141,2.5070727341502925
1600,-0.755819335342762,-0.006473965475878968,0.3157540321490154,-1.9189699070632238,-2.2850729007518376,-1.0224248730077532
1610,-0.7345361634432976,0.01909710785221211,0.34065450033263056,2.08408697364576,2.5816984438828667,2.148212281434888
1620,-0.7223693902734232,0.02851220801737702,0.34718313029668213,0.2845650332762072,0.9567679928272381,2.310691755626555
1630,-0.7484189390644176,-0.0037916721908531187,0.3207915033520213,-1.512730785419566,-0.8500074052552443,1.4001903040817725
1640,-0.7122484346186974,0.041804473647196666,0.3551617494347155,1.2571525290428185,-1.515244625128669,2.441593945096976
1650,-0.7599728136537459,-0.002550745941978027,0.3177338897885196,5.491008818631805,1.9527725797597302,5.447803130674929
1660,-0.7302747186041072,0.03683870166021325,0.3458682244118745,1.4822375365854912,-0.8658578566351544,0.38298190809936883
1670,-0.7332908041569732,0.026175980130788153,0.3399561139115103,2.968516966222982,3.0513199135267737,3.003160869440797
1680,-0.7275571525244865,0.025809012768925464,0.3476138146970339,1.2083654941722901,0.9493616967030287,1.8068920615399393
1690,-0.7502309973951944,-0.0005144845489164704,0.3222608852544435,3.7193516435781064,2.187448148817706,4.777029703806242
1700,-0.7155060962583164,0.03568632923500678,0.35085622604298167,3.9644214042241157,2.37258187824438,5.450254845945688
1710,-0.7566029904829165,0.0036000141572777138,0.318161752951042,1.0915138100817723,-0.2867927029625801,2.258013144213478
