time_ms,ax,ay,az,gx,gy,gz
0,-0.8847676656151608,0.11537393669216421,0.4784699925352899,-1.1313105708285638,-1.0896975089570153,-1.4882087734586762
10,-0.8624183416055483,0.13002839628284188,0.5001630482080169,-1.6370175828999016,-0.5409332420152191,-1.411742680571606
20,-0.8943503023430832,0.09336866333135621,0.4587081363032979,2.5352314413594597,0.9778901766946216,1.575212659061574
30,-0.8457744303264871,0.1461049527640487,0.5049280939787287,1.4123812309272235,-0.6530416169163025,0.09569404131368797
40,-0.8674204268450786,0.13598145670753767,0.48635850746153086,1.6418060588472234,0.08760254644409758,0.33085431426742956
50,-0.8791391469040617,0.1296938581948433,0.4756968346814245,-1.9649679537544753,-0.5449215857418201,-1.66559933845739
60,-0.8961021395325882,0.10274224611901625,0.45890175516039017,-1.8232160377437783,1.1493151192253939,-1.0059540662864728
70,-0.8642387023199627,0.12976474408081587,0.4955759803237774,-1.296434437408322,1.0342942146053191,-0.16478667012792925
80,-0.8699238385535738,0.1290272399663784,0.49192506483364706,-0.612675073872722,-2.13952385847031,-0.7923861038723568
90,-0.8533930372793306,0.1371818219261449,0.49927307728078973,3.518207609626728,1.2961050270421222,2.57871053525838
100,-0.865607570374587,0.13134678902596753,0.49370791495239064,2.4143294251925838,1.5455899728784792,1.85495882150353
110,-0.9004562619463103,0.09639955258326802,0.46365044860582993,1.1823305754956144,0.7413317424757919,1.1329388457287097
120,-0.8796395889230593,0.11563733040676481,0.48943080289753343,5.148460215399099,4.126758113615762,5.457112858522857
130,-0.9107208492518927,0.030710605087438156,0.49100293100513603,2.373867302735449,-2.6722830216919355,-0.20800726458635266
140,-0.9633368861507553,0.07655356489445675,0.5402070347459841,16.960347701512188,-16.32859413991208,-1.8420405817852923
150,-0.9258581322161444,0.19134081765479233,0.6049092640965131,27.361719895953136,-34.890148688885596,3.0200594505105887
160,-0.8365294001012298,0.16218900002219583,0.6000941209435828,20.120142996175012,-40.55488474945592,10.846930404622002
170,-0.7992664048229554,0.12383692580354906,0.48174766162148375,4.0430106192475055,-40.39816669539198,9.375740179033315
180,-0.6657323862806225,0.21271086419066704,0.3835938026038537,-3.3966224110631416,-35.775247244929965,9.150694307028736
190,-0.6620247278716561,0.17103435601573547,0.31920455056935165,-6.9102890854203025,-26.853278844853364,6.746481415709278
200,-0.6888005793096369,0.15543693930667107,0.4213450962473081,-27.538821639444755,-12.473936803679136,-1.8103348460539275
210,-0.6996119150049921,0.10997283801398187,0.4271637787107383,-47.91744237018819,4.359236557619017,-11.395977933522213
220,-0.7975952425815775,0.0048406507155888305,0.586494368299489,-48.489328633675875,8.101596684226285,-18.9818504918667
230,-1.0327818915170686,-0.09769569914312644,0.7638905855532475,-37.05424410362919,-3.9822693308585597,-28.25150059118875
240,-1.0048790219525998,-0.20290089180829915,0.7510948824842096,18.4914064847867,-24.30364465707583,-23.453552641144572
250,-0.8111560137598552,-0.15106174443318934,0.755207697387631,37.34404504252538,-15.089174432617032,-14.53887531206372
260,-0.8319427551777271,-0.02159545775598436,0.8731870930014641,23.296500877359332,-17.422374810227858,-21.123275394865313
270,-0.7264541006452385,0.27000031579665207,0.8758861139164359,2.5729334961386146,-5.978607938759983,-32.93292927674971
280,-0.9017858916020453,0.10061669749696234,0.5925498098792592,-7.538348149788013,6.7611235086951185,-12.535522632977578
290,-0.8877433037661068,0.09728760145559891,0.3841331892035487,-28.811487496811637,13.937079437529352,-17.164098269534566
300,-0.9333214153720324,0.20176335701483833,0.4031296383124796,-24.434563381124725,8.858756425478564,-15.82811684082285
310,-0.9450321481506759,0.304945952489853,0.3875806651438067,-24.07854932435037,29.102226477756943,5.140154740788128
320,-0.8128361005458115,0.05840657863332374,1.1990260705086913,-35.63927424282696,28.522024895767863,10.902936179760768
330,-0.8879926638452452,-0.07892434075838928,0.7800047427498783,-19.00592262081923,17.620882390929914,20.200714956295133
340,-0.7517893674970418,0.01602313274821264,0.720628179706777,-14.904533744967809,19.832814413137275,26.859448794613737
350,-0.8046598783914087,-0.23408171709839345,0.7006436302940845,-29.537134355567797,4.068697991757169,7.868074015711335
360,-0.8478740348454158,0.2887100299798774,0.4874579391608384,-12.28587598665724,8.465052246991108,19.734225945938274
370,-0.7936167839669506,0.18232378233373644,0.583309018377021,0.3526820966428881,-0.4151885272425675,18.85334872938623
380,-0.8359151693747586,-0.07859400978649342,0.5284905937461489,7.942221515495364,1.1422438245947264,13.928489121877865
390,-0.9064314506553914,-0.13334887068836174,0.5307745027219497,17.539275846963893,-4.731977295254479,-3.1425606473810537
400,-0.9364638602223613,-0.028052312317444997,0.548099864715385,17.718801260075693,-4.899991396079807,-16.998891374048693
410,-0.9285349038640202,0.10599080639522532,0.4942651117224477,10.68826793581109,-1.6262351707063152,-20.14223649068155
420,-1.006993090243174,0.08592003909445545,0.3980518188089719,8.821783272853938,3.7925387674654814,-13.554324976407521
430,-0.8960693798296576,0.1254994293895465,0.5503243511450777,19.76028170893422,10.208335840071483,-17.008078470737544
440,-0.8940392665778538,0.15456186537137576,0.46403725359495557,25.902541616285895,27.055567477374332,-15.650862132928705
450,-0.9194574812957087,0.30608676991352324,0.23310313510896508,4.438010202727917,37.31376099079412,0.15590369569105197
460,-0.880937486810154,0.5099662270738611,0.15104907651534544,-18.593044983444308,28.948839191033645,10.928324523145474
470,-0.8517857657091388,0.5939698172038245,0.2109835662773226,-39.142734504901064,13.534506356448658,10.940437766572282
480,-0.8008435719156572,0.3375454404270837,0.4713775470673246,-47.70899672141965,9.56428628741538,26.71547940963208
490,-0.8047036095007517,0.07078635796255747,0.6660107325789422,-35.66945543205226,-6.045965057179228,28.4717335376375
500,-0.8603036137806538,0.09252063987577212,0.45373505943378345,-3.7407338544850965,-12.963264036835566,28.726989717928877
510,-1.0168353411242592,-0.08517886725502725,0.2299029955795639,-16.8658403840126,-8.294424095043205,12.942470578466276
520,-0.8826392846368113,0.027717284022933848,0.4563055526683243,16.946333270486015,-0.933643258109448,2.620793876243413
530,-0.8696495443402756,0.08490549815111036,0.48058974726845466,26.351765883921637,0.38740931877762796,8.796330021713256
540,-0.8978846592068174,0.0706847658892669,0.46259672116986467,26.02669391283636,-0.584464665085952,6.270489582633286
550,-0.8890465867938844,0.11402793605452499,0.4752104564461696,18.68427348251331,-0.14207356185617837,2.4116913234790758
560,-0.84958397124843,0.14729187235522118,0.49999916387973636,8.894393369101035,0.5708897072022985,-2.0282114254316395
570,-0.8863475137063396,0.09074017696478784,0.47180136220216984,5.971127841500834,0.6699281510001702,-5.264229666846433
580,-0.8779795465787047,0.08198173799735514,0.48590615698236905,6.165543206451774,-0.32151244649310495,4.06192234877049
590,-0.8722340690928136,0.09884121611264614,0.47478727798917636,10.11811412187835,-1.779960036936214,6.14286456738713
600,-0.8380806614053337,0.13717431040175837,0.5183396243500129,9.327601475694426,-2.605319077973911,7.095076006637138
610,-0.8750897373463623,0.11027667935115382,0.48277183813768726,5.566912501404165,1.217940112360835,8.896018450351832
620,-0.8672336974588389,0.11702670623364299,0.49587203906788674,0.337993855615621,-2.339139604063108,3.5449817770931356
630,-0.8918479562002926,0.08775123937068305,0.4729889484624477,2.2182286585195126,0.013458895167851814,4.0305716606117095
640,-0.8693642900229246,0.1110258406550373,0.4978180908506631,4.816456202572739,-0.42407674724484407,0.4669339444059104
650,-0.8567156156163502,0.1183632241426741,0.5044730633253105,9.691961909647206,1.481946870243275,1.9825981451513015
660,-0.8823412775086399,0.09767226306346476,0.4820075393086563,8.18496268054805,-1.215679336222332,0.4536594273284682
670,-0.8861301150593842,0.10293270232477941,0.4788769164289011,8.401990760739373,1.0280123389936728,3.217009375861678
680,-0.8760872357959614,0.11823472514634607,0.4816739909617331,4.046652843450886,0.13769026725582023,1.4290005190216446
690,-0.8482534746968975,0.14409330279945026,0.5120079626055278,-1.7750585009708235,-3.0179345332789946,-2.9831233398591053
700,-0.8639392059814396,0.11998221311763137,0.4903093248688019,0.21890506784391994,1.3746440549204755,1.338106211476246
710,-0.8794340150507696,0.09459539987726767,0.47734961518747376,0.5326703831322344,0.5901498123978505,1.725079708122034
720,-0.8742220736285984,0.09607823248096545,0.4858515493275895,3.009408776049739,0.27899965637025875,2.7642727245110277
730,-0.8816177905816978,0.09455187186465251,0.47451138535691556,2.639798759102625,-1.8987594624484911,1.118401551864885
740,-0.8465258138389141,0.14276652979932067,0.5116772784013094,3.3551655794350532,-0.7806420274949049,1.2623668759899918
750,-0.8701357320703224,0.12568710429489385,0.4908268006732413,0.018133212145027333,-0.783691085501662,-0.8651026714350601
760,-0.8628840239833477,0.12299825759515401,0.5014200006945634,-2.6346107058957804,-2.4237732535815883,-3.7159040315530696
770,-0.8820212685061475,0.09735022877812527,0.4817957754633048,-0.08563810368523739,-0.734873377586232,-1.3065631719564323
780,-0.8730012046042124,0.11095289509465225,0.4935243579688854,-0.4559472067745843,-0.7466871813354864,-0.3790667967274578
790,-0.8768148835741466,0.10509690134003055,0.4846769787858262,3.0357624985188347,0.2175112198933103,1.173853677563011
800,-0.8670464768430841,0.11930782651252882,0.4943854670809893,4.205320665404811,1.1419263716721026,1.813056296989811
810,-0.8715506858110241,0.1254667943807124,0.4868538249045312,4.428281805264105,2.4150025618380946,2.2133638415557595
820,-0.8952677991914314,0.08930658648266962,0.46962656655342144,-3.2203621060735284,-1.8825047674872595,-2.6109152631845696
830,-0.8729772689028104,0.08867888381847625,0.4798966289098717,1.633457003193318,-1.5592742936167094,0.25559676239716866
840,-0.8651401278210084,0.11769495794601402,0.5037073032722253,1.4754465889072292,-0.9025000903909681,0.5632316543396652
850,-0.874421954436533,0.10594501566906335,0.4863387910319275,0.3663100567528276,-0.7880509424739308,0.35515904709269386
860,-0.8724152383690084,0.1012398783729396,0.47897458931511305,-0.059704495506779254,-0.1371476212067364,0.7675589077765508
870,-0.8491907058691379,0.13151157079574763,0.5101911744888085,-0.4928427695731583,0.6793605953057216,1.079536922560215
880,-0.8728778323989708,0.1076848580003448,0.4805822417395944,-6.286008906800205,-2.628840638881831,-2.9231519858617236
890,-0.8540314421841998,0.1149659828189784,0.5059584924360686,-0.22848827872548838,-0.2437931348962039,0.5658722681906396
900,-0.8721982072983481,0.10527178525475231,0.49591386680600524,4.358316977998246,2.385541991526612,3.418470239031125
910,-0.8752209007823641,0.11084851975653554,0.48999216558536923,0.08593867108219255,-0.4097115925674073,-0.5471122168756976
920,-0.8735929326205635,0.11564261173905978,0.48948790791463165,-0.39850900731611594,2.706244703396613,1.3151211250057155
930,-0.8943149507183502,0.08917285369974183,0.4648617072370467,-3.8560195056468785,0.1653325582143751,-1.896029832856732
940,-0.8840574952191106,0.09439349687218608,0.4747312390687111,-2.5335741888958827,1.4512898064817643,-0.4614533046526972
950,-0.853036564278758,0.12262537308565835,0.5079529092342577,-2.31053475666383,-1.5345327621549965,-3.1882267536574007
960,-0.8761074683613467,0.10365353429762635,0.4818335969414975,2.070556721913093,1.4483935734360425,-0.40564779405087414
970,-0.8863137126968416,0.09704764295589009,0.4741196654299014,-0.6621526670546529,-0.5118602832513346,-2.3398684454727388
980,-0.8629272505326199,0.11419265036503021,0.49702869746931533,-2.368888980766094,-2.265087475599374,-3.790930325301471
990,-0.8340756160434485,0.13866824251378956,0.5277288386929765,0.17700849782972075,0.25831629371170484,-0.7842481565735129
1000,-0.862644294376056,0.11334140207267958,0.504206236716302,-0.07691703964589641,0.6566304309509139,0.014836040330218514
1010,-0.8450351050349465,0.13131587869734082,0.5190344410398875,1.5309923450758942,1.4725905609690992,1.2862360662629226
1020,-0.8928881309437602,0.08621171922172716,0.4695447134219622,1.392006866188542,0.5700674946376678,0.7358020079847964
1030,-0.8678532642692329,0.11574456966158791,0.49666111324551393,3.470001733123067,4.264119784413629,4.319843767997549
1040,-0.8638524587344227,0.11607760479034393,0.4986918293324551,-2.816893405935727,-0.7661790871730774,-1.0374097866016943
1050,-0.8718998417273236,0.10569971482747907,0.493203621438011,-1.765065731369271,0.03664015032336884,-0.4159348393518477
1060,-0.8906949388380047,0.08479444513437649,0.4770747594669304,-0.34762226752105185,1.3276785087476028,1.1365280077646063
1070,-0.8517319467726936,0.12184691547133579,0.5118352588432145,0.9727756425802694,0.6849859463949485,0.6532102300172209
1080,-0.8563686600035565,0.12091025178013425,0.5024762340935259,0.9465103716851813,-1.8223534799068388,-1.7749353873864573
1090,-0.8688911573993298,0.11086563264461623,0.48948819150371364,1.2586265707236501,-0.03313426496785983,-0.05152519998106865
1100,-0.8173399808074926,0.15664554023252747,0.5487919692245957,0.6533087661056569,0.8360401415334701,0.8498764518932306
1110,-0.8643849997215776,0.10514834086701247,0.5055425548810342,-4.532954453035531,-4.089348245065213,-3.4904356788280637
1120,-0.8780995990907554,0.09834897396141797,0.4848601805269257,1.5492413450099378,-0.5856336319762163,0.3280106526371547
1130,-0.8768820850901907,0.09945305808163765,0.4914288211080643,0.9130370687257484,0.3362287725663007,0.73043195231577
1140,-0.8630603231224846,0.11107649011951387,0.4974325412384018,-0.08614229224383152,0.5285364714273054,-0.34785547569241926
1150,-0.8489314034844513,0.13706630101455283,0.5107991839327958,-2.544258894425543,-0.7380595649486548,-1.2021173558167058
