time_ms,ax,ay,az,gx,gy,gz
0,-0.9218991917266063,0.18094666548531824,0.34309392954043405,0.555111648314114,-0.7209349721504734,-0.7373483651450286
10,-0.9096036924113566,0.18212191930890037,0.3475780200061766,-0.4579782177801974,0.3205110788552599,1.303796133437976
20,-0.9358811626064525,0.15176852233658403,0.3245682923937147,-0.7736902592682652,0.5379998056752752,2.2310334887239667
30,-0.915672569285784,0.17681926998245986,0.34731719827417895,0.7903005641290337,1.0953044322087337,2.862551117464788
40,-0.9123824795553431,0.18610058713601646,0.3483521989270717,4.000538282366339,4.216432438612946,5.773144379047953
50,-0.8998788464622,0.20269733953053207,0.35972940516684526,2.4076085664400892,2.5217269751137437,3.4211474572111666
60,-0.9283059241844043,0.17311284394212526,0.32970414053289854,0.9465506626280817,0.8311753946534092,1.2002173245083565
70,-0.9188468430291179,0.17952865895003212,0.33579875554023614,-1.7319962253113954,-1.2035207945339879,-1.5146669192108162
80,-0.9208195471093741,0.1751922080855088,0.3322798696697062,-2.548141524525189,-1.6112729405084933,-2.2469972499740263
90,-0.8923736746142827,0.20054759793924357,0.3625729724033425,0.6815612766000028,-0.100658289200381,0.4686611804852785
100,-0.9124130066099044,0.18361814067079593,0.3445567367750796,3.0865477576092033,1.0135679007455027,1.8785014866587655
110,-0.9193378530935123,0.16868962703912194,0.335717472235466,1.4287821233065732,-1.503657025167567,0.18374738129300744
120,-0.9162869041123535,0.18534683400055724,0.34783998436475894,-2.719620883036499,-3.123950729955189,-3.2171566866565495
130,-0.9287643111261847,0.16975002833364033,0.32995630825429473,0.13810596813785714,1.9971178820719269,0.9393648868332554
140,-0.9343501732138549,0.16356121321604164,0.32391964539521834,-3.8595406740177793,-2.7937805100569904,-3.5425262379915767
150,-0.9296707591454378,0.16714993608534204,0.3297304916596221,-1.2768747284452393,-1.1000847435929633,-1.0909262440041083
160,-0.9568426870985105,0.1379796985794393,0.3028146266097491,0.5467658785686224,0.20679338638382347,0.3920443368622051
170,-0.9578532484462293,0.14049719242304695,0.3037849333721863,0.14244103558445811,0.5509073089354825,0.12915947449117085
180,-0.9323699689656011,0.16922082164270402,0.3292008705684802,0.16262635458078523,1.3127342584268655,0.3710014926740094
190,-0.9173755509971636,0.18181115045728746,0.3418194252223833,1.3516744379621541,2.4111841970429597,1.3569079282065495
200,-0.9200660462859684,0.17518908487437324,0.33969001042804237,-0.890084744641103,-1.0123265705610898,-1.149640499646047
210,-0.9139771032570179,0.18469308399830747,0.3516660497755262,2.5056730688242412,-0.5930928734004851,2.311159828757866
220,-0.9407443346205038,0.17946413386360527,0.3415126878178076,5.223075144551112,0.921612988373997,6.234482776766539
230,-0.9520155023960278,0.13625385435306714,0.33270870876144976,11.162944339692281,0.7989630300290349,11.853025581935682
240,-0.9312121614236782,0.14652257899046067,0.3618626976960508,16.328909528605468,2.2212162652823353,16.928311063133155
250,-0.9804872360922312,0.11397874017452932,0.43807318770056825,15.669285833623118,-0.6661623667390177,15.713719131900813
260,-1.0088036942828067,0.04465507113023832,0.4562890170698674,20.554150235552836,-17.50844179718302,1.3100465473681702
270,-0.9358546789535331,0.17953510787954996,0.4484425854367246,10.232214280797214,-42.716509800199525,-6.078341991011172
280,-0.8834224006037262,0.22738534374555588,0.40274558842708086,3.207091794917133,-53.05870702988895,-4.848071139396587
290,-0.8093830463331908,0.18109297115640782,0.3606864602469696,1.3287934213353134,-53.261300901607065,-3.7797872005229527
300,-0.7199171362618833,0.18992111933250994,0.37447846965110315,2.9551275263026517,-46.51179995234021,-4.7275556358490896
310,-0.7489053967202722,0.17530193010141956,0.3718331855535969,3.6137825086565396,-39.86274836945558,-10.474761530773149
320,-0.7636349541602113,0.17229440242927457,0.41192161620202794,-1.1882762797644328,-40.11646592420976,-20.038107076712873
330,-0.8325893878774648,0.17781857386951308,0.36769940754718883,-20.246925974166125,-35.054259722798996,-26.9521707810875
340,-0.9119119527373388,0.3200429221521585,0.3810369424853846,-69.42929493857474,-12.344921289539005,-20.366564025912886
350,-0.927779558891149,0.1797584587642052,0.36467646756880423,-59.10376931954946,-4.767684305007032,-8.150858554467657
360,-0.9119110489701931,0.09087813009292946,0.3996260328358785,-47.62344834487073,-3.8862677435407202,-8.31156108061424
370,-0.9606636340720512,0.11516091025749851,0.40211366091996736,-39.94689970734543,-3.3161105713166013,-9.082625823258098
380,-0.9493412004874857,0.20460178783283184,0.37276694562041196,-35.22490648809551,-0.11714496173081823,-1.339346147447395
390,-0.9146578989215262,0.16704126537477582,0.3464121382988137,-31.771914130959065,8.70273663267048,8.457383640568816
400,-0.9073178438614681,0.09625585399324198,0.36741768514683326,-16.945709112710293,8.732018320278637,9.914906929238432
410,-0.9129474976436841,0.095707701980773,0.39862737898026995,-2.127008936486962,10.838097280168952,13.382185626743391
420,-0.9252330503542321,0.10562394027177169,0.41617821325041554,-4.129472657828923,10.556375810617885,13.13822958103224
430,-0.9297037251483589,0.07646998570234646,0.44988159700959,-6.203098292652713,7.9203741711900655,10.309240390516562
440,-0.9245031746587254,0.05145591871673423,0.4377208615270314,-7.309260093522628,5.679196240039526,5.760759651030564
450,-0.8793355623986888,0.10500205448396802,0.3740572730889042,-13.356971478556458,4.486058003138111,-0.6211367200834712
460,-0.8374756025607327,0.13530476115143697,0.38503105342184246,-12.915965909908817,9.838628669328909,1.254443918393259
470,-0.8906353321729615,0.04300339734354698,0.4287101805038454,-13.845236989910113,7.336191081628022,2.922287995745559
480,-0.9159259400070954,0.000557736399886182,0.4423365633254487,-16.17547443311323,0.48668837077921756,-10.136434905112303
490,-0.9816325685972478,0.07259757892669073,0.4933777486000707,-10.42536339515075,-3.0389230134459346,-10.085667968149522
500,-0.9143806934445681,0.12231627325969036,0.4246998300308455,-15.5565949254406,-5.8078093640579755,-11.301472249100044
510,-0.9201910551617656,0.09563526962060473,0.3346087855220372,-9.36334339114255,-5.251917813652613,-10.363450762748002
520,-0.9112357847253862,0.10716435753786746,0.367936562904336,-1.5874817432242652,-11.500233729713816,-12.53858178285785
530,-0.9385080643067754,-0.027345958780286422,0.38334722074150324,14.427517447893281,-23.686634808097057,-19.128703944261677
540,-0.9540098491109814,-0.14182968691925207,0.40435929089093403,22.04346534771364,-33.88575225783024,-27.968139621449378
550,-0.9124634907197914,-0.19323222483058186,0.4821636093866538,12.927938219031212,-30.51057671135924,-28.477457827746854
560,-0.7945155549299873,-0.48133811188398057,0.6226425606863827,11.126594891113164,-34.05152429282632,-40.608176788000804
570,-0.9377472290580733,-0.4035132239154228,0.5184158381324387,15.75051988894043,-21.556265441245188,-47.826441403478974
580,-1.113836906874704,0.10668368647510289,-0.06809981995931527,18.444398117325644,-3.0475093546604795,-32.10421006682151
590,-0.8830188710463484,0.2477412249080986,0.5762954233706671,35.38389055192412,-19.036939494334035,-35.3551898841907
600,-0.7939982275101658,0.008221555017602767,0.5832910111504264,5.118560928581769,-3.772062873886873,-44.198948064566835
610,-0.8492808002557961,0.015161367644259929,0.4443217617275551,-6.465053106979894,-3.04774245460747,-40.585180497133145
620,-0.909686821184659,0.023348669618813468,0.3953819956836729,-22.386816655559084,0.4918509198172727,-36.09321137273136
630,-0.931375368666814,0.11245316597575118,0.3720520554335111,2.230887095279028,3.715136723236868,-29.641771681576564
640,-0.8813881181712085,0.059252943191174454,0.4587040368988328,-0.8228080387470613,10.7119085023682,-21.315366910708292
650,-0.8983019738263953,0.028802273927616993,0.3981837250272266,-13.727625369730964,13.183799945626278,-10.307242331793299
660,-0.9720136318188524,0.21507548046431046,0.3007848925621619,7.096338014243906,16.86926970602056,8.352100261941214
670,-0.8914894556159898,0.44149129748429466,0.42275431870660496,4.389264065530511,36.67206090978949,32.8770148015091
680,-0.7667568248531147,0.8538570757689334,-0.08324768268087132,11.320044874287218,56.42062869380278,66.26585609079049
690,-0.891465356241124,0.5321485569398473,-0.13819225142178615,19.62777505038644,47.28935155618977,57.05689522978028
700,-1.1239040539971281,-0.5911887287017615,0.8941098162565181,-71.71192028992516,59.81825635364554,39.229555521759686
710,-0.9416028640969892,-0.0011107645376837454,0.7013981883304482,4.317936527984649,51.884520740191554,71.59461065605171
720,-0.8333107043350237,0.1228900708441312,0.4700897022266629,31.73132001666828,40.46949704677748,54.859600536586534
730,-0.7947226937465705,0.2861752221945617,0.5843074856039147,24.435241160130257,6.744220706689478,17.820870442502475
740,-0.7792793966550053,0.3386729943520924,0.3458623309664352,6.093336423082295,6.948590648911582,12.751446183470286
750,-0.8028069581651759,0.21228848574434123,0.4073665670277846,9.7951137650535,7.077909191410621,10.633575069622767
760,-0.889643911511075,0.03628765318816907,0.5039865801183557,21.81272706550545,2.8465510444472404,5.823244402874283
770,-0.9356346158992853,-0.027338801414067315,0.4113090338971349,15.458596338824414,2.4022617096500634,2.648646464411553
780,-0.922139318837897,0.002881518352250434,0.412974920665213,5.54327707479,5.495854359345208,4.531627606435626
790,-0.9125111946839218,0.07810256226169322,0.39387331368009965,3.8911780275972583,1.1830199388041014,4.101062444065609
800,-0.8879552051629811,0.14933435058061068,0.31097298174108473,13.138352508276096,-12.863489993400615,-7.391150866918242
810,-0.9568234087402367,0.1967243760548414,0.3067435126461689,13.925803451278192,-3.164325416450194,-3.404388788398683
820,-0.7926838217765293,-0.36948442461023245,0.7058944452904624,15.102936557038296,-19.85400508924055,-28.220376583484008
830,-1.0510355272311642,0.03624399515277853,0.06260765482365942,31.928543043310114,-12.990803798237025,-30.35232633841027
840,-0.8971053830795328,0.12007857566668322,0.5065833358345069,40.11022204313753,-16.838749175206566,-30.817812086968704
850,-0.9261391101354752,0.12880569562466476,0.3673159234582901,45.30975961262313,-9.524999968537657,-25.436111765413003
860,-0.9477308016147353,-0.1044557468750674,0.43862200496715625,28.194702791958235,-0.14023836638604742,-21.194987544619686
870,-0.929695183588464,-0.04865361963388722,0.49250073774699854,25.512274517123085,4.539397634903474,-19.93415306435414
880,-0.8944769338027921,0.18581637517478777,0.4986972451010947,38.249241847671236,5.868481400988549,-14.552707740139786
890,-0.8966330002306767,0.17569478128218027,0.486897037597319,36.10974333010515,5.916944874929895,-9.105001247055625
900,-0.9180644481995035,0.1272242371128352,0.35856781600395005,30.913525535386963,14.830547761091252,-7.1391599123834
910,-0.8622143945703106,0.20679120541937604,0.5362423134998424,32.23532408291157,25.8621960294057,-9.105865673012323
920,-0.9816337846845259,0.11647773553802852,0.31843678829437677,6.8839946875227795,29.589069926701733,-5.391622175449648
930,-0.8831182728452375,0.16453946928578533,0.5174610588812966,-11.977631115493327,38.576286339736015,-8.321877085315336
940,-0.9331437797755207,0.31171469887966036,0.5569444761981601,-11.581387565476364,30.00488658667073,3.7485291835386785
950,-0.8872087972507149,0.20190233721978418,0.41072400387378044,-31.258645026752127,48.169059548793875,11.193962829925507
960,-0.8348731922402257,0.45238576871586117,0.16573439234228166,-29.476264819259903,44.47911712570199,15.001251977941388
970,-0.9584634878257324,0.14407549571403097,0.4729505771561907,-45.81267606137847,42.77421155198435,21.885385421181052
980,-1.0212843672056573,-0.01052375229974831,0.5666846831863647,-55.85102722330281,28.752634039135707,12.193066082223224
990,-1.0153153139238371,-0.11203615463312645,0.5074268305472506,-64.3037993525896,7.930143203099866,-4.966147269585138
1000,-1.039758723651898,-0.21728014025014714,0.444563781313347,-59.65355068390181,-4.214350086257149,-5.161432399693517
1010,-0.9411100910328556,-0.08712033590194967,0.2580013202655458,-31.745649978174434,-6.417106675538292,7.854786405788044
1020,-0.8841412745026396,-0.13706786133284515,0.005119893444566605,-22.35656320426314,-7.918516869701108,11.429928443551352
1030,-0.8609374949159647,0.09966793821324527,0.44557435677160867,-43.55319657299932,-17.3104242755542,9.980373741018854
1040,-1.036997849214104,-0.14693832413620148,0.478283482588161,2.363483341327697,-15.026096401865512,1.1201305063671163
1050,-0.9682951544839236,-0.17203871866849393,0.4349893081796297,-20.469195896714393,-21.715982746611328,-5.361150152739011
1060,-0.9043218671357056,-0.05734972393486927,0.24167895971567213,-20.757593823387303,-4.599265897558558,8.437386748165128
1070,-0.9289451535484026,-0.03296715183492495,0.2925437145750549,3.7330483029972505,-4.849432724050883,11.822678231380946
1080,-0.9192646451626562,0.035582764510563185,0.3095257923883573,8.871487712775904,-5.857600664011173,10.118830991490222
1090,-0.9493241309351017,0.05868590651276076,0.2980694556759904,3.928309700271547,-2.3832641746548484,8.350785663803691
1100,-0.9458042464165994,0.06709222275532205,0.3256092286929013,2.016373188395421,-0.09474890313315981,7.729913839537788
1110,-0.9250232613779553,0.08066201135259371,0.3541434522297953,6.365939373005022,3.2047604169869954,10.199981469018411
1120,-0.9086200154223255,0.09986311452468444,0.3685632481650199,6.799377332979416,3.3587055915855992,8.05591047545145
1130,-0.9363184914897227,0.06675387164539259,0.33463759108516405,8.618139229663825,4.118422376310556,7.2732128079692
1140,-0.9334447247465752,0.07592053886498693,0.3344973820640933,8.724313687218345,0.6054410295553204,6.547640185538014
1150,-0.9124600059460507,0.09991966512901122,0.3510863525583979,7.773502347844638,1.1488388406522159,7.903727618189619
1160,-0.9538253600117023,0.06876925227145386,0.3479169570283289,6.481024316727138,-0.24187104622417505,7.50583107369184
1170,-0.9467045995657444,0.05934210219136035,0.329103472950163,7.2423328456491705,1.952741154890189,9.831698355315254
1180,-0.8919159179050551,0.11018380181483953,0.3900209155405321,10.855610698936943,2.025827745721455,10.78548147648705
1190,-0.9390465093164292,0.09562466754921567,0.3372197278160949,5.956705998894095,-0.3884835511557256,5.0481809873148284
1200,-0.965078612380845,0.07216812389466698,0.32106981435813703,7.829905538582253,3.561912314033821,7.439147498018564
1210,-0.9413698319270096,0.08165873925634169,0.3483569940097094,8.078144120054807,2.4586908753263153,6.285089940806596
1220,-0.9534726848339793,0.06407690687863729,0.32617865584892175,9.01566305184038,2.1146669112223337,6.416199870618012
1230,-0.9187712712609947,0.09616571350965031,0.352437568653425,7.842528500001036,-0.32785925826939155,4.545946979798985
1240,-0.9422647400058928,0.08363294451638709,0.32664902505986504,10.879687802517967,0.08304559843696113,5.200516670902752
1250,-0.900697670345934,0.15132726173303665,0.36637587809046746,12.716199580012033,2.9046969529820266,7.443881227672971
1260,-0.9224656878646846,0.10500580244092252,0.35226829307824226,1.9822179498892105,0.24580107485465094,3.570838196610536
1270,-0.9217087910028242,0.10280723600694308,0.35107675354433104,2.977991343110713,0.6060902215463106,4.6403851819000845
1280,-0.9193090398530279,0.08903937845527188,0.34782559065282737,7.825114606053253,2.4232546974171,8.314703558967407
1290,-0.9229166886179782,0.10634837325400895,0.34363665689016193,7.493474039254849,1.2688344189727632,7.18482687927803
1300,-0.9529841809448879,0.10736733983126114,0.32112268135373384,9.430015734415623,3.4744055213362497,9.641280582227582
1310,-0.9591010809815532,0.09282468585174782,0.318397434169277,6.385196837943127,1.5924606139175361,6.950322452267947
1320,-0.9460690535468989,0.10084126425953144,0.33407443681212634,0.05005562271930786,-0.8587382254895695,0.7655602912867776
1330,-0.965495750066566,0.08300205391979228,0.31247408278446,-1.922401005080168,-0.8612372720016943,-1.4452286457299814
1340,-0.9528439535849602,0.09563066297224748,0.32073950915950483,-0.8564640386082965,0.6339247578828774,-0.7501415817407747
1350,-0.9200237290834067,0.13015039355585248,0.35534876396466836,-1.099468926011347,0.6664629975611782,-1.0857249917656722
1360,-0.9280308095675475,0.12076864875573086,0.3487670094090935,-0.5761954053172866,0.564481053820478,-0.632312625607196
1370,-0.9197197232805719,0.11753075390321588,0.3489311095566643,0.34365775252241215,0.22153460054536459,-0.1740756045741569
1380,-0.943783200055344,0.10314195967336286,0.3332695761648744,1.6171575607278725,-0.15684044425254529,1.1008967395723268
1390,-0.929470607068178,0.1254960052516454,0.34354671648184654,4.602501780997396,1.150516327651099,4.483272635235259
1400,-0.9117578122309101,0.13243151527788008,0.36197109904109664,7.01728475577584,3.499694434188941,7.2248284192895635
1410,-0.9570084079284616,0.08566308534671632,0.31496308038993737,4.083936216965872,-0.642304165339649,3.843196944399966
1420,-0.9353981392104511,0.11569076549486702,0.3351343444456162,5.193051846756495,0.5190289391532449,5.675099541123956
1430,-0.8974454884495688,0.14777396687958083,0.37928480654693625,1.8624602676932267,-1.7531796162714395,3.3278482417504764
1440,-0.9174897667271064,0.12780906444794668,0.3658448509352038,2.079158630537523,-2.0878711785330717,2.504051223792067
1450,-0.9557542753383275,0.09583099611630778,0.3229121521468688,0.8798845070997869,-0.5763861436100188,-0.6938798913223829
1460,-0.9101668181627001,0.14139029979523143,0.3606874099446282,-3.4646633117634806,-2.1371236227189248,-5.5901097548192595
1470,-0.9301546242023295,0.11767463521045744,0.33982046748345723,-2.471088554118696,-1.4827777985733086,-3.468839488507707
1480,-0.8958143209610364,0.15403532204924117,0.3775895666547802,-1.5817048855715907,-0.251471017906927,-1.1024571947794828
1490,-0.9423746100558221,0.10755921729459203,0.3346267139330726,-1.8095291568902647,0.3980839876679576,-0.25500297007141437
1500,-0.9365122743151507,0.10856972638785238,0.3370793475379006,0.1188292467301525,0.20586234483523919,0.3354095273201091
1510,-0.9303064527176917,0.11705144329424413,0.3478484466198,0.11980984296058694,-1.3605165080217434,-0.2125394001899754
1520,-0.9227996933969076,0.13535598473151747,0.35616816565429066,0.554739347223395,-2.2312494841508137,0.5370559554083223
1530,-0.9196833446847971,0.14467190503326097,0.3532839400681714,-1.166568848777924,-1.3477755732854684,-0.39103847773476264
1540,-0.9079959213704119,0.14783484192317894,0.3649492533895363,0.11757991847174809,2.759161691164797,1.6689619465867866
1550,-0.9319288910446306,0.12306802195413732,0.3430942638358427,-2.2064873512650203,0.40751689718939943,-0.7635555140847877
1560,-0.9195884823536709,0.12802678537190212,0.35346622473878164,-1.8517704069058791,-0.5722367253549312,-1.0761704816949187
1570,-0.926828796615481,0.118935688692248,0.34437918072552415,0.05408370700784648,0.14112081098040363,0.7162885443121171
1580,-0.917703609448925,0.13653634200423398,0.35462269269080376,0.8494386641059364,0.250728650624646,1.123462679592164
1590,-0.9376308444536701,0.12124116455600768,0.3318792912548651,2.3767501593523344,1.9508174495051676,2.005445783007504
1600,-0.948870300240097,0.10895022224359446,0.31641532001294875,4.718481968120322,4.918446068830484,4.695333749806233
1610,-0.9543674673476358,0.10689206141389217,0.3220594230782696,-0.33155316608284946,-0.9517733010432153,-1.3536922654831824
1620,-0.9130496625316502,0.1389811827593724,0.3456048726616986,2.433886943187326,1.4773778132518265,0.6733922439557101
1630,-0.9296626620872558,0.12726075362453362,0.3475561142589594,0.22968275702430957,0.19339458339937704,-1.269616211159905
1640,-0.9343431498729893,0.12197115283040402,0.34345711730242817,-2.3093069178642667,-2.7158183845186485,-3.434365543565319
1650,-0.9346017633379009,0.12961192095528795,0.34555744606952704,-5.44114644294617,-2.7613636983738976,-3.7925451243628356
1660,-0.9313114922597928,0.12611780542722378,0.3450181155496852,-4.013572575340229,-0.3322019075639504,-2.277671306261087
1670,-0.9399470247598716,0.11611734434558274,0.337069508645756,-1.9167955547114004,0.8698214756162581,-1.0408964790907718
1680,-0.9230727592853466,0.12654609668422725,0.35199151298605147,-3.2058715999908007,-1.4885795759514489,-2.4625324917129663
1690,-0.9134946346863997,0.13267221633331078,0.3590701279612966,-1.8122915600749467,-1.4396392011984203,-1.2793971766652101
1700,-0.9249115192791618,0.12811030807780496,0.34671723365149465,2.230577105265412,1.1342815916391689,2.161953513188263
1710,-0.9239450956599778,0.1327006789316437,0.3485326214843291,3.0220158741400325,2.345002336996215,2.74853250912197
1720,-0.8999215617590963,0.14959885175778895,0.37818964388242704,0.5062088425806553,2.3287741752442472,0.4196341836265918
1730,-0.9113537104823977,0.13282974193807837,0.3613995496178444,-0.9637121749621895,0.28096376884968666,-0.561279057166683
1740,-0.9310372933064773,0.11570587222295059,0.34190286903211975,0.3709903827434311,-0.5815886472996017,-0.170921232618516
1750,-0.9236782436952294,0.12587580565927148,0.3527141696156667,0.862170204774428,-0.7805965033883395,0.27288811546617575
1760,-0.9144641261088807,0.13812951217680539,0.35443633256552654,4.191475574064313,2.8172286756822658,3.447957063929286
1770,-0.9444354304213538,0.1165095680508724,0.3247437506572648,-1.4729587282743282,-0.6921437626761275,-1.579038485474387
1780,-0.9233105289997913,0.13042387132335387,0.34876485751950226,-0.27962751609098,-1.925295379904131,0.3448692636200361
1790,-0.9218928888909399,0.12622993700074525,0.3516354344508791,2.3918093809154173,-0.5454257593537903,3.3327656780859973
1800,-0.9339279998202481,0.12223859608042772,0.34360000440126176,4.204277955465724,1.3585305292412853,4.545769919568338
1810,-0.9308167043463529,0.13454647876040773,0.3477325913046288,4.413299584774855,1.9185510315509373,3.69447220148468
1820,-0.9328599518942604,0.13209544297067016,0.3411197932527929,3.302145117066233,2.148613794322548,2.4021320415913605
1830,-0.9576429277677949,0.10279770539295682,0.31207575829259987,-1.769081814590223,-0.7646547893025005,-1.5670259432721365
1840,-0.9031156215020981,0.1512801163015651,0.3611950005404081,-0.7615485113016618,1.0648799835571476,0.111187461465311
1850,-0.9319418889402965,0.11614236754362185,0.3334928437936944,-0.04642708500897366,-0.027520109080787544,-0.185320371040182
1860,-0.9245883168739341,0.13130590784702742,0.3491873071558117,1.8461578394486877,0.29820214381924576,1.1902220616962413
