time_ms,ax,ay,az,gx,gy,gz
0,-0.6309077591499993,0.709918994178327,0.8961385403763024,0.11779261177580458,-0.3081226318908894,-0.7790499608456518
10,-0.602444867488546,0.7449048385906277,0.9339350256941807,2.4378336240691336,1.6341841349459099,0.8666941551443591
20,-0.6116954946560372,0.739145006881914,0.9237836512885071,-1.1846119865975397,-0.5068583992508021,-1.377138870894635
30,-0.602589253573251,0.7483789446686003,0.9247467636022094,-0.5604350697439499,0.7018466656573626,-0.15132389079643147
40,-0.6036092012939731,0.7493672816801052,0.9191603977220645,-0.2139026909923265,1.3057364506254634,0.8482977629805877
50,-0.5962115592642786,0.752627639767084,0.9281069433569547,-3.35022176515177,-1.5565559825994415,-1.7103642059039879
60,-0.5925124711358002,0.7464733224795117,0.9371129257572004,-0.8215288038700911,0.8730624630837407,0.5299386736892759
70,-0.610732361213118,0.7268146401143796,0.9229394344990692,2.44243683311886,3.3343361007234633,2.636241616178875
80,-0.6072487910991137,0.7384763702775498,0.9188337780665146,-1.026113502405083,-1.1727474566058849,-1.8001917097147697
90,-0.5784810170750265,0.7762148036707277,0.9386133973795505,0.7302711351024945,0.3042707462897355,-0.054888647538232554
100,-0.5943648764552439,0.7631272063103804,0.9310895857491669,1.0767708133757012,1.2336802133390365,0.04265833624227444
110,-0.6080008528906862,0.7495684466051041,0.9224643462557837,0.7743042767169561,1.1780379873406832,-0.005959055333189189
120,-0.6086549358363222,0.7475913774867287,0.925529727165958,-0.7582465769292075,-0.8160108891300544,-1.2870415357540308
130,-0.6171289852056655,0.7310346937952312,0.921039487273101,2.083651246391709,1.1301544439209632,1.4581944662189894
140,-0.5886924729606611,0.7525848256438694,0.9493610649956099,1.8491840858915256,0.20929862533038113,1.2166790041783204
150,-0.5762459649712549,0.7681456191477446,0.9640553526399965,1.8513377014959096,-0.6280266117265756,1.1616669074016441
160,-0.6228852473658494,0.7283772390350639,0.9346864785407518,3.2399267840494117,-1.2270865030275773,1.6093075695646393
170,-0.6409148305321054,0.7131665225182008,0.9146598577189917,2.1150441674635223,-3.3313009989537594,0.5519514691141253
180,-0.6321614235986646,0.7058746964553847,0.9289911318719454,5.154485283326772,-2.522477096095945,2.751473144815905
190,-0.5937435467481696,0.7624477918329438,0.9731534361763042,4.701641038329513,-6.692030002737287,-0.5026556931244799
200,-0.6146110175243538,0.7388878441481123,0.9483205732607051,8.52844494352954,-6.384194717301526,1.6037491741179448
210,-0.5950494484305111,0.7351120940823634,0.9572839304687916,8.229699072298768,-10.223265732834387,-1.9148954319209748
220,-0.597529400575498,0.7274990648860805,0.9108214414860556,12.79995663638047,-10.233128422195836,-3.0028742449734063
230,-0.5834688457641302,0.7358698328774065,0.8862833080077483,11.546719012852424,-10.463655441487628,-5.5197632787137065
240,-0.5717449748464741,0.7249171312970637,0.9151666352895331,2.9623211116577357,-11.100582727904985,-8.826501040340283
250,-0.5911072011689279,0.7400578972685975,0.9148276010496236,6.9052648163596855,-8.7189381155741,-6.693419042137482
260,-0.5766521677444157,0.7412338531726492,0.9450767371560314,8.70352192385981,-5.35898076176767,-4.303449148095093
270,-0.538058576299353,0.7699908523613643,0.9823337685163951,8.836967691647967,-5.881556726476287,-6.019327487247056
280,-0.5949261152735807,0.7241925815618697,0.9156016324317684,10.586439026235789,-4.869137658165214,-5.1497538599813515
290,-0.5387258659977601,0.7897088041548977,0.9453707611077716,1.8452424564317742,-2.091535624553853,-5.193616076686713
300,-0.5559693813043806,0.7729675834030445,0.9293774717223325,-5.194928452313694,0.8561958300945478,-5.99774439526005
310,-0.5836047452796078,0.7629951022987449,0.9473307190427587,-9.5463802100673,1.653687261348321,-9.154167198738804
320,-0.6466137542331343,0.7566135814339776,0.9424167075158006,-8.21596359041892,4.323645308523012,-9.290506262398683
330,-0.6873114334054858,0.7857507829882249,0.9182025647501203,-9.321949850655072,-1.453312951662463,-14.026465660282296
340,-0.6895733405808916,0.7854038907498395,0.8697050733929028,-6.894724025028169,-4.5006530352867875,-12.619483512125392
350,-0.6199687793557024,0.7219312208440546,0.9186015801451785,-18.623829305983577,-7.327620071723484,-16.668978059709094
360,-0.6092315561247987,0.6827553748282273,0.9299829337590505,-1.2795032249505573,-1.4630214711421705,-2.629159541707892
370,-0.6069369434297075,0.6757149012861297,0.9314767611927184,2.002414644788703,-2.878761240222875,-0.10053825308144267
380,-0.5872688766037304,0.6991530663924516,0.9537381428851106,4.438270245238971,-1.4024306272023477,1.780937314175219
390,-0.6090307317535238,0.6714310504063812,0.9319034346354067,4.419289248337847,0.749081468229346,2.6799079105809183
400,-0.582271629090289,0.6975293057117876,0.9632336096230292,2.629194365017451,-0.6553458423273855,-2.626393240759792
410,-0.5563679131649358,0.6428551780517456,0.9779179127600499,0.16867607761016323,-2.2342844005802927,-12.089226647900812
420,-0.5310089550622561,0.4310061696503793,0.9447231377843006,-6.384026190095556,0.9787969398525717,-15.705960815766494
430,-0.5272262825860066,0.6144350889710539,0.9762655452015735,-5.1497042500268,-7.258674730978614,-14.352730861376806
440,-0.5485035137165575,0.8448629921341354,1.0354750260629588,22.802983862423922,0.663210532852375,-18.47827403502881
450,-0.6635230774074378,1.064657334448925,0.9059929367298101,31.331586042418333,4.483558388899185,0.301270330519151
460,-0.6146453617344733,0.841519865727173,0.9081269974077066,12.44711024660857,4.486470883823619,5.374771556919104
470,-0.5887200889735135,0.7036165441302046,0.9285173208642254,-1.9854148215709326,0.2629305492727104,-2.8430708141807006
480,-0.5665131918727272,0.8033183342240833,1.0105640196513748,2.4098719670699227,0.6420338985285372,-8.902377615238429
490,-0.6029091618102097,0.806970368097995,0.9988487009320676,2.5075156792919793,-0.9854891719212324,-10.126722319593187
500,-0.5899784510340657,0.7124949243899987,0.9413473722360621,-7.147975695849764,-1.7117590038710544,-2.467717803983727
510,-0.5829899941270305,0.7308781275500751,0.9466413370100717,-8.82209529851366,-1.089278039073137,-1.0423095747198374
520,-0.6382822055541291,0.7246296263373316,0.9019147866162832,-7.485676220756682,-0.6226155701904175,-3.7463879711353645
530,-0.5951231686326687,0.7400368229988631,1.0113530843994398,-5.791284402290087,7.192469770719775,-1.0057047495749971
540,-0.5927097000720812,0.7015022849890685,0.9439963468299093,-1.742672679515262,9.656804738805796,2.724126601067407
550,-0.6087671858571574,0.698121963118817,0.9143583345006,-2.6966473704249423,7.30722226426693,3.781798069276003
560,-0.5521888888636267,0.7888396631823467,0.9744456065291374,4.459476418512018,14.44980169046021,10.116582049516555
570,-0.49112044525689125,0.7543451084228974,1.036685202447102,-0.18861151949540134,8.341028564580355,5.671913885692318
580,-0.5463213966166252,0.6016787795757801,0.9859801415227196,-6.864666086078328,-2.8209315251153697,-0.7971400233150008
590,-0.6003007972977645,0.7182229100644371,0.9310104870967338,0.16423922125627066,0.11767209899668218,0.41411985579603705
600,-0.6264935351710234,0.7574960193078739,0.909656193811068,0.44523541758621143,4.242928624949193,4.128786045546124
610,-0.6248171496270248,0.6771121017902285,0.902862704571105,-2.83232159280944,14.94957097688434,16.338457436631153
620,-0.5769590805541769,0.7220632023851364,0.9144165876577374,1.718229415339382,7.598593089779162,6.487796268019871
630,-0.5807666278733449,0.6997780189923042,0.9390333678200041,1.4793264594934317,4.2807268806229395,3.712747302898065
640,-0.5866344912008574,0.6996624237547335,0.9470065011816741,-0.9983928560110611,1.7576253248024707,2.3396868224118665
650,-0.60003927538315,0.7026925144281028,0.9349358163989125,-3.4876915219586806,-1.8971950623852865,-1.1936103805134055
660,-0.6018416332176326,0.7070853834952658,0.9303310127951029,0.5570829260646648,0.9941958112865205,1.0768548795391524
670,-0.5820632040243643,0.7251772824744163,0.9438345363623375,-0.11897990650323803,0.7625367761615717,0.2842118507433886
680,-0.5903730164720825,0.721746465199422,0.9387425222856313,0.665056835469344,1.8335477822103814,0.830572690718883
690,-0.6150063284331461,0.6968570607172963,0.9175029217403703,-0.14153470993626413,0.5901985281241038,-0.7724272487481746
700,-0.5953393732007847,0.7149837596263269,0.939491153823421,1.0555428331097192,0.4007319545379701,1.106838585681067
710,-0.6091344539601429,0.6986092661966823,0.9215671766417056,2.4191063207526033,1.5148166971659336,2.5093807056838626
720,-0.6058419248833804,0.701563127911422,0.9259789944439814,3.6043629010170557,2.652285454999001,3.3337616128623253
730,-0.6230053069313188,0.6839298612204259,0.9114570848941607,6.552161911746712,5.30805043766963,5.576213172811498
740,-0.5953712138297014,0.7091972730431201,0.9391632111872497,5.6390687931904475,3.625641587539047,3.2981819343058567
750,-0.5967722735696094,0.7094515742488773,0.9352865603982832,5.938015876806723,2.9715896177991654,2.1073106651268043
760,-0.5970670964614005,0.7075027932722989,0.9338347815670056,8.105113009206546,5.0851826150335775,4.215282666546457
770,-0.5829079340279132,0.6926552746126229,0.9513734589482956,2.5747746931161037,0.8653656821889187,0.17897618793988823
780,-0.6235118301991357,0.7067716233585111,0.9096530594527559,5.422008200020555,-0.6422349284829322,-2.4863925784648213
790,-0.5988716527188392,0.7304356650308227,0.9308640595312275,4.825641328666429,-1.8808972957602261,-4.180692653149637
800,-0.6275024388607163,0.7164286601459623,0.9116592825427933,10.682281870160034,3.6371826245963073,2.8673279155935703
810,-0.6039027032889791,0.6777765762860574,0.9412993273735758,5.552372050008089,2.5729743900439814,-0.02195980626974703
820,-0.6414869927641458,0.7596132038780316,0.9594836117822241,17.1086056793367,0.6447893711134722,-12.232296670197375
830,-0.6426465843837396,0.793424760086131,0.9284535975161475,15.882380340728279,2.167573196102167,-16.11655342676474
840,-0.6269421075429575,0.68892810148606,0.8515076700404248,-6.793763791326788,1.763800994108487,-10.57846649158072
850,-0.6029076557486395,0.7930946197608022,0.9114067738657956,-6.523879063438726,-1.154455429433321,-10.842917911874421
860,-0.6669410672142163,0.6659581643199441,0.7572687682406635,-11.179168187586814,10.812810878302173,-7.351550074080777
870,-0.6366877802416354,0.6805825419776464,0.8387171677920364,-15.909360843060355,0.1780192103829641,-6.214245984262471
880,-0.5963909154284724,0.7314270701550188,0.9933449239175938,-5.69364015112234,4.1757784109774265,-3.451706967174185
890,-0.6301868041947714,0.7118312045554714,0.9006765767012385,-5.550598344571428,5.748211822350881,-2.2750032908191535
900,-0.6071587603468086,0.7065824184522713,0.8941193395673445,-8.840292969564397,4.789088596796118,0.63208127175384
910,-0.6124902854524434,0.7337984650124371,0.8994271594043045,-4.7112237392585445,7.004710059865291,3.5311993864120583
920,-0.6778770425050124,0.7482946135549957,0.826328760460506,0.878622859836425,10.585686428110396,7.2618924442289154
930,-0.6091227100370784,0.7829046007698625,0.9060299705195834,1.3496806275704438,11.843169964818962,13.377982848072309
940,-0.5363200243688694,0.6700793352606279,1.0811877111081765,-0.052872187474575144,7.479728323217457,12.184173423923559
950,-0.6294075798180783,0.7415152577866425,0.880507471464041,0.9428807256520344,5.571824510301349,10.6434838436292
960,-0.6258626241957895,1.0130938563757494,0.8114498123939023,33.52667361990282,9.829162944841814,26.236313474805478
970,-0.6349739774654974,0.7941647838803636,0.8986087308684968,11.163908672126386,0.5489543572830822,1.8573605055488593
980,-0.6199067020284176,0.8533004358166426,0.9194925085688669,7.760584805503126,-1.6337966338053125,8.021106425505877
990,-0.6067981071658386,0.7281079527641662,0.9077048196247629,6.347918790902328,2.0691474217703796,9.24534146256666
1000,-0.5871134976359257,0.5983250287797018,0.9214915229440032,-7.721311530040106,0.23056998423560532,2.342018594761439
1010,-0.5899049583999022,0.6464192628404338,0.9281098256125175,-9.328479610532055,1.5020086460641602,6.138339928565236
1020,-0.5883726231103221,0.7429759828617695,0.9345026816127755,-2.8161332115183013,-2.96703976308471,1.5882327887728702
1030,-0.60665429449727,0.7063114385263615,0.9149822019087024,-7.772971392146455,-3.6827578077610417,-1.6414052641715424
1040,-0.604257360908407,0.7286853760200906,0.9261292432317476,-0.7915247943866491,-0.522412746176337,0.16252760231685004
1050,-0.6266520237443166,0.705598712452686,0.8968602426487537,-1.5946223177609697,-2.1195070651072423,-0.7621439479440961
1060,-0.596147265388462,0.7383338152993031,0.9250777103538946,0.015053592230275137,-0.39387234193390447,0.40154231311451294
1070,-0.6173725091726251,0.7216438366613857,0.90675403339784,0.425168776927777,0.9720630636435634,0.9071997380153255
1080,-0.5813738828800342,0.7574045622105702,0.9467286293846978,-2.2713848820851554,-0.48485816928336445,-0.9375952275230255
1090,-0.6034835782686981,0.7292335415964298,0.9266212028814945,-4.649681713174069,-2.63898770597263,-3.0338876439714375
1100,-0.5975482080302351,0.7308735377985119,0.9336412792372505,-0.5121504004206054,0.4051714794140052,-0.17482703445921632
1110,-0.6258540571928491,0.7061733988639671,0.9065936786201254,4.295781485614808,4.434633415809982,3.110015169781246
1120,-0.621737537422223,0.7109099546177635,0.904906589023173,-0.669419532552299,0.7451953714056432,-0.6208903740068498
1130,-0.6254057902182805,0.7075737510384529,0.8984620473630893,-0.5781558964130592,1.4652988948961703,-0.603747472465007
1140,-0.6088075753888267,0.7168475196353897,0.9158150958201972,1.5661906506137346,4.555442870687829,2.4225551771310947
1150,-0.6102181338368231,0.7148040138011058,0.917385395314484,-0.9966309955478342,0.9846308428319661,-1.0672550214624879
1160,-0.6227890409426176,0.7032110079951398,0.9009413888265467,3.389023044110049,3.5662079718837596,2.282272429890223
1170,-0.6167811697628984,0.7123813536723731,0.9014308052423814,-2.2162938067740257,-1.8018476308508315,-1.5197982553283331
1180,-0.5863729426549043,0.7425411788210551,0.9356813715346737,-3.8553554903652607,-2.1232271873840562,-0.9281133336265935
1190,-0.5879221596137795,0.7349249305516157,0.9435805009512864,-5.649941330082125,-3.292238741986645,-2.4324857936844424
1200,-0.6182992868774454,0.7034998264237656,0.9089012467739996,-4.441455129671844,-0.6785867844433127,0.5564228537546374
1210,-0.6181383906666312,0.7028667285046137,0.9078075627407616,-1.288360593571673,1.7490659671661146,3.351313957435588
1220,-0.6300261204314113,0.6847655635812477,0.9052829015823766,-1.0791059328776036,3.7512903801514677,7.19081211395845
1230,-0.6121145181971743,0.7299854455405308,0.9271487024231695,-4.162224878252688,2.007323402002173,8.11407787769142
1240,-0.5948522167018194,0.7514870814218549,0.9370831524309001,-1.429239861383336,-0.016306116625012135,10.927360684039913
1250,-0.6290885249743596,0.7179731199999321,0.895862179449203,0.37288571877516397,-0.9538058272386344,12.236496418333399
1260,-0.618396458371759,0.7321972439984251,0.9052989536325823,-1.4416880065935083,-2.7495664372169815,10.704756322070677
1270,-0.6539862583022781,0.6997374354853796,0.8746211599292135,-4.1534453342930036,-4.857429606103348,8.663592712909185
1280,-0.6207665968885347,0.7353346442197939,0.9144987475786949,-6.515365306987958,-6.416685128575756,6.789739310175521
1290,-0.6028077302616522,0.7527425661197297,0.9297870632521286,-6.163981025334717,-6.057653481853395,6.515217354801528
1300,-0.631639769111252,0.719182801655255,0.8983619959813901,-3.813182583328867,-6.338691528818948,5.300340459294917
1310,-0.5977025132637531,0.7559006400230164,0.9370678724002669,0.5616601981817032,-4.192809774796173,0.19026089938476454
1320,-0.6196260004298791,0.7330904481379352,0.9091407253409891,1.0915604417831788,-2.8890897903251886,-0.9752575396279788
1330,-0.6023826740692947,0.739586929459674,0.9216647903552897,-0.8488488664488156,-3.067039103320988,-1.5371266712076324
1340,-0.5928217694234531,0.7433258654290578,0.9335258674545628,-1.616572605027871,-3.8591039050892584,-1.9240000313526158
1350,-0.6033573520956056,0.7340243682310142,0.9255119099579037,2.7290383278942425,-1.040213764635305,2.1392981844317394
1360,-0.6043971796703732,0.735132659065448,0.9238603631446992,2.075287401590486,-3.093124320975763,1.6022801341414443
1370,-0.5977363330620978,0.7439394428335266,0.9331782066334872,0.5576081324220026,-4.899330366698815,-0.3424887658991087
1380,-0.5768784430656618,0.7672849332992648,0.955709361534869,0.20550827443319264,-2.8066804388913376,-1.030330808883188
1390,-0.5997291255590889,0.7456062344306876,0.9336001359151115,0.22802929204325184,0.12154104082639772,1.5066479473093575
1400,-0.5963798248354617,0.7438774008412389,0.9338789652856649,-2.7967227862880293,-2.6206440825976793,-1.1055583237520956
1410,-0.6076541305397627,0.7308008052819923,0.9195971047998999,-2.9586869573243835,-2.480103038997345,-1.22390352251329
1420,-0.6295665602470992,0.7074865761873353,0.8994722897512158,-0.8378178833601341,-0.0020395942792994226,0.7813192275686741
1430,-0.5969420886141078,0.7432148189600846,0.9368961190788508,-1.509181997406557,-0.9714315244586365,-0.833025896871641
1440,-0.6041115619555395,0.7408345415181928,0.9310278203080768,2.159733786031507,1.3970581476555899,1.385930113140458
1450,-0.6146078113079527,0.7287917502984947,0.918412121086092,2.173812476385954,-0.05384419751458547,0.6281889775575193
1460,-0.6158045101210826,0.7216216036594332,0.9207890159379196,3.4982327960087467,1.1368559782282652,2.3711045105171724
1470,-0.6105977457459247,0.7365497359426465,0.9224076138484236,2.709104287495753,0.6045185012944148,2.2471712150469436
1480,-0.6243916683418779,0.7179741361850065,0.9056815462588229,2.1011601453433126,0.7470546924783854,1.5406022123558225
1490,-0.6268094823289602,0.7211876367276581,0.9017099075250825,-0.4509806362575235,-1.7365477243192047,-1.1809334391763602
1500,-0.6240699172199988,0.7338296680603599,0.9078297619932982,0.06062593412344032,0.09956820171020506,0.6797877689814622
1510,-0.6023423317315201,0.7526755826054267,0.9318483902729285,-1.661178534202397,-0.9118416269377836,-1.586249660030341
1520,-0.6065234974686965,0.739430117382862,0.926204965605866,-1.2919444801231714,-0.06134929670788214,-1.8003521261503108
1530,-0.6158867222996691,0.7207348370493443,0.9158891916578158,-5.040038291448705,-3.666836064050332,-4.804490233195711
1540,-0.6095222421645863,0.7174443758057527,0.9240557448651067,0.04818565249781048,0.40536489958071364,0.793190419596051
1550,-0.6019823206790903,0.7304530293949764,0.9266047071122159,-0.29059292855872537,-0.12806429035785916,1.1756970866611895
1560,-0.5935658012922942,0.7457886482531149,0.9339827506559835,1.303462497045751,1.1361686247903091,2.812157519919918
1570,-0.5908261557095126,0.754948182141558,0.9379626824934983,-0.7498729225174241,0.055928727741324735,0.42247197892900257
1580,-0.6136670827324745,0.7314532771623453,0.9142555965458654,-1.214853650161467,-0.25510837357249383,-0.794021525324033
1590,-0.6141330026459662,0.7299072488763864,0.9157407587727141,-1.4523095202456924,-0.860850346679085,-0.8268712001495411
1600,-0.5924747584170297,0.74955649645142,0.9376033860430453,-1.0749655302018,-1.1470965636300758,-0.3150808863708664
1610,-0.6154841278456342,0.7223228941730411,0.9144547942335504,-0.7988137981844194,-1.4830658067791214,-0.5427838905520256
1620,-0.6230692865165394,0.7119081570354372,0.9070422435707355,-0.3220859383702584,-1.1619290521709027,-0.6776830199469558
1630,-0.6105675194412922,0.7275257200202211,0.9168088962623279,-1.5431814158736432,-1.8148624733791594,-1.785911708431711
1640,-0.6137745492148328,0.7255177937636595,0.9189963541314681,-3.730765727686867,-2.7608163624102264,-2.9253441821522075
1650,-0.6005161623611237,0.7468282187156426,0.9350288929348474,-1.3342188188789201,-0.41853055068921663,-1.5375294376149948
1660,-0.6195174211212577,0.726897400858239,0.9150617258772709,0.7684879427722957,1.4617813074378119,1.0927147812971425
1670,-0.6179792404732075,0.7276759433837663,0.9138684179365576,1.7370424828016953,1.6935817876952446,1.8629614345518553
1680,-0.6037976357486194,0.7407099666990636,0.9243709449975118,-0.044658390461296354,-0.6468385091790467,-0.06123194264503817
1690,-0.6154472459350784,0.7259312037062496,0.9131907115513003,-1.548565992144761,-2.134345990277348,-1.1902593379092374
1700,-0.5966727168410242,0.7412035754117269,0.9346395155648213,0.022102074282647766,-0.003937398330305264,0.835892922791135
1710,-0.6079477521944822,0.7296673140100743,0.9239373835010924,-0.44676977255419165,0.23605743268945345,0.4371429536680765
1720,-0.6250826170919132,0.7150250306320234,0.9077986604019112,1.4176705441393598,2.374020773020107,2.2320578697797537
1730,-0.6002856097089008,0.7324422821689793,0.9265803335576184,2.5752265998033095,3.030085206412842,2.562289801735398
1740,-0.5970696500434338,0.739615034491021,0.9320017188180486,-2.532548604740955,-2.0414634949426556,-2.482393203526865
1750,-0.6116777747527371,0.7278097657951378,0.9199584306815787,0.027934029526089976,-0.13409436705410266,-0.26813255069561603
1760,-0.6033318970015012,0.7385167425037855,0.9285781236794183,0.007816817005684706,-0.22480482513582434,-0.0016202021515074883
1770,-0.6403297954487115,0.6998360039877365,0.8901291000405167,-1.341410859104545,-1.7162677089834428,-1.2669454565030818
1780,-0.6067758927792811,0.7341285838536797,0.9236188638577223,2.5410495103300934,2.248365491594147,2.3901659641463464
1790,-0.6010279074406056,0.7429820235563454,0.9302437099318839,1.1769638865610326,1.2552615644601701,1.042526278659443
1800,-0.6118813860221258,0.7315151052109368,0.9188311895293937,-0.8068451612512091,-0.659667515296176,-0.39771937695843657
1810,-0.6172540591851979,0.7305543408800984,0.9154364490093054,-0.4412687034076359,-0.24893125484731327,0.5789812642876064
1820,-0.6209935681918881,0.7256152053155919,0.9142857608726943,-2.6166214029511945,-2.171762606729379,-0.9899753342411712
1830,-0.6154530106252921,0.7298956987327203,0.9168831686201383,-1.803278957126465,-1.3886697668546113,-0.7592492213327564
1840,-0.6181687535320131,0.7239914484926996,0.9145230984842202,-3.3042678121433147,-2.689383122600784,-1.9869855045731204
1850,-0.6229735401621408,0.7156421135236394,0.9060866934892856,-3.012826285456115,-1.912842914164497,-1.8528008815091312
1860,-0.584989566714318,0.7525872934367509,0.9447470302377079,-1.69272230601358,-1.0490825259635777,-1.2515618331980503
1870,-0.621941243346167,0.7187379520180612,0.9103859890446228,1.1887281027248315,1.1150105306072498,1.4006025415209957
1880,-0.5989512316765814,0.7444805255301601,0.9324430444158516,1.8870720987467684,1.8004084788312225,2.7320191220101857
1890,-0.5969618331971248,0.7432874870273085,0.9344590406280538,0.14982118511339426,0.04094466163328997,1.3258381942379112
1900,-0.6069989195450398,0.73647378166524,0.9267570344367596,3.388956967748752,3.0294278424061782,4.118120458358748
1910,-0.5746894176343136,0.7699718291621511,0.961956561645433,-0.12094577823425762,0.0667472396247012,0.9954781665392506
1920,-0.6176197460774073,0.7262116227171216,0.9152780601245485,-1.1781513523608442,-0.39421931973942975,-1.1008652833819705
1930,-0.584357309418678,0.7609797788172711,0.9517912024907126,-2.367595194773475,-1.1350829350804175,-2.0640520399674456
1940,-0.6179228062960123,0.7250668396389485,0.9140481364894648,-1.64139133690038,-0.5193882146241247,-1.1225864982260119
1950,-0.6138139054892732,0.7266957604485271,0.9169602069929003,-1.4041752751668002,-0.530134832389767,-0.648316375784475
1960,-0.587272435020415,0.7529588260650016,0.948554701514197,-2.654238017794016,-2.119376065461801,-1.7224904825098826
1970,-0.6192331145743272,0.7225642797878568,0.9185917981046676,-0.8121930584340087,-0.7461647472089595,-0.1952466427453019
1980,-0.5948352339438686,0.751877833419968,0.9407722492265591,-0.30978966626517185,-0.023315227001132977,-0.15065226338924326
1990,-0.6374530343771129,0.705276468403548,0.8936993409933323,-1.8499920793106677,-0.6228854044790298,-1.8300346882622995
