time_ms,ax,ay,az,gx,gy,gz
0,-0.6807753799384577,0.06239942514134048,0.41824130273585053,0.8219864677167512,1.2343231713398333,-0.7446237636997737
10,-0.6961473489969712,0.04675589236083342,0.40229580944639576,-1.4360703713700849,-1.032743679671799,-2.782834392228858
20,-0.6800939491425378,0.057492171353483335,0.40854309358670654,0.9873192223110938,1.24437678831447,0.4532591544703698
30,-0.6907038017538742,0.05308173075897356,0.41339148809295795,4.296404515610586,3.6820468156391755,4.731507783335688
40,-0.685778039425629,0.06179748461012599,0.4164748556550035,2.835459330893159,1.5775259155132484,2.123496484482079
50,-0.6977688855772635,0.04959857295666034,0.40117274405875314,2.4274712484087013,1.6649441767886475,1.9116954098584729
60,-0.6988824836971474,0.047017851561343325,0.39576634005004907,2.0188347465725016,1.6331472335909376,1.4458946955582497
70,-0.6972240931827488,0.04978216868696805,0.3946697903670659,-2.575983244498026,-1.890710123214281,-2.287769355124909
80,-0.6947494599075578,0.05755601268760336,0.39682784963765494,-0.09431813622217988,1.6533771236727817,0.7881748873675403
90,-0.6770395722618259,0.07937680150344692,0.41617248046090133,-3.9536777491618276,-1.861935479161418,-2.54820979248397
100,-0.6776406650715485,0.07006531067422367,0.4225602200404529,-2.566264452262478,-2.0546885344939176,-2.993065730549813
110,-0.6772751128276844,0.06230639618983777,0.41958130162669494,2.387847368068217,1.7646446436952181,1.1054271998931302
120,-0.6677370336940436,0.07466769262857098,0.4294737515119167,-0.6811325158756786,-1.073350670988706,-1.4525863661085925
130,-0.6974317194314457,0.04851294428885295,0.4029602184769984,-3.3843826009790616,-3.3161454923887446,-3.3594860267763678
140,-0.6797468737320146,0.0652154838647035,0.4193466707459711,-2.288563232567176,-0.7956059090272701,-1.1608910770547674
150,-0.6952316353931205,0.04724741287892768,0.40224966371815385,-3.3249182137690827,-0.8286426856370168,-1.6393393276836266
160,-0.6718028792148566,0.06994255812954916,0.42477245155023513,-1.6097833801119212,-0.2335444093082854,-1.047970486202289
170,-0.6823961701811591,0.05989924694659782,0.4152931291240683,-1.3605125279705783,-1.6646007750035499,-2.318221768502018
180,-0.6920012709226633,0.05011879702147381,0.40870118446343945,0.012609606756061598,-1.6086435011327067,-1.3186935186352213
190,-0.7000519136103481,0.0439800479012676,0.39823690379412535,1.7195705426571652,-0.46112014830916603,0.4180897536736474
200,-0.6786128572264226,0.06844336956690059,0.4124586228994731,0.04229716377939646,-0.8612239617240144,-0.688434977591326
210,-0.6799242184189211,0.06420628123439434,0.40959074136544804,-1.2744968097299114,-0.8674185959984483,-1.2651389180047379
220,-0.6858319013318305,0.05333036135484889,0.4099487128917753,-0.9750399955692097,-0.7194410472660207,-1.377457167410561
230,-0.6867298363190356,0.05681086847593221,0.4125151001318998,-0.24748737921607278,-0.2370483568291763,0.6541425655018653
240,-0.6704406513246959,0.06937280940008766,0.4235369418737517,2.2293617888948325,1.2561654251337537,2.544671039033342
250,-0.6956249572439535,0.05046422259864749,0.4040091057999529,1.8828895874075202,1.0496519600985232,1.8008944581175803
260,-0.6435899615300953,0.10105481099577145,0.4456287008560417,2.750013484187233,3.1238586655357334,3.216206580166142
270,-0.6893004773028423,0.06150165778148131,0.4110240569644677,-1.7570948650301117,-0.2644139974893899,-1.355150296783305
280,-0.665270231445279,0.07793140986112532,0.43385121765023943,1.0528475394870678,2.1355488487247136,1.214532469530031
290,-0.6565568424491903,0.0811795442076945,0.44615601385975034,0.10382611711220668,1.1129460223457706,1.271296399059545
300,-0.6721881247558064,0.06855703764407786,0.4209347923243289,1.6992094839087113,2.8364770545757656,3.3129205133641277
310,-0.6881950715679982,0.0614063858841553,0.4017171601031587,-2.981579185180621,-0.4896724535685008,-1.3646809358716023
320,-0.6666961231597469,0.09533640692178239,0.42328162620781573,-4.4071967272557995,0.1840278910326048,-2.479980884984837
330,-0.7002879609948595,0.050479355819856825,0.4036396953466185,-5.402553960329236,2.0529745755342526,-0.8297028786886789
340,-0.6634004552767963,0.0623207679789824,0.4411650951861692,-3.9495016410028323,1.6560236335172842,0.7181054040509619
350,-0.6994217180747342,0.03679748960501601,0.4002619482697109,3.948823312045385,1.0263383286047527,5.188058734145592
360,-0.7016666165617842,0.05829466720170874,0.40988961621125547,5.730495287823503,-2.020795340559564,5.360915851609105
370,-0.7326916500429671,0.041892008797952726,0.40111676021989073,6.778646319385129,-1.366038822265327,9.240602478211963
380,-0.6982118416968665,0.07197679625819337,0.4562884945459615,4.068425862388628,-2.7801619473105816,10.785684790147878
390,-0.7408504519533092,-0.05215667607058624,0.5248127926689533,4.459508517195178,-3.4167102806485303,12.371568537537852
400,-0.7559683904742823,-0.024780064219254865,0.547412577849208,12.119450072119452,-20.98454084771614,1.814361981813621
410,-0.6501889797212674,0.007338658435761803,0.49802770603606134,10.425529454513077,-39.723507996132426,-17.918011932355803
420,-0.5639338730126813,0.04806838151928842,0.46683162385904553,-2.32340881152177,-54.92449278269409,-35.85600919268207
430,-0.5361328308174048,0.14502167614854045,0.447436964493831,2.2208609816954437,-51.7119437762596,-30.819519038583945
440,-0.5809680487860486,0.1904534879419167,0.3853728234481788,10.948102030936624,-38.71931929057152,-11.745884168753076
450,-0.5853974237926771,0.1743898423260981,0.3559804067418138,5.893063622601513,-29.543076628362503,2.4337019076490756
460,-0.5519381469020554,0.1449650201777133,0.36907193764697194,-2.1209810250309027,-21.51392635406296,8.943648476991928
470,-0.6268370025328892,0.12591531493736305,0.40941948733709144,-17.13150720567336,-10.291777583245597,9.709458518613987
480,-0.6989428049233953,0.0938486451731236,0.48090838053048296,-35.60788819383496,0.34743303905544853,7.790900546241952
490,-0.6563209521738484,0.07402396756003127,0.47808243230830794,-41.70107563920607,0.6972280810202385,3.6302951687687566
500,-0.6035615741862094,0.13771659380859227,0.42750240964098535,-43.90699006250017,7.684974423044162,6.489424783437
510,-0.5792829788041642,0.14440831053350378,0.437403109741808,-51.686227967946955,13.894754153142298,9.688787198501402
520,-0.5394024616067279,0.07375386563147587,0.4673195619882606,-56.254781080986206,18.46841226193535,7.672672345510463
530,-0.5812420173331861,-0.054996825564224465,0.4452819603260211,-52.734509531902894,14.552583879716865,-1.6143178862904985
540,-0.6846675320720682,-0.16333723976560582,0.3756431326689033,-18.85969367441213,-2.5649299351283954,-2.0231632852678487
550,-0.6000883808896466,-0.08179649987328953,0.5802897407333785,-0.7869901989093391,-7.689410618057767,-1.0652012789606085
560,-0.5897476023753995,-0.12299830064575668,0.5796607325600515,8.431907448883477,-11.28119898867583,-4.059650697337793
570,-0.6888754118114508,0.09272761026970472,0.3861812581320835,8.800458480310844,-10.582585120074853,1.486028069160478
580,-0.6100579692155403,-0.07108507448308993,0.5020844678827718,11.738394256301623,-17.22427213641584,-11.392828154795545
590,-0.5837551273348569,-0.16523380861144024,0.6423403004952569,11.967725637778527,-15.476937499628853,-8.567292729947367
600,-0.7280845035768293,-0.08739688880311189,0.3955405281662883,16.711204875027025,1.896458679745302,-27.222591849841507
610,-0.7587107862634772,0.09839388388466182,0.3852770431597256,27.74797911548763,-1.538897021884366,-27.871697253566836
620,-0.572192147397062,-0.16722554852323768,0.46971270099515,18.114901578919323,3.242845383444692,-30.27048626028882
630,-0.7250348012707338,-0.01262864420342038,0.26775102410543017,-6.397724760377309,8.824652724878383,-30.82984787762679
640,-0.6394599567413227,-0.14729518088470406,0.562463443768561,11.905682427252653,11.405090855784348,-39.03403714724503
650,-0.6201206983129255,0.37105677304622736,0.6574236209502208,12.848170225269714,11.001882041431719,-17.983812213412474
660,-0.7631451094618827,0.2359477399596473,0.22685508914217528,11.080019654088549,20.4181096214629,-2.784391522307443
670,-0.7152122514411455,0.16959763686881515,0.4260621762928389,10.866862648704782,25.430974602124593,14.479845533910632
680,-0.5115431279661563,-0.0337571613344952,0.9523931330283953,20.008639748269403,21.87034479312051,20.722421371704783
690,-0.5248678736799113,0.014563940352355212,0.7791783875809174,0.8585611996948581,28.22452614030565,30.949465652430256
700,-0.554868660359245,0.0847237580173013,0.4992599169150837,-21.858742866076263,20.751637687210778,29.188839169088734
710,-0.5733484336385203,-0.0610527991115128,0.6278512257388261,-14.15467221792153,11.25706627946132,31.886891360267924
720,-0.5933958600481748,-0.2819901955680443,0.7078388748615079,-11.313195562621203,5.413112904598748,16.93041104182033
730,-0.6081731300317988,-0.22146061370392778,0.6234135091358659,-19.03718616731061,-1.8184664145459721,-3.205312495137699
740,-0.6324554521417661,-0.0619419531553113,0.4955536038441965,-15.992373246347578,-2.2101727836311653,-5.27852559266393
750,-0.650082607142561,-0.00687863466057053,0.43786953738090195,-15.010402882572922,-5.491152207057694,-9.113307556538407
760,-0.6746264272010426,-0.007605576227506114,0.4488931112530925,-0.7477302635180401,2.5350739768132016,0.3622518234037999
770,-0.6623617024405815,-0.07684711126156915,0.4661687050288092,5.868813118581767,-2.7018999774308,-3.3174535138755856
780,-0.6506609495603582,0.021560488729409875,0.5335858773899981,27.352780382077764,0.1199147651632964,-7.755440048852801
790,-0.6536218364436354,0.22639326335744556,0.544021575965795,34.85167921609569,2.2755442702367894,-24.039711337475147
800,-0.7558859871654726,-0.011628421894442303,0.3262498735127497,26.205887260886836,6.99305886612742,-33.970218347586595
810,-0.7886877862757811,0.15101222515263846,0.2014183304573126,31.579602841272738,16.67875639761168,-25.179666348566318
820,-0.7927179502126529,0.17741668992791185,-0.21245383744899984,8.066300311258694,33.47475781584826,-8.05568200492414
830,-0.768491931659392,0.15827270458333073,-0.02714644855161703,21.72977890078033,42.40097602252837,-3.885506948004767
840,-0.8098952764187031,0.24379771509512618,0.03751362189726282,4.510553959029301,44.56529649363474,6.50571474878759
850,-0.6518148721419227,0.26130770894737315,0.46850785516933147,-29.29940459286984,10.862950859618437,1.815034937040025
860,-0.6577196322618432,0.06709966775890394,0.6065136608946845,-51.824678437302794,11.5281969539674,22.060681177809236
870,-0.6085253831969295,0.27413974063857993,0.31872189883662877,-53.49488408312233,7.217404875577887,38.82964816514779
880,-0.6720466750651702,-0.3541799027207168,0.5936388629890181,-69.30400088212139,-14.338365393194914,18.27280211171756
890,-0.8217679013630566,-0.22848064376586064,0.3296469194857397,-40.747804975864774,-10.768298434478563,14.0241586265829
900,-0.8523124086660265,-0.21288073679254885,0.15173365796825505,-21.28556901999879,-6.887037390848317,0.15824302760783482
910,-0.7128719581505797,-0.07946181708541383,0.34915577889993527,-19.101276385682937,-3.078982360760774,-7.33467497970328
920,-0.6959287764657143,-0.011314983435246602,0.41978160140300974,-2.758088712159472,0.6345702194058136,1.8333256125904809
930,-0.6540886139194768,0.0297446994502153,0.4198652092180118,7.929748151573016,-0.801096798662342,7.682557129261659
940,-0.6548168659550042,0.05035807380028735,0.42160616690335884,11.997912952524949,1.1347489585725514,13.34366224248838
950,-0.7098881874262782,0.033882947085919685,0.40941466335561216,11.623988849753617,-1.0373199614712092,12.355490159517796
960,-0.6843574257952755,0.060044912527577377,0.41935319900533646,12.645908651754404,1.58366723269093,13.317348078911483
970,-0.6796884226482995,0.055790594306479584,0.42392861511213753,8.185277966051755,5.96708597539352,6.7755440193077465
980,-0.690658654317753,0.04966253567405824,0.41119144468785995,0.5709922990700687,1.161125418763151,-4.554919190173682
990,-0.6921759642186485,0.0467156693079753,0.4015849459060689,0.7468705108130258,1.7447424037353623,-6.860503513289847
1000,-0.7026061912208457,0.046382778274067865,0.3900453536167548,-3.618832915828743,0.468262824656981,-10.297656819081107
1010,-0.6837785073994138,0.053561254219008765,0.415061921637127,-5.34555645769352,-0.4595065504386232,-11.204444297409866
1020,-0.6887517269946283,0.027826270230350204,0.4058982075588764,-0.2743319743696242,1.1584206882147297,-5.928333262163363
1030,-0.6564850023813004,0.05256018548549877,0.43483202778908026,2.107094124447902,-2.3730595215948203,-2.7150881347216207
1040,-0.6670891976247035,0.0640370629421891,0.42433484019587847,6.829194112864696,0.9058336718397815,3.709929499273324
1050,-0.66388672646981,0.09083216990347141,0.43328042217500756,1.9424497844374549,0.7505938720174924,1.5203606137238261
1060,-0.6893548784956862,0.0577337026457614,0.41462761129933745,-2.9047471517445187,-1.0244488423923104,-2.3912956454451164
1070,-0.708441128911926,0.025244259249983133,0.38186347892765277,0.904186473461829,1.2853922453617654,-1.0297968743002355
1080,-0.7056343026172296,0.028903274948208636,0.3816401586907391,2.972573090846639,2.11146361351559,-0.6722129083668493
1090,-0.6976130186349611,0.04455359425115264,0.4082530169554084,-1.7344710064439999,-3.05862186088215,-6.692441521713957
1100,-0.7064135221959119,0.023520837687990168,0.39257074369894795,4.0544452230176375,-0.6345076425397251,-5.048037062935691
1110,-0.6791962241496553,0.054270104913889075,0.4189684446648541,5.055583402154928,0.3522291719768027,-4.491286822145153
1120,-0.6929978537755244,0.033282400519265114,0.4053551202177646,4.8569293443485915,-0.18872065033581809,-4.240781853733576
1130,-0.685342984586159,0.038266150176527375,0.4197826414290036,5.418719228232077,1.5441106918450174,-2.4186413452062094
1140,-0.6851065625454845,0.043242458922852854,0.42393103752853717,4.193071106902131,3.0603976057905173,-1.7470416392677683
1150,-0.6621007413367456,0.06163609528309997,0.4371544254912944,1.9886887154222466,1.6393553759499406,-0.9305598128045899
1160,-0.6817373025049944,0.03520183825488721,0.4184344971488826,3.3462636545857714,1.4222528553309277,3.0168333265548766
1170,-0.6796999563510824,0.03840099600242737,0.4199043425566086,-0.9913019868889437,-0.8192629133312429,1.4294546440812432
1180,-0.7068631353620725,0.011234568701338106,0.3922381064078469,-0.017769823211754743,-0.34438924098176465,2.1327134840683817
1190,-0.6604048408377868,0.05890223470325229,0.4383572974347333,1.9257716765107165,0.8242100065289996,2.906237543729071
1200,-0.7110817977767458,0.017293222045096663,0.38648360738696297,0.9612713721572113,1.70594444763301,3.4458550800383283
1210,-0.7005681707534447,0.02276526913290772,0.3961850148325965,1.6618685186266067,0.9540570688196146,2.018645896541492
1220,-0.6785798111724234,0.04990731260936359,0.41921172350851316,-2.7409140682587037,-1.4375106005059144,-3.7995034581084672
1230,-0.696966283866875,0.02877095932813874,0.40678613623610604,2.4300665072150642,1.3216116694371776,-1.1820034758487026
1240,-0.7010552648124367,0.01659841527261055,0.3971673481130129,1.9639857917048897,-0.341508787481979,-2.9359855415197704
1250,-0.6747870372080015,0.05056962693610212,0.4320808251751699,0.6506107219696167,-0.8406932894002707,-2.066611485225469
1260,-0.6717614397646388,0.04874007599954293,0.425207074399957,4.864823832754922,2.7092784337472136,2.9327713377939606
1270,-0.7050613254101222,0.02064046992218874,0.38774385984975773,2.957859639469417,-0.4048043647020083,0.13380641852782293
1280,-0.6977933457298963,0.0321982673471137,0.39765440315168926,1.1042894550927738,-0.45220501168409666,-0.7564082019344438
1290,-0.6714503202824853,0.05597372324056782,0.4264802017979649,-0.4788905912258634,-0.9475500598346727,-1.7290527570921999
1300,-0.6869262934476037,0.0390241273438729,0.41129476353563194,1.6320255480342625,1.8399439583718598,0.866800002247514
1310,-0.698648894903681,0.027665151454858546,0.39766383834208213,0.9320610453495052,1.6995239915673372,0.9717152445961024
1320,-0.666515020306745,0.06033281002898754,0.43226274070768933,-1.1778186619971682,-0.32958393923343965,0.03670243890549512
1330,-0.6825343494777072,0.04605380460381339,0.4177841962523017,-2.4361298059487173,-2.1356933254438473,-1.5947235906072037
1340,-0.6899601382280496,0.039339634863365176,0.4077964836481861,1.5294373290644834,0.8568461760398678,0.840945273921409
1350,-0.6803740775641007,0.04710616918051622,0.414575982695763,-1.762498295488596,-2.225652116237194,-2.5708242975187483
1360,-0.698954515025073,0.029863183093392608,0.39792172715209023,-2.441495403756396,-1.5826440545611316,-2.4028311090241075
1370,-0.6764896954614906,0.0549034342363359,0.42603331041821113,-1.0094579782671127,0.30561142020456805,-0.7729507384862502
1380,-0.6745501398066074,0.05657098016590051,0.42772627750469583,-2.0969180690457896,-0.1149831071897921,-1.5597088034933413
1390,-0.6589308491205521,0.07204861576545546,0.4423444501856707,-2.999573611143558,-0.2950989705097482,-2.2469468071072836
1400,-0.6705778617907021,0.04960949664839327,0.42538721962915155,-0.5731078780477834,-0.6423389736989058,-2.230314247863358
1410,-0.6682946743898898,0.04862600965016771,0.42098560829604076,3.9334649547895935,2.3998015142749685,2.302355016544308
1420,-0.6867505384501725,0.03582696259400826,0.41175050974501787,-0.06254819316771876,-1.1397245985387052,-0.8384489360067942
1430,-0.6872862098619398,0.03693941314809501,0.40729433937775983,1.4417146078825405,1.553894463266991,1.8937206489164713
1440,-0.6818231526110564,0.04530575153712389,0.41513578982623955,0.9432044595610796,1.541309403837204,0.8750642113693554
1450,-0.6938386730384991,0.03237731003862658,0.4010746058364715,0.9168472804966643,1.099007290825409,0.4097794729930335
1460,-0.7090397146669838,0.010359021892327219,0.3931198069514689,2.5507445649820832,2.1459325012802832,0.921288519691003
1470,-0.6668351334809738,0.05432491605357348,0.4266333779320089,3.079761376369182,-1.6258224983765652,-2.447228941855462
1480,-0.6807464337354797,0.03174576123743097,0.412989927146501,2.38253524602882,-1.3088137691304684,-1.2016215980671232
1490,-0.6978361254361151,0.03260532944436352,0.40756384497774695,2.5290161057929206,2.0235349717961113,2.7039334890769835
1500,-0.6743499199054135,0.055812574925132766,0.425851611524452,0.673313696007378,-0.10168287542345882,0.9044671172920624
1510,-0.6889863013602789,0.03972530121843518,0.4121990170590968,1.7442585981965992,-1.0042191930899043,0.871611294872786
1520,-0.7068607969120851,0.026199337159081206,0.39015304853703403,2.3724928554309583,-1.4173328186633192,0.8123391915628686
1530,-0.6931738387310733,0.038664912187794845,0.4026382516500839,1.4321949783430958,1.2780232937081253,-0.6827251424985064
1540,-0.6932039715593427,0.03067396139951986,0.4010146240241772,-0.13473761838524512,0.8957595154599608,-1.7992781363664139
1550,-0.678049220740553,0.035497980073537605,0.42237212704092153,-3.496862187980165,-3.4187251398473784,-4.492766849081988
1560,-0.722534186168011,-0.008466435199372582,0.3779840143024963,3.4736023565215417,1.1137077935835569,2.8005952902836215
1570,-0.6845783478921271,0.03649487583620422,0.41398237081564976,4.405224472899707,0.7956893866576611,4.447996928214126
1580,-0.6745469391165333,0.04904132760599597,0.4235823367296646,4.076770928914515,0.3241330766745157,4.440617887439593
1590,-0.7034105647450947,0.020815309906081877,0.39135561502256294,3.339842968078659,2.1137348653888526,2.999640956091398
1600,-0.6918415008149533,0.03767623447401729,0.4046545793523003,1.0635249479560858,2.7444347521306796,0.7706284093579638
1610,-0.6919016025515965,0.04070746654429509,0.40671254068388174,-0.7406072364885469,1.7263882797353372,-0.8576773513062562
1620,-0.6795747039078611,0.05369378342733094,0.41779408646146987,-0.23093804269171914,1.8586061981617892,0.02548348616208318
1630,-0.6809668133863337,0.05440729071687843,0.4208060094034645,-3.0325128704787323,-1.6037967705615332,-2.3942443504761335
1640,-0.659438212794015,0.07579973363253906,0.44239838330441267,1.5534969377815073,1.820253738865675,2.2083332135031415
1650,-0.6569083333885691,0.07594310823037419,0.4356514861103127,4.14688258308584,2.595560126866384,4.374283053135051
1660,-0.7029699790702755,0.03325154608673693,0.3901776602930427,0.3863047327371252,-1.710989325956723,-0.3497838110514466
1670,-0.7020869917955835,0.03681272241488337,0.3978147872599256,0.4047515209606194,-0.4571717957912315,-1.182331717630626
1680,-0.6724835344803567,0.05854432556529482,0.4230879303216325,-2.090916044109764,-2.653116721520967,-4.094213763346257
1690,-0.6708539612881609,0.056840330070299136,0.42155778911669395,0.9543000245155366,0.3877593840252487,-0.6956770941523036
1700,-0.6670597624180524,0.06145780434340026,0.4321163714103602,2.8579634873170248,1.105858667253096,0.9990461283286098
1710,-0.7007144075078505,0.03293607493089302,0.39476828586042967,2.002630213917192,0.5688837163892368,0.90020599338637
1720,-0.6964118652657177,0.0373590627750998,0.398561652915031,0.6088638938765176,0.7272584186642461,0.7515672923368042
1730,-0.6703033608920975,0.06612486478941869,0.42657937430328713,-3.1373412964531626,-1.6289983059792859,-2.7953793790545505
1740,-0.6926589403847754,0.03289891001416208,0.4012740254161939,-1.4840334580780556,-1.318926091508205,-2.344958629867774
1750,-0.6635337193499415,0.06673132202000424,0.43254153140955437,2.0855248019917854,2.0249597531864385,1.6469869182961672
1760,-0.6928948680482897,0.041163895222441335,0.4120524640723894,-2.7062838722166616,-3.1317418279682956,-2.5132135987813045
1770,-0.6811681889573455,0.04795395174510355,0.4148633571144757,1.6567413221123288,-0.18051122889976848,1.590127164658504
1780,-0.6760483788640483,0.05833316882095699,0.4141185769246099,-1.1700336754924336,-1.4557080609920199,-0.8014521300565018
1790,-0.6711471177354883,0.06580797711149577,0.43215716220373057,-1.2386210541450564,-0.9015031251715403,-1.4727917182415078
1800,-0.6562418335600927,0.07918329699911077,0.44695939920456157,-0.4120563896022299,-0.39821006729829467,-1.2611326624617698
1810,-0.6688024587531002,0.06782118752475993,0.4318369503054229,2.245746970969145,2.6882446014272894,1.8218302015694268
1820,-0.6788026994989507,0.05243972795079864,0.4213060509010027,0.4606679993405218,-1.6752170011748964,-0.5649675354646035
1830,-0.6947589918153085,0.01765713583629123,0.39900919995968664,6.7548266516081155,0.4971859297293066,5.368165848857236
1840,-0.6807936097248923,0.06511219761767452,0.40945795924968603,4.097113684430553,0.6612044836164684,2.392995722745793
1850,-0.6763375628892261,0.08483678585356769,0.4240854563810071,-1.6882130806643945,1.5989422281156036,-2.0223879520420747
1860,-0.6870889412385384,0.07022546499304186,0.417228367837847,-1.7159203139054506,5.023542654035695,-2.5378415193170705
1870,-0.6758056229073902,0.06765078331351707,0.4239997497566873,-3.7664283245744365,3.0491122144388867,-5.727171951349561
1880,-0.6889726081600097,0.0463085708993837,0.4067986326522776,-3.231571172018157,1.4365896468222132,-6.628977055794673
1890,-0.691553722836048,0.04355468982290404,0.4065212061907689,0.7124462399200562,3.1209184159497,-3.662204354566608
1900,-0.6925593005372539,0.04382329663633214,0.3999484638519988,0.24849664148201578,0.36807532832071327,-3.4940006863392945
1910,-0.6968473215769821,0.04411784104293128,0.3917148964101494,0.8458514256250751,-1.251203186101163,-3.0179539107622393
1920,-0.7009228328083125,0.03967999023201366,0.3889126447046548,2.442823005186494,-0.06365364734191897,-1.5741524679480219
1930,-0.6930604594676933,0.037914428185933595,0.40678056258871587,1.5354333365250081,0.037695935327698216,-0.044785318406621366
1940,-0.6931069651845555,0.034026220230597815,0.4078994408815068,3.8401818887926122,2.446037609612313,3.8191868125276613
1950,-0.6569282544085511,0.08080323570314565,0.44289665351172064,7.611363219161546,5.78690861824383,7.3256435534392015
1960,-0.6907445446281759,0.05427595600501227,0.4153306977420649,4.373105223165584,3.032987235694227,4.778839161885045
1970,-0.691501825483657,0.050189378499238345,0.4041461068725615,-3.1577084307412555,-3.3907728460020383,-2.258411748126437
1980,-0.7037122464826229,0.04152424870944052,0.39515123048609324,1.2689172969822349,2.3115560796924797,2.8093139700948178
1990,-0.684608515470437,0.060132195693537276,0.4116406105630686,0.6282218430209305,2.3970820995572137,2.5303273096425065
2000,-0.6914019278297449,0.04874698364877705,0.4050858872118514,-1.4684228173013134,1.287155591343639,1.8657526773349158
2010,-0.6637990991252526,0.07861455166211477,0.4364069748561512,-0.7660891432445227,1.2070978255768665,2.4268617441776987
2020,-0.6864647708137006,0.059453780610594524,0.40700276761715837,-1.3898711640693926,-0.6153909032956169,0.10650279229971171
2030,-0.6631655204667445,0.07921469908653896,0.4313089610713885,-0.8367653658716274,1.0599089801280388,-0.5536985161778487
2040,-0.7250624419096386,0.017495082048244272,0.37077394843777856,-2.3701241782841187,-1.289665393594103,-2.7530400749029535
2050,-0.7016417458859351,0.043797728488756967,0.398424225667204,-1.6360461762227017,-0.2666905087555697,-1.8605687086729519
2060,-0.6757086690645407,0.07074347717698057,0.4164279859195195,-1.1400141140747442,1.4583654947104743,-0.2283269817723279
2070,-0.6876693356201417,0.06183747345685514,0.41329434685235267,1.1758306764519662,3.0750152988360018,2.202363632696326
2080,-0.7036302218915118,0.041956053005653186,0.3935398572239519,0.1337857414790269,0.9404942607178993,1.0727756925887346
2090,-0.6817282316097232,0.06599723846346232,0.41588569902630934,0.9030201375444906,1.1262266499367222,0.27906982057337576
2100,-0.663832336581201,0.07454868105838727,0.4301864132315157,1.5930585457485762,3.0907381191236265,1.7067789859832074
2110,-0.6861501562876604,0.06112932865594955,0.4089568603971544,-2.8809385557896805,-0.14043343722384827,-2.2685260418826694
2120,-0.7090400695222647,0.04019634838595178,0.3856176773234039,0.09816347544497672,2.102399173231804,-0.3773366178039612
2130,-0.7072141556814387,0.033993407751284996,0.3822074829664107,-2.621670008200116,-0.6051672662409189,-2.364943686970193
2140,-0.7157916456289161,0.024634787883200646,0.37636619163844226,-1.8445558015888377,-1.1272171163881117,-2.42723860286949
2150,-0.6826231084115022,0.059934598949624836,0.40652134066578394,-1.5970872013409383,-0.2888394168530903,-2.8070165154520517
2160,-0.689617613650058,0.05304690694323552,0.41666688347010994,-2.1953350007451355,-0.2929148450884297,-3.6392532159826287
2170,-0.6821842673743624,0.05667888290026057,0.4189101266049544,2.0335473108576174,2.025314370027393,0.5425862752480366
2180,-0.689024107582681,0.04935998159791998,0.4044618137394383,1.3475063876536864,-0.3279458460488032,0.4722589532014068
2190,-0.6835438303859133,0.05841877897892345,0.4121630985119489,1.4149873570525273,-0.8892769209689597,1.0689299316043221
2200,-0.6823375626824354,0.0597159126503394,0.41067467744732344,2.945981857992905,1.313640897565433,3.1956697322742738
2210,-0.6982123112362916,0.04131873987605714,0.3969433275180653,-0.7519205240547151,-1.1216556872469419,-1.0283442895093817
2220,-0.6743142654717955,0.06406697491273519,0.42666572529695546,0.9801490506106931,1.0194531204413282,-0.19646774911653553
2230,-0.6873831649711785,0.048596477079758144,0.4072310150035436,1.9096713930963127,1.8032822349230295,0.7049260193601736
2240,-0.6410231007884984,0.0947558536980466,0.44824170297549265,1.5598900303402325,1.8547251237281575,0.776892153490461
2250,-0.7044791329082062,0.03581819528623219,0.39076889889618477,-0.18633174891088133,0.9947342130105468,-0.08226792019929974
2260,-0.7097540405280831,0.03242038663315899,0.3885027786674275,-2.0704518235573834,-0.6516968025640955,-1.4158680911520198
2270,-0.7030335493843385,0.03721184241425546,0.3947106407389028,-3.863253837422141,-3.3099659382743543,-3.529594500676127
2280,-0.6819823335518629,0.05549116741890006,0.41370160668107353,-1.633884834458782,-1.8605057323432264,-1.2804162225553675
2290,-0.6820569329466086,0.056437144741148214,0.4116247770660021,1.656130991118661,1.3138375376042872,1.8005618084088018
2300,-0.6735657906259555,0.06893410721709563,0.42574124839587757,2.374802842978492,2.3520180215780675,2.345255653950971
2310,-0.6691225486758937,0.07380782857206818,0.423537720125347,0.7021786092698251,1.3699620247986282,1.0636187450234162
2320,-0.7114300798603448,0.02849986298017103,0.38056637200397947,-2.2146707687338827,-1.2461082907022365,-1.445304416412054
2330,-0.6846922522649272,0.052670069598442996,0.40684421466046083,-0.09248864476163321,0.15348841743079444,0.22640816131761607
2340,-0.6760917912685539,0.05474702284237329,0.4183134601507079,-1.006464820794077,-0.6542087303528221,-1.386520239512233
2350,-0.6841645935257583,0.05058636566039055,0.40535138741177473,-0.14848075554172308,0.013455921627860204,0.050210237173643264
2360,-0.6921988626551758,0.039334166840384405,0.4019351110903393,1.2975446969576487,1.0385430721275792,0.8583065684575407
2370,-0.6897359500633556,0.04880099540402615,0.39920569641177317,2.367950212765207,2.3087076613661983,2.211363701846088
