time_ms,ax,ay,az,gx,gy,gz
0,-1.0583656039635754,0.7130669543955975,0.5720442493102962,-2.6991286518800557,-1.4016550283711686,-3.0792042121301395
10,-1.0469921454321898,0.7258065547623321,0.5854941956066364,1.0761877915934126,3.1326319286680353,1.2706674016001305
20,-1.0128543871123294,0.760134430138473,0.6170033393466416,0.32726498207034715,1.860823506616378,-0.04528916327767463
30,-1.0506811372319844,0.7194765251025633,0.574535745447765,1.5957109564498175,2.2920514268422574,0.9529252651469413
40,-1.0206416127860098,0.748868463061411,0.6013640187537358,1.1588796757200837,1.4247932291366256,0.2680124983173511
50,-1.0289685335542738,0.738005156289199,0.5929721772915129,-1.066002379236509,-0.43942458620209623,-0.8506265609654318
60,-1.0222722403316626,0.7418801258034279,0.6019058374645957,-1.61301388197636,-1.2588041107237808,-1.6312407587631812
70,-1.0394937251731617,0.7290341879826536,0.5836778033078172,-1.3883675939534617,-1.3207013006472699,-2.3446011262673556
80,-1.0255654617797356,0.7395464184017689,0.6009621676275221,0.7170675958843008,0.5286950938736492,-0.956455592881799
90,-1.015362086460739,0.7526735940203957,0.6001246587998047,-0.2510254349828869,-0.03128293882101117,-0.9795214301554109
100,-1.0211805561216696,0.749396626129486,0.6041926886020231,-1.1476349572423534,-0.45417192596562006,-1.470073477534462
110,-1.0186660982361335,0.750638512405709,0.6100643114013663,0.5518817468881148,1.3698198024400774,0.11712563050850644
120,-1.0339698319700084,0.7347816542299171,0.5952014658679247,-4.705766525597393,-3.816173339572242,-5.1618870073148555
130,-1.0243884943060866,0.7402787485081527,0.6068521508337963,-1.4327646352193644,0.1325274755133925,-1.2404584544635986
140,-1.0161248115297936,0.7490245376231688,0.6105435822525841,-5.038083383494055,-3.101301141407662,-3.7713674850479095
150,-1.0053532206401976,0.760791163627848,0.6206512334702005,2.61903231458629,5.809784147327738,5.227728033507146
160,-1.0952390542918788,0.7145861771657397,0.8444678404793529,-3.3408991274000948,-10.232346889500139,6.65235294840734
170,-1.023249019477638,0.7148334392820939,0.6227372135309941,-1.6550891040152997,-19.587581058939286,1.2336638505696662
180,-1.0769036348682852,0.7262369053516704,0.6740600524843343,-0.8548686982651388,-13.757305400441794,9.196861561744637
190,-1.1064510714511362,0.7389022414757065,0.7673066447882175,7.341113937949543,-25.545790985793946,14.628676091699694
200,-1.0521833211652742,0.7234471794597672,0.6993152284066967,12.682498673879007,-31.262997430846244,16.491991901571296
210,-0.9510902562959802,0.8019002345426021,0.6976433178551344,7.024595958141301,-28.8014460439815,11.780969374907675
220,-0.948518386834988,0.8134333673450485,0.6671021716129624,0.14568921111359714,-22.60441955791204,5.751431395145415
230,-0.91912418487791,0.832155689449423,0.6940827363302532,-5.248286950148551,-20.59035703400859,-0.9797919001193652
240,-0.9318170393883374,0.8397776499161882,0.6813398145664654,-7.704660795817535,-17.041013903692047,-5.662409660834479
250,-0.976889425320397,0.81006519863605,0.6668660413921583,-9.342568735250236,-12.383766239828923,-5.89803303631375
260,-1.0042281838875804,0.77604237518447,0.6640756416000326,-10.660556093295453,-10.753771816895464,-7.209322043826564
270,-0.9619807772790164,0.773565563061803,0.6075375054865422,-10.260379845339855,0.008982606224100742,-4.587059731339689
280,-0.962642822969064,0.7682240239568909,0.6014630249608898,-12.288027650366079,4.4698106811620555,-6.0449660175373765
290,-0.9647438668532485,0.7610565669803895,0.6240011301598186,-18.928710131039765,4.652500873125325,-11.718581210504695
300,-1.0030574182376297,0.7147173019353469,0.6190279509252423,-17.125440650098426,10.591681909363468,-11.279413748369462
310,-1.0731624980285597,0.6800903926191605,0.6426176614467437,-19.72412312069305,6.791395005522364,-16.66696720476961
320,-1.0679851471230364,0.6641324054619536,0.7008815832329458,-15.646524236315065,-3.732283224972873,-16.944889635725033
330,-1.0754159066933644,0.6664139455437599,0.7062190408932508,-0.5150791268513182,-5.349078484951128,-9.550174728858169
340,-1.0063992618431465,0.6438183067524982,0.7943819638640107,-2.2468316744263985,-6.367315061627969,-11.460143123009734
350,-1.0839539874588227,0.5661026657290457,0.7393483579985627,-6.261658039978476,-9.840973386894804,-16.905404688456247
360,-1.0810436447195193,0.6044444656043501,0.5537145375820138,4.806348143916923,-8.416913431871466,-12.35240259630064
370,-1.094779465446278,0.7305886455875451,0.5737965985980151,16.362124997103336,-5.051798346463695,-13.229989732807779
380,-1.1051071096343414,0.5451297039554023,0.5575631229778719,11.0982388289008,-4.7985723332176455,-26.456343162683485
390,-0.9142607607061034,0.47554528416331987,0.4641920942482977,10.669116997735875,-1.9684842572712657,-24.855929168984325
400,-0.822136249978208,0.5332701782739593,0.5125178007312143,2.375715740352103,-1.3319683741623995,-18.436213840753464
410,-1.2654354351395471,0.850475342299245,0.5272864456534516,24.388499567285777,-5.080420361527081,3.66585933841142
420,-0.8718398756948398,0.6415568493141548,0.6780210358142887,1.817448983207894,6.11359223844502,-15.879873266019212
430,-0.9800381830948218,0.6072703679460014,0.24592881761338467,2.411927436517451,13.397272893535728,-5.6234935816968825
440,-0.9807248399971935,0.8368329701578362,0.3758113711303596,11.131136512828625,14.179463681398813,3.3598545498658936
450,-0.980027287897225,0.6850300787326922,0.4464639377968903,9.001246529136637,6.663889094624985,-3.6376392495709022
460,-0.8577778477706667,0.713093574973126,0.28891467855643777,8.684677178373796,11.813103525202244,-0.1654456444973329
470,-0.960169228746822,1.0177707091271644,0.5147109888360597,10.800568795406578,8.882125988650223,3.046012279327769
480,-1.0897406098898035,0.5505684382757635,0.8425585977673536,-17.08227351224475,11.477559188359583,-6.548927932556959
490,-1.0681947020217852,0.6802006700759364,0.9844834002247377,-18.32709012550623,12.309460061495127,0.2673157438113607
500,-0.9497240969745865,0.8634312775251355,0.3590192935611742,-2.2486283367371085,10.777222356417903,10.650459551584646
510,-0.9710403514613093,0.7944958109828513,0.5723919592844106,-8.242137811560179,8.672043460157447,8.802755796698518
520,-1.087271625285142,0.8958151372356348,0.7919243949185487,-6.993822346676806,9.989333104860924,19.029478027778502
530,-1.1844542963508473,0.6189451180224714,0.9963756438284963,-8.803187628701679,4.147296504331334,15.100962695101684
540,-1.0653817442849849,0.8084292195740623,0.8333988257428668,7.336350412847331,6.181557047762883,19.191380977195966
550,-1.0057960531625858,0.46084241906023277,0.942403858412156,-16.20368486186278,1.0784660452874784,2.1052785259458147
560,-0.8991780727098816,0.7756003992741485,0.6721814396454546,10.28746658733807,5.547526270629196,13.814272631434761
570,-1.0234017237012027,0.4916097648692847,0.7773252814151766,-15.248612040343954,8.924478386902049,5.216796124700986
580,-1.069878890408231,0.5317330016624976,0.9327033909051451,-9.555319955337236,0.3384299665817354,1.7839509965593736
590,-1.026326601368723,0.6606008094953235,0.6337493479298241,12.67298461464787,11.097660656716442,26.678992819340984
600,-1.0134332580926233,0.5602244253967947,0.6901737493970902,10.93329024814375,4.998052810752633,15.07875654139642
610,-1.0925509773317081,0.6221919609199753,0.3907754977539202,13.762609609787434,0.4647012776850441,-4.852995527513135
620,-1.104230591521408,0.5123797985696191,0.49005002795843633,5.338172295062356,-1.5538764937614191,-17.33069617668137
630,-0.9696002071045209,0.7843728863522309,0.8404034618114613,7.93960753229954,0.6475115185296403,-15.451315182187793
640,-1.1941152241637776,0.9401772095191288,0.7460115061836627,32.38070848411094,-1.2102152191979716,5.712396120746149
650,-1.0741013106006811,0.7967494487247949,0.8010785131159592,23.728905281354656,3.5872384948194553,-13.212327995327767
660,-1.2677618622240814,0.8924333554155631,0.4014070209932733,33.343564304736056,5.812088529414617,2.804671648236452
670,-0.8886487858442582,0.8481248648032536,0.5416261528004264,10.529581985498563,14.122823390118281,-10.78754175989085
680,-1.0390117872865314,0.991468831421018,0.5684366545006585,17.8485278335229,16.894013215192203,-2.6884882604503373
690,-0.9925989855102142,0.6330207489457083,0.43620888917466727,10.056570039197545,16.57072403914845,-5.025244496342705
700,-1.027561141747406,0.7336084395874869,0.5072300341999646,0.21709543405024911,15.28285136002022,-1.435821654485851
710,-1.056755814659111,0.7582199462866493,0.7832382311378373,-7.1104242075407855,10.838486833860498,-4.2989196257857785
720,-1.122891464531634,0.8706667012555769,1.308632008049593,-18.689450599772442,1.802609235265531,-14.940229386824662
730,-1.0535000245012451,0.675934849094873,0.9817359843009851,-17.805696835941923,7.794544140574267,-5.195493098604344
740,-1.0171514160752875,1.1783705871025043,0.2996181802111435,5.50727602249898,20.488016536562927,22.57071337477434
750,-1.061770778894374,0.7129510560748736,0.7062000727409649,-16.223215755674662,2.64149371831487,5.181512226503858
760,-0.9870523176947202,0.6494537312436357,0.5762330979478311,-16.82117340432643,-1.1003279661966912,3.1643411047912426
770,-0.8584570739595282,0.858212580995438,0.8823216191317976,-3.706269371477477,-0.4322256441100033,14.753795389823782
780,-0.9516806905280251,0.7542487862047792,0.8217141399358375,-6.215842472942837,-5.350214035495186,8.431147047917271
790,-1.0937114413755111,0.43284343659251745,0.7121971004007162,-11.901375678229444,-3.1849341374744644,-5.010225882315732
800,-1.064907261615716,0.8536645949906783,0.6475388141844716,2.77809323670464,2.9524642188662935,11.625942753620057
810,-1.030780430479294,0.7269609215015145,0.6729253304010867,5.133080857072088,3.44667647990386,6.45863284900936
820,-0.9971273754493272,0.3801219665196683,0.3004947418377903,-3.9665196972359906,1.8905518082902382,6.772637493718502
830,-1.016116717030729,0.6244418293931376,0.6224595921892501,0.06692340433130273,1.9265344716757196,2.658574500874298
840,-1.0073957597200756,0.6274225194292204,0.5112036269129053,-1.5557414469858726,3.181522630287846,7.896308700047596
850,-1.0547220780343354,0.6562655013962321,0.5559654872110691,2.921819039407082,1.1506267006368343,4.647736589668067
860,-1.036546763905344,0.7271597339175103,0.5833476091259753,2.117870025512894,-1.4968844179050602,5.014146567042541
870,-1.032437308112646,0.7295681695641876,0.5909923454703092,-0.8929567889956067,-4.86188502298603,-1.2144733025038912
880,-1.0232876625261405,0.7314611649978054,0.6015567326532733,-0.18569856746249402,-3.1853312691646827,-1.600901658570756
890,-1.0123490594733877,0.7372805580178425,0.6165473710499366,0.46136757277134555,-1.5425050756229202,-0.9486046095437003
900,-1.0390067095332445,0.7120883068450196,0.582636783066307,-0.702659810200724,-1.3847345513885472,-0.015901274366656892
910,-0.9945585151231798,0.7759115683916632,0.6298019586472968,-4.5866194748333315,-3.6380107753671416,-2.026994277799677
920,-1.0311784494552028,0.7369638926142673,0.5928527805298802,-1.9534567004960783,-1.5054831449015786,-0.5772257146914417
930,-1.0431907450091267,0.7252947020345969,0.5878601417317547,-0.8176723246626925,-0.9706939396113836,-0.7239356186007802
940,-1.0244072282578163,0.7384457596733965,0.6025108863871091,-1.3533502539654159,-1.419163644942943,-1.2302992252106209
950,-1.0266461055691174,0.7345247339881025,0.6035493104257255,-2.2189617497014176,-2.2694600745977964,-1.8301449488961916
960,-0.9832160893189223,0.7800054890710743,0.6433544619470518,-2.7534376622963608,-2.238674543730016,-1.7578103522177475
970,-1.0299474267796966,0.7348261618777288,0.5935008489148745,2.2171122566646275,2.1309961268005795,2.9487378801135087
980,-1.015664360165374,0.7573766150441402,0.6119412481948133,-1.13913931692739,-0.7818532780132925,-0.841580981736006
990,-0.9851453633960849,0.7726906064561456,0.6412733664315482,-0.4410859318922571,-0.9397319530482382,-0.7054033100984147
1000,-1.0398763783881264,0.716490063147343,0.5904832401805709,-4.42492261137371,-4.566222677403504,-4.115371690310505
1010,-1.0255030547774437,0.732691344313168,0.6011309049610927,-1.8511401431376193,-1.772484894305459,-0.8518219824271631
1020,-1.0367332436659902,0.7268377277451883,0.5866028171278942,-0.21287870453196558,0.8061161553417844,1.2232623444335908
1030,-1.0223470328174278,0.7428649709688114,0.6027233045692046,-1.1825811021929649,-0.5524717100281149,-0.12039459939054886
1040,-1.0292340138311475,0.7350355267002453,0.5932436206903967,-2.131792997004476,-2.0264287283181037,-1.6139045819471936
1050,-1.008294786792068,0.7544838032086073,0.6133386291563432,1.0019616888122131,0.8289207366004728,1.3175126338862924
1060,-1.035270107232152,0.7300098401423908,0.5913827540409301,-3.933531124522549,-2.7884090428447985,-2.936787792328308
1070,-1.0134324310878153,0.7482424361366992,0.6151526309512175,-2.310302241115568,-1.1188859860355884,-0.09797491238837525
1080,-1.022881978752125,0.7404548985842978,0.6103745979239388,0.02603521739898451,-0.06778589868882942,1.1546756814984391
1090,-1.0371205765228801,0.7276584787882014,0.5869014879377538,-0.7337271492628891,-1.085930654932117,-0.028368131063491786
1100,-1.0109889379254209,0.752469441154091,0.6089928177123726,-2.0459834792433806,-1.8162273069190331,-2.1408353368035433
1110,-1.0451578051399382,0.7183578816465428,0.5817633072801358,-2.3478498685587,-1.5946060284635994,-2.927708129340122
1120,-1.0270281758640485,0.7327011567504038,0.5997603118408098,-1.3305991859813147,-0.9952244807511077,-0.5067559127347099
1130,-1.0311800831765814,0.7327103849872802,0.5993570390332462,-0.3276092215107108,-0.5429589693327626,0.9635434084217152
1140,-1.0030406683017223,0.7596702469092438,0.6173923892561733,2.140467940825185,1.7928174680307996,2.7324048888180847
1150,-1.0106319753202249,0.75974399030454,0.6195596542090077,3.1950008079166032,2.787214034581861,2.7973597672904202
1160,-1.0337286671346826,0.7346835922752109,0.591556696801445,-0.9411533191829594,-1.276597520143821,-1.809591703754346
1170,-1.0151063006345415,0.7522535925207957,0.6152164415729591,-3.397645772008086,-3.3598090659267736,-4.147164409993566
1180,-1.043313981307771,0.7236723767324168,0.5810910378926061,-4.397023915893402,-4.362629343589888,-3.7823623025316055
1190,-1.0196328293529424,0.7501913706739034,0.6033202731286842,-0.562439989386134,-0.21670366548548736,0.2849654789565975
1200,-1.0349536751026294,0.7329001895259005,0.5935320823302765,-2.5076580324637874,-2.227024169298839,-2.255112660519815
1210,-1.043223016471504,0.7218155284318971,0.5861942007355115,-1.7078243107919486,-1.369908714539537,-2.213643088816912
1220,-1.0153173504469661,0.7439575119118584,0.6104876359219785,-1.7479691844736864,-1.5054010785701297,-2.547119034642792
1230,-1.0244225493028574,0.7295559386792919,0.5947774043669443,2.0099256982926477,3.130422978502124,1.693810464983914
