time_ms,ax,ay,az,gx,gy,gz
0,-0.8022256516180091,0.05853948470258325,0.6306109342383003,1.324942784231979,2.2577333639770316,2.55181542220453
10,-0.8260562536975727,0.031176666112959064,0.6114336788099214,-0.511257492751481,2.3654908769563137,2.422557723402959
20,-0.7964149660788643,0.05445097023631158,0.6380862993614419,2.7268221304429066,1.2857253798509776,0.9611282527153813
30,-0.7783256096734318,0.0748253419640437,0.6597846018210695,2.3573215885354055,0.610228824094879,0.8976822087842871
40,-0.8162301156630206,0.04270124766094526,0.624951326420736,2.392460633084272,-0.30933325169111564,0.3550954209153316
50,-0.7688267120537737,0.08573374056542565,0.6752035855660034,0.7500044081254524,0.20459831097847392,-0.03682458336383454
60,-0.786624860869184,0.06857417101737315,0.6606405976788681,0.38451178056939417,0.9320258587809809,0.10129069196782142
70,-0.8050578263715334,0.05175296946037142,0.6443557637606537,-1.864439264295019,-2.160134264132159,-1.7901953023298987
80,-0.8094424539058991,0.04584658582915098,0.6332690772578036,-0.651056094324689,-1.1809943761227144,-1.0747803713290005
90,-0.8212771502279076,0.02969819118527544,0.6219958937782329,2.464382627208882,3.548882167589275,3.8478669429146604
100,-0.7783896270108106,0.073662872232286,0.6629863498030627,-2.5629775961495356,-0.8577638845939614,-0.6341604230795548
110,-0.7967530580625144,0.0565192954525174,0.6470295706642154,-0.24339969100169712,1.8349622852510588,1.6144714772470212
120,-0.7807393633596522,0.08978590182978152,0.6813503086064745,2.245643130607016,-0.12897255504758437,4.162449101154448
130,-0.8296052102286812,0.03764434567185547,0.6430225005191128,1.8922533322297648,-2.3689832058994744,11.79555189275551
140,-0.9493278953896863,-0.028608635690017474,0.6306532248797729,20.086251334662528,-9.948136245662369,17.163055807072666
150,-0.9944103584052519,-0.12275775243887435,0.7929440511441993,63.31843584866115,-8.469559791108452,28.569651672230748
160,-1.0725690826415017,-0.14483957073433806,0.8277327517498297,38.42111286933656,-42.7813977050233,4.416955546145911
170,-0.8310134379061711,-0.08948062605455484,0.7276728160937207,36.03468017928174,-52.98541365435343,-19.44130220883826
180,-0.6376023554910866,-0.09542597748354281,0.6553154653648048,32.28644852822267,-52.45385513163079,-49.522030869904846
190,-0.6923590191771711,0.22867158699716045,0.5440362556638784,-14.89372818714468,-42.06252238753664,-49.12172445027733
200,-0.5914519628611757,0.30489730349337735,0.5269426018203985,-42.99555006165872,-26.644400739548345,-37.417341490817165
210,-0.5613919943910174,0.18803447474805332,0.503680041981725,-44.196810761708136,-6.596041570366712,-27.883357678016683
220,-0.5598119472537392,0.3509746649542838,0.6469444107406579,-33.338947334054104,6.568302009168692,-20.158851124431386
230,-0.7615234034704832,-0.01601827099487204,0.7299489452975207,-74.2203977583177,17.88440672594453,10.793839400624428
240,-0.9258139425357065,-0.13638261011789837,0.8828157645455489,-84.38803476258052,9.695350331101917,-5.910263031334702
250,-0.9835040269138039,-0.14210819726302323,1.0031369758876012,-63.340869890290115,-13.998218096809993,-4.045322469836542
260,-0.7123614126532778,-0.11269683056605731,0.6856087536911423,-9.02009704996561,-30.88271690537541,-11.989345676692446
270,-0.7165790375564008,-0.1327809471349425,0.8307462085998901,27.007075915129185,-37.45394224633656,-20.8626976808207
280,-0.6826535463456294,-0.07439649458836993,0.5121784403406084,-53.507316540407615,-32.44651133865583,-12.564122942336406
290,-0.8743596687491273,-0.2415810882053913,0.8462365096277841,-9.08332961959645,-24.012043160890435,-17.482269048740275
300,-1.0631386434668668,0.4054518130354596,0.028341205567104805,-8.165181648778615,-5.1277924366288214,-23.62334484061895
310,-0.6316041362096301,-0.10583027979396725,0.6133778100720133,7.4514070165161606,-6.889552094543776,-41.00179573466599
320,-0.699045425546708,-0.18097397490388759,0.6652186343200658,2.233002404190404,0.8874490860900983,-40.78386139985194
330,-0.8845311330941084,0.06249422443773956,0.49662538622561203,20.038516064957733,25.19600440813867,-11.535574085706912
340,-0.8182316479610876,-0.07098832863783087,0.7264781679324179,31.86998793745795,37.189160841357584,-1.1587777148615177
350,-0.6296935744938935,-0.023384395972592936,0.9076824556967331,40.37528966355329,39.97087524384485,14.303153556726866
360,-0.7892018246714181,0.3512764664744467,0.41398790543810937,42.05158584917746,41.25625293284469,27.02665148548165
370,-0.8716606980888277,0.2084716441623515,0.26774287602153185,-1.22488926827892,32.88129718213552,33.15788067199197
380,-0.7819701714465707,0.017707908296079322,0.5964791644485691,-0.10448694234872313,27.158798337447124,36.01784959084324
390,-0.8318688471242318,-0.1738540373834878,0.5742046762126884,-18.980361820313227,4.1366133996589385,18.587464977408207
400,-0.7576241577203209,-0.36463892470971115,0.7715891877719443,-19.01878582652711,0.05499572815596365,18.37750865481293
410,-0.7866809252769924,-0.4153490633711749,0.6506091174173724,-24.809331543582893,-7.791385462601188,12.484205511860985
420,-0.8212950133782431,-0.28833096419402815,0.6194470406224543,8.665340938484764,-6.493620361958428,11.638768258202383
430,-0.7419783492821658,-0.04629263378247289,0.7112431798731058,39.41672110952164,-3.8154506256993614,13.213159422587598
440,-0.7639988598157401,-0.01618677256068987,0.7043347536488789,80.09024295693166,-7.046671485843656,4.798298127360146
450,-0.7255488079686524,-0.049744127287783435,0.3206792591032257,90.43484753125175,-13.930003859912855,-31.267689349042083
460,-0.7388390364964778,-0.12999572673586346,0.4007698377480667,61.450830173524444,3.6430491070474087,-37.873619315027945
470,-0.7708874750146241,-0.22608903355792567,0.5665558820528617,47.91922741657842,10.669368447225187,-52.507814043085794
480,-0.8414320692009067,-0.029682145094928458,0.416828956037242,9.237236395898908,20.28157288529547,-48.52363598677096
490,-0.9751382708292851,-0.21264628740435643,0.020884041243906797,-14.732008387999015,54.417688193163386,-36.34698678735218
500,-1.0593602671283444,-0.18525760780791406,-0.04636995460809101,0.20833013748531126,68.11095010116493,-29.38285060949693
510,-0.9260275113675821,0.27847013583766106,0.8343414441949889,95.94330097519688,59.39317511471022,-7.434751997327925
520,-0.7731206575939352,0.19228655776660225,0.6114356503577638,34.72497511008327,50.77386921738705,11.590904611993976
530,-0.7341422124506304,0.2913915815486189,0.700933298776515,5.442862285118194,34.79098346933784,32.84759048939611
540,-0.8499178212866301,0.11682891856731675,0.6065810717165858,-29.64331742197491,12.716904903405169,33.445225412136836
550,-0.8152936218298839,-0.2293843853580907,0.8873790831971492,-30.178337992934377,-15.222498231473434,27.266300883999005
560,-1.0495207065877827,-0.20847016069676674,0.379487172541422,-72.74380486406955,-17.96068335100564,15.96316338286698
570,-0.9297201917523318,-0.1189815675504075,0.1785409288720852,-70.77769799112241,-12.388122140785953,5.603886266255222
580,-0.8619013198935981,-0.2743259239427773,0.4771239011741923,-17.116888117935634,-9.670327380429686,-16.41733764897582
590,-0.8932881174544376,-0.1783778641190237,0.5626400473129239,13.73181133475643,0.8185084541437585,-14.290609482638379
600,-0.8248843120199777,0.07416502044305621,0.6023618293609277,8.517423487109202,1.8174242061517463,9.656378786466526
610,-0.8308823852019133,0.058305972598810776,0.6171696374553302,-6.230598147356296,2.775329959597825,8.515365708442985
620,-0.8310490226102567,0.04506738506935858,0.6207384688050059,-17.357670213076517,3.364914974293396,5.001373110751794
630,-0.7846411026237987,0.06175024587159647,0.6566803400470811,-14.098955007119198,9.140624467697219,11.239413961684026
640,-0.8105552900313711,0.0583535545783029,0.6195676750995008,-7.6510299023523745,8.71840450302965,12.44075667318204
650,-0.8309710995363374,0.0026857950692179347,0.6155438176415532,-22.807354404250468,3.5305808662287035,7.611795996307131
660,-0.8204467098928374,0.027654595340165407,0.6327603582523609,-11.799061277580977,1.6739793887163588,12.288040158637914
670,-0.8013000692087389,0.05295726907046775,0.6316806476836336,-6.196073082708455,-1.2204113410444166,21.148303886314025
680,-0.8366006610519954,0.019736022706666117,0.5962271935472246,6.590778866295802,-5.64619097478486,25.220014464297158
690,-0.7923026475624092,0.07350350873982396,0.6461720363174386,0.2307886893646156,-11.295052018227157,27.1221820576816
700,-0.8214145250994468,0.030500088801986756,0.6179387834465258,14.269744558806014,-15.075135477955083,23.13195127542015
710,-0.7745959284224657,0.11277204354091308,0.669079958509555,28.883733313573046,-8.900143788928588,19.359663552427573
720,-0.7859328505384621,0.14794223685365462,0.6614769399851346,6.507301324260977,-4.845554509129122,7.3517012174853225
730,-0.8223494348523162,0.09598938731773118,0.6392507073929938,-13.73139743202467,0.8653824483628554,-3.775037134373178
740,-0.8133165864354539,0.07434273225937107,0.6236619732942785,-21.173131454380886,0.33991926649149473,-13.80760049643288
750,-0.8296444138277245,0.027745890132068428,0.6080471587042289,-8.46624892087107,1.6063483636682172,-8.042422289381818
760,-0.8073325925221386,0.059797442301028174,0.6383677553151536,2.4109176724467365,-5.893632843003237,-2.0246292868357254
770,-0.8004845295916594,0.06655773318760828,0.6406935731304386,1.8628656198041866,-2.766247924343733,-0.7752575988390198
780,-0.8026950542015574,0.058415732094963285,0.6328180281291996,-1.9389575063425026,-2.336334141470768,-2.3183301224881543
790,-0.803881767577459,0.060676291187498406,0.6363059337538404,0.7114508576641686,-1.101480052621811,-1.6994301490715316
800,-0.8111017353041401,0.05403951627413722,0.6311349136206906,-0.2892794726785819,-3.517594641919227,-4.6795338863262455
810,-0.8137957335644508,0.05704962374895722,0.6313854110343519,-8.1103141081014,-2.0938876781823934,-4.432928722756633
820,-0.8254561944415827,0.030617816499982926,0.6230465891662751,-10.80817778890751,-2.2811120386953325,-4.0068319617241706
830,-0.7858128591837418,0.06806002903336679,0.6515029043020736,-4.959646451640034,0.41382068227525404,0.6228234880721923
840,-0.7984045595696938,0.05918099033823327,0.6435529916874374,-2.6910139268106086,-0.3009980511350685,1.6410528204054784
850,-0.8390024844139012,0.020619957450793765,0.6053722434188247,0.5055612491159933,0.4273762615296427,2.897506291857792
860,-0.8057946046239189,0.056039664262606544,0.6399191423849245,0.6390882724738296,0.7620689835228056,0.6915870317237206
870,-0.8169150116982679,0.041199674127134364,0.6269293438842799,-3.33309745563787,-2.3175219760025265,-4.708697073157856
880,-0.7830579383888899,0.06392081451222786,0.6564057996629143,-3.439256569075993,-0.5975512366746136,-3.9295295707997813
890,-0.7873184362385901,0.0601188402166687,0.6596338804616844,-1.768869245699892,-0.7837309220775927,-3.065534056185478
900,-0.8116641777324372,0.04441628015308443,0.6325711699018092,-1.7458924323446738,-1.6095012609753587,-2.786507156429983
910,-0.7851890422949694,0.07040553749311285,0.6638077257386503,-1.007811617380032,-2.7976614130262814,-1.8033204850160107
920,-0.788650488920846,0.06444842020178408,0.6576376428738615,7.646047982211824,3.8536575135527764,6.6174082347542384
930,-0.7734633895010372,0.08547625500019546,0.6693905391090097,0.8940429499238107,-1.9333971790656856,-0.3558791735057907
940,-0.8077868920589756,0.0646146933972009,0.6458726889720834,-0.01975718326337539,1.0693626089968125,0.8148630576835412
950,-0.7750604516013683,0.09120153681487375,0.6727520498307458,-1.9848761176726537,1.1683240374123138,-0.11803461831526896
960,-0.7874568025666916,0.060704529478611866,0.660686472733549,-0.41585509342551363,1.0231162238013494,0.36706810085418673
970,-0.7753149883148008,0.09103372234748026,0.6702324256088251,3.4295471398221578,0.41111160453066453,0.6256382520390903
980,-0.8044764551212962,0.06284480058100239,0.6467316364484329,1.2037059485683845,2.224699455034632,0.9005921885389854
990,-0.8283126009211287,0.033473246079104055,0.6242263014335452,-0.9710919794565656,2.537466696486245,-0.19265552157755028
1000,-0.821187411051158,0.04270580870932335,0.630063517350645,-3.379720798455115,0.7087794932127321,-3.790535971145337
1010,-0.8065465813888362,0.05558992452655743,0.6332758395100294,-6.536858972824878,-1.6541983333847925,-7.109740717228322
1020,-0.7968733311335149,0.0418476708806151,0.647627214022108,-2.3690601734265906,-0.14387869125763875,-2.611026506965909
1030,-0.7946410742524687,0.040319591330984686,0.6511819651974509,2.8903188918130023,0.9852556208680259,2.990086348891512
1040,-0.7652568623696951,0.07717724908372539,0.6755271455161608,4.947132712908434,-1.7087211645509988,3.295791775183502
1050,-0.8149012855617502,0.03824796554822389,0.6327078524511637,5.481902792736348,-0.7377004489294949,4.002528841831774
1060,-0.8283500151284731,0.0344596677248432,0.6251503514834811,0.6180361947687807,-3.536790286833491,-0.5579551743414632
1070,-0.7814878740042849,0.07776358333908809,0.6663393257526673,-1.6677367987118537,-2.7058029247688764,-2.813045572166518
1080,-0.7994602684777948,0.05339787634087791,0.6431689736115335,-2.6436833455372595,-1.5307510049396216,-3.5966377144901793
1090,-0.8085850344901264,0.044718227051652015,0.6359365021051595,-1.9814145809188486,-1.0421679087371831,-3.5671627006228914
1100,-0.7786434109363076,0.06697140325775815,0.6710078384443815,0.467975339823518,2.8955110803102,0.9024202828566876
1110,-0.7982291359265302,0.05034124757996592,0.6416426474122326,2.064111506867175,2.049102231343949,3.5469220425599968
1120,-0.8223363144994342,0.02707614041227547,0.6235814352495943,1.00111787648836,-1.6088039248418635,0.4238776158301758
1130,-0.8106937298154758,0.04575804859018432,0.6349606903429341,-2.1106066742615575,-1.143901236725396,-0.07939520787816767
1140,-0.7800368245068512,0.0708999210254189,0.6714031209810215,-3.9740274000402365,-1.7133878839392995,-1.7812447181086344
1150,-0.7929004972957364,0.06440236864977748,0.6602266604643512,0.39269382534914454,2.4994824450505306,1.9572030463774988
1160,-0.8067426145613094,0.04210688697388139,0.6412000819897595,-1.0413475802875312,0.08155902407598098,0.2738938188070641
1170,-0.8249968417893702,0.02692332131745046,0.6246137135489398,-2.0708215885979793,-1.7542811470602098,-0.5329023052976161
1180,-0.8175637547790836,0.04454747686103497,0.6329112250072138,2.0197164858124217,1.0081197489035798,3.277514767076721
1190,-0.7983293748187452,0.058093233080351234,0.6508691204280369,-3.208214379038128,-1.3882361598285564,-0.774805674347065
1200,-0.7763509873740781,0.0762372958311789,0.6692567289630197,-1.223327146985338,0.7071230175615324,0.17440475864661142
1210,-0.7778762622664211,0.06943272335055306,0.6692424020102601,0.8312947165708422,2.1580372397140346,1.7070553452984796
1220,-0.8000924016397872,0.052733128513306145,0.6439305515067635,0.3450365426899862,-0.4662575141048172,-0.25399052081522844
1230,-0.808647224240414,0.04243479062667322,0.6366709316454442,1.9953496840277514,-0.7529512919376509,0.5838671202047957
1240,-0.8031944010640081,0.04967652893463938,0.6432607459022937,1.3393736308589381,-1.874304952215086,0.01644470965830802
1250,-0.8127357757794096,0.05081384151743537,0.6329370366589735,2.155745870386999,-0.016374938561719315,1.320430497298429
1260,-0.7622632591061325,0.09300746329001044,0.6797739013330866,0.7546564460739884,1.6004072571315544,0.6664470057272717
1270,-0.816673754585591,0.040164070128897264,0.6285792213744308,1.9638007928645465,1.9602305646027258,-0.21372475735079144
1280,-0.7837882777772497,0.07118131154771554,0.6609748098750949,-0.11189230867216549,-0.42246302573862926,-1.775505223033211
1290,-0.8113749647464805,0.04721937955930701,0.6403046251381043,-0.9510012308707885,0.016721039709328846,0.776072988005754
1300,-0.8103813298315288,0.05068607827263548,0.639314703114472,-0.3032186352347033,0.2338280851025759,0.6179263562084383
1310,-0.81957829149874,0.042337122660294005,0.6311879614966873,2.425580252162061,1.0534144759085213,0.8851570655717834
1320,-0.7839349877113266,0.07135253017801776,0.6644851952179563,2.570040408923601,-0.3462101764563047,-0.6369202541480967
1330,-0.7804084042179544,0.07765879295887865,0.6623009386074286,-0.8748686308205702,-2.120757350004035,-1.8660885778712835
1340,-0.7744743343131999,0.07931983776620881,0.6755097833510335,-2.8559581016792017,-0.05191881274423394,0.9438344699329116
1350,-0.7875103010395877,0.069170835039971,0.6586601962416939,0.17113110361709483,1.5340931602601116,3.1426653081440863
1360,-0.7958494081477228,0.0609140812926647,0.652527128686353,-2.5135541426289096,0.09903896100823711,1.3525747427651624
1370,-0.7970494017324288,0.05873027799977554,0.654385651479693,-2.0194987344461306,-0.18998737985628666,0.4434877266463255
1380,-0.7862556900120108,0.06641306646907115,0.6582275594560493,2.5449451560358334,1.522283150907953,1.8806386308704661
1390,-0.8053367609521882,0.04633447842600574,0.634021876895946,-2.2154399290100844,-1.8369376885697262,-1.6525456670686567
1400,-0.7979653548277081,0.056848650459164596,0.6532756168840247,-3.4998577465780665,0.7442190376562573,0.02369054434094431
