time_ms,ax,ay,az,gx,gy,gz
0,-0.8185055110085051,0.10403878706393463,0.5762911537308631,-0.3229286310998909,-0.19025437854547095,-0.13770053566628596
10,-0.815472832431753,0.1013237472778288,0.5827291544426813,0.7769673206062159,0.25595034026343993,0.1370913232683938
20,-0.8239011522198274,0.0977845025238015,0.5715738263508194,0.4740355083902661,-0.6350855110669289,-0.4820464302749632
30,-0.7912660277215507,0.1301813227970471,0.6038370347893269,0.637104138240939,2.338405339516954,1.9264533112469104
40,-0.820834418905274,0.09938665444793121,0.5769406894125151,-1.415740643106169,0.5084381930821944,0.5527600515144248
50,-0.8520290378219263,0.0653022836059254,0.5474642736139682,0.6042909026432557,1.227555954593209,1.859134555641941
60,-0.8072605495769638,0.10845336942189995,0.5923461736982365,0.5090504316377138,-0.3529923543452197,0.008904227483085003
70,-0.8222311412064063,0.09909751631818488,0.5747243404209751,3.403446612344694,1.2778342920348473,0.8431311466239126
80,-0.8078512917421181,0.12241975844405867,0.5853067752961664,3.9604777266871567,2.1507499581192007,1.0956480380588443
90,-0.8260222741168483,0.10010826553594737,0.5742480810465944,3.2912050852843393,3.172894662729203,2.0744208747062856
100,-0.8270803902708019,0.09088998833402899,0.5680271166529405,-0.2662719940586329,1.6256532749342167,2.562504053364183
110,-0.8042612282039407,0.12439965083126275,0.5961878179259156,1.6745143515693388,0.09714435523351553,0.8099292459543911
120,-0.8210379355054653,0.1142276828532587,0.5739518593227569,1.9826858793579545,1.1457954402245516,0.666460780924991
130,-0.8011051687810354,0.13260301879489844,0.5914077795900089,-0.6730447282431524,1.2229275912268898,-0.38568407794462933
140,-0.8256417665920772,0.10124913726615196,0.5657864421820086,-3.2565602814964025,-0.5220961620926337,-2.850475918432563
150,-0.8268042209932509,0.09510437498411574,0.5678366441137213,-4.9996104000953,-3.158366712638342,-4.820657987707716
160,-0.811744159115347,0.112016673503368,0.5900932614639958,2.729189657534633,2.986647553793506,3.2459371945100397
170,-0.8125254110101412,0.1120654070614568,0.5902244946970148,2.6633821791391523,0.9402939866358793,3.2646358779155937
180,-0.8051414345360489,0.11308876593883277,0.5915467753147027,4.306666112827904,0.027878343193816324,4.195064086049792
190,-0.8447012503705252,0.07116367320062131,0.5618705566866043,7.43490654784429,-0.3416038334427586,6.571607194762075
200,-0.8277367335665471,0.05944369117414402,0.5810135748762747,8.423687754340778,-4.193125840114976,6.129874487863155
210,-0.8291127325469583,0.12622585144436613,0.5731952901690819,11.7650246091387,0.1112519575837867,11.383520787301453
220,-0.8453818881967754,0.17008155015117643,0.6097439465382245,3.116041448219744,-4.386482624141989,6.643411961047527
230,-0.8293102284929375,-0.00021717497766737814,0.7209387498567411,19.850510734384898,-25.809394760948145,4.120498950182398
240,-0.753756525795112,0.019132671188491657,0.7002160979231591,31.603246582225715,-36.467268957221684,0.5642726503665544
250,-0.7134349645681496,0.14001550423126352,0.6249041487331011,22.875955079964704,-41.07897120105161,-1.628357923701679
260,-0.6757917649969734,0.25840787924384034,0.5611888528557386,4.746141417800695,-39.8585780632071,-4.330866007185477
270,-0.7106639408038262,0.24479821027545828,0.4922311672057672,-10.162029323508108,-30.40723063349655,-6.376035102051447
280,-0.7308465944620627,0.2345397277036188,0.5583065599653901,-22.51692103865214,-20.340001349489686,-5.642817457041029
290,-0.7531429436524912,0.221425345310951,0.5464804758674415,-34.328974912420314,-13.879355541109547,-6.976255979646883
300,-0.7341555408169929,0.04150014448912325,0.5959171378335416,-49.665948649972734,1.2723394876519438,-15.82018859498132
310,-0.7692547158141148,0.0778701888168638,0.5514591515628948,-44.62738402276391,2.8528609580466435,-17.85326094077989
320,-0.7714399146233536,0.11213363231779085,0.5425231165390926,-34.75579898059661,7.128187287233395,-15.173023703422492
330,-1.0088294652551966,0.0951680346843414,0.8603997535261626,-26.723362542385207,-7.273143146787326,-14.039828955324804
340,-0.9122723563394872,0.03162862549756718,0.7378737217805915,-0.9283718396922007,-6.156737279003729,-3.4105027913719983
350,-0.7653632581729424,0.04038460547395922,0.6937008722673508,-4.454597973690897,-10.167817912116847,-2.8589355580958693
360,-0.7255340496749911,0.038402184182667935,0.7350714983556355,-1.1762327423977617,-13.713894461396126,-6.3475156161825845
370,-0.8408576704111609,0.08962748581833407,0.634361249636133,9.63546763598045,-10.587301630644685,-9.730543847839968
380,-0.9157156302015801,0.13338468617783458,0.5999328931746526,10.664950846027876,-4.746745147170889,-10.8026348750612
390,-0.6445123764312992,-0.13546355141274827,0.8631047318514397,21.054604297701733,-18.03492539342198,-21.251208969327244
400,-0.8258469287466437,0.10577966528970457,0.7000260972176442,14.404596902247505,-14.051980378080874,-17.176709840699452
410,-0.9345744696783536,0.10677762500469969,0.42056496182431974,36.55906337157741,-15.652796425235877,-25.956628827165652
420,-0.6830418300764136,0.2411477169404539,0.6963962203860722,26.82250488808164,-18.46114494962152,-35.49875890034657
430,-0.8183904576478562,0.20822917249964334,0.5659606177133764,18.134411958288187,-3.8980646124358445,-22.90048107449782
440,-0.7679791265417921,0.03763898852049692,0.5176762413904679,-0.3498914300889594,1.4245001431694848,-26.62739232022887
450,-0.7874098978837002,0.14431243859839035,0.5307443169444189,8.440876801405214,4.730151219567268,-17.095402103673592
460,-0.7906385429063214,0.250440409879536,0.6153218523895426,14.047756026601684,2.531447043602206,-9.433495337803034
470,-0.746345651958603,0.1350568435036859,0.701149271352284,15.592497084404759,7.0090183134899515,-4.887258318516161
480,-0.7487962178746843,0.024948656637583524,0.7027333800945432,12.090867819583524,7.040379503100042,-9.171637857847497
490,-0.7989931573529294,0.06054592013301113,0.6227873311234663,1.6302102233094353,7.078704871702731,-8.709576319185649
500,-0.835943979321678,0.11119337925865413,0.5854741248706546,-11.037345793107056,9.612866276247534,0.8961169639851456
510,-0.7363946812777644,0.022758867396884402,0.725551573355445,-5.793951857563763,12.14429533442438,4.265448781484612
520,-0.7795204398249357,0.0874615547738598,0.5818140172378856,-14.401033838858769,13.92078854459556,3.5850384571841554
530,-0.7111381038528832,0.09124328945036506,0.7333595113607907,-11.087442183007013,13.779811901180265,7.384714832638405
540,-0.6273158343968103,-0.12499848609062629,1.193608677070546,-5.34868226425676,12.587397235202351,10.076058814280332
550,-0.7444270423427866,-0.06844736123283764,0.8910104426115623,-7.358862013211263,12.700546962159674,13.715097029645575
560,-0.8278414386761456,0.11427430121770306,0.5468386837295505,-11.356481566573535,12.322326489930212,13.678707103052385
570,-0.8195426465835941,0.17725671250784886,0.503592484636291,-3.1004699995757474,15.512845578729722,16.396629001703882
580,-0.7447119825568118,0.09720900974759522,0.650204851180726,6.703614857075341,19.281701933528105,23.509788035482707
590,-0.7502863426706795,-0.258924181224218,0.9098863223872006,-11.721836012869254,5.633850475984403,14.85126298666028
600,-0.7935727307721455,-0.3550922069379232,0.9152149918788652,-11.770009656923028,2.7896267814735265,11.655948909697242
610,-0.7245709329000923,0.14628231424534363,0.6821455013755131,-8.134855570710613,3.09218784974796,12.665767381700785
620,-0.7348887527694364,-0.2047981418820394,0.7112378726727648,-11.598642914768853,-3.0578435292333173,10.176316256857257
630,-0.7345506672379859,0.04801089908271467,0.6195909376126413,-8.220792040230924,2.944292752730452,29.135242463693448
640,-0.7726752851034564,-0.036436098536229006,0.6713439029482713,-7.288769969689153,1.7890676722698564,18.897092880886625
650,-0.81931918404228,-0.10679398804321544,0.626348874568353,-3.195442262935808,0.039069689211051084,4.368355995187159
660,-0.7882111724498246,-0.00033278618324489306,0.6219633306945827,4.645047111138359,0.4564264010157273,0.1830426142146001
670,-0.7997389081483908,0.06086682259286266,0.6046097528918217,10.125600773745353,2.4658420225679163,3.215545028853524
680,-0.813698033583742,0.05675546218160822,0.5918411595853652,7.695938819317339,-0.7176881479440576,1.1159454716282255
690,-0.8173487685744445,0.03255787780199601,0.5866500892581508,11.311378604473662,-1.5087454365222657,-0.04974894390903306
700,-0.7868877102055687,0.07572630907802924,0.6184718864359726,17.296098772375803,1.333400790026551,0.055046961648854476
710,-0.7941601361078501,0.06018276370815177,0.620456252096249,22.36544372304919,-0.29347579089663234,-3.5556642956106423
720,-0.7932636635816304,0.003566138291236859,0.6339964395032759,16.516710687524277,-1.2480942286932002,-7.924752721810702
730,-0.7935920887529355,0.14860058534632214,0.5783491286646342,16.531644061794417,-2.8388820173214118,-12.040225082298804
740,-0.8037670863294086,0.10253475387063546,0.5418636159535243,7.364172481669136,-1.7019321442651472,-13.74275744424699
750,-0.8127674422084157,0.13514745301532202,0.5887010357257295,14.494806479098518,2.8304386668980976,-6.1508750747350875
760,-0.8254650990578868,0.2990791948029424,0.6308347302722499,23.327916702663416,2.044107631235154,-7.293119732162586
770,-0.793358778845822,0.3942658199477988,0.6404780540533418,17.49761491927856,0.024120378835696954,-9.721209055940928
780,-0.8329082521729159,0.19852297084937554,0.54925457399535,8.043785271793839,3.442817348109984,-3.7422211381569395
790,-0.7841889416018754,0.04961140841824736,0.6066110853156266,5.855879803745512,5.830882153703213,-4.655428859820346
800,-0.8024875150899496,-0.06377005497433398,0.6203548904123515,1.4419657655206997,5.6631286636850495,-15.114183084690744
810,-0.7775762512626697,0.12875210905515894,0.6459171913988527,16.223859063897383,6.6203832279535035,-11.685829518719533
820,-0.7895660304031175,0.07866714189144852,0.6008647714125406,15.783023601066553,13.95343972160423,-13.989873577995471
830,-0.6989407553107053,0.054281372500406606,0.7566369071593263,23.791077770323827,8.594160266641358,-10.124240511833062
840,-0.7577586397701415,0.08469201200458312,0.6704698237411961,18.1006043516026,12.580952036228323,-6.472299124687273
850,-0.7654214514062326,0.0924769726250343,0.6794486866606961,31.100662238911944,12.608616448916576,-4.666632169187175
860,-0.8016419630741296,0.1451312304207127,0.600727443755902,19.615579704891925,14.04706835288934,-2.797880034010176
870,-0.8458832336949778,0.17084878923932062,0.5063348686056239,25.664167587624803,27.10575374349679,9.178604999405767
880,-0.7797364517355703,0.16881336179444661,0.6413556307480395,38.256278375650474,26.06753139283391,10.003350919225912
890,-0.7541121912336342,0.1303455894611977,0.7580450541052586,26.598654155652554,21.115068615827333,10.623816099843488
900,-0.7829222827930284,0.16791279493475597,0.6328639031211948,8.735955112038164,21.24892342851897,16.098757347868595
910,-0.7693016074977446,0.02594527652171867,0.7566395189930379,5.1088263902242685,12.3436597120007,13.060626927959028
920,-0.7221563208400609,0.02798434744209232,0.9334307223389466,-4.636069986663669,17.447553458663453,19.07141099563328
930,-0.7490355888476821,-0.0435582245921243,0.7429560785504746,-22.255626702859967,12.3263510752872,13.590569876880032
940,-0.7821437619163356,0.18164464425942548,0.5216618097882129,-11.571054071981482,8.31024665452358,9.1864341877305
950,-0.8384687158037945,0.053825531175825225,0.5240526367167859,-23.369726495429422,-0.9098090443721986,-2.9633917708997193
960,-0.8075507942446162,0.05467994201789836,0.6208823729855424,-24.2123968017559,-4.578027986677325,-0.8899642688186287
970,-0.8198492948070958,0.020134732215898055,0.7066114493631246,-22.03342509433693,-0.9328588280526067,8.114470798111535
980,-0.8942612787206496,-0.0005141478593462707,0.6402340211572592,-33.95911101169834,-3.4854226046279915,8.978693557361023
990,-0.8464287207260583,0.21000726504277456,0.51953994393142,-41.87766558825463,-11.809792200351698,8.864882341076882
1000,-0.8748639421707494,0.06524050739611612,0.5089912684775649,-40.09292319940249,-16.450076168244756,7.867036781316844
1010,-0.9566785339241951,-0.04029822900703019,0.6158854916155472,-49.50950593476465,-11.745496450113675,2.492262622758734
1020,-0.8399163847374668,-0.0379999264149955,0.5927960943874916,-41.2191952491152,-14.484035464983478,-0.4875333033689744
1030,-0.8998674003298247,0.0728385351698741,0.43214299715943305,-8.640508965280594,-7.677664223196097,-4.40286846162147
1040,-0.8756668022455799,0.07659460899476687,0.5104251497925054,4.420861619854724,-1.4064028872986027,-2.8181389964391337
1050,-0.8338692141172884,0.09005216966935743,0.5528330809710368,9.05213522224502,1.324756740761742,3.3544460451150955
1060,-0.8040553622044431,0.11589356273681115,0.5800751690185844,7.958432219170079,-1.2650550140105494,3.2841928823439863
1070,-0.804707028972092,0.12588527264520608,0.5848440361396732,10.14418834164555,1.7680790533324482,5.21050915129366
1080,-0.8294892635081378,0.11379743752616817,0.5607352700873444,9.257839328900877,2.1796461870582298,2.4376149601529535
1090,-0.8148162432568488,0.1320434409818386,0.5731593672119282,5.329225012392964,0.9770968532575643,-1.2762579817939914
1100,-0.8611489566227126,0.07761972476792225,0.5232716869089744,-2.8839837945421114,0.0862357557874941,-1.4053031167138008
1110,-0.8184618142971475,0.11401476420539532,0.5663155784607427,0.6423472579410913,-0.6150408235861529,0.3570132299711922
1120,-0.8121392073374879,0.11493869330152463,0.5809724895843055,8.450809037208566,2.444843725844414,4.07771988489904
1130,-0.8265075559231271,0.11443826345721576,0.5666154408278784,7.189115396653166,0.8005970969251227,3.37613014327338
1140,-0.8349477544357181,0.11318210030807407,0.5492437954115227,2.614597373948391,-1.7776402094167016,0.9760476489886525
1150,-0.8210024801899568,0.13022692359722662,0.5673722145803834,1.6619802802632946,-1.1910583788876616,0.7601518582303004
1160,-0.8312706564561115,0.11774198094622126,0.5612362117041797,1.9985993954244372,0.28943992929129525,0.5971324882406012
1170,-0.7969814156439802,0.1526037708078836,0.5940035002876224,-0.5575357974874406,-0.49740497079154644,-1.2394595046821992
1180,-0.7873078359617115,0.16219978739911894,0.600088462769786,-3.7457123397772722,-1.9447870644415173,-2.7310787400996865
1190,-0.8512730192102229,0.09263724054045772,0.5342319894520777,-0.5608898508171798,0.5186139567757798,0.29482157946796306
1200,-0.8033037882541212,0.13634757592439417,0.582488200851925,0.373628354303541,-1.699209529680822,-0.8043718331681605
1210,-0.8411260580051305,0.09880083856631748,0.5469789756680135,2.104421365161328,0.030626761927141893,2.2673968043550294
1220,-0.8029800789891808,0.14386967191420227,0.5853242426292401,1.5728108394192006,-0.23391707565667863,2.5618609603658324
1230,-0.8071636687474555,0.12746885748666636,0.5791247162680192,-3.4065973354787182,-0.4812631243544567,0.48374158985377097
1240,-0.8424448209637753,0.09105557293956419,0.5471005932403437,-0.43373645953405604,0.5555919837279804,1.3401617490988527
1250,-0.8467749799068546,0.09198698361438633,0.5409839705836139,2.0066369346019997,1.0018785964925931,1.4201771981257665
1260,-0.796153575390852,0.14636135692157082,0.5929651051170025,1.7844700686300838,1.37465823682502,1.6354027059164518
1270,-0.8199632924709912,0.14140836265619072,0.5681848649322753,-1.6981105925192659,0.5583049878493858,1.1900034933859125
1280,-0.8583391730108543,0.10687625680252048,0.5295137767375019,-6.539161561174201,-1.6654490464450253,-0.9452601760805175
1290,-0.8222220510827318,0.121287243677118,0.5685022831025317,-6.169436651133948,-2.925296318642805,-1.082941372447182
1300,-0.8123024962183358,0.12315322480409434,0.5775642680995839,0.923373388707611,-1.7069148690377292,3.0354933145336127
1310,-0.8243860332567575,0.11403013271310958,0.5609103231584005,1.4422582759891838,-1.2410032840804572,2.750921301191361
1320,-0.8061704682493934,0.1231213050415433,0.5778306054112503,-2.145275040231623,-2.6067628107416745,0.7114539605956973
1330,-0.8151861295252775,0.12106124805811298,0.5704222379347479,3.504135318247707,-0.11846760794986247,1.7487173644270768
1340,-0.8062461725961871,0.1428093199748422,0.5829291196321933,2.5839846249538416,0.501538502675202,0.7712857225171276
1350,-0.8135961282564435,0.1403196954151587,0.5705867076593805,2.5302253305699387,2.3315678054422624,0.47198346599195595
1360,-0.8375058805751296,0.10324538114847047,0.5501000906894072,0.1966857404741187,-0.8664718141159206,-1.3897007081279602
1370,-0.7858050549132265,0.15039886282449658,0.6044447057745864,5.268986776955627,2.2976525925752913,3.714540239192286
1380,-0.8094878144087987,0.12951289689251078,0.5808482563875068,3.959817145226096,-0.05822438370903277,2.1893302489770274
1390,-0.823823717798425,0.11803399534648763,0.5644667179678781,4.117498549293435,0.6613101983306842,2.8986996889725636
1400,-0.8572854349733541,0.09054968625291418,0.5313252466102469,-0.206139326436116,-1.2840720453143817,0.13698908593538106
1410,-0.8162590146016381,0.13262548035560373,0.5873123076966653,-0.9282460518119178,1.0197905435444006,0.7750236686441379
1420,-0.8262846592663969,0.1290768498835073,0.5637743894438003,0.5270740408881677,1.2567871736301826,-0.8129073026902396
1430,-0.8114609344004621,0.13292211616254457,0.5822224010684293,-0.25808351545486263,1.1511590298776322,-0.7908196067731568
1440,-0.8130953748873156,0.12008685049777532,0.573592061236787,-1.4924566651143008,-2.606163906731663,-2.337448711866567
1450,-0.8313037453794903,0.1116208023864465,0.5572767169490062,3.5824425773600055,0.7944465622312473,1.530884117134698
1460,-0.8107555700256631,0.13923684794330043,0.5796041874058272,0.4323072243215067,-0.4117817312570863,0.3235209171578426
1470,-0.8006359442828672,0.15068664952473798,0.5900768911188613,-2.594255507345067,-0.3155867266587776,-0.2696669519524362
1480,-0.8264057911566433,0.11784655662897056,0.5599671620614937,-3.4485953896649155,0.11035949737757034,-0.9702755365988681
1490,-0.8128397361722863,0.12450307115887506,0.5679330873411186,-0.7759565650789773,1.98162775367819,0.720944163189306
1500,-0.8182667619610089,0.12117580018673604,0.5641359570432132,-3.715714716903023,-2.2644805251675098,-2.13850027737965
1510,-0.8135839889274228,0.12622235047324706,0.575530869318122,-1.801090443071121,-1.7920370658998666,-0.22706700570148786
1520,-0.8273421327965439,0.11365951253261096,0.5602987420086858,1.6037029138819923,-0.6590899847970011,1.5232206293588701
1530,-0.8389683356640064,0.10556734101582473,0.551084008018479,-0.19771436507831952,-1.865505331171672,0.032721780419033175
1540,-0.8119371178745441,0.13623396560716075,0.5780255917455889,0.03800032453506222,-0.2857758169322061,0.610110071790907
1550,-0.8209158406709751,0.12580470892522902,0.5699926944688796,-0.20150668977243336,0.5609748279960243,0.09250043093207283
1560,-0.8235324409068037,0.11760123554557878,0.5729365980627933,-0.981519311364454,-1.1314166590655461,-1.490485027443151
1570,-0.8116274227583594,0.12879438933450715,0.5805497989465129,0.4437490484691229,-0.385288666445612,-0.3108656582293837
1580,-0.8610772906438732,0.08052700966931053,0.5227346454008078,0.9975963172526736,-0.12081615367178822,0.06087194738579149
1590,-0.8213833022645782,0.12411751384143431,0.5621261783753857,1.63896988230943,0.3315258079871709,0.28602703787923367
1600,-0.8251729227445886,0.12688265407526605,0.563370530844817,-1.560739069440533,-1.8183659682028928,-2.2862070901158753
1610,-0.8005766166191775,0.14917394982847829,0.5879774669120381,-1.313809750290357,0.854185361834527,0.21698696001624473
1620,-0.840471750157796,0.10056087144113399,0.5522813145952259,-0.5319906874519464,0.955684250096467,0.9541600077637993
1630,-0.8220340732744524,0.12131028175392992,0.5630728766580576,2.3273364068717552,1.1545565209751578,0.4631594965082571
1640,-0.8463871240432891,0.09991651108141689,0.5456166350321342,1.6356829215899462,1.7157570198563565,0.05632748595595338
1650,-0.8366170008824454,0.11234307618164023,0.5478648395300598,-2.473705563836825,1.1074209485462005,-0.01900141061774241
1660,-0.805921070056588,0.1384158035250897,0.5781972614763711,-2.9632318550840804,0.09508828145388992,-0.21222724635767337
1670,-0.8220196060974361,0.11414763202033638,0.5701360541177058,-2.120652461574604,-1.1213218240203933,-0.04689304947552053
1680,-0.8122132671254041,0.1254297264713201,0.5787430405149052,-2.2646155916451973,-2.7813574411982263,-0.5226496849542124
1690,-0.8333826312235868,0.116569181926336,0.5525615628254994,-0.005841522394558041,-1.1186983663997472,0.7437378418520884
1700,-0.8139056140488362,0.1439729024734911,0.5764197744632596,1.2292470133361584,0.8314711039269853,1.200095556542648
1710,-0.8048774513937346,0.1465763537975468,0.5894745005179762,-3.8492755986777802,-2.2179942151379524,-2.468766205305572
1720,-0.8003501774985999,0.14613779243223504,0.5887950341030715,-5.6400187017060315,-3.4003043439530374,-4.155351036483628
1730,-0.8155931142043906,0.12204218789454746,0.5753632362622204,-3.897411680256271,-2.0556495448503824,-2.421384238532932
