time_ms,ax,ay,az,gx,gy,gz
0,-0.9137140941173943,0.1300873577179729,0.439626102223571,1.0580721950075456,-0.3274084243585967,0.3050539488131325
10,-0.9063792621050303,0.14146106812172665,0.445165984377921,-3.4722537433998637,-2.3251152319058477,-3.9682667738995607
20,-0.9171210934254009,0.12613301448936762,0.4378656398345085,-3.240828698280808,-1.5314312843330369,-3.225367350921943
30,-0.957646021654749,0.08045372364132192,0.3933415011360396,-1.3395777012367864,0.777369106891812,-0.09873249837640707
40,-0.9116733027348793,0.1197045110526166,0.43803268763840275,-2.477628610868994,-0.7464599971897279,-0.6175060527629901
50,-0.9073841533581157,0.1269445256743466,0.44504773243533796,-3.273354768661204,-2.3629590154698144,-1.5213523313842106
60,-0.8910437838668778,0.14915244838781735,0.46080571382995367,-2.0985545189249253,-1.8278128494769248,-0.7301762502769003
70,-0.9243405509509482,0.11229173472951175,0.4214342538148725,-1.1208352623288542,-1.1963857012568093,-0.46503403627429607
80,-0.9200278594585608,0.11712742232809235,0.42386395972875673,-0.4684851391452217,-0.6456856498262082,-0.9359202109894396
90,-0.9066909473624294,0.13518732225170477,0.44445920814326423,2.041801770857037,2.115213429814404,2.210520546978397
100,-0.9021414757863183,0.13762861191160533,0.45112119273326584,1.5830192248384867,1.9103283225694996,2.500548512216358
110,-0.9027090821660427,0.13470066070073963,0.45801354795604404,0.3634026046525662,0.5573751095670376,1.3853406367242986
120,-0.9409479206553514,0.10494401649971365,0.41221203971229536,-2.274437322153598,0.6003722452123189,0.8711131241735058
130,-0.9396594191220856,0.10374510343194311,0.41445044298578954,0.3061420661281231,1.6117348712962192,1.5259095225928072
140,-0.9189210452456291,0.10951057338957877,0.44463303010764754,-2.3365483417012967,-3.6406159733408763,-1.4601359522685664
150,-0.9423235842021688,0.08661454943646743,0.4314347936831065,5.209967855444546,1.6952516076321247,7.824937236628912
160,-0.9258954031770179,0.11897214474739654,0.468247185241108,7.601712760082668,0.610950704854951,11.679060269276063
170,-0.993312412814889,0.08115071083188763,0.5187089728807132,9.422543819295385,-4.40265586489345,16.05388180325531
180,-1.1893560902558888,0.05539105901644119,0.6980594895841037,15.844144964112878,-15.64408565740855,19.851832213413054
190,-1.030754595185996,0.10765801374575987,0.6294819760407037,21.47545483326145,-22.65966675578286,21.621819708046534
200,-0.8822139574998137,0.10310489120130391,0.46466296631218823,12.653058895016027,-32.40641535866504,13.101174486640577
210,-0.783663396613356,0.22302091820510705,0.4376185011466284,18.2982956013877,-41.84234719204532,-8.341298063090411
220,-0.7718156039672582,0.29350791886053634,0.3455197025951769,12.016135141266236,-40.62523240728704,-18.00691458419228
230,-0.685264853543411,0.3088767062215087,0.34350800397933373,-1.6297551298681723,-28.241835021249997,-20.177676340696912
240,-0.7005239202377782,0.2646797841392266,0.3129630210916701,-19.59540151802137,-13.334568236744104,-19.39383654280947
250,-0.7412885511894024,0.3325855462680142,0.36892243472113456,-38.5113711453046,-1.4567204350927807,-14.278963241712846
260,-0.830287782125751,0.28780454133871874,0.47381914145334053,-57.44057553739841,0.8915698810773736,-13.861109540393233
270,-0.9262374561886817,0.09871804711027206,0.5522057520871415,-67.61782870068156,-0.4936740011748717,-17.97240074797346
280,-0.832840953218839,0.011166863340311348,0.38704470936119484,-53.24202033447658,1.7442573220236115,-17.905899526799953
290,-1.0016873837592422,-0.1290372025191719,0.6878307486791181,-16.17009706315856,-23.87036405636159,-14.187441408748914
300,-0.9905531176199085,0.07372682325559338,0.4979659426359753,11.820664929039625,-12.338856392501835,1.744395950450718
310,-0.9024331897880329,0.043622050225392006,0.4249634315675654,35.09993503192281,-18.130297477249915,1.263276604028384
320,-0.8550173914597795,0.11822419204138791,0.48078084689817696,41.480309917039,-22.024355137950025,-5.469876903385225
330,-0.9254018722047781,0.14508737366448574,0.4553700003021839,36.28696312941401,-13.82274586548866,-4.919687474363324
340,-0.9138749435700888,0.014043497027553519,0.4320668889338776,14.226148676018324,-6.407949565311885,-12.610534345084277
350,-0.8854769999554465,-0.17425853295909657,0.39894130454919313,-6.009250374882239,-3.217322899195127,-29.35671069896309
360,-0.8435018062758155,0.07496441125659253,0.5070523912432867,20.532462810176124,-2.2020965981691485,-23.737562932684426
370,-0.8060838960241592,-0.07276561580700715,0.5969321802023873,19.249286876060076,0.572691580021165,-22.684431555755538
380,-0.9216382781665259,0.2907168827776631,0.4333207050904928,27.275617608684286,2.961181722822643,-14.694411817856137
390,-0.908237034066788,0.15790783595535507,0.4598549608473904,6.6140865896855,8.868168740112731,-14.513266018668796
400,-0.8914209237757841,0.08051041066626656,0.4615565395384891,1.7730553791264407,7.356577141197351,-18.26283378110868
410,-0.9178705211250274,0.10575712374156096,0.03777843835425802,-11.574482386115157,23.648298403637156,-11.283429954478356
420,-0.9029749997858787,0.12246063949803163,0.051331129297810044,-17.762100550553985,29.563103493051965,-6.551336806358706
430,-0.8625005930860576,0.09581590742320464,0.507674701504469,-16.05833288490212,19.30678533081896,-5.602089808168286
440,-0.8497055426173344,-0.020841912056077095,0.8735860819451761,-22.968576936161565,15.40240843165638,1.265130457567651
450,-0.7594008203929576,-0.0767344690881753,1.2164282306634016,-26.083139734315427,25.755136139487846,17.981348230918236
460,-0.948988748764381,0.49768383408529865,0.18066798442408163,-16.25948357221686,27.13193876169623,34.46941715739601
470,-0.8577975797065025,0.12376700718459317,0.5217655499861993,-2.0047855838300697,28.97047038179058,36.26772331230456
480,-0.9324594326705317,0.07751919128295169,0.386832695209424,-5.955687028285828,13.140842699556236,18.84753787673923
490,-0.8440333095786368,0.11558455474509091,0.5981418413417132,-36.89308208707318,13.247163227127754,17.1422826071292
500,-0.8267039222903623,0.29911105236022445,0.23018852517566893,-49.96889425860357,20.63165253351983,25.610927162288053
510,-0.8255029070144875,-0.057052427465991554,0.37003677313979766,-35.20909031443308,14.608287486327853,23.538976427366688
520,-0.8510036466331256,-0.4763193118352806,0.7071382903025739,-18.381172243143517,7.832420513223258,13.417414878806568
530,-0.9191622908922792,-0.3247421812682039,0.5751904571913535,-18.66697125850485,-0.48741041028405485,-3.0748483321772566
540,-0.8874070278078683,0.017191383738376052,0.543038749114255,8.612596838308816,-0.20267283386961343,1.2132118100190992
550,-0.9060162260270165,-0.02746355437234957,0.4923734245260742,26.348082304725974,-2.868434832213833,5.979775320250433
560,-0.8965296381466834,-0.15632679782690112,0.5678974895697746,28.285682541605674,-9.16070600122742,-4.466654567533216
570,-0.9358212987535895,-0.06971250627732858,0.48223766465743545,17.42859127729161,-2.3846003562885287,-9.761933346839541
580,-0.9218033055132924,0.09051652688606385,0.4284746841244127,27.05925390071768,4.6858848379200175,-7.475518820043343
590,-0.859109586299566,-0.041680616594683896,0.5137408322759868,21.549357213669694,-0.4631932459773169,-18.163578663900882
600,-0.9209957095994135,-0.17104102991668513,0.4661024598464938,10.48091584751837,7.364091729128638,-22.66783403473467
610,-0.9834757378536406,-0.08787566181044504,0.25623963042022935,4.504680960238607,16.368000976998154,-17.41879561112503
620,-0.9943621498567005,-0.04782346399450605,0.18803497184504822,19.645429182065715,24.967372680084466,-0.9846659451562996
630,-0.8950191608915233,-0.0220101395757796,0.48765712139653045,29.426826020375472,27.234116401078012,4.20491057366228
640,-0.8004820116230629,0.33748795115138513,0.4125517636904193,18.32471373469034,37.580255848425324,11.353330322018987
650,-0.8912227069032577,0.15787221966628892,0.5765636950993795,4.634640972461274,27.978100994751323,5.194451873809818
660,-0.7947631998208683,0.12611922156680178,1.093678854102517,5.981455317314335,40.53664877961816,10.350787943478565
670,-0.889688573509698,0.2861117381304338,0.6437798594811822,-0.43265742861544454,34.0011428308037,15.500319688115612
680,-0.9322046936394295,0.11409389456485884,0.4839945255058097,-33.0317986521835,16.933566292967775,14.002153011735256
690,-0.8958977772749276,0.1417200267555359,0.5442027852507302,-46.940733860535836,0.2000413755618522,17.97099256391118
700,-0.7605424793112967,0.2185215882948094,0.6347267241472077,-42.42937597763503,-18.897193862888848,14.272992088092574
710,-0.7695379485307408,0.14324423409355236,0.524109171870211,-33.56346677682001,-28.38565513743721,2.558786355154437
720,-0.9445614565497641,0.05588381433428877,0.23075063745262125,-29.333930841441262,-20.359519374790302,-4.736960700285224
730,-0.872270014170395,0.018232182260937185,0.12427011321422128,-31.635065738774635,-13.602341233877373,-5.709297042675782
740,-0.8944454097795776,0.10975829089689122,0.3103570114168407,-16.123201175644027,-13.584875510379435,-5.645395946824735
750,-0.9093218573653578,0.05620023584853263,0.4085891758540857,4.101604021448033,-2.605746397708824,-0.7327508960347016
760,-0.9388412337623213,0.030681348363042094,0.4007629512876015,10.407498143089024,-2.355688501469192,3.2176810884176317
770,-0.8907236365245004,0.10108131480072534,0.4616781788289496,13.042224870091111,-1.0302891918065507,5.266190603236336
780,-0.9244906792798453,0.0828276769777297,0.438576213804729,5.231556308965651,-4.761564572317323,-0.9825184128736453
790,-0.9080719824252438,0.09863512295723018,0.4499226107477844,2.897399932907806,-0.9925876314726504,-1.9149004432442918
800,-0.9316787258229289,0.06954783065378636,0.42164657140779854,-0.3010416393749511,1.0399905320701524,-4.791614813003209
810,-0.9377011089557661,0.057813439030819994,0.42600211672821503,-2.595934734383624,-0.07799434696020802,-7.563726030337525
820,-0.9107692607677528,0.06993432978182149,0.45758916369990793,3.949166363991753,2.0373203214868365,-2.02170173142092
830,-0.895049190524284,0.08153814740917066,0.4613046248190321,3.0307748880820227,-0.2634471267900632,-1.317965590386616
840,-0.9142899602580699,0.06348702928296553,0.447279223919823,1.6818898359963785,-1.704687597409254,-0.38455428414207793
850,-0.9358808171595336,0.030960542493138697,0.42168257700717704,5.131108365649283,-0.15858560639715324,2.6558530754383827
860,-0.9020394161643447,0.07241843960447553,0.44928439179721563,4.654335076449575,-0.02709785975407919,3.2509959524488385
870,-0.9425164051408393,0.03731000026291602,0.41679924423755577,4.39574053482124,-1.008436728931297,2.885423977095451
880,-0.9222629137711826,0.05718133356311878,0.43591654293519505,6.666310939074441,2.2264033856604213,3.6812270180528266
890,-0.9118323916246172,0.06424627216599922,0.44413608903374485,0.04511902495505482,-2.2981465825944576,-3.2129347670389254
900,-0.8994312816091565,0.07447617192040226,0.4586143614885144,1.5156371604242427,-0.6543152219213266,-0.6949716763470289
910,-0.9452829549798036,0.03138482025238547,0.408166286933667,2.496353105405953,-1.4350719099648734,0.5271376006170011
920,-0.933755681614308,0.048569628640277654,0.4278568814131445,2.806309846579394,-1.4975154726130877,1.8829551947392296
930,-0.9133195753111645,0.06363044461539498,0.44178013455860893,4.793916770749403,-2.3273532856022223,2.8989322745060693
940,-0.9258646833991652,0.0558401328515857,0.43508243048148554,8.301356593496955,0.47866082837392443,6.157265481086049
950,-0.9133583184232035,0.08193761538645092,0.4568988987068719,1.2244423991731932,-1.1509851194550564,1.3284885640805095
960,-0.9307997881750005,0.05774544647989243,0.43113311731380766,-2.244852622453813,-1.9345252717136199,-0.7908357678743213
970,-0.892931563827288,0.0897778045414258,0.46717577204250194,0.7751544296812516,0.09443601522708675,1.9075492883808869
980,-0.9147577953860638,0.06635284798424479,0.4423940660117211,2.241808497249896,-0.49525733915821846,2.6760705111552054
990,-0.9329941240798812,0.051721625525643806,0.4209642007838114,2.8772810921370224,-1.1847556998854634,2.8170335004178497
1000,-0.9111685818851933,0.08531028214672767,0.4504702142578464,4.517126921851108,0.08515521414474914,4.019757146646651
1010,-0.9092481506881978,0.09508588040440112,0.4538706027799673,2.172795224370119,-1.3597388496485032,1.6756989201580628
1020,-0.9067215037727757,0.09863927048558525,0.45281815675178977,2.735434791981505,1.3438785942629978,0.20175923579977406
1030,-0.9355624152871537,0.056254349338046045,0.4193165934425359,-0.28161716742948917,-1.878859750121352,-2.4922884323860126
1040,-0.9114882450667009,0.08635006860789399,0.44439258175405033,1.4919837013137651,-0.3091289059755813,-0.7110156572300959
1050,-0.9022383212651081,0.09934527022655384,0.45465696852964116,-0.30383933548011227,-0.037178042996672156,-1.022477935732667
1060,-0.9267544105874649,0.07518948263029551,0.42879597265360064,-3.4701432022951613,-0.051874558843021085,-1.6542116730378418
1070,-0.9533296781418907,0.043253700677785466,0.40685625068752507,-2.9501234795746214,0.6484048278395531,-0.6264162423755955
1080,-0.9123809024908699,0.07980641312801501,0.4500224761008279,-0.9196391744895935,0.9639688629580176,0.9042286746304777
1090,-0.9159424295931914,0.07957462133644959,0.4420783224315582,-4.137874811217369,-2.502322231325699,-1.718177517364687
1100,-0.9124636239797341,0.08730875305946333,0.45153161888709453,-0.3090397962036535,1.9151377189450254,2.2851755097723627
1110,-0.9202764837599021,0.07636282569269658,0.4444417777805898,-1.6775918106302292,0.9826477649393593,1.5391589584633492
1120,-0.9199096807755998,0.07090485174691831,0.4332447369183801,-3.6835874678988247,-2.196947493842737,-1.398429344648823
1130,-0.9152315947301921,0.0742342019684996,0.4438384395831889,1.5256079358217176,1.3727455760616887,2.6843818727639777
1140,-0.9122914716842228,0.07841335317093617,0.4466506053006396,0.16245427262935064,-0.5702485094942732,1.6555207781871308
1150,-0.9097958319375478,0.08852250096057769,0.44849153608772263,1.612404299786809,0.7333412425917512,3.724473754350946
1160,-0.9266950197437102,0.07741061242061201,0.4349335555073774,-0.42482789950483424,-1.6714727637013862,1.0140059153037906
1170,-0.9204403951343586,0.08499272153424255,0.4430015877387553,0.4181565985822976,-0.3628959193782344,0.7347217144482733
1180,-0.9043566113037668,0.1045292904907412,0.45783310783448916,-0.024263224716409848,1.0380642603839119,-0.13019491913805842
1190,-0.9406364757083038,0.07242848622165501,0.42246832898913683,-2.3388925308028328,0.5396609414225886,-2.455218398910518
1200,-0.9014175591935156,0.09434622564105641,0.45774597713951104,-3.5968364600264255,-0.32627467336335425,-3.410458666927478
1210,-0.9328847030688615,0.06359305013703098,0.42484012856258174,0.6958756766122232,0.26535050858492365,-1.3674057512258235
1220,-0.8936946107252981,0.10773096599851241,0.46174809292563623,4.811285699340402,2.6051784911453,3.592993560657767
1230,-0.9246369499370887,0.07923760370832461,0.43493231518996966,-1.5510558807767993,-2.5989823160618677,-1.8407684096026502
1240,-0.9184944959783308,0.08787338485400074,0.43751070162551,4.340505172634424,3.0755783134747574,2.727926272412166
1250,-0.931570033940654,0.08075050933783179,0.428681381380211,0.7793690124865549,0.23956542195448038,-1.1864958484695798
1260,-0.908276045181103,0.10063255297076917,0.4545636787776145,0.7667136424095564,1.7105418988844079,-0.33899682225106265
1270,-0.924921969179344,0.07248494457503209,0.4327193347019531,-1.185215893851447,0.33988575577758245,-1.4055742152870085
1280,-0.9180835981248361,0.07680092333110008,0.4392104527821534,-3.481300797812101,-1.8628063912964739,-2.2479856328874344
1290,-0.8928766492509589,0.10721281490314985,0.47068404251729656,-2.376200541341256,0.7936432600259892,1.770938362948839
1300,-0.9325487361524065,0.06980296949361692,0.42130906996765205,-3.5450095159424317,-0.5708734157701915,-0.15828711626789094
1310,-0.9213132050124466,0.07203051748826149,0.4357853748704871,-1.0814063187298664,0.8709876695971682,0.2226076522767221
1320,-0.9239175093423302,0.07397401217624287,0.43592189187496794,-0.21383795796502036,-0.39742233992448084,-1.5097808745696597
1330,-0.8913188123769239,0.11334836801474611,0.4657094554857503,3.637207368656863,3.7416465293065047,1.8493451589994305
1340,-0.9283398985059123,0.0692829415135858,0.4248048560803482,-4.491678235527446,-3.394809631815897,-5.377126947172591
1350,-0.9082126670820788,0.0867102033971839,0.45172153018860656,-2.6768371600704155,-1.0755778355710222,-1.2140329880116754
1360,-0.9176282893886728,0.07831449590970227,0.44754290893626525,-0.4391846210490023,0.5437994522956346,2.545609483732077
1370,-0.8950109457050729,0.099995680859778,0.4632864471184441,0.3223743494671868,-0.35655363169621923,1.7422618154587117
1380,-0.94329713957295,0.06639624434169927,0.4153710611985398,4.332551480331794,2.572775755347269,3.2936095823432594
1390,-0.9223501958186666,0.07868705265266226,0.42798844804810393,2.6236294040495354,2.6607452904877325,1.2126784165104574
1400,-0.8964675879610947,0.10982450142559319,0.46106891051127324,1.0681212936392979,2.499541070184207,0.13772295191259332
1410,-0.9129831602079822,0.08929267971057991,0.4469952812948535,-0.6229848246886418,0.2524177633101876,-1.4242051888361071
1420,-0.8936993907793558,0.11281415475750046,0.4734873055046619,1.5380548280891064,0.3012991722795418,2.87296349390702
1430,-0.9098805799814812,0.09153009295340349,0.4466332135948558,5.517003194915551,1.9353544479862854,6.368191673190815
1440,-0.9240417306958014,0.07798503950677471,0.425362429416731,3.085198040539242,-0.6934289590170092,3.442634723964099
1450,-0.9033928124271076,0.10971473605172373,0.45241573018867465,5.633607930941483,3.3634833223530056,6.453173845149228
1460,-0.8979981820973223,0.12001992255678488,0.46489304190117403,-2.721967701449612,-3.483342166297693,-1.8608477232744227
1470,-0.9140510756458841,0.09205353561026283,0.4479091940137804,-0.499483325069923,-0.37106017141792025,-0.2116172279461278
1480,-0.9260981615443985,0.07361018411785228,0.43768133590849306,-1.472260545325285,-2.0241590479488383,-2.2423079257494787
1490,-0.9466558503019323,0.05659794046020903,0.41287597768660944,-1.126604409483608,-1.323424942273077,-1.817855034222695
1500,-0.9178964428616241,0.08739868156921869,0.4397787135938977,0.5905105439488798,-0.3408563631647725,0.05825593787738337
1510,-0.909434972221391,0.09850647515491331,0.4533974482004442,3.2115216620017284,1.0707243743460484,1.8747710776297937
1520,-0.9037690157625028,0.09553049199080585,0.45297130558655935,3.0059919865878495,0.6963064213121478,1.0614752533225906
1530,-0.9066624398507418,0.10048244768997036,0.4543993911708017,2.9486261569735444,1.8493066487218102,2.155224172670551
1540,-0.9487028508042561,0.06384974948548006,0.41703768830438603,0.472642423860825,0.3625361955687472,0.697003279135163
1550,-0.9130489275077911,0.09181818370169625,0.4486987802189617,2.0614389162752937,1.8796817405205548,2.0959755817897294
1560,-0.9282109796683113,0.07686297439193031,0.4319544382824868,2.1660239864445727,1.817485286561594,2.1292991734234805
1570,-0.9140278651993163,0.0889350162678793,0.4403691948194482,0.8129775666390278,0.7444109765377609,0.4047102394196799
1580,-0.9111301524625238,0.0997279992268779,0.4450959511517812,-1.0696803775451325,-0.7642083830573219,-1.6041850164025024
1590,-0.8862638991869378,0.11783221468060506,0.4702984998510357,-2.2027451751992313,-0.5556652278076761,-1.5087951230694774
1600,-0.9257438140221417,0.08402409347245574,0.4259148035526643,-4.587861192385385,-2.5361122785977823,-3.0883550527290935
1610,-0.9145786587668756,0.09356147667917758,0.44708600682008803,0.7961609234786093,2.7221538141625237,2.7844507896082353
1620,-0.9098961977824404,0.09692333019909094,0.45034068990800585,0.7749710512827,1.8114585694426213,1.8366477403517023
1630,-0.898869972768913,0.10936849634877376,0.45677778463291396,-3.1287213510518495,-2.61976559412789,-3.3948479290400315
1640,-0.9033311131821213,0.10376934143324673,0.4525091787633844,-0.15019099770334118,0.5156084714343032,-0.8958914152132129
1650,-0.9208682609420997,0.08382650760879144,0.4332180596743326,-1.64866569638738,-0.8754690558878151,-1.8518156872114973
1660,-0.9075873137996383,0.10248311073171928,0.4454286896590662,0.10213247759271926,0.7682473791920652,0.9576766495950527
1670,-0.9201435415225632,0.08006885803221092,0.4341348613470135,2.3169708122743735,2.162896405006134,3.277909174078645
1680,-0.9695644714977689,0.03687874190183867,0.39421157773895504,-0.12006100601884406,-2.024998109319676,-0.15963695247740417
1690,-0.9272568207408225,0.0789450899750133,0.43649120024941257,-1.4178708311873207,-0.8076654099830436,-1.4010003508159241
1700,-0.9149294836114381,0.08984866441417165,0.44878151933017285,-2.136527674020477,-0.361453012019808,-1.6768445902128462
1710,-0.9254763594936372,0.07724866687885171,0.4347662276465233,2.2536450799941505,3.6591763952830445,2.796065838069131
1720,-0.897813354693142,0.1040710473091892,0.45930256864385505,-3.7623084297227725,-3.6460199443590517,-3.576014301122017
1730,-0.9143355656311649,0.08594187143944372,0.44110157855668375,-0.7257578443561538,-1.890071383751207,-0.7942181488990802
1740,-0.9048865404890488,0.09421381794422223,0.4500056315253978,-1.2351486082789709,-3.3225540190908593,-1.2773445742764085
1750,-0.8916780283663875,0.11745810565291379,0.4668203464614147,-0.46444613720370764,-2.189301230469014,-0.013959116224337098
1760,-0.9038187792759986,0.13074350592605863,0.45977762910816167,-4.166545225739416,0.35123922866086565,-0.6348501523790796
1770,-0.9090170718550943,0.10341014536057971,0.4468761256892382,-1.7094000984097355,-0.14096749823702281,-1.6942525639280386
1780,-0.9133367359087035,0.08242911214857519,0.4384942421988718,-2.09017992891056,-0.23313245795968307,-2.1996956963732313
1790,-0.8942864341053485,0.10820395760440515,0.4616953566096091,-1.2340865212030683,-0.16378761474737802,-1.029404240689076
1800,-0.9343874686455387,0.0712487007439622,0.422485661137273,0.42302644764087494,-0.20232137956572832,0.14477035830577348
1810,-0.9346922751082845,0.0777904928011182,0.423957165224089,0.8936086016506916,-0.30614273906665423,0.8779348899062503
1820,-0.907299488813035,0.1084675745707495,0.4555311357890501,-0.7359079586599477,-0.5696085268713121,-0.4001984056581159
1830,-0.9274671324135871,0.08113525940449148,0.43463195233937546,-0.5048529384221007,1.1513627393657466,-0.625148715212598
1840,-0.9075055516656193,0.09529484492973031,0.4462654013409113,1.3042786709753948,2.519695960802394,0.8402443739980945
1850,-0.9065463111260932,0.09662333236906331,0.4478996032169127,-1.5973511659391206,-0.9515938387560023,-1.9749703802641267
1860,-0.9141180775261957,0.08682926953931562,0.4433429069968188,-2.4855129423704314,-1.9593880393039576,-2.0237061644649628
1870,-0.892316439267932,0.11471531707562294,0.4644286917683854,1.6358386478227824,1.1175202405784914,1.8510008098854493
1880,-0.9452327824645061,0.061172081743519235,0.4198781107068739,-0.8978416095674675,-1.6883026507534618,-0.08138011817978241
1890,-0.8926849005214426,0.11962806837935419,0.46637113360935706,-0.629562218334298,-0.34211094858371777,-0.6901160790954401
1900,-0.9083730407917987,0.10680723354624475,0.44931551046232526,0.7175602697407182,2.133576677711252,0.48347546181742995
1910,-0.9245148987362196,0.0858409826469029,0.4357649193901166,-1.780639603125918,-0.03835588483459766,-1.464780607821042
1920,-0.9451890700809912,0.0590137119293503,0.41567576363596226,-1.7297400006983883,-0.6493351368371416,-1.075348765161093
1930,-0.9093819786532447,0.09502562245895843,0.4508135919494134,0.27775589043147,0.012936728995177171,0.9601638824656493
1940,-0.9232550580105365,0.08608183699298345,0.43213220213496534,0.406737632942166,-0.9759318702586288,0.9745456694558088
1950,-0.902355647272345,0.1115933632744146,0.4582482337097329,2.4468394243222344,1.3371447074913116,3.272637949550207
1960,-0.9173653380641543,0.09955724304772656,0.4417537798471613,-2.7940914587148598,-2.850209232530303,-2.924306575144677
1970,-0.8751826543649907,0.1339009083838391,0.48454294056998953,1.4546429762149051,2.3473691662124914,1.384973301380239
1980,-0.9008500409673931,0.10860377524859385,0.45506476520133143,0.7618437875260506,1.2102735414784795,-0.08624581957117483
1990,-0.9164971379241199,0.09110596264936427,0.443313307882954,0.3539792974909677,0.5331336038678984,-0.3338024731944308
2000,-0.9374800799029657,0.0689043828302994,0.42187147312869566,0.41181269424921874,0.09803095384431504,-0.005861750036112549
2010,-0.9154474539638593,0.08987361551575133,0.4382821941138354,-0.2407038687734685,-0.8921208033093818,-0.39629320563223513
2020,-0.9237140849588327,0.07894684698946819,0.4302808220535182,-0.05458401390943412,0.20622879580250197,0.4718954127824503
2030,-0.8939868150326765,0.11197300752620308,0.46447158569786734,-0.154956661778604,1.4652862212138609,0.44940582551377806
2040,-0.9130599366058252,0.09745117865450366,0.4489063465736794,-3.474763314637035,-2.5922631730908807,-2.869268857521465
2050,-0.9202466775588359,0.08258930751899364,0.43827195494451,-3.466686565318282,-2.8319110844246467,-2.63585744114221
2060,-0.9023263611813739,0.10035060664780991,0.4606668962210251,1.4655270378547858,0.44329596821482,1.4595881386492646
2070,-0.9154265317746031,0.08983245219606227,0.4435205088196427,1.0359075570458256,-0.3724912876569064,0.6558058290640716
2080,-0.9125865124003978,0.095623314845162,0.4467712050898049,0.4102341569765855,-0.2802314631459839,0.20717951102629006
2090,-0.9088465510795442,0.09873114966619867,0.4494410098307615,0.8315713238681501,0.9687572462824449,1.1376233085579979
2100,-0.9240811739488274,0.0820654565219249,0.4306503520743629,-1.076322040148764,-1.0742432782781193,-0.7381060769896313
2110,-0.9274373063259155,0.07671440131422388,0.42655327953853717,0.6151595069040934,-0.17651958094811543,0.5076096163462528
2120,-0.9150408298061952,0.08405545023701708,0.4427905973564166,1.2844579085486094,0.39903189808045386,1.2599266129574773
2130,-0.9420132317553603,0.0626694003428418,0.42257052897944003,0.2600090654033802,-0.40815159692038894,0.37817418722354224
2140,-0.882830473911619,0.1222221275588428,0.4736182669832452,0.7510128018510965,0.5099948219344316,0.5713165829973086
2150,-0.9271002003889487,0.0869524443590025,0.44000144711895,1.710291016610161,1.9340615036282829,1.1453794822958594
2160,-0.9227632400774868,0.08328505139309215,0.442712621141919,3.701765388248669,3.8111417270714134,4.13327838428693
2170,-0.9070322666924706,0.09731874191757346,0.45389945635056883,1.1067297454656957,0.553467341727606,1.812308927214708
2180,-0.9064595061130659,0.10143532958468775,0.45263941451582584,0.697029559767873,-0.3073011736274933,1.0575299828611513
2190,-0.8919042034581489,0.11898026001288578,0.47061834162821226,2.9866842357848777,2.182010202694586,3.07547116644447
2200,-0.9025233233649627,0.11032635405996018,0.46250320243403575,-2.4429484290877106,-2.6838658635581654,-2.2520225203845055
2210,-0.9171962544719503,0.09594485255850559,0.44284136190343126,1.511585206488534,1.6444992994540684,1.832833643511206
2220,-0.8962534499674288,0.10997960308437349,0.4605378000461036,1.129349817384444,1.427130339961336,1.1690222705818272
2230,-0.9011030536779946,0.11278577059966147,0.4548576434114591,-3.3377258928822675,-2.6975817865097103,-2.3083124674709854
