time_ms,ax,ay,az,gx,gy,gz
0,-0.7751303089818079,0.16918387004657218,0.5831622302384913,2.362416684869521,-0.03830207489500215,0.17450914969486975
10,-0.7669673334128391,0.18279796909843363,0.5910439418758211,1.3827240071657005,0.8633521066382459,1.2245357145179674
20,-0.7608058147224469,0.19402949994530932,0.6033211723451086,-2.8800400579603584,-2.5712381770054122,-3.043798967135105
30,-0.7848329718150235,0.16933510989193962,0.583001085714975,-0.4290566453460646,-0.3716697273689526,-1.3113705146172228
40,-0.7263079286846741,0.21828349544446443,0.64115041027318,3.0587310567605064,-0.8054387470040246,-1.9261044508986074
50,-0.7236620299486473,0.22755639030967795,0.6360825898438447,6.713235682480838,1.464020545454731,1.6469950830714422
60,-0.759161170202985,0.1946662202679667,0.5975178981947241,3.4345375209775435,-1.8872224830506612,-1.0596357527773375
70,-0.7784242731050499,0.17665083255117087,0.5823890977490856,6.0446756539218685,1.1605378184199386,1.7186376402331813
80,-0.7736780949372583,0.1842657519601818,0.5824119405156752,0.9089117917120042,-0.7409962325769144,-0.37444137436964464
90,-0.7863262486677297,0.17128893668854472,0.5819672522250309,-4.774175758775424,-3.3092294494286003,-3.314839033170724
100,-0.7476094983448335,0.2112974718548695,0.6110550698376003,-4.583052503642303,-2.148180532911954,-2.095533422038322
110,-0.787839486801965,0.16649484373668832,0.5684452092375213,-2.623292780875267,-1.119050055794662,-1.2952481068972492
120,-0.7937923470205028,0.1599452949974346,0.5678486496081608,-5.210662537561733,-3.161352211263778,-2.9055997182111186
130,-0.7818707360247056,0.17248445632392784,0.5892121287862541,0.04669022642874521,0.3033972151641138,0.3115453575183884
140,-0.7870625871042337,0.15928029008656225,0.5710270161899209,2.002607398869174,0.10457572522828396,1.949856410149553
150,-0.787642469402021,0.1550727559929209,0.5873019135845103,6.703313358095393,-0.8856380964167759,5.83397952402122
160,-0.7869728052408005,0.15457644669105686,0.5886324831067948,13.091507689690063,-0.8243721162272928,9.461794766755103
170,-0.8042033347573012,0.06936276611372409,0.7319959352099499,10.965140703534754,-3.6070133864028326,4.145664060964873
180,-0.7698522692831837,0.1835835341648296,0.7348328433405271,22.164611080493227,-27.644706722235217,6.1962373075877135
190,-0.6649550904441998,0.06033273181275371,0.6727442346067674,24.367294399675714,-38.66635411772017,2.3636549911231857
200,-0.6118107174623583,0.12156895130472357,0.5264808036689089,22.078809334873494,-43.82541797875075,-8.701863476556499
210,-0.5800621737639489,0.16725345394733382,0.4963457992007275,12.86329206682172,-35.13701241009022,-15.450515681151948
220,-0.6193357071037272,0.19802369545203413,0.5615518667617808,-5.412969188908372,-27.53228187239505,-18.16936060184116
230,-0.7267102481881231,0.2566117975648967,0.6144728779636324,-24.088410987400284,-21.61501793197676,-6.141152265483741
240,-0.7278661109382863,0.17191736725812956,0.6520492655531971,-31.843939943835508,-15.694093170428985,-1.324473509942447
250,-0.757444058215101,0.1267522359863184,0.5548314758871166,-27.337749692127638,-10.720902533383502,-6.016488877432797
260,-0.7098816537754185,0.20134408076692117,0.5727728595827755,-18.590062851628666,-3.678956416437801,-4.198790548837108
270,-0.7016990880587332,0.15196620791556167,0.6031069033491963,-10.157526185406118,5.0199783484229314,-0.6623235490442856
280,-0.778236243764181,0.20895062983132567,0.7762626340351616,-33.46760936502057,-0.9136357795940566,7.263964692776786
290,-0.8515608719622013,0.053306117329647074,0.6825933225792303,-32.56247019396726,-6.1617868398881335,4.868790523419366
300,-0.8310210809252434,0.001330152910146834,0.6692849448763443,-34.217584069076985,-9.981051353352575,4.1816798965777116
310,-0.7259117594371293,0.1136729700690471,0.5882170686079479,-20.17626037148892,-11.55901259548607,3.518089702780868
320,-0.7531988549529722,0.11066557804412312,0.5627150614225924,-19.15503766116364,-15.09490783494822,-0.5094328131246727
330,-0.7103247538766082,0.05264367756755771,0.7707361798678927,9.318550409329458,-18.734629988310676,-11.789496893018896
340,-0.7825861761269753,0.27254671461430274,0.6521585930185045,22.128532332444248,-14.635900983080594,-14.688412228490836
350,-0.6629319855782545,0.17682133817513374,0.7853944776529049,19.65736526630869,-14.06053428090138,-15.970454748029471
360,-0.7931562481017828,0.2566217436356433,0.6454619545495125,30.01919268490966,-5.762562429795696,-10.616967678282181
370,-0.7418608073203651,0.2994418279565231,0.6434348968129842,44.25024456217971,-10.027012389136765,-17.98637958032543
380,-0.7679120133433778,0.4719227415365697,0.6185515035061319,16.430194933408274,2.6997388925300947,-4.889159167359273
390,-0.6580373437537909,0.14174878853046627,0.6766742486956353,22.35189366840908,2.6568890518492077,-19.038195290751677
400,-0.7133530641517004,0.17862848373876306,0.6241554827600516,15.24695868280767,5.183935642161724,-18.195552682485523
410,-0.7140912283967755,0.1566211915961615,0.6684021524974665,11.264668801573844,4.60543274097884,-12.228542162358966
420,-0.7709770565337493,0.15946562610442433,0.6130845384192384,-2.232361091319468,12.496831789707556,-6.107916840173961
430,-0.826917708482516,0.20416575864746572,0.41973135433932646,11.846717290471638,22.33602067947098,6.299660687671384
440,-0.8821915720166265,0.42324521085931927,0.056074763200303634,13.25744403659086,48.39155724679721,25.253149004465723
450,-0.8354212003943314,0.3507862580440945,0.21055142627329365,-14.524324470313609,46.13201731860646,34.24467862139379
460,-0.6509056985459202,-0.012746140630332692,0.9368724677289071,-4.547422583567563,33.82955542315588,33.925433791688995
470,-0.5436797595210321,-0.13936744610681734,1.058022909406496,2.8159874839503534,17.8370514849104,15.5609709366844
480,-0.7317679080380359,0.5804153942903233,0.3285917756751308,-24.205389879095442,38.10413996260524,46.856834286446365
490,-0.9480239288006764,0.2782416869910563,0.3341317313306852,7.812501102583676,27.240216880709696,33.83240779947239
500,-0.7624883716799988,0.29949415106032273,0.634900833818527,-11.055454457256111,23.76835886293353,33.54735442344616
510,-0.785470832065842,0.013972265425656001,0.6135940816788027,-20.487003163346895,14.700228685216848,14.964414255283897
520,-0.7130274730115707,-0.1827744461971582,0.8107065400558234,-18.052010862801858,6.650150740543489,11.319386648029477
530,-0.7373984741092889,0.18607573351638151,0.651448174593585,5.81422424780985,2.594841981109496,4.824052710083416
540,-0.7550040164021613,0.17078977649557034,0.6152139214001952,6.129601598987817,-0.12395408618329451,1.685485863118101
550,-0.7457568440244314,0.17740711093056064,0.6320358730833924,5.9757056837958515,-1.3989431849322655,0.276673760556593
560,-0.7408857181846398,0.14038628339211334,0.646292437879891,13.40859255444801,-2.478431861815464,-1.907275539549067
570,-0.7339459876011458,0.08563137796338076,0.7204596678188544,25.416415505364075,-0.6703984217810746,-1.2370929036652134
580,-0.7473021234543424,0.10329025102699756,0.7324486606555776,11.110144378742088,-12.179577853892031,-21.80442872827831
590,-0.7395477504320271,0.11143863980915746,0.7409460256363095,10.844253840609866,-4.5219871013336075,-13.585433506192544
600,-0.8155163629316761,-0.058308277265796474,0.5818483069030596,9.491352413342652,-9.89379351615906,-22.64629446162905
610,-0.75476110325652,0.020131987192915098,0.635838990041596,-4.475320346457345,-10.606034696735783,-24.785801728204365
620,-0.8346188931888059,0.7280739903598891,0.49949068778703315,33.651595650054865,-2.458431509396548,-10.723973679658686
630,-0.7911825465771819,0.06115671324454528,0.58180826130456,-4.891250260224682,3.058724567141339,-23.542831372121704
640,-0.7617369710005557,0.2051709806838409,0.5620966575723593,-0.41154442010881176,4.42945787081369,-14.696959394313026
650,-0.8294699979122497,0.14244959246724587,0.4934233164141677,-14.913501742665009,7.973588771354714,-9.217514838935726
660,-0.7995449839599637,0.11581701373995335,0.5497554839597347,-0.6655550078120503,12.46434237832697,-10.478645217068918
670,-0.9965805285707875,0.12837112445174612,0.1642929899197145,-26.861498911796364,28.634672571815877,-0.31528899822903267
680,-0.8267351825080107,0.23407134301314858,0.44871643382213217,-6.367418562133815,30.856094787765308,21.42184188436477
690,-0.7070671999617766,0.1864321701538598,0.6916025597285963,7.080146135914635,19.95154969712342,15.546051322794035
700,-0.6629518439568939,0.09143372454496129,1.0092626327422516,-29.37433555042565,21.31837661351304,26.604888869608583
710,-0.7302252434961809,0.32658298863077095,0.4612820515130068,-16.7084422467574,30.39073597703698,22.43636189013329
720,-0.7315817220600426,-0.10199999780650415,0.9635156233017739,-50.3258986121208,7.483108297409776,20.97212753960632
730,-0.7643695543240395,-0.007550837469266826,0.6772895423992688,-36.549434414514955,-6.650964204852249,9.631469178171283
740,-0.7133967018865024,-0.22192834328528777,0.7765431099497667,-7.189301987315387,-19.790571141555333,4.577294907106729
750,-0.7797324915765296,0.03855553087664973,0.49449885178565267,-3.5900827251753618,-20.966556194243363,-1.9707632340772263
760,-1.014568011713261,0.20586080346109537,0.3602897369646344,-48.821344525168726,-9.580082895127845,0.3205807835198966
770,-0.6186907838801089,0.20410061393314152,0.7934306763518865,22.44924200209285,-21.338534668393148,-11.794867193834289
780,-0.7913309932079302,0.11711474835430015,0.5717722101562377,5.801878516003711,-4.133456333083718,0.6983976851966116
790,-0.7836620194696917,0.15505502431181137,0.5782815649119196,12.826539498007346,2.6251544342039246,5.915761316278197
800,-0.7750110026165784,0.18398383345026145,0.5895569285041771,9.877151288102109,4.715975460521877,5.758308956450533
810,-0.7677076962531777,0.1975603974264006,0.5975706388879264,2.279386468713909,3.6487140096281543,2.436940416676827
820,-0.7890923333833256,0.15571268264542218,0.5759177536463926,-2.351877759267744,0.8740127555212343,-1.7794622378553955
830,-0.7578214074414102,0.17469920568397457,0.6066975157455334,1.1752940760687496,1.1224329628741572,1.0728600991706603
840,-0.7802335182017258,0.15608734814088332,0.583300886508827,0.7567609799296582,-0.6954176077411555,0.7868514520323244
850,-0.763608613911848,0.17416294153517872,0.5979001081156399,3.383351197717407,2.1483408608482186,4.70432225161987
860,-0.7640529975292786,0.16943965728725244,0.6061682044212983,-1.6498819213447333,-1.9820921681217372,0.6611579378169972
870,-0.7494871012096954,0.19835894589828465,0.626957354255713,-0.12557237038304736,-0.946711154488596,0.49782233145286603
880,-0.8043093687749914,0.14572103113347581,0.5656856826771306,0.4497168146742929,-0.9516728075023214,0.07663048073686829
890,-0.7900612633598305,0.15448450569616656,0.5797538255577546,-0.4632651902922378,-0.20769157576659225,0.16197406909176482
900,-0.7389168043774702,0.20056417080712757,0.6295373465474692,-1.6100917681919615,1.803883610391237,2.295345012496012
910,-0.7622455712345686,0.17659717980640902,0.5966083286849189,-4.439084454884921,-0.4561252364489685,0.18491195971504726
920,-0.7546977811757968,0.1833112086947394,0.6087259878306858,-1.0824316377080683,1.119976027542553,2.573862343639368
930,-0.7712146967448003,0.1745895539905726,0.59870943272789,1.6705404515520654,0.5874531549247718,2.7909774476012013
940,-0.7716741580298122,0.17054469227985822,0.5864571366074623,1.2815189466321253,-0.62070584253171,0.9189495142615925
950,-0.7597870628084755,0.18477950012977679,0.6060451415631116,4.346645846493595,0.3640668266282219,0.8582230674818578
960,-0.7610979891564638,0.18743206592876369,0.6072100846857309,-0.45022121870315046,-1.7487541955433232,-2.5343794083887303
970,-0.7577792228827819,0.18336616584117058,0.6042071576440536,-0.5777763343457313,-0.19658380719266613,-1.3515131461163414
980,-0.7698980691006877,0.1598508665487859,0.591107012673647,0.06874271695227152,-0.18690257546818906,-0.10502375800461272
990,-0.7540960728762324,0.1853287304823072,0.6151035410302386,0.5851853888035113,0.131108771305177,0.5370926762807725
1000,-0.7904503231513549,0.15426494647915218,0.5769888887427223,-0.04519515977380428,-0.7876639903248914,0.13288505096707248
1010,-0.7702738419841122,0.16256275386457653,0.5929647239826753,1.4812395075571438,0.5399066991952512,1.6310313890881087
1020,-0.8066293981730793,0.13735620157639628,0.56083724828873,0.4805307445338374,-0.21095458944998147,0.8466230175692432
1030,-0.767098244782256,0.1814438568708711,0.5980720319671076,0.8902179265783685,3.2127793071416386,3.521992901127173
1040,-0.7638138414686069,0.18649712028912202,0.6047366401904948,-8.419220112499985,-1.5944258465562198,-0.7846643053391625
1050,-0.7349596860318895,0.1981449282388565,0.6250887287682151,-8.035941114845292,-2.080529297934266,-0.7785700681875634
1060,-0.7679391963913723,0.16808390423255357,0.600093593314824,-1.6473606269043213,1.2715304735837938,1.8089962905736316
1070,-0.7652526816852702,0.17631204141077353,0.6032353878948303,2.955911237342748,2.233920272754715,3.1353440497034275
1080,-0.7511297614622616,0.2014017686521053,0.6155861102897047,4.333812876386231,3.776826850034591,3.914310828105537
1090,-0.7393255745556719,0.19537293989451565,0.6285566964766844,-2.5487186984687686,0.41391044393325194,0.32759763753526433
1100,-0.7884997300476079,0.14588563644072453,0.5758129871055006,0.29619315796586587,2.573430425306124,3.262241748408564
1110,-0.7814849776369635,0.1545350981628068,0.5833237523108561,-0.04476020291763383,1.8954387652072076,3.03072174540008
1120,-0.776487570846234,0.1633183641269092,0.5884618851819102,-2.3486519258275216,-0.16268881244916344,1.0081322387204383
1130,-0.7723650304547526,0.16871461495237655,0.5953045597553644,-2.5993278402432747,2.625672063027472,4.179994671320488
1140,-0.7884553024805014,0.16374488993900183,0.5820272931659954,-5.288864949785801,0.6606286428087234,1.223930780651997
1150,-0.7730474168650906,0.1727037091387638,0.5944650009007718,-3.7712665555351563,0.9858643329397384,0.6839401764053682
1160,-0.7613792821572051,0.17596740300847824,0.6020680088977591,-6.147937188489647,-2.384051663380808,-3.2833775702213175
1170,-0.7611673406908244,0.1806305941095576,0.6008215085657964,-0.4947087810147154,0.0712847212440819,-0.09374649484802194
1180,-0.774310961380318,0.1737369347512338,0.594988085488468,3.309870406835539,1.055905294520677,1.9125272624860035
1190,-0.7780202262338731,0.16412717589847348,0.5862273085417228,2.484112008170781,0.588125824641809,1.4826368271483363
1200,-0.7550327461564005,0.18311947555761351,0.610590407980526,2.4792425411688432,1.6940744883453176,1.988904570635753
1210,-0.7685591559578372,0.17014994091685476,0.5932583468946485,-1.50860232031753,-0.6285043508210187,-2.3665427690288503
1220,-0.7676429078887211,0.16834716173713213,0.6067997470954054,-0.4067364731406363,-1.5608997398537483,-1.7252009642557988
1230,-0.7785890830236163,0.1503050333630848,0.593490544955728,4.18458073441682,-0.07810572959722195,2.112501898402763
1240,-0.7794433363710951,0.17005197419244833,0.594066766761268,4.544846134433543,1.3907481330491775,2.6516118085466323
1250,-0.7674536682064206,0.1802756396663038,0.5996100942453118,1.6066416003659254,1.4956512299730476,1.4771738945094635
1260,-0.7688385309706675,0.17324088583559,0.5945631506410676,-3.559595663433564,0.4233173556284233,-1.7332514759608488
1270,-0.7581761832028797,0.176016932085193,0.6087212825529738,1.0095045428549578,1.6171558991162067,0.2057243674806143
1280,-0.7529690204735181,0.17671047184156072,0.6132900907455684,3.239462267655705,-0.18134198536067403,0.2348742704190847
1290,-0.7792148407939183,0.16256607786440233,0.588004300170745,4.282284660945281,-0.22647637517206975,0.7656204792788794
1300,-0.7775915716867978,0.16571826819721058,0.5847714035088688,3.831353224801643,2.6529524114229006,2.7614737514538747
1310,-0.7708938658339337,0.17396349865265956,0.6018233419470219,2.6627601780031487,2.6430897741069517,2.0599085451798267
1320,-0.7759111785845966,0.16456187209866077,0.5930345757083219,-2.3448438306418193,-1.82598035683116,-1.9818033362693814
1330,-0.7626148189639367,0.17201025990637048,0.5979886819541469,0.24430557011424192,1.194000131577503,1.3733216249242535
1340,-0.7591212842862848,0.1833397509777447,0.6082049789640206,0.02534733976416126,-0.4527464242947524,-0.06715378098713531
1350,-0.7523747692228148,0.19014049215376466,0.612744831966294,-1.61615215549226,-2.4711603449827555,-2.615873737116991
1360,-0.7599613009490844,0.1863945096581982,0.6069306305550478,0.30863106992401845,0.20910377886096976,-0.6837141383464055
1370,-0.7559399343980983,0.18906558806130422,0.6113341180411301,3.3350145857387057,2.739429144362796,2.7015631729552383
1380,-0.7534302068961599,0.18352993090898434,0.6021661150241798,-0.37291345818314864,-1.1214078259296971,-0.2054249784529949
1390,-0.7789191299609376,0.16388090575332004,0.593648309650402,1.6178156286449767,0.00028383097208717345,0.03127825356682712
1400,-0.7785191317356887,0.16647864226665224,0.596539422140431,2.0782176196523148,0.8983677393585988,0.24094910743559184
1410,-0.76910607011578,0.17581666564321458,0.5989645463342437,-1.927325874303365,-0.9417637185991057,-1.9699970068793209
1420,-0.7581996870610754,0.1753226771696273,0.6056756105597342,-3.1044561300078852,-1.999842868641595,-1.2937092116038866
1430,-0.7443491122798742,0.18977720576268875,0.6193931171319929,4.788970520856774,3.5157645848056713,5.021811652216729
1440,-0.7972429860421509,0.15022542339344108,0.5685817532809426,5.659694188277816,3.0931018525772416,3.811228339895276
1450,-0.772906327634196,0.1763800240972762,0.5960915979211289,1.1777226457753982,0.6453229341129951,0.06843174932127952
1460,-0.7731443705357928,0.17079624239308572,0.5891007276922623,2.3230405732587616,2.5453127421935626,1.800925886068581
1470,-0.7779967062681897,0.16465331312505765,0.5845541633316358,1.7220403868903982,0.965249190296045,0.224467289171291
1480,-0.7687518820966088,0.17195472553904625,0.5941907922859901,-0.5014578353446021,-1.4636948617931478,-1.4467005149983874
1490,-0.7726347749792584,0.17011727184205333,0.5980333055273362,-0.21432008430524152,-1.6230748891518285,-1.3829946367750512
1500,-0.7633356148403228,0.17918864197098808,0.6034055427530717,0.47205511375406173,0.17786284298843216,0.30866385053896506
1510,-0.7681123529327543,0.17625779647920792,0.5985479915165915,-1.976808792499849,-1.224288577794259,-1.1168037195826377
1520,-0.7878328479096608,0.1541695367874095,0.5800481677255342,0.48216590720100894,1.9827205876868665,1.5137503075868413
1530,-0.7466397159363899,0.192497067044649,0.6174691951533576,0.322477458088803,0.24899399597047794,-0.038916154873015224
1540,-0.7628303460567882,0.1782406885036309,0.5992651839342837,2.10040096343533,2.034859447410921,2.212920352385761
1550,-0.7546566064453937,0.1867085969846817,0.6135212302602245,-0.5191621939187812,0.3700939956695297,0.5273047095791703
1560,-0.7794152635757328,0.1536498349028903,0.5785087084627356,-1.5029669135457162,-0.590551074614646,-1.5492289570916398
1570,-0.7638928962039704,0.178996088616363,0.5944483504204201,1.8017793856976048,2.4695356208115316,2.362236832843255
1580,-0.7626486557771347,0.1812375933246268,0.6056734006789134,1.0286387927004044,0.8798951361379483,1.388663177367339
1590,-0.7512935733129885,0.19459456593753308,0.6115130086388262,1.1851412065776208,1.2715993774990595,1.3822630536130145
1600,-0.7593685935045732,0.1804779234943708,0.6029163934374033,-1.2649001628265226,-1.2149817560167027,-1.7114908937920903
1610,-0.758461787696277,0.17892527023217186,0.5997787595181887,0.7443807364165381,0.9212604047395807,0.021827814407179347
1620,-0.7873261217899333,0.159864551673244,0.5864452130662576,0.6292409531122456,1.1326048232649641,0.10047446651406222
