time_ms,ax,ay,az,gx,gy,gz
0,-0.8134125439267659,0.12410919492594559,0.2611786255580132,0.8347064743959592,0.9024426207897305,0.8231496187742633
10,-0.8074242916853366,0.13139843381970434,0.27118009707422136,-0.8298065260663262,-1.131746456522399,-0.7823152101192778
20,-0.8128673479738361,0.12047994378538378,0.26079502595183746,3.9722229172070063,3.3918590641101973,4.075588403010944
30,-0.7977324709569779,0.14224371235253586,0.27963449769040954,-2.815930368287524,-2.4731951171784043,-2.3168270820918995
40,-0.817313106953892,0.12994935969109955,0.2619022871428187,-1.0927907698018322,-0.3131902440968605,0.21624293103631975
50,-0.8051554123485986,0.13777419100060312,0.2692810874777144,-0.8435541200741321,0.28464183823401484,0.7616996295542651
60,-0.831559003299311,0.10497525627135584,0.2384492643384212,-0.4606123633214121,0.575002622628748,0.3788786673432572
70,-0.8035486928877016,0.1365898876709897,0.2668410305351844,-1.2583196826945615,-0.6550032861247365,-1.3202567571923414
80,-0.8539371104971392,0.09094791970581279,0.2173201868095556,-2.490521100898505,-0.7999784920024309,-2.2400403578021972
90,-0.8103202349164369,0.1346311005776234,0.2690404007432881,-4.627539758368393,-2.353625666414976,-3.8481259684023543
100,-0.8250288148354872,0.10830053832306555,0.2486342646716639,-8.56252424777944,-2.380105943347589,-4.921852744343997
110,-0.827059746533618,0.10885057294552,0.2503743220606746,3.9857947291727878,3.6852292484897227,5.3723660599503855
120,-0.8152581897793115,0.12855779672156165,0.2588928103886711,2.29276945684818,1.028592850107353,2.73935878606993
130,-0.8156460341967396,0.13449638650941131,0.2580790734903628,1.633201669840438,0.7957211400969104,1.3341626783373064
140,-0.8439199477198593,0.10615792217406603,0.22879847468016754,-2.2526028062256325,-1.0495364523518125,-2.1522024216410633
150,-0.8176471876026737,0.1265058554783202,0.25495308296192365,-6.046442773008985,-3.180700619909113,-5.514420416159859
160,-0.8153997361038017,0.12237925747626659,0.2604489268887393,-3.162280488288305,-0.9246576395677025,-3.0824099380780696
170,-0.83864579823986,0.09880416991814331,0.23903626350426044,-1.6706904766483741,-0.9541481799395147,-1.647130493540074
180,-0.8163944014798606,0.1273900852675124,0.2558388810649793,-1.3267228707377496,-0.7040626446099338,-0.019023212125095057
190,-0.8046260192374555,0.13732154772000651,0.26878523205126703,-1.1342364173410826,-0.6950314082563627,-0.02995068823181768
200,-0.8446712691907405,0.098731568865468,0.22819218499630664,-2.288163757874558,-0.8245252895238152,-1.050534367477018
210,-0.8295483769963091,0.11672955798708157,0.244356465052621,-1.2276441166732261,0.56435734678012,-0.13213487669718038
220,-0.8234626127792819,0.11651463480755496,0.2545251727428555,-2.3561334781592866,-0.5465175236414612,-1.772544520816175
230,-0.8241902961804747,0.10552793091459978,0.2501026603077289,-3.083251968550059,-2.3977320974464025,-2.774006724087728
240,-0.8266499191083253,0.10825821233600984,0.24720307215349008,-3.5097907622499154,-2.910863284218749,-2.6136800518408867
250,-0.8165031498955176,0.12683629206539937,0.25942175044990484,-0.6520301141766331,0.34172983079229846,0.380302006549716
260,-0.8316187051650797,0.10990014630793453,0.24166275216639574,-1.5045600536524555,-0.8468306002827193,-1.20395430319325
270,-0.8354576908453027,0.10690395197192706,0.23611561456458416,-0.8861743287555508,-0.1508902086881532,-0.5880558058276814
280,-0.8443333758569804,0.08950594920000894,0.2292869736044416,0.4145048263807999,0.25460935390647604,-0.1374494761461863
290,-0.833825970619221,0.10547929825738914,0.23444509118676984,1.876279595966531,-0.31153999836041746,1.0673199729715122
300,-0.8254523663648202,0.10987637496179868,0.24762991580687235,2.6790426829732557,0.5368259577440908,3.316469213169912
310,-0.8119137690697054,0.13619680714023494,0.26295470299757834,3.204262566012566,0.4082834247409308,7.953615097099838
320,-0.8367748478325238,0.1211000019284956,0.23737663090504987,0.8393115509048967,-2.1411428805029007,7.4772821297566825
330,-0.8330333325110403,0.11690402844513921,0.24041420778535774,5.962115620088217,1.9666851790739153,12.331632340192336
340,-0.8159711724761785,0.13131078942443566,0.2638179084188662,8.7988239509874,2.096801491020103,13.530306326769304
350,-0.8244005082072655,0.14019303999304628,0.263556063233964,8.483876232524159,-0.19895437887791007,12.110961090892342
360,-0.8160841486755841,0.1649408670240272,0.26769217954178215,5.196729509746165,-2.92246462936922,9.01312459618141
370,-0.8558903233120144,0.1125820372235922,0.22458043782177012,9.837269174531409,0.8288161452632261,11.92499709428374
380,-0.8505788051793567,0.0866054889835766,0.30175185218304973,15.716602127459211,1.3498359886410989,13.5712003192879
390,-0.8408196315604199,0.12429134477815143,0.3191722662837606,12.45674106555473,-13.257826265065123,3.9292711384743093
400,-0.8617775380511306,0.16626239590045178,0.3006489662761285,10.789981364351375,-18.392348194990838,-2.304603345938964
410,-0.8606521032792549,0.19140418376669183,0.3119356557234416,9.08730377499947,-17.13791858542155,1.877251013777256
420,-0.8012977806320979,0.16792791262906334,0.3372544949861957,-0.18869623009962122,-27.704815233428917,-1.9668941807034037
430,-0.7600128648751492,0.12589869092381864,0.37278148075459994,-2.578798723128116,-35.654794383980295,-5.480184392980574
440,-0.713921633987749,0.14532429371532948,0.3346503718883259,-25.42306645054529,-41.694926776557544,-23.04258545258637
450,-0.6485144842840505,0.20341346884630684,0.22919800538725485,-56.267859521027844,-40.977054231179906,-43.34279020430385
460,-0.6543741171675811,0.1847776028843697,0.17937268095219544,-45.261839349648426,-27.423019813078145,-37.44160752261448
470,-0.6734976732637038,0.20233966264608827,0.21269501250930242,-27.29666661713466,-12.728521427083201,-27.963533987164055
480,-0.7814527645482743,0.16193497705560814,0.2564690247858185,-33.1282311062179,-6.242156140162795,-22.657174283119275
490,-0.8898982580639585,0.15254590790930883,0.3251804681959016,-24.396937003813747,-3.009635875107985,-14.316596354352377
500,-0.9027973786105072,0.1608960627960324,0.35553631620932946,-25.653918958758492,-5.811325710004192,-13.092482399256534
510,-0.755327642541329,0.16200589604408322,0.2245035617534939,-28.370469455015513,-4.44062793613746,-12.813154937695405
520,-0.6632508204331098,0.21543545792218452,0.27834960960311733,-25.352272879331455,7.2249197767096405,-2.8869241608473257
530,-0.7607027644652105,0.1144136518957286,0.3681700186064752,-38.85660977642887,3.4720432651859525,-5.990352419534946
540,-0.8556887974374099,0.02134734946391327,0.4280289672546289,-45.73841054051668,-4.654565316033157,-10.275081059590518
550,-0.8856848051735972,0.02853114075935731,0.4392027754204509,-37.31599620916824,-16.97815686976484,-13.019952008282381
560,-0.8113052415625255,0.012461487744092984,0.524660772351736,-13.717241228696052,-24.803238194204535,-4.62560434973436
570,-0.7938515187341684,-0.10533204070770923,0.6337586999957752,25.79534056970338,-17.024867831698977,7.398584766899411
580,-0.7623067365477566,0.03709175631355545,0.37427579402101285,15.481571103116606,-16.7113304028385,-21.650135383161555
590,-0.8395776340592943,0.00203561760297568,0.47520427849970326,52.00349841936229,-6.52621871575734,1.3655122943528202
600,-0.8598163799745542,0.11706161371928939,0.5265151792735224,63.97491827025566,-18.412584759622703,-14.660498479911553
610,-0.8704305054237154,-0.22519775400272535,0.40664016751809207,17.60283273938636,-12.291925872910657,-37.58551787116344
620,-0.8435314217028247,-0.02371057337867885,0.2837336661140137,-12.264671321350653,-6.210108262310982,-40.11286046228521
630,-0.8736571671296166,0.1667128115265962,0.17809231810158777,-24.030640182175667,1.9707121505609795,-30.140990549282538
640,-0.9150263704914909,-0.004784384912689902,0.24797662897279785,-13.179359906881885,12.580450964577977,-17.337682830642777
650,-0.803452441172998,0.16405518273767203,0.5715454744466323,35.76949186487449,16.826508482630853,-0.2798088617561736
660,-0.6868188668014336,0.08967531513621212,0.5360070878603028,5.870238999284557,24.977926330719527,-8.082305469348741
670,-0.7885290085696303,-0.007238262578780053,0.38198807936309276,2.032737081073002,27.394544130573387,1.8430889343959622
680,-0.7579983255380607,0.24187016933663366,0.30572854139443284,8.056065495810925,25.620676517612623,20.9965884415803
690,-0.7681951235117146,0.21438097159081135,-0.07199486454500648,8.972593457171598,25.267084979905906,30.69357614506035
700,-0.6504590971003046,0.14575178394814636,0.23728896106093686,25.698732491478907,35.38575299109966,58.816451578588506
710,-0.7765148336386568,0.05641811671639516,0.3955683352747229,29.03491553330003,21.77350195984228,62.17286387277189
720,-0.8260155324972072,0.027135299182788335,0.38555549318635857,15.207754532907707,4.776178840318136,49.08345287759659
730,-0.7547836394761875,-0.07511982918690516,0.3805248748873745,17.621316268485096,-2.375312387781375,36.27071104622579
740,-0.7249110770283392,-0.15004822493624656,0.41784125889609314,39.61618264656006,-3.590225465630558,22.8002883913365
750,-0.8425587687773887,-0.06525531700516629,0.29801782345410144,29.812522094318386,-1.1041091280520399,2.933203625063678
760,-0.8109854104830967,0.0055507551486320885,0.23793658917240165,27.96361218324998,3.288204362819582,4.446883686942166
770,-0.8183326432905342,0.037187644315777806,0.2870406924875791,34.75934724635858,6.052981528978382,11.445149848506954
780,-0.8314645213963078,0.10800238423716098,0.28917443277275745,58.96981491578646,-8.562251160049502,1.3607031288992382
790,-0.9092015927613383,0.30431784730712513,-0.00897296435187874,66.03258171438871,1.653156608235348,-5.354312502037205
800,-1.0071198386322313,0.3224497788924466,0.4861709651406283,102.87567837408655,-2.6779011930460195,-0.5546026208038211
810,-0.926642795778218,0.24857103302429362,0.6125830230554363,62.81569241437584,-4.8435638557667655,-19.336725698242105
820,-0.8721746274808788,0.14405911227348445,0.32070884395437504,20.707393534290873,5.050785407930172,-33.117871680766015
830,-0.8818966068292095,0.12320314560680957,0.1359311500500355,31.643267969799197,17.861480007764783,-22.54435817109881
840,-0.7935603948788169,0.18365132999570963,-0.16714413058794694,37.84402211097928,36.07828976590008,-5.016629573798015
850,-0.5990252862027826,0.2553600871405867,-0.64376643894885,44.669807178313484,70.98391949262026,21.716739145316062
860,-0.7016205007152346,0.3510881144699539,0.41985296706831593,8.915036800041547,35.033942364166535,15.133160932764145
870,-0.971104233757219,0.06540823103039209,0.6732650029446863,-42.0338519374633,39.97390473394045,19.68996893184342
880,-0.7495992277597938,0.20116493103361835,0.16577988932059012,-32.220821894656254,35.03226434746136,29.319773261119416
890,-0.7374470461121289,0.40674608825805786,0.22972377725541912,-63.83232196162929,27.608508477957223,40.36832448261834
900,-0.6260250923188794,0.3999281146512291,0.23634992482378897,41.512054322624756,1.8845999243445237,64.87563921698546
910,-0.629443839378356,0.355110912847817,0.2490244294855262,44.26832509160597,-13.824545698344814,36.823944832821695
920,-0.7226768595227065,0.23265701839210468,0.352083491405641,-35.8099214284397,-25.53954828029959,-20.17979671544014
930,-0.7651099563089856,0.01615128197947886,0.38476428443859084,-16.480456959825286,-19.513065017768604,-24.698844105350375
940,-0.864433905207312,-0.03114068424407175,0.26582759360316527,2.141333716699341,-6.291779909354333,-22.268513618104265
950,-0.8095072652778017,0.11065623923248138,0.24381471326862136,0.06434846435705716,0.29441518271159234,-16.97641777289502
960,-0.7942266782459848,0.1038239724670953,0.26234513383385955,5.899332835577081,1.817808660662803,-6.266116532253685
970,-0.819641599175253,0.09937709531914536,0.245034066350199,8.135330699282111,-1.0975502998915734,-1.5113249875869623
980,-0.8157865558423145,0.11744812829643701,0.2638572657720889,5.841620669422842,4.616368335962006,-1.6185780776783647
990,-0.8185294411590067,0.11433258928204398,0.2582435829728755,-1.393119817797607,0.5100381425987601,-7.453774570866552
1000,-0.8184561905373042,0.11467130072471951,0.24809277806602767,5.652734992696562,4.3656155758957915,-2.9263390599252097
1010,-0.8315804536449545,0.10321043683576614,0.23376900352636412,3.3354856301044022,0.4175576754055683,-6.78295106750771
1020,-0.8483759488074641,0.08162647706412926,0.2252981678396278,4.912926859046238,2.0121345442378873,-4.473832588177198
1030,-0.8213382890946928,0.09674454035340804,0.2548940673260117,8.595592256739845,3.053465088870488,-0.5790129337553753
1040,-0.7941074749051568,0.11952729796624428,0.2708993451566266,7.294169173280605,0.8084497552735841,0.6836393149905089
1050,-0.8223827081946367,0.12110933927223197,0.24634029390562132,7.603871456226308,1.4475319861981548,6.299445339466586
1060,-0.8247114517118095,0.1120362849277816,0.2436204121210638,3.3095411507253587,2.4007946583036546,5.013576000915238
1070,-0.7919682635463994,0.14874533639388257,0.2836326188118146,3.4241006433152377,2.036381905336445,5.357204353497348
1080,-0.8290720532544834,0.10249935360817297,0.23595077436415554,3.539680735590922,0.6596269050112176,5.578400924715754
1090,-0.81964667477196,0.10714637950178647,0.24459805600074175,9.55001227245823,3.991035800027386,11.445728294119137
1100,-0.831031993883297,0.10150778179028026,0.23246320121807823,7.404652146220558,0.05222912520938716,9.25442497330166
1110,-0.8077843406153119,0.13793148127376134,0.2582116610252892,7.75761258559219,2.178631470515723,11.182261841449616
1120,-0.8641687789395213,0.09332150944310895,0.2079087109884511,1.6134306424818707,0.016183547910652837,7.90338940179724
1130,-0.8068820712255775,0.1521477440823013,0.2588141627864497,-1.045465412943055,-0.8790154430709735,6.72245413769893
1140,-0.841229812854209,0.11173996412909046,0.21436738860002263,-3.099791200275983,-3.2661295139519835,4.085056583322734
1150,-0.8177633104829837,0.14081482872796225,0.2464061283744121,-3.4854123124114604,-2.5870506087434677,2.333906956613502
1160,-0.8399075975942573,0.11421462188076938,0.22569386543332,-0.991872947544092,-1.7291011617641758,1.1694864917032226
1170,-0.813118507168629,0.1436652767702006,0.25555954255830476,2.8369010820000424,1.0093145368592487,1.8305934862806807
1180,-0.8044919742839995,0.15024958844232164,0.25384837138015864,-2.172022529742984,-1.313221594978796,-5.771463541702093
1190,-0.8078457712812463,0.14082552137949436,0.25643143655858064,-8.683049662870468,-4.908852699896262,-12.128833968863132
1200,-0.8107072963713774,0.12833305771911796,0.2572812992479411,-7.5912258061826,-3.2948716384291767,-9.996334099440379
1210,-0.7943861447061139,0.13789361538950626,0.27144221215836367,-5.637090373873094,-2.2828069116712326,-7.10830861521582
1220,-0.830476897336437,0.10100077145402091,0.2395383657492921,-1.3395778043382907,0.39090464473812275,-2.0554213465682967
1230,-0.8113731407839729,0.11841539643349439,0.2561390499804724,3.6162532444653133,1.532366444098895,2.0961889296597342
1240,-0.8106304896133631,0.12594284463281932,0.2541186983051196,4.577843953686453,0.10769489655822173,3.102077698891618
1250,-0.8058971861011007,0.13674958026111983,0.2728204301676554,1.3738143791026014,3.205772965629469,0.9384555322745145
1260,-0.8432033523423681,0.0916830419575734,0.22945456463984573,-1.707151152263222,-0.3039605450223615,-3.0178190825131685
1270,-0.8378326450267037,0.0950074632922874,0.23037845292034753,0.015728618356403157,0.17934973818324118,-0.4532592100277886
1280,-0.8298503906249526,0.10651195933574993,0.23379740653736308,5.1937559879645185,3.2866211407919588,5.71178481326315
1290,-0.8049145604354705,0.13548085847327415,0.25848657450107915,4.896522340020049,1.4784716453858475,6.153681233568855
1300,-0.8338349923551928,0.1155035117740859,0.23431145725592606,7.1988204906955655,3.1515603582952165,8.779257152747682
1310,-0.8513239028876974,0.10829124774195269,0.21831982607661832,2.8403272953095717,-0.15913591611859057,3.501090985570305
1320,-0.7870776061623126,0.1726425016114095,0.27759225600956966,-2.11070480903311,-2.2179725952980456,-3.306439022104967
1330,-0.8335060646852737,0.1224771534238985,0.2336076369642665,-1.2498386933535437,-0.18351854112687033,-2.3879941194233236
1340,-0.8017648784246401,0.1562271100489017,0.2592228826992389,-1.2864577471873184,0.645229002488442,-3.038984356902624
1350,-0.8186956761391642,0.14102186082543625,0.25228322550015647,0.24352229164359285,3.09933742834106,-1.089256001499173
1360,-0.8249344207507875,0.1278042465193628,0.23435592954681703,-3.5786659875418385,-1.2219889819861154,-4.8407993050149365
1370,-0.8170776364390163,0.1296042495462586,0.24513768375465742,-4.969529581458563,-1.8301898515580572,-5.69589628969414
1380,-0.806335291143556,0.14075186694763583,0.25725929595510383,-1.1446977215095369,-0.5958841095738855,-1.1754033766786416
1390,-0.8312782318840684,0.12239602937937948,0.23395347255353305,1.4357101710740914,0.44866656376145814,2.16975303498112
1400,-0.8196407534372983,0.136558832402073,0.2487025999761049,2.507007319203066,2.2082714304013993,3.5849722533868142
1410,-0.8284886040187174,0.12226615080441487,0.24032945895701463,-0.726949377216421,-0.43874724151746336,-0.014423342603395728
1420,-0.81996934047992,0.12651837561194657,0.24786502169065186,-0.8006796663567601,0.5126292032994129,-0.557999017188991
1430,-0.8171941583164706,0.12231071500002541,0.2501821609746917,-3.79128684240672,-1.90937621093138,-3.750300601571232
1440,-0.8288444918586497,0.11301281797584822,0.23951268898572725,-2.1141991891416096,-1.0280176120531284,-2.884120570499436
1450,-0.828974494940453,0.11658976140682177,0.23545720582860596,0.7265444037892884,1.3924512141568761,-0.1537608167731077
1460,-0.8087868284478784,0.1379121423906377,0.26043160168741675,-2.8721632681394142,-3.024941120636581,-3.6670310050853643
1470,-0.8324250572931265,0.11234879257009782,0.23565346214650287,-0.38366280573694267,-0.7157794036407797,-0.26898266450311903
1480,-0.8374089181102493,0.10856533113182908,0.22676118603367107,1.6875069573682278,1.7113717475717385,2.6922047506378806
1490,-0.829308540404441,0.1183917468755913,0.23338483578016256,3.1525128161577953,2.161615224574925,4.096908120337874
1500,-0.8244961424900809,0.12474455467388121,0.23862509037168914,0.9238722738884504,-1.474025340251035,1.5912404964174653
1510,-0.8359048784763888,0.11625590653664669,0.22958921604022287,-1.6520532942266621,-3.511665434980523,-1.1110423474690596
1520,-0.809566418648113,0.14089427843825617,0.2637176682763183,0.6962672692841464,-0.5406980657184133,-0.7664950075088568
1530,-0.7796164029289632,0.1695734154302245,0.28703452834343324,3.014020076523125,2.2095179631594597,0.6548525051934676
1540,-0.8062195642986361,0.13706043177639315,0.25346161232815145,1.6330254587422393,1.1889977207885685,-0.1556469361648225
1550,-0.8237553192394127,0.11994496474750878,0.23836000609529068,-0.22927062295175438,0.15546128970255324,-0.16288395120944832
1560,-0.8147145268882459,0.13453324697661623,0.24920572173447458,-0.19436803182121304,0.6830661199685527,0.8472377077114068
1570,-0.8066334781841397,0.1418570298911416,0.2586539844115715,-0.5507149095362348,0.48829228574714656,1.3641621627655276
1580,-0.8094837577297831,0.14607690429933207,0.2575383101660759,0.8242420448543296,1.277414239683118,3.493951430563928
1590,-0.8427106476733357,0.1224927425263893,0.22664480311907306,0.010731654847596306,-0.35333956287408996,1.923736909593721
1600,-0.8029159805861028,0.15963314075650298,0.2665056114445625,0.49771089048645245,-0.20263839940510042,0.21508393799841763
1610,-0.827356798471701,0.12666415664114006,0.23649387907203992,3.18532606305911,2.5301553384617725,1.5558724587371389
1620,-0.7961998547613741,0.16123987434460713,0.2622764257232212,-2.266204549890557,-2.85598987424354,-4.0961299078119575
1630,-0.8284099742712198,0.12093468174577889,0.2373962447939462,6.612475242825264,4.289804033934411,3.1534034339040926
1640,-0.8185414433801075,0.13290812208909694,0.24660045653885712,3.398134896108485,1.1044262678160217,1.3882363303141416
1650,-0.8184066615754023,0.1373378618673289,0.23994549616648983,0.8669262335714358,0.5767737412255096,1.7141645141675956
1660,-0.8146371357388097,0.14308202924029623,0.24576371706681185,0.13726251011410412,1.0000263566322891,2.4143014051966447
1670,-0.8189648650996975,0.1384439627072438,0.24222792391159068,-1.4566545693605835,-0.23393505203618242,0.6338053744849221
1680,-0.7947645199420984,0.16364537679798916,0.2676693353785405,-0.3242437563477072,0.4888536449636773,0.7225770592550383
1690,-0.8030702687781278,0.15426549538897358,0.2602703962722904,-0.4098944387032121,0.003570096308230797,-0.2629657782292941
1700,-0.8356571084332345,0.11955399498212782,0.22616911622804575,1.0379736795528705,2.0313857831470674,1.1846719836698347
1710,-0.8151149165802358,0.14719122047157573,0.24939418878731548,-1.9777327800564208,-0.38782808765557836,-1.2024579264009356
1720,-0.7983871248604995,0.15303648167887524,0.258779850949584,-0.5269905642707389,-0.8413761569879572,-0.3813316437164316
1730,-0.8082090834055023,0.14881147696326533,0.2508338019199301,1.8471503128581674,1.2060663684867892,2.0234203305990985
1740,-0.8158833533392458,0.1380309261996103,0.24148470665026014,0.7571743639640468,0.39709823745445916,1.589812335693538
1750,-0.8202091905974127,0.1367128949989711,0.24006896334880878,2.490226935131415,2.824756745917047,4.392316936011818
1760,-0.8255981036476746,0.13702484758199146,0.23462424911969562,0.17313010527075912,0.6918458451599846,2.391052312838214
1770,-0.8535637860384733,0.11017851085396066,0.2103983442746204,-2.680340568744403,-2.465535475583396,-0.9011932226843364
1780,-0.822737956534922,0.1413505293996439,0.2439670619148493,-1.11134047619671,-0.838009607171548,0.5237349283145962
1790,-0.8347532993775448,0.12901734532586512,0.2304478955895945,-2.093241742251001,-1.3386124615862667,-0.549019932445026
1800,-0.8358846836687969,0.1227174494689285,0.2279841133992433,0.5436814498048,1.5180295273026905,1.1971554887437463
1810,-0.8185410452107685,0.14253048304178928,0.23824998781554987,-2.665551657976797,-1.4573376200411663,-1.9831931579964628
1820,-0.7944078466475393,0.16501656666628833,0.273959843055837,0.1337344649987503,-0.2768126002558061,-0.42312446172620893
