time_ms,ax,ay,az,gx,gy,gz
0,-0.9633847122021568,0.41557641761648,0.32842125871948563,4.287341181542347,1.4894816828611626,4.91487274407213
10,-0.9206028542916882,0.46357565949436985,0.36782928320705804,1.7270201135269354,-0.15713856245152652,2.147877378023542
20,-0.9533350771587968,0.432700695486114,0.3440752863323244,-2.2297383571357905,-1.054529198926829,-3.095537698015483
30,-0.9665025641993642,0.4113732654491178,0.3295512683190943,0.2602944579487413,-0.1522604865445334,0.5017724549541337
40,-0.9295144205189712,0.45284533255279874,0.36809454246592976,1.9307795129259078,1.8146993409950785,3.443024722750769
50,-0.9552472243392301,0.43054371353535237,0.3340635896317714,-1.3972436418951555,-2.1449767054513624,-0.6007223338403191
60,-0.9356531131732463,0.44759607056829875,0.3586727335739454,1.3608390853551593,0.39940697064782105,1.3480704922682119
70,-0.9356223932591357,0.44672639453340707,0.3553423952650335,2.4066520560738383,1.1801972921571668,1.5911168842054848
80,-0.9291466835975728,0.44998569917134934,0.3568762769862701,0.6175281639825116,-0.09824034295455969,0.2803056972757055
90,-0.9305142098473403,0.45022406262159054,0.35229224133796166,0.46219508811438836,0.30902713660497144,0.4054362302390245
100,-0.9414212573868633,0.4435805508160167,0.35199465840150207,-3.173353470720935,-3.0001457783248835,-3.1307068601849153
110,-0.9460901323535928,0.4379923233504269,0.3459339323024379,-1.8664715847850595,-1.0881992952045834,-1.7367935885633208
120,-0.9275336556920805,0.4640595989205133,0.3661805099396255,-1.252888209199573,-1.483755980120784,-1.1601372412429707
130,-0.9448825530364091,0.43927568750198115,0.33845399409900123,1.1806682944306013,0.5922975528688327,1.0039342196502037
140,-0.9261609515103588,0.4566601747056292,0.3701337765962839,1.5688671865235733,1.2696553396212136,2.1364758694458796
150,-0.952653436460903,0.43203090093231117,0.3430383225008719,-0.30031377047810454,-0.28103764885081295,-0.5172062302132712
160,-0.9326672866617675,0.4479505980404815,0.35747938165865695,-3.436362183988813,-2.9890852096458262,-4.721587685086312
170,-0.9409809115145498,0.436977866254504,0.34660807908468605,0.345312784688496,0.7396801303534479,-1.1092760481299955
180,-0.9399210388429161,0.43406394033854295,0.3515706893748421,-1.0406422951521845,-1.120206146167296,-1.1000129362595095
190,-0.9300975072842255,0.44899654391012495,0.36454288632081877,1.5049410816875113,0.7617939224171952,2.924226808203957
200,-0.9261738907008426,0.4596654331524614,0.36655632686415746,1.5902824895549643,1.3752058731689616,1.9071962417383577
210,-0.9610961481682652,0.4178448921261813,0.3273487531112323,0.8817994827773472,0.8890910521463218,-0.14246939436936978
220,-0.9337227407705772,0.4441194322983744,0.3552132817202574,-2.5376578241214,-2.9716199502139453,-3.4741621227158057
230,-0.9322371749932269,0.4482373418098144,0.3571070357255072,-0.37390001648550464,-0.9129406254601327,-0.7028338686755058
240,-0.9362910544618709,0.443611507598694,0.35150099152513004,0.9782566982663918,0.00814038764143482,1.0247955348764979
250,-0.9423985096811022,0.4421687280455652,0.3468966272233992,2.9827608345764824,2.140380201299532,2.534027339933045
260,-0.9417722526496964,0.44119009083363697,0.35269145002481495,1.316017472947451,-1.0582295360049008,1.553398144406089
270,-0.9666153999169317,0.4149053060543516,0.33074266991544754,2.021635151478292,-2.3660866429591207,4.353320120699827
280,-0.9628022478445386,0.41866249348985385,0.3379927559821494,6.630443510828336,0.6183465761693862,12.43332626104776
290,-0.9365837808353482,0.4388295293218087,0.3610000221681939,8.953585977056363,-2.7127519632549504,19.25285395601514
300,-0.9711615399664089,0.41221706046398027,0.33734395649978777,16.91424197790826,-3.21852294603148,29.283542043828987
310,-0.9514422577693242,0.45473695562268984,0.3694556731804373,20.565646073927045,-3.8945929173252516,33.580163920567905
320,-0.9826436276741494,0.4574080450155351,0.43752137696070786,3.9460836497823184,-45.92398201190763,7.986316517477336
330,-0.9582992652717572,0.43840360186499033,0.4176647298024259,-12.277284366567565,-85.54065008024075,-15.814762882365876
340,-0.8219005546680934,0.4821597685693346,0.3565096709935804,-8.06811846954464,-76.68774854238265,-11.364000999093651
350,-0.7695763270707245,0.5167455275738485,0.35019256724500963,-1.0431067965639274,-61.96399137900007,-3.892864450777537
360,-0.7516741882138488,0.5423389399077384,0.3300132315145117,-3.5954387691915013,-45.07302418166687,0.6763898120899321
370,-0.7664690463342104,0.5743155370091608,0.3404320219214809,-8.21310674704773,-19.785805437195968,4.027344505651372
380,-0.8544812428967575,0.564250810948438,0.411804676236425,-22.10710194298248,-2.512220356631233,1.0682639301143078
390,-0.9587997711737937,0.4780023238462477,0.4445903594402309,-35.402357345007424,10.064145944232251,-1.536465297663042
400,-0.978963292006837,0.4290877078638142,0.4703228627308766,-37.47477061112763,10.05090740705169,-6.038351865098362
410,-1.0944979651710958,0.26722901870219107,0.48931774639798825,-39.94730747006306,-1.2712000393980911,-19.380170623137115
420,-1.2036150797410803,0.1750895219290018,0.4804179044506122,-33.366794365276526,-13.766925190943072,-25.28051567121561
430,-0.9795797465628389,0.37193413964519967,0.36127145681322326,-4.923757562860879,-1.2295112823466579,8.1626647524946
440,-0.9297077051042177,0.3598901226034357,0.42698578950212757,-4.574140605851898,-5.415043629618862,8.68917873593131
450,-0.934142982450434,0.43147921842649417,0.4848976358081534,-7.206084250573818,-10.572572533581026,-0.4313680698535055
460,-1.042167591238464,0.4591688875640464,0.4090638171644959,11.681630952193396,-9.473796642171003,-2.5207652897635215
470,-0.9490384112482175,0.15751765250809194,0.46879244593683683,22.090938956957515,-10.106565979607737,-18.211534876003295
480,-0.8438316913380208,0.13557271365627122,0.7950570436755685,17.629801269968944,-1.2525152813132627,-25.220944938720532
490,-1.0378674955733445,0.5184903068597798,0.847921735725805,39.03444383883393,1.1535501567965407,-13.911281765991886
500,-0.8097634906236817,1.1171607297020572,0.2691266217087831,57.60040661258674,12.156848028630632,-10.419289793414604
510,-0.16487699173964482,0.7410969727530872,-0.1810835001090958,44.15155403603677,22.526857618450908,-16.76851069432408
520,-0.7316405734549523,0.9161176590444393,1.159231497888203,43.05716033309912,-10.145057597015255,-3.104943335825797
530,-0.8128018356806929,0.5523184805230013,0.40133435489666425,-3.720862201244809,1.3195532312755256,-0.539575344419706
540,-0.8346259497415972,0.8783356011538246,0.48216797187386706,-16.485508814719513,10.682935115867995,0.6505262998397319
550,-1.0108623735878748,0.6347021530742532,0.48365987346028044,7.087677077738843,3.234952647192161,-2.82361186574676
560,-0.9397320211623332,0.5049392292316031,0.40813272380452964,-16.623191574723666,5.133616884761985,-13.092856679560988
570,-1.063860193896549,0.5489159129230989,0.09279527484732815,12.54897184585655,24.246562490681683,13.164064858748448
580,-0.9423246668846893,0.5016866523142329,0.46830401338536154,28.181970655282996,27.408756637607432,22.50350062782772
590,-1.00323256924815,1.0691688063343618,0.4631761454419679,7.98926974559942,40.792369852272834,19.644015889106086
600,-1.0053449306737974,0.49709855773001427,0.6562475496451133,-43.08740925509748,39.46659287928781,23.488351645958517
610,-0.7465885636591559,0.9055154648027339,1.2626486404136723,-7.517652391652875,14.356436504722454,42.13096273037069
620,-0.6458730799641975,0.6044291328819198,0.5130597220824719,-9.136672359765997,19.913898726908993,19.375330189696506
630,-0.9172246011164845,-0.061107245593493884,0.37008183171606013,-35.486794752472704,8.13274595670105,3.5618213732590585
640,-0.8983046823799277,-0.37178635923333886,1.4208330381829597,-37.28426191684878,15.898584379404308,-17.458265151875658
650,-0.9238564381463071,0.17109467504514983,0.4271258713644531,15.69564529895323,-5.014661781248268,-8.139519337315411
660,-0.9400330158244881,0.3070250808146369,0.37671104589622945,9.469480497738616,-5.084359773811094,11.333408537612225
670,-0.9355972401816148,0.39772486765191783,0.41058393769714663,20.82532875877957,0.013901322544527694,37.36013750752689
680,-0.9368151502467602,0.34884770247476343,0.4222695282518392,27.194490543682736,-1.7566328377001794,43.45143620064257
690,-1.5596786900896398,0.25661397224329074,0.1819190501860643,117.11275208069483,-16.06357485671965,-2.30214572354726
700,-1.1745727573014286,0.7589663766829676,1.078710045209746,80.2500097090511,11.042325210254301,-12.111997343733817
710,0.07329075063204932,-0.2670990181331005,1.041791106969373,-9.710168273750492,25.950275205907587,-45.75172933697428
720,-0.9885554736837736,0.40788882468028453,0.45790871064458183,84.2085067017681,22.756149557194373,-2.960543009219214
730,-1.1403775241059513,1.2589739597372291,1.5349785112461318,57.91222322692931,49.36911065048521,5.904150464388072
740,-1.2107882763345228,1.3281286975590065,0.35038953967694797,28.77429117265845,35.028814480312995,-6.011527953848118
750,-1.0421890725454408,0.4412336088142476,-0.0049515502831652715,-21.011965071221667,59.71260772470966,-42.09008006994456
760,-1.0727307616281136,0.8753160119430975,0.41733381276601067,33.162779474038416,63.658289583748704,-9.80150033427021
770,-1.0787014699476183,0.7181370321118269,0.30442915604588316,10.228458888649794,63.66336972855466,-3.132522115058757
780,-0.9618224589140845,0.5513705973359336,0.09684921418685748,-47.51459356049536,43.38883704524373,-11.66849880330976
790,-0.9542857490010748,0.47822631122930753,0.42971030850628494,-46.79939152537442,43.03291596988163,-9.69356074318574
800,-0.8806330970234216,0.46388524667044234,0.2441993060151852,-17.115207195890225,37.53004928703496,3.773372824875569
810,-0.8377196760268604,0.5212774855727329,0.24109828883834145,-36.24797700150234,12.62357452191613,28.457498411599346
820,-0.8858284254976185,0.6968301469626134,0.0264273010480412,-33.88873136112724,-5.722370713372015,27.084245571115197
830,-1.030042277248659,1.4563209911798245,0.6155996872333194,-29.138305981501407,-26.797343782272435,31.3541205338851
840,-0.932967584081054,0.7409904162039739,0.4236503978057801,-25.176633899776828,-14.327555383307033,12.118598008775574
850,-0.8274898030601249,0.09162124394365423,0.17883256497164463,-9.867271960669076,0.0017954601866922992,-1.3255835254911297
860,-0.8883441802750538,0.3255679981049742,0.22880541723776696,-0.09353736322637984,-12.131541006794286,8.930932731586434
870,-0.9053822657904406,0.31699659737481667,0.09182622648207978,-7.601626462281967,-13.159199506306356,-5.216035632399312
880,-0.943435392879296,0.49151718370938874,0.3673885210045974,-5.09361361204148,-9.099985755132694,-4.9971416172804215
890,-0.9672306299387097,0.5215014664668316,0.5068806557446086,-5.3833317726092105,-10.286314273787362,0.5896964303505442
900,-0.9370181020860099,0.4340785449103517,0.29964359030734594,-2.542628958551955,-6.793238327423424,-3.1530406528279764
910,-0.9297901094767356,0.44038075221308365,0.26179172332370354,4.813791694301573,1.204919410570824,1.208288380439364
920,-0.9307524183637318,0.4696186505971594,0.34610884168535183,4.398472028279627,0.6499811675960987,5.300125529892899
930,-0.955166929063327,0.45761528271748586,0.35937041367452693,3.0357083117534813,0.049070080936252536,4.894015865399928
940,-0.9690330911022963,0.4285102421265921,0.055749334262175015,5.719755861003041,-14.427885280434072,0.3009077496366238
950,-0.9275427619165327,0.47876523582883695,0.08641632488315426,-2.820786196782583,-18.07620637187465,-5.347815626303378
960,-0.9808562911191678,0.5044857491804366,0.24944045469002255,-10.618264197910262,-14.989153227550446,-9.32592302060702
970,-0.9683722441631434,0.5050666169449936,0.27395646696584114,-0.06225528272168135,-6.212132363041605,-3.361531677298924
980,-0.9616423199212799,0.4485359497612595,0.30687973064827717,2.433385835240743,-0.812482294043825,-0.43751421479970576
990,-0.9527025072660019,0.4537271342307746,0.3404920961453012,-2.1050094612851633,-1.0115493452375017,-2.639890844097164
1000,-0.9702273970125992,0.4229313461892122,0.3135362691977001,-4.782364363395553,-0.0562299387491314,-4.764754705815481
1010,-0.947498845031179,0.43570874099815965,0.3459956636827224,-2.678229267432599,0.27659721470553733,-1.3594714374839065
1020,-0.9718064005418268,0.41185595208784564,0.32597872562109037,-4.8126482578569005,-3.930500229688686,-1.7757188229827752
1030,-0.9645012024491149,0.4164434609690383,0.33331929067257243,-4.228080308081223,-5.369421671131268,0.7178025942023467
1040,-0.9309816819192547,0.4561261059464681,0.36546892352615007,0.2050802473838148,-1.9994873233771022,5.901509239324489
1050,-0.9406776637195204,0.45365684994999883,0.35205847203220103,-0.10689455497139308,-1.1021126286693834,1.9467597140867485
1060,-0.9471502096102477,0.44699868636812684,0.3477995181798113,-4.479803035180914,-3.7712840982169107,-7.747570053367073
1070,-0.9472473120186997,0.43632666454251595,0.34944721805637535,3.0318612549907438,1.7203146325824854,-0.5296078091559866
1080,-0.955822924475203,0.42292301041235253,0.3427238019074063,-2.0212908067315563,-5.205683155777384,-4.252773157744255
1090,-0.9521410732991303,0.430314598701685,0.3479710903166103,4.262738267287937,1.4302337378838217,4.961499559375232
1100,-0.9385880557129151,0.4486599444771837,0.363740617133719,3.144042307547569,-0.5973508110358902,5.173481517205196
1110,-0.8994286535480344,0.48985566641742145,0.3988694957788089,3.276046387674756,0.20655605159373308,4.145454266088041
1120,-0.934085091519082,0.45524544422034613,0.35866302258573945,-0.3120894171420754,-1.4392775873453976,-3.2892633229689956
1130,-0.9317271657981506,0.46093113644398187,0.37021430995276816,1.702080127520561,0.8964477162332749,0.07914926826374002
1140,-0.9690589627891308,0.4189800795646584,0.32877609177317596,0.7288629166357454,0.019015091644494497,0.8443738647791117
1150,-0.9315208697104634,0.4630119273921246,0.3757974325997933,2.8086684214058124,0.9278903329962277,3.0613903239033586
1160,-0.9508970265523305,0.45235060139962785,0.3563057813390028,0.3726629343530078,-0.955353113104586,0.28717980847566793
1170,-0.9423427332690342,0.4579595369240748,0.362142556201596,1.6406547698884713,0.8340226447005863,0.8748321765029101
1180,-0.939114826645992,0.4424936342098745,0.3573265210264116,-1.01512892031145,-1.6519344574977186,-0.9463385137454775
1190,-0.93123903175983,0.45333064844957455,0.36369422644334004,4.569696191406626,2.4828418846635993,6.714744895139569
1200,-0.9308397963577719,0.460007096136988,0.3712176674266196,0.7624646390198255,-1.0955577844870112,4.342124080894526
1210,-0.9407712026903227,0.4589958411877129,0.36571363402984625,0.9291416693859562,-0.5109335603250953,3.430289585203958
1220,-0.9526076112724378,0.45526356041951543,0.3516231347739907,1.685658849790591,1.4024793388434664,2.6080903129571573
1230,-0.9579679589355133,0.4440118895517322,0.34313186402215257,-1.0780243392651405,0.4443200972732348,-1.0885153706665955
1240,-0.9311313376641799,0.46055063350939596,0.3731491981273965,2.74676173036451,0.8853346208079983,3.139300874860439
1250,-0.931067670825968,0.4701182653317927,0.36588198489793267,1.1078792352117073,0.7287607978270372,1.3057201841360417
1260,-0.9474172002498386,0.44471565089783516,0.3508640652693239,1.7146492744227073,0.378032754860426,1.0528236963518307
1270,-0.9318026161302989,0.4597443354943692,0.3648672112572808,1.969239000938481,-0.8257418795427555,1.257582287376125
1280,-0.9500069200129424,0.44684621996867896,0.3496887616523998,4.0096113846373695,0.31145737198563483,2.9203083806341525
1290,-0.9471028110399414,0.45244357962176096,0.35995683613384377,2.0755393520047263,0.6026051297521029,2.410798345163437
1300,-0.9740460014039278,0.42353680712392067,0.3292142995263172,2.7733200511441307,4.4042016042483265,2.084092782129539
1310,-0.9452470840250805,0.4505731367829353,0.36169185369232376,-0.7149411106955098,-1.1142551227339927,0.13761736151090664
1320,-0.9306567020822832,0.46168696194642306,0.36215617159845587,2.993418936167328,1.8495113076350531,4.7189897512566255
1330,-0.9310495655490884,0.46199431606775104,0.36908243011935976,-0.34873541930975505,-0.3953011338236313,2.357257644975819
1340,-0.9312039210511419,0.466944782052612,0.37034469659255104,-0.9413380647655782,-0.3670543490000596,0.6089773482992284
1350,-0.9493380621662159,0.446244298350825,0.3580964953691438,-1.6178478059455195,-0.4525577623311104,-0.8177924296136225
1360,-0.9471293992923023,0.44676458652238643,0.3555725583072835,3.964113795487104,3.2438134911850085,2.414908099961443
1370,-0.9158404415114152,0.4789640344512032,0.3843170928374791,0.9259124785788276,0.828867576643298,0.11791880587910786
1380,-0.9448843775626276,0.445377010469969,0.3504854917863472,0.16591882597994745,0.10134869178226158,-0.4196082871593678
1390,-0.9553042883280684,0.4354582213693454,0.34598038818199695,-0.6611332103305608,-1.410419948581922,-1.1331323907454052
1400,-0.9389073977243937,0.45725924105530685,0.3637130527421636,0.11809343494007196,0.33051481582617837,0.14503149901470624
1410,-0.9454128777145505,0.448753481315503,0.3578152429052967,-0.7192151122444357,-0.2524101265201357,-1.0064947764107415
1420,-0.9065309467313413,0.4919395901028904,0.39238728108939863,0.030057663090777176,1.9957328959226202,-0.025498108988300405
1430,-0.9342291597249622,0.4604053972259023,0.36576187280172423,-2.0063233800156857,-0.38401205151066437,-1.369712129935901
1440,-0.9288672558220705,0.47044915081216404,0.3748927196621877,-4.1606970909952175,-1.0871549876425275,-3.070211269461229
1450,-0.930616052723,0.46999373869870475,0.37434157219609765,-1.9187246811921468,1.741076519519966,-1.3543801023866942
1460,-0.9214774839848054,0.4760933949152929,0.38803592038108853,-4.777061632501587,-1.220926794513716,-4.837532589202456
1470,-0.9448629672730362,0.4481530121091376,0.36755140184568835,-1.7367909817082865,0.8213401425326052,-2.5403667321132524
1480,-0.9549100600515694,0.4415132680468077,0.34698566035611994,-0.15405735539212045,0.40082662663487534,-1.525735353672826
1490,-0.9373798362579474,0.45620658305075,0.3615315805263072,-1.1321109113348953,-0.49350406359554366,-2.04418614657921
1500,-0.9610570018074561,0.4234359627429006,0.3369798998402816,-1.428934860533826,0.007990113428461398,-1.0413706696807765
1510,-0.9582082034571204,0.4247380898740045,0.34222765500498453,-1.8623012176290454,-0.028166127654656925,-0.12900007202840166
1520,-0.9180272453098254,0.4685227305604327,0.38362902761806245,-1.4674097893813267,-0.10501650565176146,0.9492394212881767
1530,-0.9528222652071213,0.4367174459717887,0.34994459543108863,-0.8617966293422805,-0.11743356357838808,1.3716155053094679
1540,-0.949129775411661,0.44652835222282794,0.35303294576274097,3.640606168562233,2.740863761787156,4.491754427404742
1550,-0.9426385868508222,0.460342964750412,0.3552997864038003,1.1040704553113467,0.8937397643718559,0.8372589951185201
1560,-0.9277082153661307,0.47107857146238064,0.3653106618469669,-0.0016210640194774806,1.3818098265925132,-1.5193013643652034
1570,-0.9516289814832973,0.4407929148935579,0.3434494862409915,-0.5071482883817615,1.376043161944716,-2.23250828914985
1580,-0.9586104343207448,0.427768664775882,0.34157050187634275,-0.990851964816402,1.1230774802814452,-1.6046631058911722
1590,-0.9291056149900229,0.4538906291542959,0.3714805518743087,-1.197614634127248,0.66794782752207,-0.4545190964079229
1600,-0.9429256154699656,0.45310343950623905,0.3621233567795308,-2.201026141159219,-0.6129483420379778,-1.3528953610400816
1610,-0.9468040587841661,0.4546567959389486,0.35991779200103685,-2.081154563161176,-0.3872102479379791,-2.7992725612652407
1620,-0.9532653748542916,0.4421980845060451,0.35212876687032835,-0.8344917245739808,0.8525775569389067,-2.8766136019423203
1630,-0.9389521699354555,0.44958852999072274,0.36705019177216447,-0.8038215338205372,-0.11936408066860416,-2.7982735724186294
1640,-0.9339915125094748,0.4478967202419593,0.36702191641261456,-0.41232671570003543,-0.8980764603161883,-1.6533503581963407
1650,-0.9556959081013825,0.4265037733332955,0.34307534855887767,0.6130181712817215,-0.7490417605788591,0.35336044568045955
1660,-0.9455000266878423,0.44337901790196377,0.3555130439886975,4.430884887643844,2.337030856212963,4.745222061749232
1670,-0.9674427215567055,0.43240659413711896,0.3360516857826002,-0.41317956685776336,-1.0729401077139826,-0.38377816239945206
1680,-0.9301348547711975,0.47059043060775124,0.37422448832814653,0.24447249482159694,2.4040112459617564,-0.3978948801246889
1690,-0.9547445236338137,0.4428133339654529,0.3482121797516052,-2.003707736382767,1.055291936238319,-3.474375456817034
1700,-0.9220988475459172,0.47789271513574244,0.3817451077517133,-2.115872953163053,0.2177428599318716,-4.48104118236117
1710,-0.97596478883271,0.4177867478341048,0.32439547160737736,-1.5741428211571997,0.34076552467917065,-5.040157774266075
1720,-0.9174638798249272,0.4696304823035243,0.3808881878073642,0.20141461109226566,2.318420906097206,-3.469732299877879
1730,-0.9457714091883465,0.43635599602118164,0.3481890663864295,-2.958648558175324,-0.5619467525088471,-4.956443787141502
1740,-0.9432811315017436,0.44446636906354153,0.35613538432722885,-1.047747625910317,0.9511490286623021,-1.6931137554618885
1750,-0.927617420793133,0.45853184026827903,0.3703879503417324,-1.0923431532179921,0.7422953660355992,-0.8294783224712438
1760,-0.9672786547850619,0.4160784281075504,0.32537819865551426,0.12045144371946997,0.35103915239742145,0.34412226032983073
1770,-0.9313986480310328,0.45072157771442867,0.3616341141593328,1.7566102559164494,0.9113812394712787,1.700369725382871
1780,-0.9469313476027194,0.4406700776159179,0.3494300956066011,1.6988960402474071,1.9957384571734158,0.9665919060084006
1790,-0.9152972915741043,0.4643500984854681,0.37786788726704434,-3.955262366604712,-1.035520416128631,-5.422819328995267
1800,-0.9282748553923357,0.45015958427145836,0.3662350723404808,-0.08794017526647235,1.5242563185753422,-0.6993765376652927
1810,-0.9451916433490427,0.432611369871651,0.34887980135324714,2.8389740208680028,3.2363832260057657,2.2249198681762676
1820,-0.9541449762137839,0.42320396170083896,0.3437315473850804,-0.8812792672380911,-1.7234404464895796,-1.7946442209838125
1830,-0.9645217387843237,0.4164856577454381,0.3402760034435041,1.9459840508826103,0.17256500560220872,1.0163860166881296
1840,-0.9516268806003488,0.4312195277313244,0.34857016557554904,2.1286150550458043,-0.003725018529060242,1.3155500775646047
1850,-0.9567096014024663,0.42714951582790184,0.3379156015384912,-0.07679267660742961,1.1881953823018128,0.5549598443074175
1860,-0.9123736999871106,0.4686512213576497,0.3796281035903322,-3.1541562228503963,-1.0266738940054632,-2.4251543596077743
1870,-0.9526621658188941,0.4248913240988142,0.3450513232199473,-2.1189420377663453,-0.6158046668823816,-1.0218806965208262
1880,-0.9320375145911869,0.4475673985167682,0.3647992952517533,-0.5839304674706594,0.06561966083776793,-1.085364506455799
1890,-0.9384934375491597,0.4423475452554154,0.355778700707391,1.1862296245328894,1.638074532766407,-0.4718387989851863
1900,-0.905493978903911,0.4717332138082828,0.3865754831912729,0.28860116208143216,1.358480726839609,-2.1324934293898736
1910,-0.9203029113588725,0.4551362281528374,0.37092230846471325,-1.0084611966660308,-1.4530065509282162,0.5488357934764327
1920,-0.9634393184206341,0.4142198932410278,0.3317132476900735,0.7539276417102971,-0.06844715145200564,2.4576738888069247
1930,-0.932685104921983,0.451761200772407,0.36882947126388715,-0.7475277354585693,-1.3707374570129953,0.330985157724738
1940,-0.9351016411619241,0.448783535759291,0.35205918403241215,1.1540969847842202,1.1519642423572107,-0.8685158138486282
1950,-0.9207194997788661,0.4660274519332412,0.3762396028773167,0.7292319551717721,1.3545359560469683,-3.222028569866208
1960,-0.9518021339300166,0.4205887737159004,0.3405525483573607,-0.19607155202693238,0.08186685471260968,-4.744525406899548
1970,-0.9506298930518937,0.42805311341985763,0.3494406689235215,-1.231255091931037,-1.5185280941895298,2.6625335213569516
1980,-0.9411686306791068,0.4488816127188857,0.35663347106628757,1.676206652512478,1.2233750950129652,6.017686050889406
1990,-0.9229144055337771,0.4596242663782377,0.3682029559621575,-2.7224008724475963,-1.4005540117991688,0.4990267686149491
2000,-0.9353261738250684,0.4492320415940061,0.36544565674121926,-5.2046360799781315,-2.9425441027599497,-4.673398069559603
2010,-0.9312967264295893,0.44569467137176094,0.3625018589000167,-7.269642607138465,-3.2513022039803516,-9.291362306405555
2020,-0.9345697196050413,0.4414206674733276,0.35916082081352024,-1.3060401439038085,1.8009840899147294,-4.234125874646134
2030,-0.9460621495008132,0.4233681581857276,0.3452185796982638,2.7580770093579456,2.320790683529275,5.270583125023417
2040,-0.9541442530991308,0.42797669215197737,0.34503214341437305,2.0437339669498726,2.093165858823114,6.523008529838004
2050,-0.9355119719448204,0.44751823998158224,0.3598900888134088,0.013630401541789405,1.8102899574264482,3.364732494340882
2060,-0.9407403520843101,0.4356239178726625,0.3516506114080906,-0.6274528638908548,2.791386209581274,-0.049446193249257586
2070,-0.9468407313345041,0.4223737859438367,0.347293375978505,0.5924826670970642,3.7172887161308523,-1.0024786048202379
2080,-0.9386351716006486,0.43745202246348686,0.3536920341689501,1.3067820000689039,4.190880172663957,-1.447383192452941
2090,-0.9782617031485153,0.39509640087184467,0.31094053512216546,-3.146913848029384,-1.9969904214598302,-3.400273556575147
2100,-0.942218968744379,0.4282620360776156,0.3439750272677413,-0.5688323897323503,0.5154019885004373,-0.14693605822477163
2110,-0.9672531567823505,0.40567765343889167,0.32087139695136524,1.9853756702077479,3.0313586617818027,2.309318308378396
2120,-0.9370007369710955,0.4317178869503042,0.35252834292614615,-3.3424093021259513,-1.6705119687449834,-2.9661338782127107
2130,-0.9328330212540296,0.43541531543611256,0.3610514287963617,-0.9200908797041266,-0.03033190914186501,-0.7102305502391779
2140,-0.9581669749989542,0.41844546944650524,0.33660398080157333,0.4827298773344072,0.2213902915492481,0.007498813925499295
2150,-0.9604925294928628,0.4086017082562008,0.33583789024143734,0.7423781730652728,1.1407836190046705,-0.7011680442477515
2160,-0.9399377692397102,0.4233397750177421,0.3506462709523523,-1.4167830640929595,-1.0405914758693071,-2.5628755921538287
2170,-0.9570604416857769,0.41100432827548905,0.3320920355086417,1.006874724564423,0.7480734085575533,-0.07536457969839935
2180,-0.9292633363859873,0.44466411276564755,0.36066106083646904,2.5307708755927854,2.5231564133072846,1.5627014436457958
2190,-0.9494380604152199,0.4295206731018564,0.3423292511610831,-1.1739263904642572,-0.013867837781449954,-2.497954750007823
2200,-0.9534241727029623,0.42019915220878457,0.33945905531353804,-3.6123877243824722,0.9649810093192825,-5.189885465159308
2210,-0.9536234766927109,0.4103325711596321,0.33562216542550166,-4.631146374265702,-0.6725869544910803,-5.331611286972526
2220,-0.9578414451954187,0.40296397537735273,0.3299926955454118,-0.8545403625547712,1.2918520959880226,-0.11171574364778158
2230,-0.9400417163706091,0.4200099875515468,0.34855789663674147,-2.840878128090701,-2.2074964778871986,-1.0015266187510974
2240,-0.9242860585417999,0.43798426857419925,0.3640556169427889,0.9321888429613903,-0.27373359936951114,2.5005092884513545
2250,-0.9202082151061691,0.44701335433634987,0.37033119097823236,2.239072848960235,-0.1464700136221878,2.187661931511839
2260,-0.9530406938818297,0.41675217437489714,0.33087562832182904,3.310804678801647,2.1047502909547307,1.238009241324006
2270,-0.9487377408929619,0.4126227815944126,0.333932910821513,-0.17197001698828052,1.4484519814259906,-1.4067152558483362
2280,-0.9290952918999711,0.4274835367277468,0.358390537654009,-3.918034544497791,-1.1825793491927687,-3.118740214378955
2290,-0.9600267068478736,0.39778188255562336,0.32508238079279356,-3.0804113258532437,-0.9532077715263094,-1.439593238671336
2300,-0.9473508392462548,0.4078443062162152,0.3361593302514997,-2.2690868653677794,-0.7165469547179015,-0.7825140159399872
2310,-0.9508188671750498,0.403891822964824,0.33657006372219833,0.011568421411776747,1.0217383582854382,0.3932277351083998
2320,-0.9347180705099261,0.42211752386311663,0.35379913257855927,0.8276130464067926,1.9581086552124212,0.465490408946862
2330,-0.9321547195936235,0.4280203948560297,0.35386486592352984,1.194249103381595,2.1534538509345382,-0.45630797502921183
2340,-0.94987837694875,0.4103842609597517,0.33499526495799437,-1.2225588212385452,-0.9716019875598179,-3.3956973347212704
2350,-0.9619120115320273,0.3950793304925935,0.3210219315174283,-0.49439710157194605,-0.32909493441610826,-0.9572739130696757
2360,-0.9235904162382816,0.43114631630972067,0.36237728815812675,-1.0314937602281795,-1.8759713846596688,0.08409448521730534
2370,-0.9725470174412633,0.3837224706574319,0.31305672224082937,1.1715458839855708,0.2851345268907832,3.1203600350660174
2380,-0.9451379422635601,0.4158099562969243,0.34453637019391126,-1.2591403151390552,-1.8922279495824128,-0.08088784657099546
2390,-0.9487120772198637,0.41581399350513015,0.3390033834959347,-0.3052938941827409,-0.206303985387351,-0.4481342040576894
2400,-0.9311791580192441,0.4293889529896268,0.3524688751792711,-3.341594781147573,-2.376904506186627,-4.033906969629719
2410,-0.9300485440802524,0.42544653327889287,0.351335250907254,-2.320740621667741,-1.2550125752357046,-2.203709365839909
2420,-0.9476683247762757,0.40782227695865675,0.3328461513001329,0.11163970259294964,1.0924061770992615,0.6265687766813924
2430,-0.9472457982905553,0.41420889122884047,0.33476734197817826,-0.43068173563352724,0.13682999335759202,-0.7763978071899729
2440,-0.9443700020958016,0.41649261971713686,0.34171084582419,-1.7596289274153187,-1.227056889618961,-3.122121652293586
2450,-0.9482505830690928,0.40743924453946323,0.33819274156969076,-0.6097238603221368,-0.32635036817041646,-1.4373764823094417
2460,-0.9376919701318175,0.4138970292266272,0.3472357634740626,-0.6619416051448572,-0.9345692876743471,0.7074050672335098
2470,-0.9361644920719968,0.4182557069269007,0.3458261363940237,0.5357388487716399,0.2875817514252436,2.2640034902836184
2480,-0.9189819056692334,0.4306111365122731,0.3591559745611065,-0.949780571377174,-0.9594184432505712,0.8919437591810964
2490,-0.9240599235819639,0.43203497256971185,0.3633892905023841,0.7551517193848296,0.9336928465309711,1.6503920855075633
2500,-0.9459583582071209,0.41059520075318506,0.3392318492515274,-0.2566230384986745,1.2368589510365209,0.12286298156248454
2510,-0.9658819954343958,0.3870285018073396,0.31895378129001906,-0.37292314102061996,0.4053883889363249,-0.45621358895768604
2520,-0.9340879457834069,0.4228398053514228,0.35020285218672187,-0.4041763579701425,-1.190613004844113,-0.2324414806444276
2530,-0.9463711959548735,0.411353043602839,0.33546725282455536,2.4374355954110607,1.6907640163668094,2.352796515320982
2540,-0.9457830924900268,0.4104631065027542,0.334960495670782,-0.1992385040086535,-2.6349541885210237,-0.9141040598603696
2550,-0.929855298697315,0.42874702778415913,0.351360360204349,-0.9889040915260836,-3.052956607352115,-1.9867435029111182
2560,-0.9400348408903288,0.42026223104449906,0.33834426885245183,-0.11419784948244915,0.17866066831756997,-1.683268827456115
2570,-0.9429728136974593,0.41155802804786185,0.3366346520586137,0.34448577163587907,0.7789564548768728,-0.992221432842552
2580,-0.9219443732068461,0.43054213515542655,0.3520074714820202,0.1183321448340624,-1.2683929898911317,0.9550784105666288
2590,-0.9334767114921134,0.4288760210532093,0.342998640161679,2.3040613826661835,0.10901948721562142,2.2167823876653334
2600,-0.9728573871666517,0.38687679213641124,0.3179568388655765,1.4747092056658395,-0.1150644785548062,0.9135228809630511
2610,-0.9468218329185529,0.4112693441221346,0.33293745313698614,1.9053630216223734,0.2549533690264692,0.11943478988898665
