time_ms,ax,ay,az,gx,gy,gz
0,-0.7746768188873349,0.4685919910167302,0.4785045305346911,1.7469759120101445,-0.7151495729368033,1.52551163148811
10,-0.7480292138758332,0.49096301351259086,0.49937453367485174,-1.3823476235093528,0.9587872091780792,-1.0878325082342877
20,-0.7703657658253577,0.46582189252896494,0.47908964707401275,-3.6368352426241723,-1.252977826179208,-3.2076090518918354
30,-0.7765371804057322,0.45743260639394545,0.47287778907194844,1.1235260624022112,2.264022938567402,1.2414990598325644
40,-0.7810626338340834,0.4515072260098591,0.4662875910665351,3.356689162679435,3.053400655675649,3.063717842416321
50,-0.7733060624495807,0.46033822625889276,0.47434724753712093,2.263586423711083,1.157422861184436,1.9508199174829142
60,-0.7891992174837658,0.448128896143782,0.46250363628996005,-0.6939069724785557,-1.3536047090364896,-0.6065067661339265
70,-0.7688155056735816,0.4695762685667323,0.48357752223409256,1.0578693141531132,1.39088394162979,1.170415579128251
80,-0.768596580954242,0.46188896313693123,0.4817658184783391,-0.7196007890997608,1.4609400617962285,1.4177400778265006
90,-0.7464674215384804,0.4863162286964547,0.5022976127574942,-1.5886847261616586,-0.5320874602092478,0.5837173172511533
100,-0.7878408529991704,0.4523924926006037,0.46810065750045826,-0.03824435002208404,0.6404173842417303,1.5948082957263354
110,-0.7488064339083693,0.49215557372606217,0.5060493697654387,0.8082495864134032,0.9035236554490401,1.4820928217625948
120,-0.7622632965108814,0.47883820942629945,0.48832739182434115,-2.2142287699105436,-2.3745894215174963,-2.3511112422014135
130,-0.7729715847977816,0.47104814870333367,0.48036284976207033,-0.878777970555834,0.19305445604586602,-1.0485312843606258
140,-0.7656936105765031,0.47047472804038953,0.49099867402443026,-2.543542218792207,0.6061369107306571,-2.113839436971612
150,-0.7777396542000445,0.45495795642155207,0.4768427797902834,-2.255335039184048,-0.8790099352658814,-2.5273545207239714
160,-0.7799087241206887,0.4508736502306579,0.47460795503276787,3.3582572684947225,2.4525793715289277,2.211741709384547
170,-0.7787244666282263,0.45256444603340623,0.4778977121573715,2.127047760843333,-0.1102230302976769,1.1138152492482305
180,-0.7483214107358263,0.48568825679673305,0.5078715533417827,-0.18277164867173878,-2.9176378705293384,-0.7570980055961241
190,-0.7544107363184513,0.48199119628674475,0.4996322427009486,2.7317393104168057,0.13978215467547,2.4543478464562924
200,-0.7697482260015222,0.4693583397907401,0.4846436557858848,-2.5715656214356786,-3.616906877653401,-2.4436866186648234
210,-0.7488374526878064,0.494672492372525,0.5092574797112106,-0.39875277107339113,1.363482931202125,0.4987739686469651
220,-0.7549654661692268,0.4846337955071781,0.4979351260261695,1.4988306364260564,1.4003307847622706,2.0307126789516556
230,-0.7884493725283008,0.44757004237905057,0.4669963067751355,-0.7704705824850202,1.048430060627003,0.9557148715352449
240,-0.7629253326417891,0.4721361059819407,0.49233125443564374,-2.6760713069084487,1.1651431112746493,1.8985999653948964
250,-0.779991956869809,0.45282231098864706,0.4773482774919144,-1.9180285473821743,0.5196546738257539,3.7073150717158754
260,-0.7579426859799601,0.46991290442022693,0.4997506056424274,1.6312923230642342,2.5975495134194215,6.662501941306405
270,-0.7788840789659596,0.4203550033283193,0.5559002663340418,4.807486808996146,3.496845443314141,7.65857044728152
280,-0.7682979697433514,0.37382689071462444,0.6725807903228601,6.7366537031043645,-13.282854331704547,-1.0313884970328908
290,-0.7053062776983289,0.406737018038237,0.5087115007679621,17.624804042675436,-62.91633978016053,-22.63059501094351
300,-0.6546137666984946,0.4638214267005916,0.45963632876154503,35.621949171017974,-56.23870580917112,-10.611859205495849
310,-0.6201909118534837,0.5347158208834712,0.43930237218434787,34.49789917786336,-49.76659368708651,-9.948221351982006
320,-0.6273103064262731,0.5640100685806426,0.4397843640833305,24.72871934752205,-34.97534997017843,-8.655441985492054
330,-0.6577184379879797,0.555692111171637,0.4776358444531813,12.979496535385968,-22.394416587404677,-10.281138384330065
340,-0.7257985367145409,0.5009925488851722,0.4932120962236345,5.247590335206825,-12.351002417783324,-12.078568721905365
350,-0.7328384418713655,0.4858496541908966,0.5346956072480735,-5.151113100259569,-11.259114521259326,-16.48163486725361
360,-0.7102730444297467,0.45366100141920895,0.553985867580252,-6.489506729157803,-6.867430158633422,-7.005939874370107
370,-0.7125942295202401,0.4637776547329842,0.5188992973366313,-14.987566733026272,-6.948278702534484,-10.130787623075696
380,-0.7246600601224613,0.4555378425453833,0.46835509106035506,-21.657545143801098,4.158754669321949,-11.722960108675862
390,-0.7109801094578622,0.4455669358658543,0.4853678805067822,-25.864555106024643,9.45078259310533,-12.735092099171709
400,-0.7206139718099055,0.41898728128175494,0.5026104184544474,-25.71285725895689,14.631596508399115,-12.734086456501931
410,-0.7689206617188076,0.38530458600677514,0.5555657678682749,-24.267905034576007,13.717570144176308,-14.300968221930079
420,-0.8122014646082013,0.39071872213484754,0.6091566983195821,-12.883578520098073,0.04630599457478557,-8.63502181949512
430,-0.7131298676661543,0.5319466900170641,0.6506483423328295,10.402404962520245,-24.426039266112216,5.942605447283457
440,-0.7342579242235314,0.4444092135279924,0.5251191708367244,16.19971939617168,-22.10391131843495,1.804357220256544
450,-0.7415877890322949,0.4416363151523448,0.5295828030377961,23.167317856550483,-16.46222950333488,5.1136210718243715
460,-0.6717043221599122,0.2996830407492407,0.5368105802310064,21.76519305144676,-11.30412518010467,-10.269388698920347
470,-0.6588158110620512,0.5986167119813212,0.6823905003678361,24.945463771365485,-14.71987306823847,-8.259034521402207
480,-0.7299976715242146,0.8224706188590399,0.7787773167392575,36.00576515235472,-13.899034641853662,-8.087130521219155
490,-0.8141428404939945,0.6940798706019149,0.677282302393765,33.0339049335339,-11.573074596410416,-5.317509629321969
500,-0.7768561096619805,0.42669472602365405,0.5102154892261986,14.909198197259862,-7.271033046270147,8.882814299389333
510,-0.7063366767010794,0.21901342998627826,0.5213794551829238,16.58674205547376,3.910264083937876,-17.421639060218205
520,-0.9001153185528923,0.13147041824497013,0.6521758904351465,21.6373908642492,17.08261213540512,-33.333933267530675
530,-0.6435844596294276,0.4464876671136898,0.4094647908526494,19.32672992435739,10.151959913574872,-26.079845583839663
540,-0.4961692655769925,0.27725031803873695,0.4563593946386225,17.666420817762013,19.617332895892527,-30.14568730177639
550,-0.6465620032922261,0.2120347643139714,0.3615620984632629,21.316464118944022,21.779019900639028,-23.68859821570428
560,-0.6936565840433971,0.13158636574125604,0.1824334232856764,8.85754853959848,24.065564720235333,-27.4865575790863
570,-0.6864033887158796,-0.07557694806423837,-0.047948451933900404,-12.41385143842461,30.669222286897977,-38.151881392391466
580,-0.8734181905184228,0.30507988420149434,-0.07304996775977375,1.475585563806777,25.161255645389318,-10.393885747777233
590,-0.651097482354733,0.29588138001466197,0.8041355266863043,1.3167599326227324,27.223363146142926,-14.416129570955153
600,-0.6908666286080617,0.4036519329011874,0.7396318991076335,-2.545456627334359,23.502334117618062,-3.6496452339683945
610,-0.7583240344677652,0.3016422243614629,0.308193614523909,-5.160635096008533,32.35151423580968,-12.658899794729148
620,-0.6977960441544386,0.3502456438323404,0.6318937683075335,-7.330856444002492,24.927520526455364,-2.3131273612491814
630,-0.7098725237544745,0.5315932202586928,0.7500769543002651,-11.072203692673153,9.522321091814446,15.321455784334844
640,-0.6851682209055802,0.4589090549711899,0.5757628717931855,-16.587684590007953,9.691391873033051,21.29157011413977
650,-0.6037321655902351,-0.2532588555432382,0.7064616231914915,-35.688051706098115,11.440094146773562,-3.2080363248316957
660,-0.5987863752017492,-0.3305097792716742,0.6302626471744085,-5.95050327873102,16.066369841041027,5.563553268696218
670,-0.9677642391166839,-0.2508004574622691,-0.13971607898010566,-25.881928241337615,7.336741932718157,20.45164637296925
680,-0.8298040131828749,0.7554252281603747,0.35667105460990195,-13.684534322527714,-0.8705601395044313,33.43004654798586
690,-0.7027024734406898,1.0792892867782367,0.5221389493133783,2.018589429612636,5.901228582539174,42.07153033650767
700,-0.7431430938688378,0.8163985262680002,0.4504218636497228,-0.255979029211334,7.340154085499447,32.89251784144983
710,-0.7157737671410561,0.5079041173862734,0.5040929836490493,-10.483761453443002,-0.48251174020233867,12.557570735571426
720,-0.695301308953974,0.29987792703518007,0.5332273354837807,-4.516114168364815,-1.0706492308369162,4.2185497809469545
730,-0.7608347127563383,0.3652457783021022,0.5022725114454674,2.9621767349832875,0.42987306114720636,4.7465219581448075
740,-0.7486399760798391,0.42557411377940685,0.5268794077399577,9.155035237644185,-3.980673025192291,14.926148185427518
750,-0.7514388750644896,0.4295211550456366,0.5175301695655548,12.408444460450731,-4.850998460836652,20.33499587004737
760,-0.7651221784311661,0.4147470918295171,0.5044191541638081,18.543232845616373,-5.354494859118063,24.95001381648001
770,-0.7299048448352605,0.411399273519717,0.5046709686777889,12.607545908912027,-3.9146227598177497,6.496217570346423
780,-0.7337395116735299,0.3545162793530973,0.49435221172484295,5.673724421025626,-6.743403801128733,-2.967940355741585
790,-0.7285082552979072,0.20452553103185586,0.4731330107860986,11.860164928045297,-5.520470922172985,2.141234450339154
800,-0.6197730083929561,-0.07223572180796153,0.314529142331423,23.318874558541555,15.435979220639958,-22.650881715443166
810,-0.6373022755749553,-0.32703125225719354,-0.29375342006750926,17.0678975072386,29.011112735952498,-36.43781322645252
820,-0.5981038309561761,0.6061408930460054,0.26755710873104666,29.705843387934912,22.100989036368013,-14.285969948975803
830,-0.7123149636400103,0.586674272796862,0.4581271047673555,4.895187905174041,13.083395432535427,5.217820076037896
840,-0.7002987744159223,0.4413864065233565,0.4696225227542821,-8.301988141166614,24.168255239634995,-10.517135939260253
850,-0.7319979557630328,0.445566992599325,0.2895470044191781,-13.169364795810798,34.234653280468194,-23.812008611183753
860,-0.8053228680703703,0.4659945929947417,0.16724922132951003,-8.000243009215733,33.188970252633084,-16.936208520406534
870,-0.7718783788993588,0.34450594188172584,0.47436372470916205,-2.6286907198042266,25.36549021518408,-14.98149899574543
880,-0.7585168265748805,0.3663273780389209,1.1316496209087377,-35.6388935086155,32.01684193984215,-13.178647902593898
890,-0.764256581103979,0.4662741355060811,0.6207979367108433,-15.47381974647989,30.549609475070067,-15.006821667523624
900,-0.7714356097408904,0.7268136484898166,0.3945136393199233,-11.965393127265159,29.504522159611064,-5.6573017700111885
910,-0.779646521617343,0.7687356960650507,0.44880880959590097,-12.003448050715974,18.32275932311358,8.062465408767986
920,-0.7557749356020779,0.7830117498864457,0.49047476554914227,-1.6194809192736728,12.643021444374703,19.91109096019023
930,-0.7207200945156593,0.6620266522593683,0.5025411478421609,8.741004733737435,9.442687575317036,23.617887302623057
940,-0.6761630759782782,0.5365659830341444,0.6964735990571531,3.4203159311537306,2.954897034142137,21.08154125412537
950,-0.7515896963722529,0.8058436475010647,0.9049374213007324,-8.318482410856479,8.467303939827762,25.433766007154748
960,-0.7012015796462768,0.1302348349586169,0.19093338105383695,-15.85736731760988,0.5911775044624683,-7.814627294471016
970,-0.792277992115357,0.17560625980153924,0.4084129965185072,-13.078208472139654,-5.7556743962469925,-1.1638589655596343
980,-0.7577778190137666,0.2587436347800022,0.4193736035622785,-15.89313921787621,0.7187062435271847,-12.752736527780042
990,-0.7707505205881793,0.3976137673687896,0.4462573684764717,-14.16191136511106,0.6273267604716241,-10.204590310819901
1000,-0.7852338466605815,0.4245487157840943,0.4658005506626265,-13.748080127930786,-3.249144171378665,-8.011697517127857
1010,-0.7920915428667336,0.32257791083747916,0.40499583852888565,-5.866288820999004,1.3282415766023636,-4.334885960604514
1020,-0.7616853607438024,0.42386584847226055,0.448653658092171,3.081951440447241,-5.1500316136335265,4.664454304656035
1030,-0.7576712866116833,0.4543151076992962,0.4614335098014026,3.123087055628413,-4.128144714833485,6.0539066794140375
1040,-0.7915084960122282,0.41801968104278553,0.4352468851544579,6.108069467407053,-3.027140347827201,8.017868951198171
1050,-0.7581703822396461,0.4581130525956863,0.4742783911153777,0.5157342288800508,-1.1671932307550774,0.1486736923710259
1060,-0.749734212426538,0.46287519398122845,0.47841678017942546,-3.2122633290530915,-1.1267828716545967,-3.923853832652772
1070,-0.7658608929895885,0.4435927302073099,0.4598925218372862,-0.9407863287627776,0.3021041380381154,-1.5535541450663886
1080,-0.7827010044883431,0.42979074158626696,0.44642862313882925,-2.0477553977521596,-2.5153509873266535,-2.6450559003086016
1090,-0.8033345420467837,0.41170265705586906,0.42948405345446417,2.0096330150348556,1.738181567418002,2.2788828212787484
1100,-0.7877663513384325,0.423766324575516,0.44860263751359,-1.5335935113449137,-1.197445926375135,0.025911731452133213
1110,-0.7580321540856654,0.45735232455105834,0.47357908147534505,0.6541875976355618,-1.6680643124924226,0.9271390259080046
1120,-0.7353867289165391,0.48263906204743406,0.4982166591709661,-0.9387150777767213,-2.549869071341106,0.3154304093705411
1130,-0.7916188131811429,0.4268939379450866,0.44141985703938913,-2.4802186398044768,-3.018002739248004,-1.0045064549015343
1140,-0.8005459556633922,0.4179277694425325,0.43329007898134697,0.12017463812190551,-0.21484046943963792,1.3384505980071395
1150,-0.7882887243817766,0.42884596483146686,0.4443407701810581,-1.0957924774271717,-1.5247830752290923,-0.23413184617514216
1160,-0.8022177135769714,0.412582636552035,0.42644682764722597,-2.3637748759515462,-2.134995777069686,-1.5169208491723984
1170,-0.7766324587196046,0.4375967378342412,0.45412100324979227,-1.9256620292973536,-0.5085049101918503,-0.22392581771662307
1180,-0.7492992069895166,0.4586300089458095,0.4814014402228722,-2.645274305965313,-2.7846462913576504,-0.8176223585068028
1190,-0.7564904951203899,0.47374686591982756,0.48270705256041846,2.529183481396429,0.5574273945097985,4.492393835347655
1200,-0.7889441626498096,0.44473075698893083,0.45140834343144964,-1.151129424815239,0.8039447728952509,1.188992639410671
1210,-0.7967504938748902,0.43126813506073086,0.4412742760880824,-1.5454295154397348,3.2974070603293244,0.2933636095468759
1220,-0.7864950193179157,0.4332613778392598,0.447223125558238,-2.617639572139055,2.0044989981834567,-1.813818413252887
1230,-0.741536844292745,0.4736871822583122,0.488252276800056,-2.0230350081812465,0.5822035570344823,-1.794929463834687
1240,-0.7609560736498349,0.45733368753884296,0.4683400524645839,1.1957125499626313,1.908600417695231,1.5850807247037713
1250,-0.7781365601314079,0.43856695943449336,0.4515554471441841,-1.5857565909221654,-2.382998897731206,-2.1392890342976916
1260,-0.7890203813832111,0.4315666298554527,0.4486211707704394,0.9637822518832908,1.7838631548338408,0.923509349239912
1270,-0.7837876395243545,0.4347992275622316,0.4485036881674534,-0.022125568906470494,0.8708301107403329,-0.6418024306179108
1280,-0.7718037326866585,0.446880109727588,0.4621821906198239,1.5855821865713204,2.554465269797359,1.0618319152534061
1290,-0.7836425402363514,0.4353589988412963,0.4498420663271912,0.27901364413424035,2.147675425399342,0.26261347484132536
1300,-0.7613575529797939,0.45828580963707816,0.4694849639450134,-0.6004199115224388,1.471506404508318,-0.7669925816387199
1310,-0.7723822387452897,0.4489027828617725,0.4597880742816542,-0.9887979867118711,-0.45959282585937655,-2.392757272695789
1320,-0.7841705189425164,0.43491291767185375,0.44534144616605237,2.34161751960496,2.7757166417977697,0.06111949088280788
1330,-0.7465938053012379,0.46899937641840406,0.4828286524009855,-0.8814338740894443,2.384229301756905,-0.29130663006277335
1340,-0.7829574094186834,0.4285737982813364,0.4435067975126536,-0.2045378129484383,1.685733768044162,0.6283301329715075
1350,-0.7743455364536206,0.4355688645301774,0.4597474720654684,1.8007030096925032,1.130328044044988,2.6635908134195536
1360,-0.7549016915428642,0.4571982609384148,0.4782954407907701,0.5851921584170894,-1.8734264805694576,1.5381319886348197
1370,-0.7678310692241709,0.44947046747216285,0.4620803416078122,5.8227124636344385,3.217568819153011,7.143177939162939
1380,-0.7632783106077282,0.4591024658050911,0.4710686580201907,0.3307678369277265,-1.4513878411438683,2.1359210062713077
1390,-0.7677956025736238,0.45555985496494356,0.4701325512041476,0.9391109614667515,-0.1477308793985746,2.7085453197265017
1400,-0.7904800635616873,0.4300350599024086,0.44037204122808354,-4.550827576224992,-1.4452944410238735,-2.882448591090124
1410,-0.7660823854244275,0.44892109204844877,0.46575938918768744,-3.74961106165645,-2.30184289805189,-2.906231233787341
1420,-0.7571509982473923,0.4576441701849067,0.4741298750082939,0.8183193244183882,-0.40020913276979553,1.0319881203799495
1430,-0.7591572878767524,0.45728510270211803,0.4723348437782147,0.9104983198477591,-1.3404557111318893,1.305303197305542
1440,-0.7759119324058594,0.4432881539630319,0.45819579631004576,3.772800152429965,0.8846751098046117,4.218936099517013
1450,-0.7738362358660418,0.4483423275703525,0.46309169292242425,4.193645503408304,1.598974468613419,4.788378016758245
1460,-0.746607161936982,0.4770220071318996,0.48958861643161167,0.9656391674270788,1.2238241426183745,2.4608675065524044
1470,-0.7958747315411674,0.4276163316434171,0.43791594507171616,0.23055519715334638,1.2925848433321463,0.3095899604967071
1480,-0.7937661656870704,0.4306335340774973,0.4469796069703172,2.772290924356441,2.1370311018552335,3.106165197488379
1490,-0.7589115166775859,0.46366268413661876,0.47887569467154417,1.1407177529590633,0.17674667478992784,2.613474245397555
1500,-0.7744175144754751,0.44558729652264517,0.45917851836496276,2.7941558468053387,0.3029677032221336,4.357372339452086
1510,-0.7674379743834346,0.45562770273438247,0.46820071032111815,2.8389228995286695,-0.09720566819662879,4.564658407128244
1520,-0.8007831273171577,0.42928619158199927,0.4398732420212649,3.066389455277812,0.9935912775078705,4.574247280631379
1530,-0.7700051415143672,0.4612140826430877,0.47022470851633136,0.21524512206198387,-1.0894999619871566,0.18512920630729524
1540,-0.7559619383038789,0.4626960538951759,0.47729439688758846,1.0429684274513458,0.23583716361457469,-0.4057140671596222
1550,-0.8110740084441679,0.4119481338787681,0.4274759078911153,0.8557587515188425,-1.983509125693317,0.36885251616683146
1560,-0.7486452559248138,0.4737550802757881,0.4852132782854772,2.68025181604356,-0.5818492461441512,2.8380585314400513
1570,-0.7916530974224023,0.44027093645858506,0.4431162408219156,1.982736477009734,-0.18940816196109256,3.0572886100714163
1580,-0.7985707985252608,0.43728583712687596,0.4377780040943078,-0.8237253979497279,-0.46153338780538977,0.5165298602418162
1590,-0.7868001611486439,0.4432474451212263,0.45000950013240604,-5.5227583009461565,-2.253941937505793,-4.186281304567402
1600,-0.7935367172369847,0.4290861855561177,0.44285355673162025,-4.033105047734814,-0.4352251081111206,-2.178002661165044
1610,-0.7719373801221574,0.4513234960958797,0.4631887685529786,-1.0882050827006502,-1.8613501469864733,1.8111468536606345
1620,-0.7702092562095377,0.45432551507677993,0.46696586726536,-1.0103429667514778,-1.7336702524558936,2.228316725248541
1630,-0.7746694799850502,0.4575894332267814,0.458487304196118,2.4198992722534314,1.7470525072262166,4.497635550069974
1640,-0.7748133895949978,0.4608683154845022,0.45399046555713396,2.038148666436728,1.7447931031652932,2.049802257517566
1650,-0.8088705053450678,0.4232698736078844,0.4220080576401276,-0.09718693199261885,1.5836280049683182,-0.8878103110851716
1660,-0.7542616016371864,0.47173010443236324,0.4769916097227972,-0.96946360486473,1.982994251569055,-2.2773268448723916
1670,-0.7795755259930615,0.44352860350731704,0.44931271774730497,-2.4301870840834106,-0.6433613362339082,-3.772169793127053
1680,-0.7598009164573492,0.46431137648906984,0.47062056655072615,-0.2809760608141416,-0.8352209273895527,-0.2023476223986247
1690,-0.7515501672816262,0.46803817068513215,0.480045691996702,1.7904189633011565,1.7520561089013242,2.085923617882645
1700,-0.7644837054788368,0.46253988116414235,0.4707341437253251,0.7912127980008716,0.22755777022614385,0.8925798210094138
1710,-0.7730499421877222,0.45181169214157146,0.46099898780791243,1.4337340629396724,0.7949272416590014,1.2814222068480141
1720,-0.7718539084705215,0.4544209031006529,0.46609917037693793,0.01879668479069385,-0.6330431714432885,-0.493011791517423
1730,-0.7774110933725789,0.4490096985215331,0.4568993788303072,3.769804059662787,3.344454798051139,3.480645725869549
1740,-0.7861191734844406,0.43842125746465216,0.4452045110982759,2.0155429189208247,0.6075146480486141,2.08759444795594
1750,-0.7848446807524403,0.44108593804692287,0.45290107662246426,2.5412367131811027,-0.8572534556466024,2.5218016870645705
1760,-0.7768506468659476,0.4571313515914947,0.45944734812067567,-0.513725240452235,-2.747929851086222,-0.5347772143110932
1770,-0.7908796670083934,0.43880267031858133,0.45067420884097914,-0.910088877111409,-2.35497737368631,-1.734531094285413
1780,-0.7873251987131651,0.4412748005197879,0.4513294654506878,-1.029058136021467,-0.9593404634272567,-1.353814317682902
1790,-0.7495997445997564,0.47397941918207515,0.49164257168671116,-2.194712534677082,-1.004839641384567,-2.1359161021024797
1800,-0.7529283693393998,0.4728935036887247,0.48500688648536117,-1.5873002195701376,0.08893104501652926,-1.0952101065119413
1810,-0.797827938105982,0.43049062876859373,0.43717927940948925,-0.6329129357905316,0.7167686419685659,0.41185902518577433
1820,-0.7908910106449628,0.4358496289632474,0.4461273145901841,-1.4837890963461344,-1.0688237736385053,-0.24104868935389012
1830,-0.7725587008991256,0.4559885474095381,0.4631341527829406,2.03432394844399,1.5166548959078507,2.6597002142574704
1840,-0.7895136756775927,0.43700187006152097,0.43938172755280325,2.0008356049075444,0.850245813522416,2.8049133416894363
1850,-0.787875092842771,0.43501918502189507,0.44623424381672167,1.2949535054535626,-0.8169420652383061,1.6584407592462962
1860,-0.7486234773421153,0.47806542325143586,0.48503664077598624,3.0355172676932956,0.65583409772152,3.5107534265009632
1870,-0.7778759785610972,0.4504700611547552,0.4539316759322239,0.40140488606038094,-1.7358493275863973,0.6819828962906052
1880,-0.7638021859486384,0.46217038677419736,0.468660726858191,-1.3632617757311634,-2.023828495140233,-1.5302603835713295
1890,-0.7746428231029517,0.44786701185640665,0.4598694992682521,-1.052615572032985,-0.6557651169019139,-1.5885938517998621
1900,-0.7639385653933087,0.45742888640775237,0.4696855193936392,1.3920620049847858,0.5715504114313196,0.8125747669504468
1910,-0.787873321589761,0.43469097369389287,0.4413798894774962,3.0271877469891555,1.8935837916468028,2.804504638170399
1920,-0.7748269669363155,0.45821849322255875,0.46508355986852074,2.0478212561872216,0.512006538853931,2.1234224397146573
1930,-0.7894755700624185,0.4444248459734784,0.4495141127040036,-1.259664538845353,-1.7538712893763715,-1.0066240206575139
1940,-0.7994333667809824,0.4283580957965459,0.4361101231603337,-0.31119545295884843,0.5399908643925604,0.11627565453090175
1950,-0.7532003307306981,0.47054233504618476,0.4841622652876525,-0.8521527178403712,-0.0461757640317243,-0.21553611235252065
1960,-0.7689974751693492,0.456268718826934,0.46924385994016765,-2.0960898085547797,-2.5204056826747476,-1.3558989550488298
1970,-0.7871140978407928,0.44329761835044246,0.44790293574851736,2.7219203717673333,1.551173190129177,3.5471699203163634
1980,-0.7802973259328871,0.4545539161689836,0.45939022821348785,-1.166155422849859,-1.1749815604849845,0.10004169776851768
1990,-0.7755550085583774,0.4531399360994528,0.4588369491807231,-2.4060164264778043,-0.7777043650759647,-1.653711769083222
2000,-0.8119503660945847,0.41404179899124455,0.41655198707960484,1.3574883970081382,3.6010691747690573,1.4350598969725379
2010,-0.7455752541124582,0.47659050329457253,0.4866966524214918,-2.091496000566517,-0.36296324041647077,-1.8853645222988389
2020,-0.784629548523588,0.4418866734118742,0.45070411357007995,2.650190086065464,2.2464987708655566,3.2654164884047097
2030,-0.7986692767620539,0.4330719100785717,0.4382373171889278,1.1152529455166076,-0.2582485730630404,1.7384258595958098
2040,-0.7629115633471171,0.47070034100144303,0.4757433846938727,-0.3751813717365011,-0.2188017228249016,-0.21320392076908082
2050,-0.769037861892988,0.4668712023749118,0.46989437110507,-3.548020293682506,-1.5565212680169163,-3.888098212376943
2060,-0.7752811741343761,0.4500699906929229,0.46025485271717026,0.1011137757005115,1.7827838150923774,-1.1847209906982576
