time_ms,ax,ay,az,gx,gy,gz
0,-0.696201187327514,0.0869993047736426,0.6691487028303291,0.4733717183238,1.3365993201288486,0.3013403024903224
10,-0.7213791599691276,0.05072944881408689,0.6421370533084713,-1.915320507547007,-0.07117726633125832,-0.7303742820477155
20,-0.7075983585055884,0.07032786046848583,0.6589568561933927,-0.06886065044413736,1.6185988015245552,1.0697847636764473
30,-0.7039687262214653,0.07277007453341248,0.6605008044192238,1.3706235107266513,1.8320538067605954,1.1331967939055754
40,-0.6729703322802111,0.10001012603088603,0.6854608422435786,1.367828716530847,2.0892664872771314,1.3049271539540483
50,-0.706232554416356,0.06375858832060213,0.659792056064564,-0.4647654543636408,1.1625603368365303,0.5393655129191434
60,-0.6758639828630633,0.09918080052439826,0.6813923207979007,-2.0370877824868425,-0.8915165605202643,-1.8736201061601896
70,-0.7120011538170814,0.06159752422133644,0.6510075367450295,0.5985165287627006,0.6163674617374659,0.3338654708227393
80,-0.7088109288891185,0.06518560567470373,0.6518478449849634,0.0012136871501204904,-0.9898112119147837,-0.9446360705040736
90,-0.698591520635668,0.07488920830702342,0.6601327926590493,-1.2253455485572045,-0.24666382261825304,-0.44245909516045107
100,-0.7268596370089312,0.04597455799089356,0.6360276526082895,-0.6741129799284897,1.4124238155529345,1.2694739012128307
110,-0.6940730279203414,0.07730887166475177,0.6713425766204784,0.11418790827645697,1.6498570452180976,2.1591740599439113
120,-0.7380646267239924,0.03934465340137783,0.6343482052745716,0.3934495202601915,1.1505551925707107,3.7364937637586015
130,-0.7445101200016252,0.04676148113496485,0.655828133884716,2.4006997992303147,2.5865287629537064,8.536444977136556
140,-0.7620227349207176,-0.021697412226648047,0.857902635189775,3.517221651577699,-21.717535796476305,-3.5918932379475708
150,-0.7252858630080408,-0.13118919059050396,0.9842515919221265,-4.943306689286399,-45.553136453488285,-19.43002497635225
160,-0.528713979122368,-0.16603521701491458,0.8867502753689005,-12.957952704471298,-64.50451987606715,-30.68046361115178
170,-0.48849295863760506,-0.1390716101181709,0.6684493800784824,-9.067317500628096,-70.84768442276983,-44.570786190648725
180,-0.6322201850969228,0.04819055535257725,0.4330440824920604,-2.4790401520821437,-62.687942405456276,-50.110985307721755
190,-0.6775158455481403,0.20507806015816996,0.5188619051306658,-0.08507269242813148,-34.780423534415895,-21.618780116181934
200,-0.6919579715785278,0.15674978453510113,0.7671383438551826,-3.803247568172049,-22.205316948172026,-3.635495186156014
210,-0.645036146997271,0.23671512709198886,0.6899314666210906,-24.55779357531654,-17.348885091517484,5.272515422756135
220,-0.6199018633905493,0.24857445543532772,0.5891276833543351,-36.73632240058573,-11.367210683500993,12.477799804998732
230,-0.5930658573769793,0.18728708095127172,0.4714367303349102,-25.673973216744113,3.0733072262113073,22.362070033894383
240,-0.4886459304094618,0.18511374468070807,0.6738182473717573,-16.062610425937734,14.521966150951343,31.019925365933453
250,-0.6790269153086635,-0.052586764808956604,0.8340511836662069,-18.112474474043083,5.3647122144907025,2.2866601693871935
260,-0.6400637231994324,0.024618144492526358,0.7374960972610333,-14.774281181950599,1.328335995101211,0.7826433355060225
270,-0.6385723465189532,0.03600875665631621,0.8422044858860889,-6.8989036439835605,-8.975381644026061,5.871862229698229
280,-0.6644074331612988,-0.03063310799376838,0.8093345176894028,-16.04751475555214,-22.746407681134773,-1.9607238446390025
290,-0.6415428603246993,-0.17321481649918713,0.8379186994368563,-47.354966855894986,-23.439676982862043,-4.142930287367357
300,-0.6554796355889293,-0.16032360798199943,0.6455413803127313,-38.86790691560904,-17.958141400419244,-11.335667310871811
310,-0.5852586659284201,-0.0981823830475244,0.8540799803806731,-16.29240237754779,-7.654980203738958,-21.093338487373472
320,-0.46456807852679866,-0.6042614095174267,0.87546153092726,-68.74462781402795,-10.111517334455819,-30.064860795352235
330,-0.4903886842156357,-0.3148692553294486,0.9344478358988295,-32.754425356858455,-3.832049026635384,-15.500356109596128
340,-0.684416246679913,-0.24847946147531255,0.43374927754097536,-24.08209269323983,-1.6888465130043837,-28.05188209949645
350,-0.6243954912865547,-0.2780195449078599,0.5988469528817275,19.644123347511474,3.191732011795386,-33.75473816206024
360,-0.5864390236802,-0.38888782024177065,0.5754064717170618,25.217583695082205,11.129953964612682,-34.26166338437343
370,-0.6401968625817154,-0.13816325640065308,0.7786740558579925,48.74877809570642,11.408438866994759,-27.32470370537251
380,-0.696761897886077,-0.04943938896094837,0.5090756517551565,18.15328015759879,11.400089659194983,-24.422704682064207
390,-0.7036631439825088,0.24339038005059602,0.5818243777729123,44.97085600298834,12.218289403208923,-13.420259031655494
400,-0.6884862614882796,0.1832562067021803,0.7621413406959722,84.50963551867494,15.135709696832642,-15.073997649177747
410,-0.5537367196059682,-0.017420582080936386,0.8381919743613464,28.221681692642797,24.276620019232148,0.7879792061757387
420,-0.6537771652507113,0.00012978745281416217,0.669320197701532,27.222374714654745,27.6648717307876,12.71981855916971
430,-0.6160314532318837,0.018384463096184002,0.7559030155226444,24.506917841517964,23.491524865742214,12.567755246103804
440,-0.700065656505982,0.14402360386426918,0.5790676362663406,26.321007545538084,24.02637674635967,18.286992094426896
450,-0.5680974770611323,0.28883830503925284,0.6468695749501425,27.043116563062142,21.602151125772238,26.929921159565623
460,-0.6805951359086864,0.02088235446746102,0.7996534725208863,2.941715915190226,16.232150919737542,24.182746177805317
470,-0.6384096251998849,-0.3647455915724587,1.234882912389644,-24.07662606492246,11.975021756175375,18.991832238421082
480,-0.4515245468022981,-0.0797544513107604,1.05598084752135,-24.65365723020351,9.267175894757827,24.709792288482852
490,-0.593889419358087,-0.4870216599755825,1.170255964080092,-56.25658838205447,6.856088505417315,13.038174702654858
500,-0.6452848677955313,-0.16890651458525988,0.6982650402515548,-11.070326035574489,-0.5331500415683126,5.670218481105575
510,-0.6357392017700773,-0.16817625933282648,0.7632399584890959,-9.655216082627303,1.0319082297505033,10.381214529984481
520,-0.6671181981648499,0.03059117355419509,0.6763388099937852,11.761253432178274,-5.131393328868904,5.590420697258525
530,-0.6707510481990344,-0.04151045744107501,0.6628527466190335,17.15435721202606,-6.921223698746274,1.419333255263667
540,-0.6757989744867468,-0.06072623591313725,0.7481251511835671,26.352242983678767,-5.819710623302871,-4.102537627856193
550,-0.7441554383444708,-0.16960728744722545,0.7562535575837256,18.666106845411655,-8.047760721373031,-17.81471534567692
560,-0.6854700131138087,0.16888732741921098,0.9392525573072079,45.80228692328443,-8.279835868657255,-25.9066268588062
570,-0.6189654841933878,0.36424501576115487,0.7371094583466625,23.23905997869713,-1.3773307793746734,-24.439219729907588
580,-0.6493264327543268,-0.1234387917699804,0.699329638744658,20.00645589512958,5.135853938219178,-26.52355287129872
590,-0.7215507025918543,0.1396693889511376,0.542269031620817,6.689497055920695,9.244513156678837,-27.261355778296316
600,-0.6969886536238862,0.43806616301624945,0.6670410811291674,24.033607675311647,15.219001827446988,-21.30942219618653
610,-0.6175386312031469,0.17006284358854723,0.9144408485244362,17.58205097708386,11.082392173388012,-21.326855223384445
620,-0.7504514585230224,0.04215555274583013,0.36541316068864194,9.407715196051518,24.146704692927944,-7.657216304967207
630,-0.6633292170292052,0.1564873897682854,0.6986517223869821,23.881924810891356,28.953980294421203,4.161022089087196
640,-0.5532921320070034,0.13129961313227725,0.9937101191751682,15.11832485794708,26.00090632535222,8.97410378930438
650,-0.6034571515995786,0.21191227356668954,0.666192363985394,22.3618924653191,34.664976251272265,15.55491656578699
660,-0.598078790953919,0.09894398526217711,0.846385650960393,9.233902899371145,30.59286692895153,16.004974736941882
670,-0.7266205020642266,0.037986886855797986,0.4954241061121425,-0.33779712849698607,29.201620370826163,17.441883708092874
680,-0.625649697285201,0.558041194795742,0.518230052210041,-6.438071257636884,14.621405207857016,25.236858073789687
690,-0.620728433592528,0.4108046214493187,0.6331017555802446,-10.437238270322524,15.461320374430175,42.02616767503158
700,-0.5854264009619891,0.20258701913379054,0.7526005994528472,-5.614378027166143,9.636557907548598,45.24330194864975
710,-0.6005293308026624,-0.018275968918129777,1.0439821822984987,-55.59006364559671,6.267523522156883,46.46169129092411
720,-0.5827965407490482,0.5829439066314492,0.29949690042001775,-17.823751187751103,-2.4232972305688314,38.238867312335636
730,-0.9559668962347889,-0.3287989542676282,0.35129420710263737,-59.60960379690404,-10.565061063253344,9.364909387042436
740,-0.7150708355231519,0.027939689321759123,0.6658761635196127,-9.646630447634495,-2.157453627593463,-4.00737352662606
750,-0.6839098283453705,0.15674899857633753,0.47848311626459633,-5.12546023835228,-4.88344311102883,11.569979638077912
760,-0.7232765831056888,0.06688080149430921,0.5571478632204802,-12.806855673817756,-9.275084932772675,12.625260486091152
770,-0.7696914924181598,-0.09016622488621656,0.6296971386335551,-3.30865727426745,-4.352897780132223,6.452604434739573
780,-0.7121934672676958,0.030160339566086606,0.6648969066201478,1.2112972826966981,-1.2333605287611944,4.872751694881269
790,-0.6984935241736525,0.08256884321167535,0.6460730827070579,1.5004224709190332,-1.1180268291522606,0.4504302082195466
800,-0.7316174813089045,0.055171192437908995,0.6278587254244261,-1.4043496499115267,1.5175882518801893,-0.31473674661902074
810,-0.7038923180216815,0.08520865126362664,0.6820458126933563,-1.8346333165339024,0.7750441399511818,-1.3619101708989882
820,-0.6980614964001145,0.07624717895120572,0.668360827297629,-2.536686260289303,-1.2581602910387373,-2.9106680770512625
830,-0.6910845297302661,0.07780183602348079,0.6682958126056667,2.4798640952242943,0.6467037727113079,0.7665510888171501
840,-0.7016453831504391,0.075070828638646,0.6561519167380948,2.6267745819381823,-1.2183528696554582,1.6323091588716823
850,-0.7178839298401333,0.07321736376312869,0.6437160953366966,1.200078902108342,-0.3838290446249483,2.66022923788631
860,-0.7030393045489988,0.08823840404885128,0.657758147429931,-0.9660065241170892,0.4724432938498704,2.0439305829393977
870,-0.7130514659313271,0.07037128399610396,0.6471615215096324,-3.6588115488151605,-0.7642261715393941,-0.5889127901848245
880,-0.7290083085986481,0.04476427277400207,0.630615423877408,-1.9993417999835086,0.12234114368735344,-0.3404268744558623
890,-0.714626530789249,0.06220710925219523,0.6450776647715156,4.5153019552354285,-0.8519992777675971,0.7739689341841065
900,-0.6930202938132843,0.0979449829342198,0.6511830490784224,3.9872836882215323,2.283729524981827,3.8763955022835566
910,-0.7430591674286757,0.05590666251033255,0.6237164894738163,-2.912248060971285,-1.774604077975712,-1.1300515953330463
920,-0.6868867369277782,0.10297381148980722,0.67558041744026,-4.03797334126243,-1.8515610373352067,-2.465464852208409
930,-0.6916696488893822,0.08197921376598644,0.6640509240267183,-1.9514992756962086,-0.6676536779545338,-1.404650859719395
940,-0.7076085986673571,0.06511621255098778,0.651843299113496,0.3808290922583739,-1.5447543965843713,-2.0105702089865765
950,-0.7111009031567709,0.06402256881934883,0.6426322776528106,2.611028988138481,-0.7151045022087402,-1.3523807047347036
960,-0.692812716617119,0.09401331754123127,0.6681157557183292,-1.2350031355222395,0.01046452090006518,-1.7546027235760653
970,-0.7360932046434623,0.03697682295448852,0.6269023779407035,0.7463338808554665,0.6917525289018117,-0.8797669945149121
980,-0.6998792136784602,0.07555557942488783,0.6519647545192795,-4.130503388372764,-3.306762154175281,-4.138710532744893
990,-0.6977234071967404,0.07400780042359761,0.668794560354179,-0.5618054147360204,-0.1248595944638135,-1.0254666094771905
1000,-0.6862776284872776,0.09409202269206518,0.6777354419995997,-0.8513128385887354,-1.072996613896718,-2.2767172353601737
1010,-0.6948081970888914,0.08337613920914576,0.6651958859773676,2.12586991334684,1.8868028274038715,0.6538296301841682
1020,-0.70273701795983,0.0820162422927556,0.6602530453429328,-2.456902828535689,-2.319201866116682,-3.4329556990020027
1030,-0.7185686200945556,0.06257461920348553,0.6403967746106022,-3.3942963227369685,-1.568638076739706,-2.5884724331076354
1040,-0.6834597206207679,0.08344213344728009,0.6640085387571777,-1.8654750848172998,1.9105492351384878,1.0752555219098183
1050,-0.6918403684450208,0.07861596858038776,0.6569683129881593,2.33543045987334,-1.0489246454394665,-2.7531022402327805
1060,-0.7130497220060266,0.06095115915522698,0.643669931586283,6.017773943045013,2.1711865753025728,0.8006814080472489
1070,-0.7108385218358116,0.06925584430065354,0.6443580313494501,4.145918850785257,1.4646793299992493,0.09287337789301398
1080,-0.714160400032371,0.06357247214544848,0.6439936319835874,-4.1334746878780315,-2.161596876286694,-3.361906745136664
1090,-0.696927409069392,0.07827673908061035,0.6666062786213536,-1.2646334237512271,0.925585710648875,0.2886488861233054
1100,-0.7003397967954377,0.07008270234598997,0.6595362076520435,5.450321451144076,1.9833746208087648,1.993567783092173
1110,-0.7049342362445431,0.07680761024948791,0.6531094263511644,5.924975334693281,1.40744274027556,1.5308498590394541
1120,-0.6877029956261032,0.09300768932939558,0.6634182534345224,0.5281681047664192,-1.1339651843000498,-1.482743653155849
1130,-0.716688249198777,0.06932985060483556,0.6496389925988025,-0.49688066718463264,0.6764697819855109,-0.7240022915513658
1140,-0.7026833969527074,0.07317986918249443,0.6594347328232241,-4.49930026571191,-0.6458381515800632,-2.5460339551522235
1150,-0.7192161644237611,0.05314008164684696,0.6401092666304171,-1.0711235944201833,1.1283041188500866,-0.06705528726550808
1160,-0.7074317648236482,0.06530837664011438,0.648831784571916,3.6644077579393635,-0.5718054310880181,0.7680263002078349
1170,-0.6821903563131222,0.09218159482808581,0.6793521124924704,0.8259985150706908,-2.6965622965158915,-1.9740710657155014
1180,-0.674474778134277,0.10637317738513412,0.68174398869318,0.6938324989200649,-0.5503754391788135,-0.46673707163793965
1190,-0.6948573221363682,0.08165537279980681,0.6643419381603737,-0.4113217142081329,1.1702906321417854,0.5954984697592838
1200,-0.7167718478554272,0.04849092809146807,0.645553744006554,-1.055103027264228,0.6276907165049731,0.01586284288398576
1210,-0.7083923242946157,0.06299342146275608,0.6560470891980199,0.15402811883084377,-1.1194808882523724,-1.9979625053575951
1220,-0.6773113601413884,0.09868613142967787,0.6778543440153372,-1.3005853968871335,-2.9628172274674522,-3.883218541113134
1230,-0.7139646886511005,0.06077052042442282,0.6426815235932908,3.272036630723118,2.114855437793355,1.4683014437756625
1240,-0.7200533730531612,0.05555628058369069,0.6414188165132001,-1.0738826126010823,-0.5538206285723969,-0.5658484431785892
1250,-0.6815651538374845,0.10368213958753712,0.6797879694954312,-2.936086293307341,-0.7595427748461034,-0.03356000351753774
1260,-0.7022121872116068,0.07590131968962212,0.659242915082985,-0.4819777780704851,0.056038803733023376,0.05707684780780801
1270,-0.6860035024155466,0.0853437866006182,0.6778274342264492,0.08944765461513038,-0.41087632302097465,-1.191178760600853
1280,-0.6894694674880224,0.0819364416734738,0.6690475075802438,-1.099712285775096,0.062488514794174194,-0.33845933709804016
1290,-0.7129376474217407,0.0575576806758481,0.6566109775148594,2.1675973110999065,3.0149577027354244,3.0181328510198497
1300,-0.7156604682453647,0.055514435065024514,0.6460400969573395,-2.3938040893411663,-1.6367505691226243,-1.6248867120732973
1310,-0.6986384947093393,0.07358037618908028,0.6541289726761561,-0.3675560802079158,0.36212232543994566,0.2544869239980029
1320,-0.7066360619366624,0.06233045352887889,0.6440283728458855,-1.7038920849460715,-0.18291520953360435,-0.677701004143715
1330,-0.7375966702182661,0.02988219797842577,0.6298099744036357,-3.8198204400412115,-2.3376826679576075,-3.0818058496508147
1340,-0.7006439952396953,0.06674136127050623,0.6622412755819527,0.5470654721217489,0.8362491700314958,0.8622617290533303
1350,-0.7153594083618442,0.05839267666376878,0.6467959759496829,-1.7400682823585762,-0.9942317627922626,-0.21605181166347087
1360,-0.7170294568395594,0.06276504632397256,0.6410070284894206,-3.79706474974289,-1.2952986074044843,0.3712797605956877
1370,-0.7104814103092332,0.060777542623462036,0.6420276707025683,-1.3816055525218025,-0.02920869053511771,1.423632999697209
1380,-0.7023157349524224,0.05804255170557405,0.6548417399754718,-0.06043306562241363,0.3952109795368773,1.1237536828196433
1390,-0.6963523735304493,0.0814270167871918,0.675632926413837,2.421376247848509,0.326833677597418,0.44689714504453754
1400,-0.7076969364593052,0.06998395866428538,0.6532510639460402,4.102000015047833,2.077775986406757,2.0490384881677803
1410,-0.7166564597534748,0.06337624942983898,0.6431122400159832,-1.4552825853865456,-1.2006093880519466,-1.979737750527229
1420,-0.6968454985349787,0.07363931547547158,0.6580608291206976,-1.894390222947756,-1.2581097269599817,-1.8956492456201
1430,-0.7152751759697197,0.053959692201687275,0.652850205651184,0.9134593429501261,1.134906721771606,1.1121348202492733
1440,-0.6939748385130917,0.07699012375716917,0.6704595698646078,-1.2601834665128142,-1.6168701520909567,-0.8171803373747
1450,-0.7074634171727391,0.06110072716793769,0.6502345280728384,2.4451013995656945,1.4489555139669774,2.851524172014669
1460,-0.7182093801813836,0.060406600749918764,0.6508236650910325,1.5261544727358218,-0.35825614256607924,0.266030943585738
1470,-0.6925398613663711,0.08768213398221557,0.6687438694558979,-0.13514863778389308,-2.5398892286961763,-3.0549523612971674
1480,-0.7169369936617221,0.0562912264599238,0.6478913658444333,1.5959727398906594,0.5290167214520418,-0.7842272884009585
1490,-0.6925166593521189,0.08079537047780622,0.6691297792285172,0.5452430576339448,0.18997807213844942,-0.9899028515734545
1500,-0.6798254292679804,0.09673787957351875,0.6799912074723532,2.0745777242307435,2.7057620173217405,1.937418609614741
1510,-0.6980642357786111,0.07619659058577698,0.6618244645436142,-3.375872709752043,-1.452024223763232,-1.8020754471083233
1520,-0.7388202260465816,0.027662065187300654,0.624057719866046,-1.7270727911082346,-0.0327104590842652,-0.2541659253546965
1530,-0.7035638067934186,0.07180867195090931,0.656756304660527,-0.8674318089805526,0.25666299499257844,0.5417915331467449
