time_ms,ax,ay,az,gx,gy,gz
0,-0.7461133586743263,0.0317799126399978,0.42839516732821065,-0.7361474501592435,0.8666446831305216,0.9432416974028228
10,-0.7686217413905653,0.008513970507166523,0.39407305201087495,-4.120410503075622,-1.2410772029809305,-2.486278471491843
20,-0.761186709874031,0.009619753125029225,0.40742932596658094,4.7873200491621315,2.5982222423284576,3.140206357606214
30,-0.7663623946049036,0.0053639588918977625,0.40470900712675584,-1.9306955473934768,-2.0406841993233678,-1.8443597564630492
40,-0.7426294661162766,0.031213222684024364,0.4304143087956553,-1.1970021347167397,-0.7640609878761766,-0.3598970096848736
50,-0.7618567148882471,0.013307093363499637,0.41062040923158233,2.943022370102192,2.1837754105609353,3.569562630761435
60,-0.7647049782837176,0.013255123227846747,0.4048288575458974,2.7122247637112653,1.9425252196960165,3.536927605716088
70,-0.7223812337495298,0.04952894251185243,0.4487652888613132,-0.7896054610244687,0.23927631680504657,-0.08136553277965597
80,-0.7640834762237542,0.005195567829154153,0.40417753290062747,-3.3295282181538255,-0.5905975193992183,-2.4309924423081632
90,-0.7200045073697159,0.05133476554212278,0.45289017286370215,-3.1299086254551822,-0.42017210375660585,-2.291165017632481
100,-0.7590603375947973,0.006415845431155438,0.4115987163137581,-1.9089580152469978,0.14886342586520246,-1.2775205606852726
110,-0.7396190383491457,0.024080735999345373,0.43109984954517133,-1.3684561964315927,-1.9752869121703647,-1.8571936506612876
120,-0.7753617259499482,0.0006665796740143864,0.40808043408499034,3.199806106955047,-0.9850830557837855,0.636368969516405
130,-0.7686795823952393,0.03207711111821181,0.4915781589154122,3.2311717313694013,-2.7417872336039997,0.435804389995914
140,-0.8192136628326118,-0.0171231867923051,0.4785451224498242,-4.068409679864516,-13.949128030833437,-3.647082441947095
150,-0.8289273573571352,-0.0025648868541687554,0.5227943884615114,-3.0925232133115816,-25.46814650191739,-4.499168664298526
160,-0.8181307172718979,0.033274344086776944,0.491860074630314,-0.5655978074022503,-32.372248373300714,-2.5067348185663865
170,-0.7354905428546784,0.12456237689980884,0.5161264584545956,-5.991474542381403,-36.42723094260373,0.5205707807698736
180,-0.6292623698887607,0.1015473896869601,0.4027402313643809,-33.90217789137361,-20.734804103150843,-2.3445877503815917
190,-0.6342061807807227,0.1146199645511122,0.44665653555596313,-43.139956030005465,-14.055633314994344,2.22492186292197
200,-0.697282651245593,0.09576474362932777,0.4318176335354635,-51.020341935678886,-9.320434991005305,6.395101393026833
210,-0.6402032261848994,0.10985796280100929,0.47477521218637686,-60.26507721208322,-8.460139389912877,5.221973588499138
220,-0.6470031576801359,0.009349198013916156,0.4984759738485392,-77.26184659068575,-6.469419684223491,-3.0286333190357846
230,-0.7285068557820227,-0.02270329089396087,0.4693523072110927,-66.41183869831818,-3.258809872360237,0.33990424090890015
240,-0.6998603705481083,-0.05535276000124428,0.44886119306192324,-36.90821944329467,0.26466502944616543,14.694811481713213
250,-0.6955563270859494,-0.08593578762450614,0.46959288501127994,-31.74994132355163,0.1126005237183346,12.555785418229389
260,-0.7250552751829058,-0.0970616109135123,0.49101061414212605,-28.044779232375575,1.586574715679807,9.77034630080811
270,-0.7056098273324916,0.01924384009581421,0.4107752515309464,-20.82231525494377,3.3596795545258216,13.113607665896614
280,-0.6784076642300754,0.00019794898310313523,0.44238013376352414,-25.78368413002857,6.52162770622791,16.618379459532317
290,-0.8328360329223863,-0.082315538614981,0.41282831320292457,-20.788852571852562,0.17554821978756813,16.421200554482283
300,-0.8968956935007512,-0.09691158206187084,0.39607131587959526,-20.25652168958621,-15.307074617065346,6.052505526543125
310,-0.7371859706909089,-0.16386594302179106,0.39204496312689424,5.5499336404687725,-14.422748660614413,-0.7422809070003415
320,-0.6518313610124394,-0.20867015986425844,0.563851822732582,24.050474844657085,-17.748781595301423,-2.903075396973768
330,-0.7557066518616601,0.011562880661332013,0.24701271902025998,25.406570377168038,-20.40595343525122,7.0050863540739865
340,-0.607954489117901,-0.3201807891769912,0.5001148742063909,-10.218527662431061,-17.760205963172755,-23.98802523347022
350,-0.7573087863259838,-0.36907951297689634,0.44722454757579616,-21.313764438561094,-10.315038402495166,-20.229654542412675
360,-0.7332506576554456,-0.039967516649326906,0.5735145879797335,17.42578589310572,-10.157124538979941,-18.71982035167856
370,-0.7330633517559912,-0.07288733967811417,0.4325651021304209,10.448353073109232,-5.263077164219249,-24.16561414180634
380,-0.7860417179346311,-0.09942941923902932,0.6683956393641953,29.447923143029517,-1.9958777965979495,-19.701524913236423
390,-0.7308416602968695,0.10212041943617006,0.6025165473683397,29.431614323691555,-0.3660404167753404,-16.931845179998167
400,-0.758061478775468,0.1288159512246715,0.6608859179411017,46.37875345527144,9.598592270962707,-1.1425428662973165
410,-0.7611629169926034,0.07728474402149156,0.5453560251745718,20.65875027261583,10.809023744847906,-3.2763976990637715
420,-0.7725737322837113,0.05894080802945832,0.47281906416989455,4.546922206313732,14.265444196014434,-6.153803985067249
430,-0.730217466560119,0.07050727705239135,0.6335236613811196,36.809834315151335,19.75461876151113,5.641492496298296
440,-0.7450303775655689,-0.0967964823383046,0.44212916817589937,10.983029606901058,21.988056404797852,10.948182721842878
450,-0.6977618291080787,0.05510051824059965,0.7837003782901025,-4.769328736641839,14.982581902445203,23.087740094190284
460,-0.724910706766556,0.14401705392724068,0.38768891928617855,-9.981381608934491,13.554327131365644,31.294236508118257
470,-0.7400733081186135,-0.08150109499102001,0.5968181041278204,-20.393917893220063,3.34168680820992,18.346305939377913
480,-0.7135945234274421,-0.0820284692549851,0.5443342649803763,-1.8284701295298635,7.025409941725179,24.388640528309473
490,-0.7350802380007182,-0.0442513798075147,0.4685782985455675,-3.7026857408528993,11.017961162990506,22.095970407095372
500,-0.7029507993960491,-0.06269208941026554,0.5835847871149488,-12.121211316370712,-2.345010172362347,1.8194558219100507
510,-0.7688701042104311,-0.05426231767412814,0.45818819752433604,6.705015710145679,-0.4270982628235318,-3.0980918594531612
520,-0.7213257109485128,-0.0839172491895459,0.4486792809718771,-8.794144991642284,2.3660895207742834,-7.073538811213299
530,-0.7269772522594387,-0.023323927415078743,0.462169446280275,0.0959301397747978,0.5988586919251968,-3.557937456639317
540,-0.7058370671856405,-0.0036852923979143366,0.48122085970318706,10.437090196472015,1.4545714603743152,6.71336254858009
550,-0.7744192136704463,0.038532392336448604,0.40834447089786113,12.546957947573848,-2.872267700406982,1.6809533427253083
560,-0.8014731056510417,0.22783566404506211,0.2730401582198209,16.423030479905357,-6.404993354170464,-19.309574552548224
570,-0.7319585149608409,-0.09513700049871976,0.3403769013902688,2.010456389697614,-2.0700399373236698,-31.31754172133074
580,-0.8118840526542734,0.11991960057175624,0.30628388517191735,33.97030152663687,2.8957740866242383,-14.176223143051942
590,-0.7574862897597692,0.16082964921331594,0.4810322209712715,32.27722101253227,4.521712133028609,-8.502191547694084
600,-0.7541293463819119,0.03796008379392389,0.2314807094592658,18.22585155361173,9.013859325214124,-12.836444763789228
610,-0.74904949441519,0.22284576819754792,0.4882590097617885,37.51357335840887,14.85263842658439,-5.865980419300196
620,-0.8117622357039511,0.24825988492743628,0.37797700862521466,44.50622235883485,25.134060894703754,4.132303383255211
630,-0.7695360482852064,0.047004288403940185,0.43642349788845075,30.806296918406506,27.041907698255557,15.406728161806061
640,-0.7229591647159758,-0.1029724046523001,0.6308594559911134,9.484983108151006,25.655378091649837,5.784420478761712
650,-0.7429269841134489,0.09454732090412192,0.6120718040520409,4.419429923566278,26.59295191908599,5.047958488681659
660,-0.727637310712974,0.09513755350279278,0.5499617879060874,-7.84754901986536,21.211407338440807,11.365875162869207
670,-0.7781492601895127,0.05009951148479532,0.29741001952824403,-14.345508086316924,16.202948635431387,10.036028120522117
680,-0.7293510857339484,0.17573132472744316,0.3144070284314472,-16.78735688896006,15.714905816565713,8.454050636304736
690,-0.7134367005932686,0.263379865782087,0.16064241319925365,-20.334264297930734,9.459830148477609,4.672986619798475
700,-0.5533628353783896,0.3799601757331354,0.3423634401765622,-26.617391377097803,3.1678402603689735,4.589538592911424
710,-0.7391984823475671,0.1535038187418518,0.4736946849947297,-44.76101133232749,-0.8302986803516368,3.3219566621556327
720,-0.8205848785856323,-0.20829382447218417,0.4240191786334225,-21.33329737499799,-11.44293687197349,-8.649851582336016
730,-0.8341969178146115,-0.2255558169961161,0.27886011908195485,-33.651244415772474,-7.196419162059405,-19.059812609400144
740,-0.7875416263353575,-0.09703153388077396,0.30969661865835907,-16.909281877334553,-1.1045296357092365,-17.480242346192366
750,-0.7645003654517959,-0.06576314476848515,0.3638775293564434,-13.585298235567311,-3.035994226266697,-17.624744990114134
760,-0.7549650369995501,-0.04062505601582537,0.41624054265434035,-7.329033971451288,-1.4216462553152538,-8.633617500122819
770,-0.7499785272023105,-0.009940794958739587,0.40148171818659556,8.16055546379329,-1.3987412985949754,6.552729139413921
780,-0.7615096439674557,-0.0013342783311278252,0.39611067957880713,8.377747243142394,-5.400891488463554,8.450500317783453
790,-0.7690013307484977,0.007401774579354092,0.3910852934089177,8.900520843802454,-2.8847418678722505,10.813550000211983
800,-0.7673292427726464,0.015496812345327855,0.39502255911491674,6.0358014751464815,-2.4893939188136196,7.269995132077107
810,-0.7524442791689188,0.03226877197414066,0.40624900656496893,1.745012034304597,-4.8257631548272055,-1.0309765185690383
820,-0.7602067557793644,0.015902669939422152,0.3960885285760712,5.050666137415712,0.026601481703862007,0.5466502889348313
830,-0.7535776095798417,0.025481881955741043,0.3945537706577942,1.0091002329298657,-0.7440996369755168,-3.045806030107224
840,-0.7176165697103863,0.05545011577491237,0.4421984897852403,0.5235348648844274,1.5949141392637234,-2.158149686162647
850,-0.7564393132212225,0.005837976370372832,0.4043915181739249,-0.8071983523736457,0.00509740493949376,-2.1631490164962046
860,-0.7580341923980332,0.006088592306524268,0.4074652570680344,1.1193141533606548,-0.6632042195232011,0.8958006402830736
870,-0.7634914523775519,0.00771927700090857,0.3968977485915753,4.90342871743628,0.9351699630666275,4.741880606331181
880,-0.7594858110999163,0.021130079024633135,0.4035203016698292,-0.5307944531581166,-0.0568823068745451,1.888767597952429
890,-0.732487081540538,0.040758341138979776,0.4253911311958344,0.23390988561228354,-0.5291841923344951,2.4357267347283744
900,-0.752990160387944,0.024842752538286605,0.40518257357774573,3.735873320614426,1.028031832569035,5.493111762729075
910,-0.7827881598487151,-0.001842066158883597,0.37478732423044425,6.353868185217575,4.2605985132547,8.705304481379455
920,-0.7442688866432319,0.039450999862999485,0.42195423687557215,1.8745439890978899,0.9504596785516323,4.127453731198861
930,-0.7746714074054359,0.0070954282152591655,0.3879508944902199,2.4052991893644906,-2.758203228955923,-1.004256890087158
940,-0.7314379783333799,0.04850933126294588,0.4257626845773083,2.9561190340789465,-3.018363573627884,-2.8253097749265685
950,-0.7519895318404048,0.023109667378135856,0.4153304412006385,5.826111875548596,2.1902729861795316,2.523500303878474
960,-0.787019406413979,-0.008797212827462438,0.38227777180539496,-0.33727742619916246,-2.947269492057214,-1.937957100845465
970,-0.7654337266618066,0.012373652899766073,0.3963441397877365,4.330670575217489,0.47071276640730775,2.24955381832597
980,-0.751109597568038,0.03484681908847613,0.4030000203197099,2.523498014909965,-1.5876812603393924,-0.4531492633469574
990,-0.7459483760403425,0.038902302140536915,0.4120635588380745,1.0962880493714071,1.311973662322159,-1.2761543796512032
1000,-0.7279388038977448,0.054613154212737894,0.433264531987931,-1.0094504412989185,0.28423504040696923,-1.983226341926549
1010,-0.7709633946991551,0.01129069062090951,0.38981205141528813,0.3939242906385516,-0.2427133268980689,-0.8160597177693072
1020,-0.7534522607640641,0.03035728423454145,0.4002129361413971,1.096197339863049,0.6590944213161268,0.9529921466864603
1030,-0.7625566984629533,0.025187875556555793,0.39579816231868764,-1.6037882319602987,0.7358672879269099,-0.2526530199585397
1040,-0.7678863678894546,0.011158332633485937,0.3909644060137489,-3.5915269392743876,-2.0088183665651544,-4.074800113909565
1050,-0.7541596898059192,0.027764315709361945,0.4069300674655477,2.1810979464518745,1.581184235548243,1.5442794473060002
1060,-0.7627826493885604,0.018927912186990414,0.39582362881297384,4.600638841214876,2.9795249876009193,4.0447312321721345
1070,-0.7460735079329179,0.03837936938908362,0.40948028615509485,1.193339328444881,0.43233786636571236,1.4515300353095715
1080,-0.7489098983221618,0.03693126607351691,0.4133946768674261,0.4229170796103642,0.4632587362408741,0.42852027104618295
1090,-0.751479318072679,0.02943283386875798,0.4065187275919638,0.8765781053397923,0.8577004829890498,0.4491964356641165
1100,-0.7571116539375142,0.022814289041986926,0.4044823034157854,0.5796203174540068,0.20130593723653767,-0.19553301440194226
1110,-0.7732301584378493,0.01564086807139964,0.39048217789678913,-1.1388928572758041,-0.6176113817721675,-2.157229433210356
1120,-0.7812351943907389,0.006653576571859474,0.3781961281398656,-1.6084244194962263,0.7141155789503408,-2.3173484594642906
1130,-0.7622301141115304,0.01908256579871106,0.4015738669646533,-5.547295731052889,-2.4754837403544894,-6.127511664608384
1140,-0.7460612745388914,0.023334656439100168,0.4103227060706577,-1.1523029052662819,-0.28218896771792495,-1.6869599556147257
1150,-0.7884705404077696,-0.0034249293862519126,0.37370164514611676,-1.0089783751306587,-1.6865087868586883,0.33536576115649863
1160,-0.7529536282591873,0.03793372179314039,0.4112280706893363,-2.150164108136592,-0.9955971407671402,-0.6896790554777498
1170,-0.7395281729337572,0.04843291647196177,0.4231282953116243,-3.73572416084576,-1.8946877529183745,-3.2214600219358394
1180,-0.7710899907620227,0.013775620810204873,0.3933293827638645,-4.262451534286173,-1.645640591643303,-3.685646735216368
1190,-0.7842711104928755,-0.0027106105038925375,0.3803641736117276,-3.7827335190289846,-0.6327762499002987,-2.4420504981117337
1200,-0.7723970468922189,0.0011038520064929475,0.38867366431043504,-2.4755522758019133,-0.8532690997707617,-1.4145670037727296
1210,-0.7550708934957515,0.01747758409022587,0.40456700850415706,0.8478738226833209,-0.0982643009804156,0.6056528913235294
1220,-0.7666141548054973,0.010625232714130827,0.3897538533038939,2.203225979273313,-0.3886757742111363,1.2834507037278393
1230,-0.7579489772677925,0.019128025839914645,0.4053327314726321,2.2248357067087556,-0.3400273033552773,0.9281659963584632
1240,-0.7375789080671864,0.0491591962089873,0.42300386609873597,2.198786855025985,-0.25432097451863667,-0.4310895227160503
1250,-0.7679470015300057,0.009448945510088864,0.3892511825701496,-2.2379382671688512,-1.593915834961869,-4.101307376845784
1260,-0.7292758553526311,0.044254322767552735,0.43273268689971656,-3.6631674694843985,-1.3364371991964292,-4.6107590413374435
1270,-0.7307748172068212,0.04768198607546221,0.4285937279767284,0.22872496271696385,2.105588681093659,-0.39745921230623726
1280,-0.7554877212196991,0.026291082908213265,0.40723437261436884,0.6917719063892311,1.7322750483995808,0.3934822110733449
1290,-0.761803014851176,0.011078464021783349,0.3987139223207579,-0.6823456661434089,-0.5742638173018721,-0.7221113598241666
1300,-0.7512336468762576,0.019515871938058732,0.40835632217513823,1.3904765023822234,-0.4470322106789584,1.4430084641819942
1310,-0.7620511941106398,0.02092908452267426,0.39374234027496213,0.582636005165095,0.6158286807701214,1.099296251118016
1320,-0.7295184080688087,0.05073157128751928,0.4336599782757861,-0.46553731373043095,0.05662592606204861,-0.8471078572755308
1330,-0.7587696221408186,0.0136230004853077,0.40051110644336807,4.421534508155833,3.4633700076753713,2.4704746993375313
1340,-0.735321063489699,0.04060011043434017,0.43035759735389756,0.8419857871024297,-0.7764775907855063,-0.8872402771840706
1350,-0.7500195789273366,0.025962950656670553,0.4082770426042262,-0.12183710536665449,-1.3748973673082847,-1.3932243864570577
1360,-0.7705714781859073,0.006710313750053121,0.38742848252185647,1.9855229518774,1.7933037356455586,1.0157367565342823
1370,-0.7463782184079284,0.03176686633056024,0.41614596263529363,-2.26047608299452,-1.8297771156961251,-3.3694248511409253
1380,-0.753987168792972,0.017494421689948938,0.4050993566941776,1.6912411857832266,1.593487822588444,0.4313184626026443
1390,-0.755835897299021,0.015935682873500272,0.3999729291757654,-0.4845129581148224,-2.1304757064332454,-1.8715095292534476
1400,-0.7614781807145613,0.01442216661008296,0.404490607226204,1.8457846407111322,-0.2706830385889386,1.2099750336916024
1410,-0.7404399144721244,0.03643875307511623,0.41787394589829757,-1.0326861837076966,-2.9182640398037445,-1.7642515531584548
1420,-0.7322403267023964,0.04520497650161359,0.4262859811253622,-2.486053380746427,-0.9607359942938098,-0.8486758882333116
1430,-0.7574672300875238,0.016894879309042418,0.4072548116556767,-1.2989962650648592,-0.6165433483959317,-0.39651075621656784
1440,-0.7523389299572416,0.018247769465460115,0.4111243276217031,0.240709595021843,0.04077128415542247,1.3737082049013847
1450,-0.745447411453572,0.02667598822121646,0.411984040189423,2.607695454875661,1.787528231006801,3.6942806086586177
1460,-0.740271029637223,0.03776876866947623,0.4147884453240589,1.791737632863249,0.7459881955842986,2.2564975002603296
1470,-0.788170822988269,-0.008809365431661626,0.3732067236408813,0.297898922965088,1.1214438413297123,0.26369014844856287
1480,-0.7662739178473281,0.010048956594560558,0.397752353282284,1.2490339619388031,1.6656115174322264,0.8314988946502634
1490,-0.7422014483722165,0.03187597237935629,0.4204204050919457,2.5080609584494966,2.106336291358734,1.9662047605147337
