time_ms,ax,ay,az,gx,gy,gz
0,-0.8869483946777483,0.17850420090660227,0.4360999520550517,3.637801110722009,1.890742295936922,1.7031433018200821
10,-0.8849709584384926,0.18453407759539472,0.4429421360987344,0.2714560294196735,-1.6784716794280514,-1.1209582603334316
20,-0.884131764993762,0.1807701965177832,0.43850178341632057,4.486279743752239,4.729176224467824,4.718275392706768
30,-0.8865821539156096,0.16858492943751566,0.426045356564666,-2.7825153287080737,0.6537241089307618,-0.3740311584080692
40,-0.8708853826163621,0.18770505643724447,0.4512145313468554,1.5418923900572539,0.4709870835061718,1.5131583933629495
50,-0.8912017704617222,0.178203649830542,0.4397158187805125,1.871062900537433,0.23321086967285376,0.9686546176590749
60,-0.8864867934493493,0.19351722651461836,0.4490215518782403,2.0555630804266287,2.5885531039204803,2.5513828521806383
70,-0.8910696755235507,0.1711846962072859,0.4344101809540378,-2.0697036956285952,-0.28967081387236526,-0.995237082154874
80,-0.8935309734863794,0.16563905676800697,0.4276418835153404,-0.6541886781321213,-0.33025140395790614,-0.7188607750261646
90,-0.9076885436033744,0.1626790930840608,0.4137037212173652,0.5015937844798399,0.1870855166585359,0.5084684693236435
100,-0.8642571418907704,0.20093953534493939,0.454451016287822,-0.25077739881334404,-0.14400132526010995,0.24350899530947195
110,-0.9048580545372555,0.16956851052070301,0.4340120627930144,-1.767376937342745,-1.9581340582370654,-2.1794652504586556
120,-0.8711567940103514,0.20178533515805275,0.45597910870540037,0.9388214307820462,1.6341215447152104,0.5783646764387055
130,-0.8805240667112282,0.1822643823676219,0.4474473653541366,-2.0677199584741386,-0.086885869985844,-1.9238838103682951
140,-0.8946384201392555,0.16690571228888917,0.43611375333788305,0.25612218504820045,0.16596888144335378,-0.5452389441981786
150,-0.9164773037732926,0.15057015405653854,0.4204235730508645,1.612382723658687,-0.07861086387525848,0.3511353195880511
160,-0.934236715258481,0.149179092475395,0.4081803456148617,3.0060371231130603,-0.2951729717687759,1.9432615667022664
170,-0.9201945488693186,0.1644392698980435,0.43018699758368295,7.691811222264404,2.6350142696491723,5.509643515173588
180,-0.900933687917965,0.24027773870237804,0.4822599810992531,5.362743174728045,-1.885301267737715,3.7021693376597504
190,-0.9037300014205979,0.3522864238804457,0.4869442724550674,-12.539033708745546,-6.076756552052719,2.8832241692894316
200,-0.9315184093995957,0.28850928651543134,0.38792733577559124,-16.74499009307977,0.5631132166782508,10.586550938138217
210,-0.9025327901162208,0.312868004772184,0.35637383408364337,-19.762552656206033,3.2326109194302797,13.793672407388733
220,-0.7405794929488058,0.28241053246504033,0.384418364905418,-12.021616366445254,5.254485646282602,20.704068321299125
230,-0.751812731664763,0.16463470055686516,0.3627334496387164,-18.62167872664819,12.54986488489778,17.958412738542282
240,-0.8478416001858115,0.17451155460676243,0.40391246390466384,-12.871423706875323,15.212870539031242,14.703488560059906
250,-0.910036592318549,0.14057022367220415,0.49420370840573774,-17.5310588260516,12.057428870982315,10.72784881582106
260,-0.9490997228344835,0.05568382332333767,0.48638914316016046,-16.44886657577394,7.06114125245565,3.9221158515388126
270,-0.9234129877538156,0.0974482520995068,0.42070662179755947,-12.292428579782952,2.4671028968645485,0.7173445961066718
280,-0.8496758487580366,0.14629822750675617,0.39915745375498835,-12.826112624989872,2.7058239355241644,5.858280512377761
290,-0.859754062805438,0.06400294745823593,0.39421735716423256,-10.538260700148713,6.262020874006646,5.216286402358885
300,-0.914776729206813,0.058040525378020555,0.40333613334867263,-5.468110089256831,9.88002783253514,3.96057862379643
310,-0.9485667378633901,0.17437074236612682,0.46744281750602396,-3.1321656197172096,5.312096245073162,2.0220943933052373
320,-0.9485547743619125,0.19937000741725094,0.3960224513668476,1.8290413866563873,6.754688886616495,8.231187186423679
330,-0.8802580487338834,0.20806663601236097,0.42271371877150987,-0.1815876477170142,7.861762352140564,7.07662950418689
340,-0.9168200833442803,0.17972561894025665,0.40677697051694245,-6.222156246155861,7.740789292366782,1.343174214721206
350,-0.9686034738848721,0.15675380074318865,0.4004474479454916,-2.6527516293221334,9.555318329985429,3.9014985111382265
360,-0.9410324772574213,0.14305750837744685,0.4562679355690164,1.4601989618871083,2.5329206280403262,1.672156160317921
370,-0.9052562057074739,0.16114215993375414,0.43001206580517926,8.655617834994176,2.358341977223356,4.6596469037661805
380,-0.9086740668293215,0.186551297624014,0.39411733201799426,7.024187674614851,3.335986566920467,7.193292158949141
390,-0.88403398125368,0.21790023012069726,0.4257681907584547,0.8256144862613932,-0.6980520301883979,5.8880963417700745
400,-0.8646108611933575,0.22372982315134418,0.4493454638954557,-7.992544944832927,-4.951623284311156,3.221087112721918
410,-0.9220654069199952,0.1624248378198899,0.34337671184405044,-16.911653194286192,-8.4511499324719,-1.3706110065127384
420,-0.8311706802601132,0.11598321063288711,0.6327435885912893,-3.811892310946689,-14.67409522119769,1.4580836594273863
430,-0.8097875871035866,0.021904276561116664,0.6834844684688817,25.3587763445807,-26.48636333487587,-2.229731902239684
440,-0.7395157883059489,0.0722119739851004,0.2806459347956514,30.09492492355548,-30.36375861783174,-11.8551184199529
450,-0.861796015158914,0.24588555271387397,0.152430986270703,35.18905101083944,-17.48467438818728,-25.43579433210133
460,-0.8692902242487627,0.751606254582841,0.25938101012692105,25.39470789455624,3.433017868008408,-21.435857583235503
470,-0.8919737780381,0.6108557910496254,0.3525791304598129,0.48265907245322515,6.792928408817309,-26.296657325125615
480,-0.8772860816779011,0.7518994714652558,0.636706561777474,14.618120284473836,18.838097093787415,-16.146131053779573
490,-0.8759271273578101,0.7722739269221618,-0.12245929991790655,10.149682226787355,39.602254084284475,-0.05061880028447896
500,-0.7480992986484434,0.7529433508683582,0.11901121151774224,-7.078219180572068,35.894183353322276,8.184646669459877
510,-0.875778179493437,0.31779882603969123,0.4038733200082074,-33.75643938112819,14.563421161880306,8.53762995490556
520,-0.910833653533941,0.04380551998378705,0.46777074615102626,-47.8070783507798,1.744283866154421,-2.658171093328879
530,-0.9405355693048133,-0.28184585398947415,0.4595679705120213,-21.53823395127895,-0.04969692356353583,-16.599220659004445
540,-0.9149754353002625,-0.01883153527368783,0.41901488460151104,-1.2571375235313365,-3.049371040428964,-18.349043401785067
550,-0.9146759869313678,0.12282021604287488,0.4006396638278231,-0.5422657964043591,-2.3961382406369616,-9.490332040282627
560,-0.877832110121765,0.20164667122330449,0.43440496049412397,-1.6535860934579696,-1.584222124696367,-4.2853913740492535
570,-0.9308680293792174,0.1373722255131451,0.3855208023522201,-3.5914398608483378,-0.5181919074421244,-5.071979256685178
580,-0.9084340690996311,0.1352958119929594,0.3914609239431076,0.8766112077462944,3.4238249889967203,-1.6168768045268735
590,-0.9068692729473855,0.12191135696928646,0.40303633626095975,11.180560000489745,7.072087177252666,3.6267324795225715
600,-0.9032620518850619,0.183402089271692,0.3949841075411078,13.766366520784201,5.911453734777005,5.054904415718003
610,-0.9451986735445239,0.18505556379774996,0.3535408216117342,-1.4638014546366733,-0.0520611832209954,-1.2687067565389607
620,-0.9037078850297092,0.18706770341335638,0.39881716184214994,-5.221607156296363,-0.40950173271296914,-2.124945947129513
630,-0.9264097813617386,0.13715800181292961,0.37652357433935363,-2.97432957522308,-0.6995606519747632,4.003641907694767
640,-0.9140285907479903,0.1908833774248555,0.3792183663328996,-5.148486286075745,-4.58705995677966,2.0513416270286964
650,-0.920461238292364,0.1760970400622597,0.37787968506816,-11.493660699352604,-8.868151138428246,-4.392057638559485
660,-0.9063509501099324,0.1491738595329569,0.40852486697267354,-15.53495260751055,-10.979631605928716,-5.837719185320951
670,-0.8966255540991948,0.14490389238665158,0.4141366666350173,-15.031206363393817,-9.899909784386193,-0.5090091345398815
680,-0.9024428944489512,0.1251282950189657,0.4180283638255446,-9.801645893937726,-9.553668786859365,3.2402397738700044
690,-0.8772810049346615,0.1860384656016705,0.448259881147497,2.6623466760242316,-2.5407004407438585,4.339159974451855
700,-0.9148336484599912,0.1482503297180386,0.413938691855526,1.4262365292360037,-3.708447875560233,-0.24206767201033363
710,-0.9055636879712178,0.15326348611757099,0.40837273121540163,2.3712671367292177,-1.5435258950117725,1.1269314491537141
720,-0.9152822764437811,0.1393572877360348,0.402905884889034,4.2894958023614445,-1.909201130754283,2.9920892792732037
730,-0.8936266004070476,0.17399386800861605,0.4168816529522412,5.35485969911155,0.37622711713103774,7.162877822388892
740,-0.8919087253161897,0.1867538400186324,0.4150141317647185,2.120739889945657,1.1595496365156839,7.356458035164622
750,-0.9086105852018135,0.1458289062652376,0.4072533949719667,5.509859572558584,1.1922904734115078,5.617780718418749
760,-0.8996350519023216,0.14828019413426297,0.42238715229835927,7.873093208524182,2.0510642548038858,4.691314070714924
770,-0.9044674690029315,0.12623958196571175,0.4413754269598513,8.063054872547326,1.6276351269652585,2.437054600472486
780,-0.9138582492335459,0.059597785416492056,0.3939603496904961,13.368811025136775,-11.501761641858224,-14.289630397757712
790,-0.9090959023507444,0.14934152141959706,0.4180815000867246,4.7367801166297525,-5.3807902016743405,-5.31302302326284
800,-0.9024910165646317,0.18392131225845668,0.38265300230083343,14.997008353950296,-6.255536704516777,-6.537219319069407
810,-0.9311242379762836,-0.0070237593351772775,0.47849826066102663,-2.0531111552519374,1.168413360788963,1.4994664208719013
820,-0.9171052084951479,-0.09289575178944695,0.41792064350402514,-6.6902121176229565,-4.7675756601598165,-10.191479056929042
830,-0.9110187574256491,0.12185391015233443,0.46226869013301813,4.911355513000714,1.1782860797666985,-0.013317372628521118
840,-0.8827916592134966,0.27694868444742254,0.48295027527906187,9.772804118278874,-0.6206926125983798,-3.934060728776949
850,-0.9037958061746169,0.1888303610810577,0.4370310238321598,0.7288065784497664,-3.10508390905304,-10.068539672564041
860,-0.8937992553295403,0.14784604811878993,0.44135165305421853,1.3906650375919871,1.147560168174043,-7.156655523050154
870,-0.9044364427230249,0.17495665981123082,0.40638506378720407,6.813394444235216,1.007663956479557,-1.7920445049475402
880,-0.8942657123141734,0.18750776125820076,0.4085134019662289,8.015046935188822,3.066028243071243,-0.9507702642076814
890,-0.9184408979701082,0.1705753556952374,0.3843563844817357,9.975175587498569,5.638003190593717,-1.8255451949598067
900,-0.931251804216154,0.1796498759395171,0.32600033999685457,7.669334532964931,4.683309266070782,-2.8387278465664534
910,-0.8972999921226626,0.19896241973612885,0.37727050134209345,15.696303311274814,4.771963233711913,0.5624400242502046
920,-0.8818912280957357,0.1758626640264499,0.4261533080664071,5.978842962430833,10.444545150865997,2.9642062458967016
930,-0.8298812094637562,0.20115508794172343,0.5648100214460108,6.167990752239391,8.595221942064768,2.000093421031295
940,-0.9248332894223874,0.18959502353024582,0.33287235857303027,2.3016874074992013,7.173867720981985,-0.6104507443271456
950,-0.8977305583396628,0.17083194282300906,0.40882693745619375,4.087164660909681,7.345739045701165,0.3415789324893205
960,-0.9118817376799326,0.21240841749364156,0.4185677469271489,6.05642139331943,8.86659457588426,5.8881711253174185
970,-0.9283123864446635,0.21435489904237598,0.30277659972824794,7.790730989987491,8.007508158014163,4.540130478476383
980,-0.9332183497469168,0.2336669255322858,0.31265849415217084,7.847618559537089,8.727795008931983,5.388986895976963
990,-0.917142383975302,0.17167509194827138,0.3892009139868348,7.096919625096602,9.165315185578491,7.578533196307641
1000,-0.8955856842000952,0.2611013457705539,0.35591314712344224,7.707687206283284,7.187618435911338,5.195958516820543
1010,-0.905014403636586,0.19426503808581774,0.33190478063419154,4.866457747759661,9.325539385358391,5.703153375549042
1020,-0.9076517376302922,0.19357876022990006,0.3070818267491097,1.7989304225967524,9.838648118769758,6.042906615912791
1030,-0.9093021137539488,0.4304485440936312,0.0068488941892050695,17.68440317089922,22.019314280056584,16.870555065930027
1040,-0.894602417397505,0.37047340349643965,0.18683521981338827,12.424188368060225,13.557629371374114,10.909045121829813
1050,-0.9018562558352086,0.30831937309194324,0.285878213311493,6.639293289002727,8.929798400828837,5.461519037091106
1060,-0.9032577931382028,0.20367342132559105,0.38798017315085215,1.4719436919089544,1.9661825069688899,-0.24106532892332533
1070,-0.9019422147347225,0.2567422895935403,0.35229187624938324,-3.1254458584799205,1.0384487711261239,-0.8215134584914485
1080,-0.8940911328565292,0.28478127188344615,0.3710563689012473,-7.591095507506989,5.136146985454338,3.5042722005788995
1090,-0.9374088185336173,0.28833917841968587,0.2557423817691148,-1.5266283507354337,10.124447207212734,11.027295739862195
1100,-0.8829278142231086,0.35517665917167096,0.26641345799960686,-0.3806026788905903,1.804094128657188,6.814201388212453
1110,-0.8915645055284168,0.2883366128452965,0.36096432803962547,-9.250551784209136,3.3314899217684517,7.031519179220086
1120,-0.8779336814752557,0.24786623954654444,0.35719172476303096,-14.890892061011654,3.865850052079973,7.4334503885704555
1130,-0.9173532404281429,0.20373210267713693,0.4041250659236478,-20.465555115244573,-0.4386957983278613,1.820448359088601
1140,-0.9096826182208047,0.26259047298212984,0.43355783208673787,-11.566006073687236,-3.07838829030751,1.0979159800771958
1150,-0.8767803719646869,0.29813639134562825,0.5020511378383333,-21.91613624568779,-6.413180894923125,3.2220957593263533
1160,-0.9283885776942922,0.008056852698134973,0.5296314938616179,-12.383615679892456,-8.484656248146525,0.24562730122296772
1170,-0.9453593784869201,0.0015162100131180442,0.3988637381769176,-0.32216461302179944,-4.276769061249679,-1.504957937999369
1180,-0.9199193569356898,0.15845551462848428,0.3981936971771771,-15.697143768567308,-8.470846266113035,-9.51560807137182
1190,-0.9249040987347761,0.17557621666246112,0.3800030309360831,-8.862428052763237,-4.660720947814134,-5.256226593369295
1200,-0.9154652721931634,0.19425489304505006,0.36608144967644346,-9.445464298057878,-5.800051689012607,-4.138680834947355
1210,-0.9006059995318649,0.19643053020092166,0.38066487305621405,-5.932206141079592,-2.684754852504522,-1.2900211151446093
1220,-0.9307896794689701,0.17650536014998605,0.36148076804547835,-0.841908861133571,-0.16071289959758817,0.11153636503404096
1230,-0.8739403706542446,0.23367470922528777,0.4098877722443753,-0.005622674307633524,-1.2337272338586454,-1.4506698850664714
1240,-0.917732311495017,0.19636372356392667,0.36779579881712077,3.017553566809301,2.6089022268669955,1.2307427999890395
1250,-0.8872722219632719,0.22867837005561814,0.40540796985699934,1.5412466494144925,1.4675674012987927,-1.1820630065338087
1260,-0.9246156395864664,0.1863545216528595,0.3570902502589868,0.2952437895765896,-0.6099547438431159,-3.51881061592303
1270,-0.8942311990620854,0.21932250974718812,0.3870995242730719,-1.8593854812212909,-2.2781720499137785,-4.838011613515329
1280,-0.8728136740311365,0.2309201833275519,0.4143677001153183,2.641940463249503,-1.181053250027022,-2.1068290438076653
1290,-0.8994630507574952,0.19968834998129453,0.3910420760813337,4.564814144058068,-1.021747329928207,-0.164686375376496
1300,-0.915796338130002,0.19699014762299571,0.3711356541870485,7.050829025545643,2.4540844691026624,3.4878858140421967
1310,-0.8812852416445986,0.24404309235778104,0.40323186379377485,8.163627233976321,4.580302524514934,4.921506251510759
1320,-0.8991757923883441,0.22958665531461148,0.38545183593558724,2.8999667828094178,1.562951571739596,0.9869676716214203
1330,-0.9191068098939105,0.1973482088328855,0.36879631893666365,-0.6004404703828159,-0.8302485392114607,-1.7495519587472446
1340,-0.8987785979169963,0.215562777491953,0.3889819419141821,-0.7089037235591374,-0.7515529089341485,-1.7345828691269047
1350,-0.8949158142188653,0.22270832144539968,0.3901993430564845,0.5262562701317494,0.9394670181341435,-0.32327054509887265
1360,-0.9040347189288216,0.20933138315240407,0.38174665465553853,-0.6591042379398431,-0.21440015758509623,-1.248031935212268
1370,-0.9217006474109157,0.183405995558823,0.3548497724270592,3.222376968487486,2.898167068641822,2.0907825348081945
1380,-0.902040064773806,0.20774426616298466,0.37621223080939453,-1.1845012139303197,-1.695509421843016,-2.166399386498131
1390,-0.9143744743381688,0.2167152378597937,0.37999687423708056,1.636901991987485,1.30249795079204,2.0047991537341088
1400,-0.8861612675073802,0.23117278464502578,0.3975121739136639,2.728606114551257,1.0866632163825716,1.9947536302502757
1410,-0.8891054408711534,0.2413197077708971,0.38576181962536427,-3.1144342043267956,-2.528545484267613,-6.0311758330901934
1420,-0.9069021806214307,0.21197847224728578,0.36793155996656995,-6.14636731192576,-2.223660507715901,-11.126177013828496
1430,-0.9325819655713038,0.19088933461190655,0.3602652327544016,-2.887084665589211,1.5751644690168087,-10.579344492255917
1440,-0.9119109024210231,0.1830901252909162,0.36911807993763057,-1.499013965265724,1.3692093046169531,-11.308826404070611
1450,-0.8755264055213806,0.18348705748175884,0.35802223049125703,3.742162861251057,0.9880961922757301,-6.963486396613278
1460,-0.9261417633378184,0.17678992387093392,0.36589972807444426,14.55897677234722,1.0661963977444406,7.640150357098121
1470,-0.8888171484865289,0.22335154355793418,0.39222998054586783,18.71902601981789,-0.10152668259211328,10.470577911975575
1480,-0.9041151912091585,0.2365768976693063,0.37938074170000496,23.050610607264165,1.6392661352624118,12.207845178765572
1490,-0.9067284351903793,0.2576981979458962,0.37666464224414936,7.928308491141892,-3.300715500531495,1.251796172390961
1500,-0.9088756746983695,0.2383300566714196,0.38094774371547446,-0.6844673435572556,-3.837342091759579,-4.86487342528323
1510,-0.8991070147104363,0.23038260541057975,0.3787234093699603,-6.618678671966731,-5.799206822562296,-9.035186647440232
1520,-0.9006071493146515,0.20934248933371158,0.39037265785278275,-5.97733521846814,0.14331257094246186,-4.860701178515285
1530,-0.907759861726474,0.1881797923716938,0.37317182665358867,-6.657297028830024,-1.1298208664976739,-5.2391639636369005
1540,-0.9075373703601126,0.18546877272797568,0.3714446734887063,-3.5335968005654,-0.7179877533602345,-1.3589942850312373
1550,-0.8832243170891881,0.21332084412978342,0.402055280817863,-4.825836299150297,-4.786363039725558,-1.6722875353194318
1560,-0.9384995934406353,0.16288086940048374,0.3426859713449715,-0.4352567996132631,-2.9698524387596095,2.119214088133783
1570,-0.9321091654632899,0.17508004490276358,0.35362679124863045,2.0947439732430286,-0.7335936920401491,5.05382070838199
1580,-0.924666863909216,0.17447085768895496,0.3593941769627446,-3.1006220928937873,0.1343346847629589,0.4696753557769231
1590,-0.9192004740512615,0.17886411914720962,0.3669206750890991,-2.1597248786149583,-0.14061454975433918,-0.7777271589570657
1600,-0.8849271968571235,0.2168874437471053,0.401573542153918,-0.12916880413704968,0.570592716716827,0.4035400457868545
1610,-0.8995673620398157,0.2158034220715793,0.3779080424869627,-0.9820462839084567,0.22494959893293043,0.8227275898800814
1620,-0.9065691937821672,0.20289098943988193,0.38515261507146353,-2.927338301694153,-2.939304777932019,-1.9420471930970011
1630,-0.9073308198134157,0.20743654375123535,0.38170106922750346,-2.2113842497924066,-1.7277216897660894,-0.6933893521960104
1640,-0.9225571969326558,0.17516696020735106,0.37722084967011926,-3.8794988366367753,-0.5443089258811035,-1.9116456748025987
1650,-0.8965958081215368,0.1967127657848567,0.40005255367916914,-4.401465988459237,-1.9315914121577917,-1.6845296594386807
1660,-0.9062120322835677,0.19647440948788547,0.39491294867284593,-0.06532987232685938,1.4108012648750352,3.055648859491165
1670,-0.8797994690777704,0.22390283382854287,0.4056047874091872,0.5810100524914922,0.2696121239763972,2.2927818263782003
1680,-0.9168801982670627,0.18420826378052357,0.37589903626180526,2.8054018442276902,1.5548248579782964,3.5765002203664897
1690,-0.9059604682133922,0.20581800781269738,0.38273859926054504,-1.2341431509520608,-1.3323724613012886,0.3014413581764872
1700,-0.8904470726819831,0.20590679419685495,0.4004638915816505,-2.6821461217161273,-2.3877159390770006,-0.8354305321517822
1710,-0.9031013309558265,0.19584847159231483,0.39085900817900837,-2.4329537518573088,-2.1828083513032857,-1.437501389645717
1720,-0.8972514509745346,0.20325412721209216,0.3952388731479635,-0.4598030532654982,0.4060891067053697,0.3326881245531038
1730,-0.9168565375003654,0.18519084413230297,0.383056514504811,-4.3281081775102965,-2.3607242382090443,-2.74917496268204
1740,-0.8965811669750856,0.20588743680661292,0.4018379592077439,-4.574476214781952,-2.6017834452038633,-2.185987075503569
1750,-0.909463610196526,0.19130579569411574,0.3839542894639042,-2.8348595096900695,-0.8483075986680284,-0.18575777626219342
1760,-0.9076427861645586,0.1963398417796264,0.38868544890955475,-1.8526769456105923,-1.3668111547739403,-0.6916587994768604
1770,-0.9292642108875179,0.1667287337313118,0.36694572172112655,-1.2660048927280716,-0.701978485812941,-0.4326951697590611
1780,-0.9213313459054386,0.17148053319729503,0.3680865176952815,-2.122870524277281,-2.161756279118194,-1.3286350849305564
1790,-0.9219683854169644,0.1757513389922422,0.3697940153106887,0.7673018538166789,0.3269684223736584,1.5050668594202221
1800,-0.8914982598449341,0.2108484703936324,0.3978498428575079,-4.9542781686840405,-4.3787097435360405,-3.2634630046091577
1810,-0.8874385037686119,0.20736154945260207,0.40850091914573444,-1.2320510511087246,-0.810665003077662,0.014210250645230432
1820,-0.8918242644038371,0.20140851501670748,0.40282141917368613,-0.548829325101144,-2.0595609812016353,-0.2562063239013628
1830,-0.9079393664999112,0.1883815441901957,0.3853415246367884,3.6571914935628484,1.22684578102761,3.6517777744397493
1840,-0.9090576906499177,0.18917099915458335,0.38193807775594885,-0.4886752980929665,-2.265145101915635,-0.02426896119838773
1850,-0.9069537441182876,0.1953978010225379,0.38545058222166195,-1.8334802123937548,-2.4531934240621145,-0.45002889761167353
1860,-0.895317247788883,0.20680913947928709,0.39463199386126907,1.6880626648384807,2.935707260388239,3.9163855518158686
1870,-0.922913778589643,0.17701937233214934,0.3735940388483997,-2.133258837302942,-1.2171097410382217,-0.23947012173765203
1880,-0.9179551332326804,0.17587324111632496,0.37897592670477315,0.28014430519661904,-1.1344584888977747,0.7754973619313841
1890,-0.9057587957395964,0.20185660592540444,0.39212630226423134,3.435761608451071,1.2013915295034254,3.158174323760267
1900,-0.9224772301413756,0.18853352914775778,0.3687224628657288,-0.10722723547622076,-0.6061165086424594,-0.07311510285362072
1910,-0.8980251233118904,0.21210672086157656,0.39102124438759345,-3.800011745715593,-1.5991010038129716,-3.016843538049914
1920,-0.9201918642990407,0.18325970139534692,0.37124757740228886,-5.464219333188806,-2.8509435807666232,-5.119334584548531
1930,-0.9017904687148711,0.19543569824129284,0.38765616785861623,-1.0294756545704127,-0.7889699602871552,-0.5780538205681447
1940,-0.8898597150544231,0.2155710107898615,0.4032555314647513,2.4323744767028272,0.47615833862846857,3.200871289416594
1950,-0.9123468562517991,0.19686118401218636,0.38120080579017424,2.8157110491238857,1.8069747197447328,4.012435246438353
1960,-0.89713945730598,0.2105606611799859,0.39473148709053457,-3.3916438044964554,-3.4569925442402933,-1.8102962038859614
1970,-0.9128989883700563,0.193249303994419,0.3843745282241371,-5.753363142722543,-4.630182835504521,-3.878200668997671
1980,-0.8853604017858353,0.2158942791599657,0.4161854543848347,-1.3775359242562686,0.5088196670702683,0.681074353309173
1990,-0.8939285624519304,0.21202987612274327,0.4060902022585499,0.2812999903522905,0.5974025470680064,2.4728185579039863
2000,-0.8738543694846821,0.23735689429115728,0.4256395540149803,-4.389863869981913,-4.589511273191076,-1.4229130266326009
2010,-0.8931599529046517,0.22161020227308603,0.4065606719889303,-1.2759236846434105,-0.47330528789893545,1.8084602328142907
2020,-0.8950524833022913,0.22172013832034138,0.4037261504183437,-2.6393002576483946,-0.8472790035480986,-0.17726725264718057
2030,-0.8754651287404727,0.23065534432033882,0.4180118620270015,-0.36197048933178566,2.0531004443349596,1.6481397806987634
2040,-0.9100040735135627,0.18633876863379814,0.38314852919779785,1.1441534678938903,2.5810215319042515,2.5169345724067655
2050,-0.9187513293097762,0.18459616035382026,0.3723151204951437,-1.2220379715635095,-0.974824939077142,-0.18095961735440214
2060,-0.8894964212425215,0.22514387200266567,0.4087380653249694,-1.3481941066232346,-0.6493136742078467,-0.1977383063435374
2070,-0.8703852469512997,0.24012637315404864,0.428264306319485,-2.5951968501024685,-0.9263714625794226,-1.1978032309537159
2080,-0.903386575546001,0.20568381356923457,0.39291177179349696,-0.14113940687510507,1.6422371548664996,1.2683706104672627
2090,-0.8847336891641692,0.22084222757743965,0.4136502727530413,-2.868350889824075,-0.9640042881660146,-1.1244414409481576
2100,-0.9382954925407848,0.16136303052310758,0.3588241118953213,-5.70914114961246,-4.122324503721881,-4.0435677810043575
2110,-0.9030684044884754,0.20419828756700303,0.39179764583221977,-3.6628235274573733,-1.7315930123290206,-1.6022097606439738
2120,-0.9094104496189632,0.1927889488902325,0.3816844932180578,-0.8185338736319631,0.9531222285495958,1.140438024186665
2130,-0.8951428777064558,0.20744549492661365,0.39635751135175973,-1.0811224731272162,0.3742076719810299,0.5796299173922639
2140,-0.9069409419375133,0.20349779456424552,0.38985331103522247,-2.756860806427729,-0.8416047029439225,-1.1080193429904015
2150,-0.9291881145200319,0.18136718546956562,0.3760243372352233,-0.6294251655846519,1.4540333670135621,0.8591055185969589
2160,-0.898621610932453,0.20458169930369952,0.4062478353257783,-0.4159942522649429,1.4639442567738994,1.3443674177866292
2170,-0.9068711988085512,0.19159071175462425,0.3882747241176094,-0.22939017293332942,0.4407299536446205,0.7867374332815106
2180,-0.9035213752503745,0.19153884062176096,0.38938047202931453,-1.1671949407231188,-1.5278837839407886,-0.3829241003384668
2190,-0.8906817507714816,0.2099562707662673,0.40757819459414407,-1.324445227337372,-2.0371004627495095,-1.2353686080741213
2200,-0.9387387817181106,0.16130513507849334,0.35591176588783296,1.5458365740847688,0.6052544337962829,1.2288213976822278
2210,-0.9031584205302431,0.20252177706996707,0.3925715405666764,2.3988211589410513,1.794239539493244,1.864105766440157
2220,-0.8909115244403742,0.22138137562920773,0.40880395361304944,0.6231083370754849,0.5868372261727586,-0.39608803279659205
2230,-0.9088983320796789,0.18867443602317363,0.39058590705274665,1.4870288387004025,1.3276062494496224,1.675154139709361
2240,-0.8803488696658573,0.21266135959783,0.41110869999367444,-0.0036309040197579634,-1.5249338986143726,-0.032573649035086305
2250,-0.8819672717725932,0.22213556267558893,0.4141591941135941,2.5576013345943727,0.659885798159147,2.265778253110929
2260,-0.8980312395184512,0.20746364266491907,0.39519676466442505,-0.41958232820114016,-0.8916556844412661,-0.38655638315046303
2270,-0.9175807786921126,0.20013500038482473,0.38023997164691614,-1.1620664112490073,-1.1437681636093835,-2.068098565022329
2280,-0.8837793127082205,0.23077798768419644,0.40848289333511195,-2.2234651202101894,-0.2769944601461958,-2.163138035958787
2290,-0.90055379175305,0.2006062454251864,0.39172471987356094,4.3284433277015495,2.812258697071659,3.7988243409871605
2300,-0.9084437457395795,0.19204584229062038,0.38613674855083674,4.464755484006778,2.0327889947972366,4.508810912466334
2310,-0.8974352462786785,0.21574293295890584,0.4037190749513648,4.474285671925358,1.9367217736486342,3.719331264185643
2320,-0.9029854643860129,0.21911331332623707,0.3922728820175655,3.151563765847156,3.293684631366614,3.234111788653947
2330,-0.9050329786055408,0.20949174072536733,0.3903825043759596,0.9158378265878409,2.4750957246617658,1.1743363643484668
2340,-0.9070357371470461,0.19879203545109048,0.3842392735503222,-5.259796314454934,-1.8836848345343689,-4.742928130777147
2350,-0.9027872148379095,0.19608887914864995,0.3913573741768664,0.9140143127912312,0.506189454693966,1.2696396305441169
