time_ms,ax,ay,az,gx,gy,gz
0,-0.8419679243494059,0.008232323545485589,0.441356766906697,-0.8309809037371432,-0.7243233802968625,-0.28797287031273305
10,-0.8553832817400177,-0.0012089300001060267,0.43363577233785033,0.5566668330390165,0.3574823953841695,0.665800884741418
20,-0.8196074014788197,0.032328414738529085,0.47053280319446394,1.8488559104654376,1.8708128760147167,2.1060794162413803
30,-0.8366660173366488,0.011253213865969556,0.4554405480659988,0.08333219597315211,0.33025892296587794,0.4590330767285434
40,-0.8410331899187634,0.0060155996336503405,0.44641319854888317,1.082861736938619,1.0708983392218292,0.8011922376289419
50,-0.8354492036823347,0.01779220557286574,0.45308406345868185,1.9157662569956604,1.2260923459539461,1.236141322002117
60,-0.8428852710751733,0.015593142928390414,0.4501925869633507,1.3504757920374804,-0.15685263453516143,0.513277705407207
70,-0.8770596487759,-0.019928046381675946,0.4140144470990209,2.382405283402307,0.3296717642591792,1.56314962940024
80,-0.8288266226216513,0.025152883770528225,0.45765614269639693,2.5002431552036106,0.6869737205621382,2.198591928267776
90,-0.8396929931772283,0.014808620744301674,0.45140407387126025,-2.457820284419292,-3.1210751784488084,-2.37880791296231
100,-0.842067978880164,0.015823002637225587,0.4539611222415692,-2.277774136702174,-1.6445178779723442,-2.4842686696973177
110,-0.8595465344069816,-0.008842688647477982,0.42352530157676715,0.5917831105660132,3.017180263082068,1.6986454295817692
120,-0.8532460569722612,-0.001395249256201797,0.4416843859839633,0.3144485493165601,0.8475434398375095,0.5749855708080689
130,-0.8280278577631244,0.015893325079635652,0.4595812522850139,1.279617645773031,-0.5897532481288995,0.18434463947048554
140,-0.8270341204648733,0.02121458827887089,0.4695336755853411,1.2613195174144298,-1.024712528978006,0.25741774956188945
150,-0.8066061703135444,0.04966453793072044,0.48579709324651416,2.2916102063228907,1.8109738245741556,2.306308194902881
160,-0.8480105254390333,0.010266001909856165,0.4471188461470185,0.5703438123960607,2.006371011482498,1.472322752980203
170,-0.8425514603591049,-0.0020048573298340824,0.47175035924991454,12.365551787993095,-1.1735359535038823,2.482386889477623
180,-0.8906052937653295,-0.018710644576464257,0.4574683262531306,20.970833792632277,-8.067818813324687,0.4605786294452736
190,-0.9071400289995794,0.09587329521788204,0.48556180773776864,18.76470772491375,-6.22379932136355,3.806133373377306
200,-0.9786314298377063,0.13916569488876182,0.48331550050757954,18.493093353063937,-5.911127811706666,10.852669928784632
210,-1.0817380552491869,0.027452692261448322,0.5181905484789826,2.416772697262236,-17.568517748169548,4.417154531294633
220,-1.0174964041909107,0.11384265829829383,0.5647674426279333,4.338991190623927,-19.36803224599057,7.142759357862065
230,-0.9461615713409873,0.17411256164068709,0.3487323988935241,-7.456058047899617,-14.907631745652045,9.51037873723909
240,-0.7697738386682531,0.19890357935434752,0.3868698668553631,-4.474015006731806,9.289969645719045,35.06477585438165
250,-0.6976451521601903,0.02433207957396515,0.5215441158768063,-9.630900377317062,15.480622965745892,36.941417400137865
260,-0.6512438798668682,-0.03940868435397897,0.5078436198200427,-16.6736531607306,13.16784024091554,25.05555843850174
270,-0.6638281326940318,-0.04030815043717556,0.45622125744835024,-15.165049016121056,15.02969309121468,17.427049276355227
280,-0.6422370966131467,0.025882964402782642,0.46012007973939445,-13.973412773496422,14.654947664955118,11.436435668731672
290,-0.6577364898125064,0.05314967795719369,0.41135859720608453,-9.30397582071575,20.375234475830215,14.050263117604953
300,-0.7276745125774472,0.05891823812616062,0.4358396663554084,-9.098320816316212,24.68063680823935,10.50882978456102
310,-0.9287916381761501,-0.029587063114685567,0.5247691559248002,-8.076002425472144,25.625724190136232,-2.1548294713729153
320,-1.0515841584889791,-0.11862741328973055,0.5447805876227866,-7.340354563856604,17.578232831446556,-9.390608218195101
330,-1.0256125864395487,0.022649259830685525,0.5293082956052158,-3.3512611900963174,7.621103512182936,-11.852604819633234
340,-0.9620805081212077,0.1234940859530244,0.46805855968181487,-7.966480786182781,0.9922348504756028,-6.132959630210313
350,-0.8539991845466067,0.06648724105609591,0.3704185124723279,-10.266384130865463,1.5556936896921183,0.09910845732142293
360,-0.7869148690815841,0.09249700809083593,0.41528828742269314,-11.316210946217478,2.609232430290013,2.903637221505528
370,-0.8152905221300598,0.06616104577804953,0.42186801679279506,-12.97576274613389,-1.4088912750612843,-1.6238408699686826
380,-0.8661560638631582,0.04008643460825827,0.4966168419944278,-2.0460296357980967,-4.817508076667855,-2.3315156214717927
390,-0.8898541694862792,0.08759862297662319,0.4649492360672866,0.13719031323169117,-4.256753916630567,-4.155254516205533
400,-0.9060482801721388,0.0815654696445585,0.391139119555942,-3.589046210233067,-0.3952176449897782,-4.6046538795115355
410,-0.9064834106148435,-0.043109000670375625,0.4590588103941339,-1.0656694033581906,-1.4694270355410963,-5.5929556173523505
420,-0.8773913857627204,-0.09732867867508509,0.47325592797923405,1.8927709119071967,-2.8481493832750853,-9.355951088893274
430,-0.8672228615863165,0.026028823035428174,0.39894528397235873,6.829428226113587,-1.8749039854654073,-7.403506954105875
440,-0.8649740854281686,0.10139759284230575,0.39340025767378506,29.455993472636166,2.168667609897836,-10.42477568317204
450,-0.9931383856422972,0.2913773951217664,0.299168044217479,26.462781576051917,9.238131438652264,-6.147366824881624
460,-0.8722122000609158,0.1583861593333784,0.3640790299050144,-4.121975555227964,11.718314193263932,-8.365703914607266
470,-0.8390536763391324,0.1473017617924899,0.44728225474836036,8.680373776525293,7.084466071588215,-8.838148464287515
480,-0.8151706757308994,0.11897009432019857,0.5890457060368758,10.725914648158486,9.596632747561344,-2.420970012376867
490,-0.7984182612061413,0.10644499371663749,0.6192376288280302,-9.417809595880183,8.261068149140225,-1.2694191774517543
500,-0.8232308186701082,0.021226335732223562,0.5181400497350398,-22.782388138246006,8.1501387319222,8.014147416135756
510,-0.8217717709810355,-0.016596293645317253,0.44461115685094293,-18.416571373147995,6.977093947150104,16.674327765773516
520,-0.8134521603252357,-0.006950785950892654,0.43431769724269903,-4.688355607797702,4.047984312884878,15.334206956102037
530,-0.80597858902914,-0.06853721577404455,0.4840594717039929,-1.688364127139086,-3.971631071723652,5.483752106420764
540,-0.8595933134776347,-0.08514596822958298,0.4506946180647716,7.916363326668803,0.2508960645853531,1.8614338498231338
550,-0.8419274866586156,0.012943830358484931,0.4142070620052243,16.66978815624496,-3.379160064441182,-0.9490096866977962
560,-0.8991418007344407,-0.03826684096118087,0.4180922463444973,13.709641271812261,-4.1609624588718575,-5.138206058896458
570,-0.8720711857350606,0.0524458787369657,0.2632383287502031,15.899575894101313,4.172879762917278,-13.81914246646137
580,-0.8836020878553095,0.21803492310759764,0.31106922322492353,30.46115822486031,9.163529353930054,-8.125918469220904
590,-0.8775098802232234,0.20248800095475158,0.4514152353579171,37.03612650532712,15.602118020879649,-2.0625120458428605
600,-0.9080248585998205,0.13608459190461258,0.3383293685426674,27.854924199148023,21.70394529525388,0.9169113058783072
610,-0.865220241551411,0.19951227540313804,0.20945507702896488,2.101253011898878,21.849096811910478,-0.6708406651043499
620,-0.8278084618118262,0.24155769055439852,0.35322831420199424,-15.947727991933855,17.81124452698788,-1.325232814112893
630,-0.8446719870781054,0.11985803727183393,0.5447002441645243,-21.13238938329425,11.798723422353094,2.353261684349172
640,-0.8372402624752711,-0.07507651102981941,0.4394097199290187,-30.82674473511599,7.217046561499864,10.04972740572807
650,-0.8120146293124841,-0.14531159478320593,0.5521829261021193,-37.62477166223563,-4.525551118229082,4.361234005193843
660,-0.8962636117855423,-0.23596816372599605,0.3338196637196356,-33.220738301553084,-4.37549263890896,-2.9790780511160673
670,-0.9656583804664887,-0.29025638140289783,0.20423581629735008,-21.885926551085586,-6.56072211331575,-10.766893693476751
680,-0.9020328967167123,-0.08120862650946466,0.40619679113040874,-7.9086942970710075,-6.5176931621740755,-10.872702844968359
690,-0.8554897415044032,0.007044491422887218,0.37410213847835794,-9.07128273280683,-6.214743539396705,-8.81293612737713
700,-0.861260537579349,0.04761227785608439,0.365317017079101,4.553764001007887,-3.6376372186776735,1.5384028438458044
710,-0.8429648616385833,0.10017220195969836,0.39776145348108033,10.817550762426226,-1.0414059646299825,5.476316883741974
720,-0.8882201784879096,0.058489612149058824,0.35871991618519944,5.866816445044899,-2.241512456714928,0.6400906510952811
730,-0.8816310292259476,0.05277306647840961,0.36742579114385643,0.7416975319390384,-3.3703041612180074,-3.934737283485921
740,-0.8563900436023317,0.07000217337151578,0.3910427736440647,3.6157864390211474,1.8730570111045006,-0.6269621796715468
750,-0.8829122067434563,0.043080636979231424,0.36937377180701864,-0.018471021240997754,-1.791558745805967,-4.443394695072027
760,-0.8509356078132977,0.0751989100128812,0.39630686763790607,-1.066312521493126,-3.303370136502102,-5.346630004714503
770,-0.8446166430103502,0.08074437202388905,0.39793791490415437,4.721853743247544,0.10069098206044114,-1.2900241561731027
780,-0.8647155891487641,0.05283662741703254,0.37924970702008703,1.0363522192831187,-2.231200558859504,-1.7420732364752094
790,-0.8296659623564088,0.0944973331217727,0.4300027090091124,6.106537287087043,1.0416452245527006,2.9287334587665046
800,-0.8665346484547899,0.05574535884922669,0.384654842135746,1.6374217371149111,-3.5695812662763466,-1.4778293059437204
810,-0.8677767077185913,0.047634437026469946,0.38688102841953637,9.149659703140568,3.5267641943135066,5.46366702398442
820,-0.8597993189801972,0.059340038182702046,0.39134347842759726,7.609585761120503,1.62620078562327,2.886730442059876
830,-0.8850000746362728,0.046334255915171596,0.3668484361401898,2.831485874996199,-1.427344626552598,-0.5518264939043247
840,-0.8731775922136766,0.05921273456685421,0.37980896566617733,2.9958052533085096,0.9783561975386232,2.1574617340694875
850,-0.8671641056657495,0.0529748092237379,0.37873557334925967,-0.9860865661339178,-2.0295559860597843,-0.22454079183272402
860,-0.8632299751167534,0.05330377787322809,0.38097398985001285,-1.9627316653851272,-1.9548411955135172,0.39250578342294706
870,-0.8638246067014317,0.061351318543833674,0.3861962761321964,-2.6843403344423935,-1.307897508749797,1.25667635375969
880,-0.8558617327677688,0.06799885272441315,0.39179306686266074,-0.6697553453238834,1.4436896949661242,4.175958291597213
890,-0.8204029796720906,0.09690272732076638,0.4244511241480397,-0.38824514049510805,0.6647217089618556,4.699489711324583
900,-0.8644609911394042,0.06483445658676751,0.37681223927133256,4.2827234195580495,0.5761000507444916,5.077669233574946
910,-0.8852940408603976,0.04830322778748475,0.3678290618258518,5.0349966976623115,2.1201442852683003,5.268519456557923
920,-0.8508078011125719,0.07889905652351226,0.39960192692622815,3.721309380178137,1.3641579615171258,3.32053273006634
930,-0.8513202756345036,0.0689323841806607,0.39829013548728126,5.930897995178383,3.4682706000481867,4.598492493489941
940,-0.8726034730064356,0.054159932915258405,0.38025887859243623,0.14447893342140983,-1.3542545400626427,-0.8669482579059595
950,-0.8551704013352223,0.08642113141682269,0.3997759789896232,-2.2764056357909372,-1.5522992017489772,-1.7092064081902492
960,-0.8569101012866519,0.07879550906894198,0.3956598785469457,-2.4594240415942243,-0.7192425023566005,-0.6645338792703447
970,-0.8861906249264295,0.030279611411880725,0.36186742871509286,-1.3564737517131726,-1.2371796519737068,0.4597503551079707
980,-0.8849129134597914,0.04329363443296062,0.3656137346690865,2.349822105982474,1.0931604700171966,3.975941814995285
990,-0.8647876268311958,0.06657968096634494,0.3866936587583573,6.377209978880121,4.067028709696246,7.877628132003807
1000,-0.849500921314499,0.08303323130018439,0.39757664521023456,-0.2311979323842408,-1.9796579570804105,1.185145841246908
1010,-0.8682135946801963,0.08208032677403623,0.38691703401076544,2.2121646437381464,2.141493617831809,3.7993640670353606
1020,-0.868331330908105,0.07864624424938994,0.3839691720869121,2.20849951751787,4.090683835998381,3.597024347540167
1030,-0.8756063928422022,0.05738438289103774,0.3748115703254105,0.23538885199124032,0.2176829554111872,0.5829681745848495
1040,-0.8672680616167154,0.06236487723120053,0.3838820339399818,-0.00825559092178052,-1.2192534336124126,0.28147143836178845
1050,-0.8762731456448778,0.051445669300851406,0.3721770738483932,3.1852687154733434,1.4640474303485747,3.3600792277494334
1060,-0.8628093001576622,0.06654777002092292,0.38542429173695847,3.7965157027202476,2.097423842565613,3.7887790277451803
1070,-0.8890917967278569,0.048050778198776053,0.3626957020880117,1.9919485291304866,1.3690394097964975,2.5352361397102015
1080,-0.8728954079083293,0.06958322642592327,0.37882151498564676,-0.11826929752027071,0.351749340554255,1.0397860965422896
1090,-0.8620883969848095,0.08512500383073413,0.3904969052774031,-1.1324333988305313,-0.5018850728720943,-0.22330017650328327
1100,-0.8579082276172302,0.08408088879576425,0.39157503800759125,-2.264782464326143,-0.5516319661019183,-0.9741349097806478
1110,-0.8351652611010151,0.10485815423513994,0.41613781190957044,-1.3370211254834286,-0.475161511746154,-0.5129317962012767
1120,-0.8530918802225527,0.07639818114300627,0.39281779782901444,-0.5451866272974086,-0.711116530739615,-0.4081813935166321
1130,-0.8411932166824014,0.08917592076145191,0.40896470082500536,1.3150256288306434,0.049832222194281184,0.6185428706353263
1140,-0.8897056497707632,0.04600276182073693,0.3538634266801827,2.3548224774469126,0.9497446341088766,1.4966874030923025
1150,-0.8812352532042469,0.0559689434836876,0.3624002626802147,3.461617391482214,3.41084137726523,3.3443965698414586
1160,-0.8510931116551989,0.08210560890970645,0.39932905320321177,-0.6350300617840798,0.31237557226733403,-0.5600871064425377
1170,-0.8826125440277642,0.04299841653624642,0.3693433824634536,-1.4442608657281095,-1.1118193047381206,-2.019363313638592
1180,-0.8804094896981991,0.044746061533128684,0.368407774933633,2.1171414239248882,0.7796811666391337,0.7652978980443653
1190,-0.8910643628862962,0.04219096352451031,0.35817132770702514,2.339882358610238,-0.2356024691898515,0.5703955578813563
1200,-0.8571979113254028,0.07241355621006287,0.3910102183265928,3.117414597491849,0.6177195194562692,1.5046816365784133
1210,-0.8560401294340819,0.07527038525371128,0.3901943665200595,2.979421382695815,0.8793611319540504,1.8039641429830247
1220,-0.8422282137268264,0.09255563879286034,0.3982163240392179,2.109693730331863,1.6526032167530085,2.1535462434237838
1230,-0.8694872082626901,0.06420776494631245,0.37357797151187677,-0.967843252382883,-0.5720093650832943,0.6001136820534257
1240,-0.8644022078601018,0.07815317118402927,0.3957154495278516,0.0017999326971146479,1.1821176306796284,1.9809339381663533
1250,-0.8623819621163167,0.08666484956031913,0.38933903412072574,-0.3371569587059744,0.8667393765482653,1.3756972638399678
1260,-0.8566488109520354,0.0800427642677129,0.38733138436573633,1.6955034013036256,2.9514781130354493,2.9579932848465993
1270,-0.8522188966965318,0.08163996912573926,0.3948014065838364,-2.8968176465579463,-2.1875986923126964,-2.453301033673101
1280,-0.8814031160795758,0.05624457815382733,0.3661665742009706,1.262249898215459,1.4068797091005183,1.1844702760715746
1290,-0.8659469856056652,0.07351729812625374,0.3774397051983055,0.2598884076001684,0.4935200789348311,0.14694296512127467
1300,-0.8684943270454322,0.07481872283732902,0.3762176359709963,-0.854318733425414,-0.07313299242655413,-0.8704025879296746
1310,-0.8543674283849013,0.08325271583733754,0.3935381419844574,-4.9230212622253635,-3.4397745051389617,-4.4621798568372775
1320,-0.8630593832638462,0.07310975689755922,0.3885874441542432,-1.530576068492138,-0.9476088356454431,-1.5984102181408373
1330,-0.8698883290615501,0.062305206172097775,0.38060938843275477,-1.0210063964119704,-1.4867083624053614,-0.5849649211395473
1340,-0.8433448649017852,0.09268707240648666,0.4126603836184365,1.8683076001741947,1.4932107583547787,2.600392527578445
1350,-0.8420626391114961,0.0958832646089724,0.4079996228549237,5.280605257295999,3.156593092724583,5.196758131119809
1360,-0.8571271971012202,0.08312149593533566,0.3928682954223152,2.0167256235579964,1.3853483735387924,1.8629688034275238
1370,-0.8409313008481449,0.09626503455412169,0.41066921039039445,1.670253853833645,2.5909732148755085,2.1152352716252434
1380,-0.8499960631798763,0.08570251064554725,0.3966522523702077,-0.5934658692201336,0.7022861085615102,-0.18721374903734667
1390,-0.8593352135808748,0.07417829921466827,0.3861106554292562,-1.3046953482299244,-1.1812801261102706,-1.8087910890790928
1400,-0.8558806790799222,0.0777002792931381,0.39297206005350754,4.274297891970773,3.1918086862051998,3.483676164904464
1410,-0.8569199041687698,0.08146453353918523,0.3908272458357156,-2.681732623373904,-3.6286169710131793,-2.582530705880175
1420,-0.870658494414535,0.0649910796390128,0.3772986662000025,-0.7441001353670891,-1.3751008488374745,-0.13270958305023883
1430,-0.8685738310035106,0.07132605378174173,0.3758730236910694,0.5676336304059955,2.184278801409963,2.360798901485212
1440,-0.8691959657003742,0.07589026059877464,0.38012601928562645,-2.0663786533902835,-0.03007928975420826,-0.34075030529030004
