time_ms,ax,ay,az,gx,gy,gz
0,-0.6247814120592599,0.05103570810214618,0.4939749035273762,-2.3185370677321733,-0.6595300274480136,-1.0774081242864446
10,-0.6181998749438004,0.04890810723134346,0.49799411935464344,-4.620699940653562,-1.8732119355422874,-3.097228368283484
20,-0.6172404473266863,0.04561951221386539,0.5004880326135756,-1.0953400405613714,0.42864186555446515,0.28309748581663796
30,-0.6269781408528509,0.03295050904067831,0.4824709578273694,-3.7941666281356197,-2.671564998914888,-2.188275983049877
40,-0.619209996341254,0.042729863304326376,0.49562937253019296,-1.3605126344287828,-0.527979464910707,0.4660674933398219
50,-0.6399707702884109,0.0225430444240459,0.47536536614909397,2.307949511463343,3.2279932384872643,3.890698599983205
60,-0.6311916417534571,0.037068264972801905,0.4876083873771333,-2.3058379450250253,-0.4133407904811807,-0.6914405679683814
70,-0.625451499471357,0.04842290354076004,0.4979550119258146,-2.860918868616809,0.8399567121556699,-0.1790984678734392
80,-0.6222420739309457,0.045359026366820696,0.49583305996166394,-6.315933047038292,-1.0757260205988484,-3.089068757179551
90,-0.6192275845120301,0.031136549756770767,0.49154771714289497,-2.7930242295829695,-1.0008753391948275,1.9893762711111707
100,-0.6599047783527073,0.0012234407834380984,0.46435997014976127,-1.378796252594982,-2.5568937064341983,3.3881279235657455
110,-0.6115559458731626,0.05961126615131365,0.5258816370119331,1.57444402614231,-1.1469432702263183,6.067500038326386
120,-0.6251876592846906,0.09373718962989051,0.6028794034689091,-1.4280073637409438,-9.061091317830378,5.403441195556013
130,-0.6881942727542191,0.034590364972784234,0.5665520327983758,-3.685680409954547,-9.491304917646836,7.210248597925135
140,-0.6876751351873079,-0.052359941220633185,0.5281614620419418,0.19664865853985897,-20.60363129159276,-8.328524345174465
150,-0.5555422291489046,-0.005372645614541042,0.45384051474403697,6.876627778217845,-23.349574102085196,-32.14101057953065
160,-0.5733620069624022,0.04719399671292968,0.45094619024856997,10.377567841103339,-17.820561704641072,-23.84469765295121
170,-0.516108376561545,0.06626467279894384,0.4709613167117381,15.132572992109155,-10.827066988769005,-14.598704887177647
180,-0.5287069628305239,0.015647798948862146,0.49475122368476454,13.044342723423561,-5.377346511894099,-13.19128408021411
190,-0.5294401789614298,0.05843452142980041,0.5169513618451675,15.28090684005678,1.9298462678753703,-12.282256698580504
200,-0.5112544820599041,0.17162176694414716,0.4890631313071286,4.78180673253113,13.759394973973981,4.2989085577745945
210,-0.527663647673874,0.1804240379372672,0.4713987752029184,-10.541547085666936,19.826241142865754,11.558186350944771
220,-0.564226230499035,0.16115336675433478,0.5053637085461532,-21.198730256286474,24.194565250979114,12.545378489308876
230,-0.6515473477988122,0.08652640627375724,0.5414295633755102,-30.34410529480618,26.128357169433787,17.6661452129286
240,-0.7456501345234583,-0.0652277643226891,0.6143674428441973,-37.678745744960864,10.635545592793108,8.199746418296057
250,-0.671567260562729,-0.022227023884165344,0.5376883872003457,-9.588316672421254,0.7250938538789471,6.041420698664668
260,-0.6492474609653439,0.012322907653533667,0.47113017263275553,14.240845865890824,-3.4097133008425415,7.276335864015159
270,-0.6650350952527588,0.0037190998888746163,0.4549266464081697,13.032035429782578,-1.9267918701113216,8.659124039969473
280,-0.5791635893651917,0.012031149270685174,0.4546804806020629,3.071791192971194,-10.44487343542337,-1.472335441974094
290,-0.6071364264662528,-0.027707245337101845,0.5428958593477075,1.4175671303157098,-2.564404667164477,7.855891818196322
300,-0.5048970792011671,-0.11442763296414099,0.6157189530436037,8.299621143483868,-9.969542505597751,-8.675327371969292
310,-0.6403175088896819,0.043387176923577894,0.5832789299128002,30.04872818422237,1.445279529858377,-0.8532216189410757
320,-0.5114527052096656,-0.1142852499080372,0.703970449661429,8.49918574837989,-8.171779646421973,-11.799659418223943
330,-0.6445243905761421,0.2298252721081557,0.5861104382608896,41.651294616872356,0.878380326312932,4.2972010427079965
340,-0.6826386271494057,-0.01709709416269722,0.3483913254580996,77.15741789973545,-6.17149602664892,-20.241852286527386
350,-0.5866548597826584,0.09812946165253955,0.40924852728591615,36.43578026153913,-10.062706212211253,-34.09007058266722
360,-0.5386376830115164,0.1674227842272295,0.4910085047577373,31.424802548361026,-6.224912964037246,-31.480054686158944
370,-0.5999497932335763,-0.08131772861192527,0.5311635269149338,-3.3504784171951716,-2.364656250044271,-31.955623956545
380,-0.6051865759331928,0.02500529221214144,0.6256192878504727,-3.036381495976369,-4.755029447400162,-33.519417343857725
390,-0.605469270203415,0.17538033931777874,0.47667564207798974,23.33312072576949,-3.9571825332458985,-29.020484690646466
400,-0.7087974714322677,-0.10011003750034793,0.46362022524964636,26.62035060738657,2.8341978310993645,-21.446608219389237
410,-0.5857425812816088,0.4409913038996694,0.5092633898145997,10.312053030840088,2.459656394500617,-16.33828448810623
420,-0.6953493994948992,-0.01298074058667905,0.3338845423051692,-15.958903319347245,12.206147317550371,-2.6402291619350247
430,-0.606696068561367,0.003240588269639134,0.5237564149410712,-14.643456664561569,19.889586985746913,-3.113247598705014
440,-0.6640061837950086,0.004588958310196473,0.4316650930048554,-30.31889135302928,15.437450725816884,-5.051941254457435
450,-0.616230992325045,0.1240863332369659,0.4326426096576877,-2.4111736515072852,21.804080976945183,9.834876958553966
460,-0.5858089793646293,0.10026926579935193,0.5533603767028383,-0.9733654050995197,20.604922911588922,20.829616825239217
470,-0.5356995276274552,0.009503569096968565,0.5827592882774082,3.0274226206851442,13.869994820588392,16.052410124884062
480,-0.5385322027964138,0.06911808673055188,0.6754296390741955,-3.975686801225512,10.947036818956473,12.541321463525936
490,-0.6413318094577494,0.20096235521937256,0.5877906846621377,-27.109562928129677,17.22289748512343,23.251487919195483
500,-0.6575107923718068,-0.04176546509463716,0.5480921112438536,-45.074825331234166,9.304755172344791,14.492901241749516
510,-0.6600290712580029,0.13388840014763684,0.3927626577651825,-30.593506682220312,15.973239914228797,31.646065431647962
520,-0.5815506295737586,-0.1574435052158213,0.6780512523764444,-15.546977609518343,5.320202127224387,19.211522206419303
530,-0.5705430449747987,-0.04630786866267067,0.6092104987385343,-31.527415647471578,8.083321511971967,18.84120016219634
540,-0.636282592146446,-0.00966654599573905,0.5303930796314159,-52.229567438549914,5.07639333250828,22.214802949936583
550,-0.6042500299853397,0.11828577583198435,0.42805207378320115,-10.330065888104858,8.361801015761483,32.92422216377885
560,-0.6189950652416184,-0.13080048050382156,0.4655121380044076,16.671382543384194,1.9914572306324207,16.534308497914754
570,-0.6533917990554164,-0.058593583238652165,0.42679144958468795,4.376716983403783,5.00254015899015,7.223435131973227
580,-0.6355138201940237,0.017634767626650404,0.47310951159811254,-4.25980497398644,0.11881586891175955,-1.0745195825315252
590,-0.6184678985818005,0.03323305545682337,0.4963952717445871,0.6509972244046573,-1.7201996162103839,-1.5959748671720178
600,-0.618704714783573,0.025288126737543153,0.5053237680893479,8.532018392900111,1.3325757288004334,5.891422946165566
610,-0.6037759844088055,-0.005038602440533894,0.5069904986268997,16.139116232627558,-0.49955527450629833,3.9744966450934425
620,-0.6088654170845389,-0.15479527990823141,0.5965775716754743,12.368964736246802,-7.829485906634126,-8.753153464282882
630,-0.7487431025732701,0.3003688377868916,0.4936820425766939,23.88234436261208,-5.466503207036083,-12.868166644451339
640,-0.6640362765315675,-0.04661555843299565,0.5382608092481033,29.968551363870418,-7.681905337902672,-33.46316359785344
650,-0.7429411502496202,0.14190673974632173,0.4226635519578775,11.012594109721835,-7.996616324300304,-36.25853474608567
660,-0.6834913109922093,0.1476860130730944,0.4270971029865756,6.9584719139087845,-2.8840087011987943,-26.609520900935134
670,-0.6400335412009612,0.1336425382645717,0.4669303580179906,17.05925902714788,5.6986829916330155,-19.715284299462493
680,-0.6805500180797682,0.1239293242662435,0.4417895609587839,34.838955854176,6.8724126256550075,-17.997578432104998
690,-0.6570888598945779,0.03837972272081109,0.37297726669976367,33.06410509164508,18.841295437338314,-17.618827795432843
700,-0.6452470431280868,0.008576354621847733,0.424140588660135,30.182046119334206,28.40666209812685,-18.113608587621975
710,-0.7294245778057137,0.029522153630673613,0.16664527519570943,-0.21404934036612477,22.540714656512826,-9.266563287359968
720,-0.6639139529220477,0.07291462268083354,0.4542199826965811,17.203268830717626,21.810057286513505,-0.05905555344976543
730,-0.7070034517534947,0.09051755265097515,0.38537448098054017,26.108229568558425,29.162037852687494,-1.349126638066344
740,-0.7144585264762451,0.3021645620733351,0.3129423457203104,15.462203277407824,23.457408613374408,10.107403369160439
750,-0.6103770324782973,0.14716068847970212,0.4643031967358268,-4.7776130082891015,31.27820766005681,16.549268720226525
760,-0.6395860133614999,0.19035252584326234,0.42211421348699085,-12.217914033315143,31.14429167879963,24.873663428898517
770,-0.5989426476144937,-0.15729300325278417,0.8139615552208567,-21.49520657501185,22.328873487258107,21.498696171559587
780,-0.667311042683942,-0.19401500338554734,0.6424062309898659,-24.60594276937588,17.451856503735158,14.232406522289732
790,-0.638821815170203,0.3111202533146497,0.36970053119914326,-17.098240270278527,7.289690724793522,12.844303529359436
800,-0.6404258470251194,-0.21482783398691238,0.6809035890281093,-17.9516259155705,-2.1195182876603598,17.384071580163322
810,-0.6170444878234547,-0.1724267263328902,0.5583630727433666,-29.64608666931004,-9.880290859894993,18.211693305814908
820,-0.5976429566385465,0.17009565011005778,0.4039340282750521,-24.93167932493638,-13.920201091035755,27.439772048269553
830,-0.6504171269522728,-0.07439049940410125,0.3310520760189134,-39.794313648570565,-20.030619294674317,0.8069325869278388
840,-0.7397270972669571,-0.23889065845029664,0.41137692864753017,-22.093306964405087,-5.094381828630907,-19.05595847870111
850,-0.6225683505210341,0.050955441706704095,0.4971862082978604,-17.60251519393085,-9.056122255705183,-1.9824562466203202
860,-0.6822661864844589,-0.028394704079508136,0.41829399629185604,-1.2419947434518992,-2.1424344247077647,7.059174662588909
870,-0.6712622970892655,0.02406066621822506,0.41656819592180006,-1.4398428141092832,-1.7974869254820747,5.122468929944195
880,-0.6666900205297679,0.026555774144248152,0.4284980219543166,-0.6152878975398473,-4.761554556212397,2.8577664497088593
890,-0.6665955577661759,0.02417902686808001,0.42723269180037293,6.4835418769086015,-0.902704975137993,6.244122747369435
900,-0.6748072970525422,0.01690610090172013,0.42627707615335936,2.541507245868385,-3.6328695882859865,-0.4263064264834152
910,-0.6537620608709231,0.03941235955009314,0.44768566905643425,-6.079389857864465,-4.546863558154876,-7.437541123806286
920,-0.6653036366594606,0.012999108309184038,0.44170244069272063,-3.110457149498912,-2.01564528789146,-3.995170993756962
930,-0.64922360570428,0.02535418652950337,0.4469281082981867,3.266109544252682,3.8666982407458144,5.228098289655827
940,-0.6507523446047139,0.031958605850771205,0.45645480508758374,1.6238741996741377,4.460569472299433,7.587350273391395
950,-0.6585679164288417,0.024583697219629736,0.44869824790836615,-1.56026179323629,6.034349162362613,9.547464776807766
960,-0.6509373382295099,0.05412530562544992,0.462030054291991,-1.0091543895457928,2.3601758297064546,8.599296317737574
970,-0.6821617828000491,0.042499879121794454,0.44138781359005436,4.21099419521179,-1.0773677590232364,9.104709083876065
980,-0.6385552205473445,0.06796550007662389,0.46403291499188964,-3.1211688578580867,-0.6542772909831851,10.969393245016922
990,-0.6768335325441507,0.03345169119386081,0.4188533257139081,-2.7031661674369842,-0.3364498750004712,12.379661231396145
1000,-0.6749664738527046,0.03230143242983661,0.42221276754019404,-0.38586625052727874,4.184981708204348,12.263014209515816
1010,-0.636541450375924,0.08337772954886691,0.46548483963408926,-5.418783832097013,5.265799537926785,8.94914842347026
1020,-0.6766513048157164,0.013780665013423773,0.41448279869080495,-18.530258433671825,-2.5331063655462644,2.366593376829005
1030,-0.646194300900637,0.04286176583520707,0.44739691380473157,-2.600740976044154,-4.056961453453681,8.237940783178953
1040,-0.6631727530429755,0.044401366945249196,0.4361312207952082,7.916081590737935,-3.9302914917475333,13.928645635653822
1050,-0.6559159465760834,0.05910792121878376,0.4413628338941001,4.336203444476235,-6.92154406511733,10.27975037612475
1060,-0.6727435556945721,0.050985259329191665,0.43570690231183584,-3.9934200437498206,-7.210297253983385,4.438193463891718
1070,-0.6498468857397136,0.061665501615859604,0.4556478006403264,-5.4488100486240105,-6.000283754419425,-0.10226526396477326
1080,-0.6330673611492373,0.0732094652515749,0.4674518287183752,2.968668399846518,-3.3130348478958043,1.5441420994974253
1090,-0.644305607590373,0.06166681144588231,0.4595965629006891,2.730405762210747,-3.9132744130939408,0.8261325883158749
1100,-0.6606791312519835,0.04266590401310388,0.45161197165441236,-0.9237832765616154,-7.267112938079837,-2.646388679630623
1110,-0.6491327171396837,0.05373851363126885,0.4630797354858162,4.612585817066053,-1.1473732797495253,4.750003314146303
1120,-0.6682952055968843,0.02882032667130268,0.4346482076741738,5.503489522849886,-1.2979067559233552,6.441804140423468
1130,-0.6534451463094321,0.05979564997820835,0.4522118159099003,5.356411974478776,-1.0210610734179097,1.4316125462508564
1140,-0.6070082103156965,0.10893856357761983,0.4998244221011471,1.5025541459551721,0.6233703255569587,-0.3564383696914073
1150,-0.6688856376312734,0.04822739634671954,0.4370747554561395,-5.0913558811191795,-1.7569884485882867,-4.906850215609946
1160,-0.6495583620666093,0.055607213988847555,0.45432303420372144,-7.1986131159279765,-1.4033214784162573,-4.947776130368383
1170,-0.6478934077226409,0.04643979549796247,0.45595995418959057,-5.619765828051216,-0.8067568338890249,-2.551623802599255
1180,-0.6489557033212342,0.04400671744691116,0.45488899257347787,-1.2424886816872542,-3.01163951477361,0.08059974653791402
1190,-0.6491553257221292,0.054224662998726095,0.45190354642181857,1.3366144024804893,-3.858304143571689,2.0843389147317133
1200,-0.6568768657551407,0.0527000350120541,0.4475843081691707,-1.1092884282800686,-2.7972600893453086,1.0744249559024683
1210,-0.6409035347151679,0.06088383338608042,0.46486775878942577,-4.46478020009985,-2.763639684262643,-1.5320352972023303
1220,-0.6678099461962977,0.026503960007542963,0.43759525561224666,-3.6686647016473177,-1.1737460334909002,-0.3763834088707183
1230,-0.6383028578639909,0.053736352625582705,0.46259910950273314,-2.990255694799953,-0.7114074850942432,1.5024389786082089
1240,-0.671115933752028,0.03019756675823224,0.440174750810325,5.571658382963735,-1.9972301894206543,6.945802764942281
1250,-0.6475362737237098,0.06153391277963322,0.4525909563517042,5.324037784477678,-6.006705643474774,2.6307237518239166
1260,-0.6445639860075173,0.0698824855867822,0.46360772260687666,0.6617976035081808,-4.565692765212823,1.8046517465319876
1270,-0.6609086205671822,0.04903163701116411,0.4527706592571622,-5.781665294866368,-4.408774507360933,-2.352346896976509
1280,-0.6476617148706149,0.04850010660830985,0.46415201060392347,-5.836123965060681,-2.4691630925093673,-3.782180578529494
1290,-0.6245858651830759,0.07300573698878252,0.4881825391030908,-3.169965724053766,-2.136631509884611,-4.173961067365624
1300,-0.6272811933095711,0.06263677808550337,0.48329003416107397,-5.0069389959851796,-5.264106268671503,-7.451198145962393
1310,-0.6311137541958024,0.05332855319442788,0.47733015992391115,-1.1989076635892135,-1.472320477780086,-3.5195654389589475
1320,-0.6476019176174658,0.03430692859577045,0.4615210402588619,-1.70613477200135,-0.2784801828362391,-2.6673780873097845
1330,-0.6619077911066656,0.014816985717237528,0.44435305426553073,-2.327165934720192,-0.06556674182362332,-2.973861088313162
1340,-0.633393935544467,0.04336076293701251,0.4764312857689376,-2.2101028512972567,-1.1697835480115322,-3.0647247576485372
1350,-0.6538219599487469,0.04280212269751708,0.4606373312349402,-2.3313542481465035,-4.203902250249893,-2.9860147776573664
1360,-0.6340994761712095,0.06958986998936151,0.4753183152251779,-2.483410305082235,-2.130481223071026,-2.7535015380398686
1370,-0.6366832012023605,0.05300891349587591,0.4720337076728921,-4.200814141122829,-0.908999251123418,-3.607359198152616
1380,-0.642748585627191,0.036222065439588724,0.46354068524983816,-6.313635207874203,-2.391370747779793,-5.601846379143121
1390,-0.6512397536611172,0.02037391221351664,0.4537894885510723,-2.0159639008656476,-0.30730909360692976,-1.637406113316886
1400,-0.6603887480413286,0.021835619206927313,0.44680641382070785,-1.2736961622522662,-1.545559368830466,-1.887280758501615
1410,-0.6425549478391097,0.04594741996187408,0.4631077892250235,-1.731200896964578,-0.4597911823114723,-2.3333197075185645
1420,-0.6170843670113012,0.07213350979600101,0.49141948633140925,-1.0979371046849842,2.619538753218177,-0.6819573176773677
1430,-0.6117629160751961,0.07270757184484156,0.4973413641314407,-5.3590454112187915,-1.2820306106385178,-5.745842881914527
1440,-0.6534777017049853,0.023433347948506857,0.4604666059522669,-4.11250827469512,-0.48588289530598794,-5.664634146960957
1450,-0.6626124859129647,0.010845506829834678,0.4520282496652285,-4.163339424971832,-0.5864786705572679,-5.551614145001657
1460,-0.65087027983713,0.021696418366088203,0.4610203606041652,0.18055501899009085,1.8339277938212237,1.3182639479513534
1470,-0.6441504353873995,0.02912843510928324,0.46478024844165783,-1.4540084643917308,-2.1006250351408355,-1.1969660805457851
1480,-0.6532783445704821,0.015192771086348743,0.45321614108670266,0.9872947535201796,-1.25222748862518,0.46225735070284035
1490,-0.6357234410739115,0.03210012062417699,0.4727080891231849,0.28772774597355744,-1.545681605019235,0.33196748487994154
1500,-0.6587327662921076,0.0156930145654866,0.45100269863460857,0.5392480777244777,-0.10615593373631849,1.7690290303932503
1510,-0.6657221437672349,0.009307667224936235,0.4438485863727879,-0.018320238587603566,-0.5046413176119702,1.9210380922788963
1520,-0.6203266815837045,0.05151280518240818,0.48817600747642764,-0.8056318267624778,-1.1419339592075928,1.0335146343495776
1530,-0.6172806206083228,0.05375000467765206,0.491456846162085,-2.0146696796029104,-2.4922965623113402,-0.7478659388669318
1540,-0.6292100095814697,0.04413188044790661,0.48280278910201585,0.8514599111935596,0.8304380449285934,1.4556715173171821
1550,-0.6525012898460307,0.020839502233664476,0.45854835231713376,-1.6007657580144208,-1.4247602212349828,-1.8710589549443932
1560,-0.6664423237185775,0.007561248734777433,0.4454532625162216,-2.154729096579117,-0.6313180709408903,-0.5946630677361082
1570,-0.6280518610089637,0.04856316839627631,0.48987012098502297,-2.97845011845501,-1.4837080682882553,-2.625162243651132
1580,-0.6364077775852075,0.03834279492710832,0.47095286070424064,-3.166909603835733,0.1158845362920276,-1.6304585432728045
1590,-0.624342288223415,0.04566024559569336,0.4876832161262995,-3.1509086028859423,1.0132068346931469,-0.6395345165419704
1600,-0.6201454615464267,0.04515572707875658,0.4936616321514165,-8.477999011810603,-5.678649711185395,-6.77025233610304
1610,-0.6213527214013752,0.04720373310931816,0.491813511463286,-2.416835298093788,-1.0013978622617685,-1.4551660003346183
1620,-0.6550803615729806,0.022482977255711474,0.4593813570629813,-2.56784556668316,2.144425323553761,-2.0466495366737503
1630,-0.6635708264002946,0.009323706524469105,0.4541536212738459,-10.210968818906785,-3.006159032986485,-10.081801802261918
1640,-0.6606649113771551,0.0024628725418173077,0.44696177790261843,-7.742164897683965,-1.6552449276783556,-8.966802279359289
1650,-0.6370684195994477,0.01305476911508789,0.4725878968963091,-2.5028618597042374,1.809718416533269,-3.967659314898239
1660,-0.6464477172197655,0.011127621468601454,0.46633273386465485,-1.8019277568527574,0.5786164605429232,-2.808314419942769
1670,-0.6314759899640652,0.028244463153547235,0.4805613989987446,-1.9899717062091036,-1.380979744255416,-2.793211814985278
1680,-0.6318262419245672,0.02579585066602448,0.48067835704563955,-0.2645466025444873,-0.24906602125370686,0.10481753175077524
1690,-0.6618112560528608,-0.007084433546842454,0.4461242290519805,0.06676729238899604,-0.5852406363221726,0.63023865619209
1700,-0.639602057787232,0.018687380110102084,0.46790664285546907,-0.8356073079792117,-2.316239004384972,-0.3191459707902431
1710,-0.6502200557742778,0.011086612297543465,0.46183773195106953,0.12878361502322355,-1.0316375421900155,0.7758508197350096
1720,-0.6248590970772742,0.038170404836500076,0.4873444290740048,0.19419027246914178,-0.2854595777013522,0.5940212618897728
1730,-0.6247620144171162,0.040522342627766286,0.48463884872696444,-0.10753032594461576,-0.8736743312875513,-0.39779318611061376
1740,-0.6580969133555139,0.005744918779767658,0.45336280018360153,-0.25316457534725473,-0.6771332364906304,-1.099300646176047
1750,-0.633851873507714,0.025862714897465097,0.48081746050338686,-2.0224769675417305,-1.5341143881558517,-2.146289191431751
1760,-0.6203278477740848,0.03490021059559449,0.492716311940047,-1.7166270734545872,-0.4907120740900877,-1.7776066620140578
1770,-0.5915386342980615,0.06898356513156045,0.5178213607583638,-1.7005727559781012,0.15028941335610724,-1.7537647663023412
1780,-0.6162415841196052,0.0419661252771602,0.4896847150776201,-3.2368789899050583,-0.08828626387091065,-2.889826446822778
1790,-0.620585979408131,0.028600937710952273,0.48607113722016654,-5.697696958961396,-2.3807997503725216,-5.6755190781198905
1800,-0.6478260318513615,-0.0003295526259045056,0.46383558814283776,-0.7454924426994504,1.0290857479216857,-0.22033437163790415
1810,-0.6390361056287466,0.019236569020987786,0.478175797873609,1.6500275533755526,1.0897643335792178,1.9424717172909896
1820,-0.6600499251553612,0.0030786771641445575,0.453843337832153,3.1106665261502315,2.06728652289615,3.579381016349875
1830,-0.6328887182292421,0.030243091384192292,0.47997659789656844,2.9258859756223825,2.6726877726370595,3.8764584866561487
1840,-0.642933871910878,0.010833889700692363,0.468517503885247,-0.5111503894928996,-0.5830369880677184,-0.740202617819216
1850,-0.6270442133927199,0.02264211169031877,0.4857781948615183,0.23192843552008358,-0.2569707755106198,0.060623788708183524
1860,-0.6494551179080492,0.0026803044509697126,0.465608528147109,0.8649276366216532,-0.3270510555275703,0.9085669178020772
1870,-0.6316313143431453,0.02269538011464331,0.4812981524229879,0.9513402723845579,-0.5363162572865687,1.5084026200163954
1880,-0.6375537554017087,0.018118637071572782,0.4756245008822914,2.36270154214267,0.7434763194764368,3.4585913233019183
1890,-0.6442333348436402,0.014613387486199536,0.4648951889345,3.4722922575443254,2.5756558248778485,3.79147706229378
1900,-0.6396672443180735,0.01631886784169608,0.47059015211229105,-0.6855502881920056,-0.3461998897673242,-1.0325289217150646
1910,-0.617630212727255,0.035644477076382075,0.4925502855843507,-0.5166049383230655,-0.6992650520164003,-0.7544708746748574
1920,-0.6432913530589276,0.015356675577681299,0.4706539922848221,2.939459341765734,2.09370579769186,2.7876943654656783
1930,-0.6375892197253817,0.021494052180987492,0.474730356910923,2.4414388311060593,1.2611965815213215,2.858259931227911
1940,-0.6299923419183316,0.02938129407447268,0.4841964383033782,3.0580902264213896,1.1839439763245636,3.5435149707466445
1950,-0.6432263476117961,0.018061846091897836,0.4673142232087318,0.25763711744797313,0.06906296796606742,0.7572634934763256
1960,-0.6284537919834383,0.03514967029066775,0.483534510788054,-3.9423725456360263,-3.035139175560816,-3.2915954876632805
1970,-0.6525146810327154,0.011272166954400203,0.4639130955275494,0.2594582949404527,1.024779245841627,0.32130830940738997
1980,-0.6461964583031592,0.009285064432141424,0.46649338311268956,-0.7557930931135489,0.11767455910910798,-0.7991116536036816
1990,-0.6309983878674268,0.026213716631082566,0.47832444626352505,-1.6781797531591167,-1.4987194406024207,-1.8369358133414377
2000,-0.6297268250282372,0.025247213011937972,0.47483531375404964,2.4085288384747434,1.756543151546504,2.3094629071152335
2010,-0.6217709396597481,0.04044556608376426,0.48675289096309843,-1.99431080555665,-1.9657206478751867,-1.1049421341719037
2020,-0.6537978410310236,0.010327522240629378,0.45814983946238663,-1.4681464251959522,-0.6046705297023661,-1.554070295535129
2030,-0.6568297655836294,0.006504651913360391,0.451886196068245,-3.8427584438652778,-2.864969737305891,-4.7860075189642615
2040,-0.6401413465635919,0.016722442527208305,0.4691164752211551,-0.5665101512172024,-0.28222979859436637,-1.7862823553205547
2050,-0.6221552772709319,0.0367157971644206,0.4888613256545885,2.755224244923535,2.2221661807416804,1.830215460899387
2060,-0.6513869758572656,0.009255566575011755,0.4584825169698204,2.710511031186259,2.374064864911181,2.7559835888688773
2070,-0.6409269701742585,0.024218710197069313,0.48064065685547475,-0.5883912032159366,-0.519974667095896,-0.8043685273061905
2080,-0.6536388493998541,0.007307432833458683,0.45793260462763113,2.03727603440102,2.064423219082159,1.6467272564602138
2090,-0.6537552725933844,0.004254937119271534,0.4542773736390503,1.161556197787919,1.1590080182931377,0.8541450879795092
2100,-0.6574310756038089,-0.0031583066660132095,0.45470638397455726,-1.1128741037112833,-1.4866776604396301,-1.7365587674327383
2110,-0.644777755970235,0.01633569458387932,0.46607574237248384,2.3259132624926773,2.3262545119282154,2.189889265513691
2120,-0.6376149826688957,0.024757280724346305,0.47239943100936466,-2.2844095329217793,-1.9010720366713802,-1.7975769834466104
2130,-0.6381127802308413,0.023805315122741248,0.47248025261611604,-2.8880006088571357,-2.1208838883071714,-2.5482856093114923
2140,-0.6523665130045979,0.009253943908581183,0.4598757827902134,-0.7697152550561346,-0.5112189603557011,-0.9363136668753581
2150,-0.6523156047679441,0.004597613674527677,0.4560897413866851,0.8792649364540233,0.2286253724226392,0.5044527819765923
2160,-0.633630804294503,0.030046612942012267,0.47443966362446244,1.3786160558389775,0.3736183428852933,1.5133973397858234
2170,-0.6321163493198437,0.029751377370315298,0.48170315167953154,1.8545872791782887,2.382242097685887,2.2585585056988466
