time_ms,ax,ay,az,gx,gy,gz
0,-0.6114936375786503,1.0682964210435928,0.7659923151454147,1.9056191869767884,1.098739007632119,0.9199225864174412
10,-0.6436971634603859,1.0349456119111566,0.7307360902718311,2.814932598538409,0.7944736376483937,1.3232706810314503
20,-0.641158350910926,1.0366009551134538,0.7306922729506549,0.3806400434029289,-1.1888220445978415,-1.2414821978277666
30,-0.6479078529200609,1.026632187708841,0.719019642930366,-4.344066919488014,-3.271564705994793,-4.036686827050599
40,-0.6399332767741777,1.0357674864466893,0.723970426463556,1.713686895850445,2.100119745457251,2.526450459896086
50,-0.6412435179811449,1.0382255087130756,0.7290523237733819,3.424800404468935,3.0164809600836184,3.8728626284204246
60,-0.6217924223988462,1.060456069174774,0.7516588467726149,1.726911947222776,1.2261971852711966,1.7987786456426704
70,-0.6343528944358743,1.0487233930044166,0.7371636162482962,-2.1936607264389147,-2.185211125336399,-1.7939396839411699
80,-0.625366219672036,1.0608013993524803,0.7476828234097369,-1.4830364106459304,-1.970721150675525,-1.7037713180205967
90,-0.6386571115860412,1.051793317824761,0.7321097660268225,0.02096029904818955,0.6034949506505034,0.19139350228602245
100,-0.6520658475395019,1.0349302628877124,0.7186526394957884,-2.408375662771001,-0.29844358001475346,-1.776850792579129
110,-0.625549296185565,1.0593681027306168,0.7467686886810508,-2.2485407656808003,0.7915823263896531,-1.1662449991829291
120,-0.6152777968530876,1.0653659250026852,0.7557075796283834,-2.2541546162174226,0.6847430619455479,-0.7281273041289952
130,-0.6412071626651357,1.0387269683927913,0.7327374675221855,0.005429523980185369,1.9169955557392684,1.5722423212731012
140,-0.6375121765407327,1.0508503860345004,0.7442798454279894,-0.48322654096866513,1.311697906523051,1.7538648384960918
150,-0.6323363533404073,1.0560217754655745,0.8254553774761223,-3.5917409612804416,2.4103438667121693,0.8082924153102465
160,-0.6825068514980157,1.0582336603906555,0.9173178709755931,-6.95143270720737,-11.10756843998514,-2.541648727734424
170,-0.7703967944366463,1.1874264857139538,1.0504638796803105,-3.6492161113082595,-51.81493363594127,13.273980244492734
180,-0.824437939096641,1.2593859209825753,1.3631442222948544,-9.022035483284114,-80.44333673296171,60.50593851182272
190,-0.5461963286740085,1.0294131764237462,0.9129592105921449,-20.96803611041182,-101.32567785385493,64.68655450071967
200,-0.2493366194964045,1.0255363168015497,0.6873359573795864,-29.684981860934897,-96.7429310025274,52.784132092898226
210,-0.15033583726763108,1.0274105768920094,0.46010708688708407,-33.03571235829208,-65.9454481815071,33.24206145861883
220,-0.4790131336627742,1.0561735829074623,0.27137703246813655,-46.83564784086276,40.42583180063495,-17.580907622181034
230,-0.6154164401591175,0.9781725685517947,0.6693406047979557,-60.97480036313736,64.06427231933922,-26.68779553217
240,-1.0324051560099559,1.0374331712491036,1.3417407754846358,-43.809601517684314,55.94441783481557,-32.75746012190831
250,-1.1282507834431328,0.4261316914628392,0.6057620348439662,26.297864606113134,-17.964738836811264,-13.98114298905896
260,-0.6971349452735903,0.7550691809309314,0.8138831371946825,7.195355941127514,-3.1263718369117157,-3.4008145293190575
270,-0.6251904622065996,0.9433331605959965,0.8585815778275108,16.115643008169297,-2.815919804244449,15.146163612993107
280,-0.569737518807546,1.0400215686590395,0.8741115490245738,30.061622715628456,5.517377411450585,18.955903026111606
290,-0.5914959726448398,1.0047869282988544,0.865966093133736,27.959025270841614,0.9580953764532785,5.3836857603611765
300,-0.8313237549372627,0.9087355434897818,0.6853986936523898,31.926461425733084,-23.500139594107026,-45.0422628422507
310,-0.3846126890631304,1.3777918631428332,0.6193075047300228,56.41797027512451,-38.73849423681141,-50.969539728066266
320,-0.22024755602898313,0.7477419346271393,0.9742397008522957,38.400101393631886,-52.217153603100165,-68.6682312745632
330,-0.6964085036453231,0.5552156851775327,0.8929128521748626,59.70688769790833,-43.69791451527034,-58.36132621145592
340,-0.5863628553701654,1.4665236794262042,0.6419701076708958,65.36943782468622,-13.50768785362575,-15.815179617269038
350,-0.4588966279462002,1.568636572535297,0.6513741837979643,17.07522683562958,-2.4685545100055153,1.4461052815730135
360,-0.6320359066282397,1.1292160015934412,0.7996517767727928,-15.163700654224286,-6.63092096226357,-6.281009963437187
370,-1.0293591416013668,0.7076602539861261,0.5701679982899873,-34.52759243201102,0.6520815569037139,-28.38926189759316
380,-1.2859940337594422,0.41352243951023876,0.3114638876566854,-32.72132892042393,11.617314632501998,-40.16366315612751
390,-0.6803473606983672,0.8859663652749724,0.6770022682911304,2.449919066976634,13.177562994894876,-18.582333413062415
400,-0.4312400608506106,1.0367090766457372,1.0092461850259673,-11.714754331441078,16.343312058687797,-8.285774230778983
410,-0.5744758193999802,0.933884742075014,0.894002165386761,-33.22895158435618,25.87958826098558,8.674140726702111
420,-0.5474045985631636,0.6202749283330852,1.0561202885369412,-36.49773453254809,41.95765150063001,26.025450128199598
430,-0.4407379095849381,1.1673664813041509,-0.07773909496816232,-5.832959067420305,47.22061963275307,32.04120833033481
440,-0.5697098698682026,1.2651993747630603,0.6700214382133272,-9.107835060494073,40.79096111075917,15.017096206791853
450,-0.5897385737227315,1.035693375053872,1.1014461441080639,-4.146873834647409,36.60363598483344,18.766891947721877
460,-0.5732247822460302,0.5987428071855705,1.3053969085740729,-10.840747544243348,13.16058600588523,7.106040072429622
470,-0.5764168326175154,1.002692110841077,0.8476214621470486,13.636958828679877,3.114482492556409,5.879856794829814
480,-0.5841653166523632,1.0065300622572464,0.8352181876490943,16.638910635402624,4.352589068363311,4.5783804593884145
490,-0.5814874040491642,0.9730153250721642,0.8598121122252467,28.880459445787004,8.802332540654623,5.729985651504302
500,-0.7916155880998315,0.3930603513022666,1.1149240846586956,37.573169688007916,-16.57494516750845,-27.83346896062556
510,-0.8544439147132707,-0.28158185980221834,1.499107950911833,6.943926916150034,-28.463751205607664,-45.676559232840276
520,-0.8162260037475565,0.744109564295912,1.0787999916892996,36.379246767693694,-20.829951620605893,-30.264488347869584
530,-0.6532908680868453,1.3004195345802774,0.7836908379285578,24.299377686354678,-0.6674978301818579,-12.53187842193893
540,-0.5697963863519884,1.3079980420093524,0.6886151673422406,14.526535987911405,0.9290144951081492,-18.853882305928657
550,-0.556733829621537,1.1717799136704912,0.7502702430876179,2.8428463088462177,2.5014010010929946,-22.028939600228927
560,-0.6269433895491169,1.1589445394281699,0.6368349523433382,-10.868194128474983,1.0866254871849481,-24.458651696034615
570,-0.7756391389407781,1.159704997739856,0.19199135647064322,-11.900688098054982,10.875578683324765,-15.344184863796134
580,-0.6266861774351021,1.1034158605383566,0.5403909505146768,-2.941842749013046,17.83633462542044,-10.301997039344887
590,-0.5118403463279636,1.1142047757626148,1.0605386142136881,1.9143887246513918,33.26588757347453,4.388447171931
600,-0.5901877037829787,1.1002550931014647,1.111488111154307,-14.477662824973926,45.13805212599332,20.646963895396368
610,-0.5400216863274412,1.0594863778247965,1.0160821929815245,-28.052664609543545,41.44273920681063,26.785618394521144
620,-0.577921467533913,1.0134487178901137,0.5564757528980675,-35.55776677936177,33.19651798886239,28.075397233634874
630,-0.5586774114770305,0.7375393502632211,0.8703865430371354,-29.217475441133644,20.45471307322836,20.210146228191554
640,-0.685853910515795,0.6260907132481668,0.9513536576843777,-24.359327702378486,9.965493897540238,13.894795845795958
650,-0.654373674144203,0.7529418772769705,0.9678374178793795,-14.116135052660152,12.832179008517318,21.271893432120066
660,-0.6819428313056278,0.9967457965861497,0.6875613898673859,12.771074461113777,8.519827971577014,17.993065416387402
670,-0.6626016315658037,1.073308246225384,0.6876532353273489,17.74462957603828,10.233263467617741,18.363496069501544
680,-0.6411895514827618,1.0877580282559687,0.7217749569574244,8.25164039725864,0.8083451103180965,6.842261256061031
690,-0.6409324928558013,1.0906924647070553,0.7305147457496475,2.6177062058527816,-1.5500351661853355,1.4730022192254255
700,-0.6407169191543212,1.043314373743582,0.7268630540224101,-1.7554050967735986,-2.8630496073168334,-1.532995386486522
710,-0.6506108617190745,1.015585270735068,0.73494994503212,-0.6994702918739272,-3.1581287146483037,-1.309202870796244
720,-0.637917872859335,1.0498087590334269,0.7410846058129238,3.24497817672335,1.006472162019318,2.844737826862915
730,-0.6452840802370625,1.042419187733922,0.7234368691493729,3.6248236086899284,1.3148847195856348,1.6548689781378316
740,-0.633167535874181,1.0587666800873319,0.7304488487916367,1.5553599680678352,-1.0068014338417548,-0.4401695464774096
750,-0.6502437822474009,1.0447454618901542,0.7167471520949685,1.6767807850115628,-1.04843255701219,-0.10228344759523128
760,-0.6452388088242919,1.0413005064378724,0.7184132940649562,2.518265278481393,-0.09460448415949951,1.1942135317441958
770,-0.617511748394605,1.0635053455781804,0.7477210584721883,2.8731958767146493,0.6516419880393929,1.4667174888382082
780,-0.6228128003695641,1.067335883063874,0.7396798237713305,0.11841937717404272,0.19260111091606325,-0.21334613924532786
790,-0.628884121590038,1.0608071055205839,0.7315169448123959,-0.9383464198055268,0.41311652335027177,-0.767639866316082
800,-0.6491097455961848,1.0375192987782338,0.7154868451012306,-1.4254448868279128,0.04287067122884121,-1.099640713789589
810,-0.619940574918727,1.0658598885305106,0.745852319155268,-4.215555829357407,-2.43138348390168,-3.2092498023457243
820,-0.6203830693768565,1.0587982529332938,0.7490093019398546,-0.3389446821130301,0.533090743492908,0.8268570633583878
830,-0.6385812831246885,1.041595905602042,0.7325615433397029,2.4837828011358196,1.742727852330607,2.7173854113505205
840,-0.6468025496895948,1.0398944068669858,0.7204847575985494,1.5152288865608505,0.4133291114942711,0.6804199786461789
850,-0.6350801658781887,1.0506710006771491,0.7367613022398279,1.3480201013035127,0.7296704301562402,0.6083832515699774
860,-0.6102841406070489,1.0783690371498844,0.7614604171653025,-0.014152956367454061,-0.21236274264319466,0.04323934997851797
870,-0.6234910457951033,1.0603494590837326,0.7444437413811763,1.5253027788845868,0.18094369817116082,1.1207873715447416
880,-0.6337433026025763,1.060281843610015,0.7305219754287964,2.6589108176585228,1.5060157024738963,2.0055057046976414
890,-0.6265557066798996,1.0619852504545462,0.7389214457909323,-1.9727394531971785,-1.635165264121041,-2.852342347522842
900,-0.6329430424529848,1.0397099972606194,0.7453788369233416,0.5209110174627445,1.7852729746874192,0.35180566782515466
910,-0.6296011618140287,1.055067013933659,0.7382763755948201,2.9109763582552954,2.7070293635384117,2.976647673123203
920,-0.6785072717740739,1.0063851322520725,0.6967816167320182,-0.2596054464774018,-1.7291116959845076,-1.8533514767720083
930,-0.6329201182685872,1.0551730500056988,0.7274632043125708,-0.6796956406361967,-0.2527804603235769,-1.0602750331997437
940,-0.646815340293858,1.0359438386988191,0.7169004562542687,1.6842730423550873,1.4928184682700445,0.8003271664907889
950,-0.6122174578516739,1.0655248495259708,0.7456278308471882,1.4517903748932852,1.4573775778193672,1.5069433037861821
960,-0.6418213900141126,1.0355837600115487,0.7286012572209933,-0.20971128291740104,-0.4969478589218035,-0.7170334671808943
970,-0.6340778130932949,1.0591827282024164,0.7345478640994088,-2.029601980268618,-1.6256421597966484,-1.4997871704394061
980,-0.6520716146409476,1.0367314992459093,0.7120166008534167,-1.3037480719532164,0.003336809836557708,-0.5597059897161416
990,-0.6396094713132104,1.0412934872191788,0.7266672082163296,-2.635985633001984,-2.0359872222376905,-2.9885770506947975
1000,-0.6331778268201581,1.0461894564269494,0.7380870865419125,-1.0622964832698916,-0.8534200846558635,-1.4207769046076004
1010,-0.6500969542336322,1.028739842465571,0.7207429175626251,-1.7043422906143144,-2.039204034389461,-1.8848624987525795
1020,-0.6493080012086098,1.031203490015037,0.7186587555176603,-1.3648809790820584,-1.9276607565872117,-1.1247084959050941
1030,-0.624386312383427,1.0581540909967444,0.7441908040091905,-5.01422147064456,-4.765401782199995,-4.764219683421574
1040,-0.6388014679539965,1.044453423539459,0.7298990154907204,-2.534754146098512,-1.9010776823301452,-2.199832983536571
1050,-0.6300257934618697,1.0572209068384024,0.739844759261266,0.016222264430256872,0.5492260348511109,0.7260188078998442
1060,-0.6426003756795833,1.0498514766072655,0.7299709255771939,-0.6036913730417397,0.5474989185085548,0.04847116350275793
1070,-0.6235125650225438,1.0626566086889129,0.7482692231905193,-3.0263769001577936,-1.0232038793903686,-2.212383770667995
1080,-0.6383812266220886,1.0369252629044283,0.7301919825413545,-4.816207163290836,-2.6356624614466364,-3.4013526154375473
1090,-0.6186295976592088,1.0612816127995146,0.7464429723627842,-1.5194764093550863,-0.16267551612084574,-0.6618150026125053
1100,-0.6147822840752365,1.0707827037666793,0.7488051479408562,0.8562507265564792,0.837146959225153,0.4244498317685027
1110,-0.6241426756206923,1.0586511118737725,0.7387294797463114,0.7816988367793117,0.6314589995565494,0.28557039487017755
1120,-0.6213566556415828,1.0543788522092827,0.7482197519933089,-2.861287260886818,-3.2061376869483196,-3.2579318042286083
1130,-0.6328184975163624,1.0484671339912943,0.7376894806115237,-0.6398887351377718,-1.2493957797643087,-1.076902602116082
1140,-0.6057113538631083,1.0698093615684812,0.764540876067395,0.38348251259549004,-0.13652110216412927,0.44462746284336285
1150,-0.6446106778546097,1.0341307821112347,0.7311381683745262,0.9184526186874513,0.2808603816793344,0.5194361189706442
1160,-0.6244471511718783,1.0555071118811827,0.7459277856661517,0.43965788784034093,0.8460545063240484,-0.43803510917487865
