time_ms,ax,ay,az,gx,gy,gz
0,-0.7204912218368343,0.5748093177785432,0.6657925449592861,-0.127519091518299,1.4055813290502512,0.8069566426229003
10,-0.6801176010579754,0.6149220952760801,0.7092703423920177,-0.6915118679818595,1.1745824833641147,-0.04836798375798679
20,-0.7100237870431315,0.5864696451829376,0.6814812483848134,-2.0756582765510263,-0.4213489680367095,-1.9161358473317303
30,-0.68938024068453,0.608180093868373,0.6997409041239182,0.3611498015213076,1.1414438690296418,0.39519265208933074
40,-0.7054523741887555,0.58946860531661,0.6814971822758671,2.6119422389415066,1.000268636540956,1.9882048803415604
50,-0.7138583978708354,0.5813599252538502,0.6742291123515328,0.5029681192357046,0.25496267036211484,0.3597174243091026
60,-0.7112744432034483,0.5896814134259923,0.6864078535111573,-1.8234466423260396,-0.4302188953684557,-1.4620006154187284
70,-0.7088247429599801,0.5940188850165866,0.687235811555389,-2.386949936987846,-0.2586822173082678,-1.6285275955643215
80,-0.7130003095393534,0.5846562938713793,0.6783360630865813,-1.340903027231635,1.0237571134631913,-0.32698902323665235
90,-0.7211841735383075,0.5743619902527001,0.6660396172602837,1.7891282829195319,2.9657322564251363,2.1588475886177743
100,-0.7085919207051705,0.5887199691661718,0.6807689933743027,0.9749286948387348,1.6762905338637764,1.7406908046823417
110,-0.71615988864679,0.576389693659404,0.6693208260360968,-0.9929678030848768,-1.3414556696093216,-0.6787957796105736
120,-0.7016362794981114,0.5948981167828635,0.6869154279330313,0.4061852586023841,0.4954558400573871,1.1918327776839677
130,-0.7270430279533066,0.5734803858217093,0.6661244137635088,1.1833513729077718,2.281042312104388,2.937290098037455
140,-0.6961805881494438,0.602681220207016,0.69793069401673,-4.407892335815417,-2.126439030300262,-1.3639353788596988
150,-0.7166404772669288,0.5878774567163646,0.6889666250351676,-6.901447251459605,-2.4891502512639407,-1.0238959491837425
160,-0.7390419703658159,0.5496210497541377,0.7112840389259609,-1.617410083268748,-3.714179114978755,7.867255595464251
170,-0.7254840429489742,0.5390870425038847,0.762474880011507,5.8000584819760785,-11.555363363003,10.50695277450143
180,-0.7457822605290089,0.5510554896993612,0.760266449710264,10.494231956594113,-18.7314388190168,5.79616696088328
190,-0.7517220655288223,0.5630207081361114,0.7480461304308637,17.315646415121265,-24.159607817356335,6.74062797461427
200,-0.7242048585656921,0.5376962908166001,0.7272302163680916,28.7379341437597,-24.452699679328106,14.657864001637998
210,-0.6775417053053017,0.5656558820702172,0.7477175730356204,28.344217161157115,-29.786654168847498,11.73660803901515
220,-0.723994718174259,0.6013968987930242,0.7178146199257688,25.36964113484079,-33.81946269484723,18.22443032205297
230,-0.7187205047361366,0.6719242496007501,0.7130296318450281,18.58887624958197,-39.432202766359865,25.09549638643668
240,-0.7880066582687388,0.6317566934356194,0.6656197169419502,19.74552062474087,-35.571242677526115,31.902519566868868
250,-0.7666860543612931,0.6741325025485324,0.7133035517075256,28.286912146996077,-39.4208101439976,38.98668386860396
260,-0.7183988546549247,0.6541837765764693,0.6918676102434663,46.26167311112622,-38.09732157392745,48.053595273048934
270,-0.7172665060872021,0.6486274273740038,0.7028310166079794,40.346625035364625,-33.474850612211476,46.59231846472249
280,-0.6545617114449122,0.692618725730124,0.7310746147339977,39.12007405935602,-22.533192109356328,45.797562574605074
290,-0.576913069182061,0.7104475459744384,0.6812745077069037,19.40838584209943,-0.7430463592587351,35.57010460929566
300,-0.39626399733309403,0.6000587688247709,0.7844319554490002,-9.653460651305254,-2.1531568940486534,18.35981488603029
310,0.08809608368876724,0.4861814964817183,1.0135100909247536,-50.942677634098864,-2.5883866207136514,-12.487717577132127
320,-0.9931513930749944,1.0655692790884632,0.6716446182875528,2.8143719959251206,6.318802940421735,-7.420609198188634
330,-0.6901219284326461,0.6409977354000691,0.8024984131399924,6.862326678142325,-1.5406937482372174,15.654291594016048
340,-0.5510606952215318,0.4976827607427643,0.6859558675599944,-12.4327391770518,-13.813425926183243,-12.162916635025924
350,-0.6248656388634023,0.5431764748469305,0.7752423461169312,-85.09247353612369,3.4791536821072473,-32.45668597639556
360,-0.6134210085849959,0.5574230411262695,0.7999825558975371,-56.327618811929796,7.49563172527943,-39.264077492047505
370,-0.6424367439262936,0.6883413621596052,0.7768622941102363,-48.170997793887324,15.807990096514043,-35.788323987633724
380,-0.748770759262358,0.7265313290117702,0.7482192697041787,-49.90730131343333,12.290489408636635,-27.292356980450883
390,-0.668066784198888,0.7223417375670587,0.7107494165707118,-36.69065865896599,13.703987862107939,-13.77290244307389
400,-0.659466104322428,0.664621588941067,0.7478981183283911,-19.93161188876826,13.325024927500309,-10.258449829778096
410,-0.5982876089307789,0.8185318789110699,0.7288592339096878,38.666607661423285,9.515045813651499,1.2591669050163765
420,-0.9330727027892565,0.5719116922552714,0.9288904746264414,-9.443159164944756,20.94902537678638,6.432893683186592
430,-0.7628083268361491,0.7595937579841873,0.6638277853624525,8.725307937576556,4.465816786353483,-13.753897016550797
440,-0.6402675594905882,0.79755253439607,0.7553556100409202,15.03942306746711,11.908032511818519,-5.161184292716921
450,-0.6793718096608324,0.6752200702686,0.7173924760106806,22.037029342499565,11.088423238367017,-7.648217090770924
460,-0.7073208051645121,0.6898099918260457,0.7276087144494979,32.42920306570529,10.325988132874084,-8.768439606217004
470,-0.706852179004518,0.6590942501412322,0.7832729817240662,-5.371677201994297,6.927495399753482,3.620938023650745
480,-0.7510077179829224,0.6473493553981083,0.7750589131199709,-11.555168748923258,3.40179087634624,8.023330857988912
490,-0.7397786688242763,0.6670023854197263,0.7799509358106878,-19.40122804946548,-6.805615741965968,3.138938928514423
500,-0.7043590866636965,0.6808599804076539,0.7564556531402706,-16.870758994763293,-12.092105064204256,3.054422416031895
510,-0.686879209955338,0.6355467965935876,0.7205015798421857,-13.736699709022023,-11.513972949959683,3.5542930981639516
520,-0.6289621782157659,0.6119622776534878,0.6915745491408479,-7.290078700624452,-7.203907296571556,-1.24662683213453
530,-0.7064087820995356,0.624939971795078,0.6365105220894106,-17.923038980032626,3.7174669915369853,-13.38425866969763
540,-0.680358568268295,0.6877146063601354,0.7027961601496886,-22.426253934959593,9.713475256214872,-16.74795164626134
550,-0.6919245253231258,0.643430163093063,0.7048601996173997,-22.827746057553554,7.660874449886917,-20.39586222969664
560,-0.7184941525755479,0.6087450942318523,0.7238496259912168,-24.35025437546335,2.956380841624956,-26.571448874206908
570,-0.7718129556959548,0.5948331619284931,0.7480237518229008,-23.214118432678834,-1.5316474755030043,-28.329489315569578
580,-0.8053049280518808,0.558750398605129,0.741581947890306,-16.006235620372163,-5.150581933318515,-23.316106961194205
590,-0.6916789415428228,0.5099189012433303,0.712692049048449,9.905213770906618,-6.931173838775407,-27.98524551865178
600,-0.618371828985725,0.5654076231954259,0.6197323127907679,23.887078861449098,-2.172738016777707,-33.09827639647589
610,-0.6384747781155659,0.655641409053077,0.7283189450212454,14.02896235989637,0.965815229562016,-26.672197468614065
620,-0.6551298876474457,0.6336096381326407,0.9022086848867024,-0.709252682953121,-4.938718341427952,-26.92109159101279
630,-0.6756714777321488,0.6255835425886892,0.9031469961962898,7.838549692804578,-3.676385363279003,-22.62363630595688
640,-0.6928755458519531,0.6130911098575015,0.8770057612163129,24.57056885194058,-1.9439455896317137,-22.047569482498044
650,-0.6585963908815607,0.6448167682360049,0.8195119471167086,19.621041899652585,0.36657449975778356,-28.726144825988452
660,-0.6511416215701569,0.717052001584812,0.737608655950017,9.42927716036338,-0.917405042586417,-29.883262266559147
670,-0.7343917330746765,0.5939604658429233,0.6311569021238445,-1.8741143554156965,0.6209553859658099,-22.946895832675896
680,-0.6579816260165454,0.6465889952018357,0.7256907999567628,-12.82880710250485,2.3165641898384988,-6.85428987216624
690,-0.6727829648846797,0.683138913425572,0.7555417362515161,-1.9913068121115058,-1.3951849189369483,-5.8816557745224385
700,-0.6970247053253741,0.6941787809936285,0.7208189080963779,-8.110487117758666,-1.5497475427067646,-9.778851126148863
710,-0.687100710473617,0.621326159155794,0.72128954139015,-11.241768817744344,-7.999856671351775,-15.934709786176393
720,-0.715612739041717,0.6363656105310009,0.6713299783269608,-11.672122910102352,-10.405189076294258,-7.991008463382168
730,-0.713681593035505,0.7214299875470301,0.6214447542259182,-8.872672308012625,1.2613101661110167,4.0757663978666105
740,-0.7197974997499945,0.5682755552541493,0.650739014816076,-7.5916775190804024,14.8435976128587,6.277976740422718
750,-0.7322345827961781,0.6001383945164058,0.6241989747751217,-2.467160117366475,22.306562488920875,12.918735999450067
760,-0.7228863790386943,0.7744418313391713,0.4878859772374831,26.05842844028749,16.62220955949635,21.35227882808439
770,-0.845130262550288,0.7158029639383109,0.2602381953716842,25.40921614364129,18.175911525075325,16.651754084986894
780,-0.804318254755094,0.6772041805869286,0.5542064255195694,3.0333644909121324,20.734958872141615,31.460802846566594
790,-0.7277817819076979,0.5586505220442847,0.6263465666384044,-7.4506618800845805,2.4893107262625422,7.722470477369751
800,-0.6558179625468994,0.41323673786779425,0.6599295252101121,-26.517191468375067,6.807111732134013,6.052721382973971
810,-0.6460271274108909,0.6682998162387744,0.5859078371505357,17.787649338264302,19.86371546791919,28.95247663388874
820,-0.6442390729217455,0.5887491674411508,0.9308026201923351,3.1934761210802014,9.181559511037687,14.694774768030967
830,-0.6070831893208348,0.43758531806327994,0.9347546473487031,-24.01987258619296,-0.6480235515179944,0.5593525079171286
840,-0.6932324443289275,0.633607423938214,0.7128670408128945,-4.5251947768447796,4.526884098973039,9.37078760166716
850,-0.674932718308086,0.5524329426025028,0.7299097141848272,1.966788236702,8.476490704421172,12.410353988301171
860,-0.6802673927647365,0.5872856217480134,0.7365720139491382,3.6611281557297515,4.185501276868306,4.1191206353174135
870,-0.6891525594612395,0.6005530204128641,0.721221436634466,0.32277283649669597,1.1753850847330813,-1.3641554504896383
880,-0.7027796577708589,0.5901770459921264,0.7089851338513415,3.1199548625564955,2.2788733199531306,0.7381911974699134
890,-0.7075494772516349,0.5830888536023797,0.7000347633673444,4.978400299837398,2.1348538482837593,2.2483728114995247
900,-0.6846267044831974,0.5908855955174268,0.725117303323358,10.964065661772496,5.540592949814011,6.535392149503851
910,-0.6986556937156685,0.5593026877815944,0.7175228881360409,15.801877174474251,4.899318209796858,4.177069412158321
920,-0.6880812902582847,0.602997293671175,0.637605961585155,21.641184818129688,-2.187279013494004,-14.764310482403847
930,-0.7156042916844569,0.5988549906342207,0.7230370916667717,13.285209730947926,4.0770394803023216,-1.657804491426754
940,-0.7475500017164406,0.7169743997592098,0.6130385201739712,40.46303105119539,8.467921105116504,2.840137485040774
950,-0.6496099947565676,0.6023318942760533,0.729748694114387,39.91540830122328,3.2987264411522426,-18.884286153415065
960,-0.6748030163921558,0.589146795681364,0.7028224704713054,27.377355370633275,2.517511642096904,-14.840530611178432
970,-0.7438184216501398,0.6640945545466204,0.6174500096701939,19.433668711317758,6.78898770366849,-6.826575433952918
980,-0.7075787791520063,0.6844386941692622,0.681459255125541,-0.2635919745532096,0.8120027562052472,-12.960691565877738
990,-0.7162650720518733,0.6631893794900089,0.7604717650351024,1.8152345690283087,7.112620958778075,-5.194701729178646
1000,-0.7323819089949853,0.6312768310199051,0.6943025272987309,-4.593675907561682,6.02367647378127,-5.1152018002386175
1010,-0.7320687627820627,0.6112431507636461,0.5603883236065365,-3.6740430269275324,10.600458394977538,1.6488373553197082
1020,-0.7169673184473186,0.6188091703907299,0.578238258939638,0.5187753494248901,18.354402423900517,11.267473828481721
1030,-0.6424888336586522,0.6848152050838006,0.7260173080406863,-4.329909734018721,19.946615297470583,14.820746822748482
1040,-0.73006222504123,0.6033759838545362,0.7384889826030997,-21.605559736484057,11.774721342411707,6.77957048973755
1050,-0.6997681184412814,0.5426479267529827,0.8286765900433993,-39.49245508822083,6.60525661094972,0.9808811000558779
1060,-0.5777949299865996,0.6000785888409413,0.9101771203002453,-33.19045856383228,9.571454138348164,9.546199080358237
1070,-0.6137812941601686,0.6517616689435778,0.8919732625172588,-31.606083984816244,13.110161268264918,25.382167239081774
1080,-0.6794834410189711,0.5838755274694891,0.6834389190019066,-12.505170499231173,20.85741965477055,38.55768728363912
1090,-0.6439767978227872,0.6500447549736634,0.35757373175220447,24.599948322549025,18.54847738686543,38.31239074825831
1100,-0.7157622992290879,0.5582983614973466,0.6907420312209258,-2.5465772083193507,-0.21292768206817714,25.552790376656112
1110,-0.7531131066855685,0.5701435507094708,0.5784581463266495,-3.816856868016959,9.259742209132963,39.646938337602585
1120,-0.7393689626933846,0.4498120682467684,0.4980982591340237,7.41500416026474,2.8683795128679437,26.237224219277902
1130,-0.7127747179774909,0.6746656532547188,0.6369563051309857,-1.3389958665342776,1.2123515642017824,9.414955187541938
1140,-0.6615907666880182,0.5929465848725273,0.7933573354133072,-8.31914837346412,4.830038367115207,16.28491607649917
1150,-0.7100112553390526,0.6137754494995805,0.6744655277660506,3.564257012687665,2.853998587365648,10.24553527571083
1160,-0.704037138272358,0.6415918325730515,0.6841427271908213,5.942344105376671,1.6644962428640402,9.212455642175405
1170,-0.7260831627306212,0.6375359649556039,0.6629566154771068,7.410802818011665,3.49570417091719,8.090376389172711
1180,-0.7111298776487966,0.6609650160492355,0.6766196234517742,6.189090299485101,4.325014420491401,3.9834610411159947
1190,-0.7184645444468549,0.6471677502482391,0.6642011329853036,5.783547593158898,3.3119841574385185,0.8386527603478751
1200,-0.7266283806218979,0.6479304176051378,0.6606197328916168,4.534847216173143,3.30474072607661,0.552104261230196
1210,-0.7180882148639768,0.6554028386194372,0.667430187317418,-0.4808340142287031,0.2735773540778572,2.439197071378967
1220,-0.7057814260831696,0.6621605152656871,0.6707381283226957,-2.0378460809517334,-1.1182691111937206,1.0685753343964322
1230,-0.7446957125705077,0.6218707176980137,0.642770321863252,4.0542590531465645,4.151769119375331,5.338169898068799
1240,-0.7225146418764431,0.6527027516643573,0.6628210181474474,5.6619576123916175,5.242260833543019,6.7700606561275976
1250,-0.7257039571149906,0.6462444899497242,0.6624817006193608,-0.6384261613777624,-0.22552691451167795,1.7373766576025502
1260,-0.6761242786427517,0.6961431957462522,0.7065773067720815,1.76503957565637,2.4294088529664553,3.998354102666931
1270,-0.7052183115264613,0.6698972890650868,0.6734028963257129,0.7963968249604779,1.513192547941291,0.7181316245029548
1280,-0.7198337134069143,0.6597010407212088,0.6631123609108153,-2.2213895335100986,-0.35682406022804936,-1.8795311335953189
1290,-0.744816406793613,0.6273537467891971,0.6413537669473358,-2.405007313267541,-1.0432748730641213,-2.424366627650528
1300,-0.7221791870025664,0.6478957569621748,0.6616613527347145,-2.6359049398353305,-0.8511038868324242,-1.1453737731706761
1310,-0.7158773672979806,0.6555012902269551,0.6642952095160666,-1.2860255879020297,0.5457490533532533,2.2973959024001718
1320,-0.7240867838393118,0.6480316578805264,0.6567851537621245,-2.6376811761828134,-1.900617755252152,0.45979401971168166
1330,-0.7206744284671338,0.6523829157574724,0.66195897488284,-0.7153345642120288,-0.891051153186305,0.3222052744213326
1340,-0.734912483514075,0.636955228218497,0.647815735152067,0.2631394981826315,-0.30604424865303403,0.616151391297694
1350,-0.7298285302660322,0.6461893584885708,0.6586880538721863,1.7789278474994838,1.3981614202977386,2.4712686738287406
1360,-0.7201819899577221,0.6569374369270242,0.6673875316305599,-2.6550036925175773,-2.5693206463279807,-2.14263813690152
1370,-0.7160414855645599,0.659438242193827,0.6692007833962225,0.12550867701295276,0.4143207390451782,0.3296840997464411
1380,-0.728212917063377,0.6466124320955738,0.6596136279661844,2.6266884442036798,3.1547361642476934,2.3331531714632403
1390,-0.7207584594059298,0.6555361598816523,0.6663709718412665,0.16752107199795363,0.14815451046108974,-0.3356848469275705
1400,-0.7139618263363652,0.6630416438412383,0.6712075981486568,1.1360642812262571,0.5873464612225076,0.9054490967511489
1410,-0.7199997415147542,0.6575480332151895,0.6627754238715184,1.8700397179780737,1.4959876959997236,1.6857707870310845
1420,-0.7079648656281186,0.6730944428199076,0.675744757808966,0.6215966878736474,0.4917822484860305,0.3862332263725679
1430,-0.6986906618280311,0.6834600048759675,0.6875365220970636,-0.050978503148895904,0.29397561458224014,-0.4369111047465763
1440,-0.705330308019357,0.6745898556972014,0.6807603952167557,0.1046567269591081,0.824773916288075,-0.3935135612454632
1450,-0.7224343674269359,0.6579100823740908,0.6633666277032934,-1.4058023305077585,-1.4120580693805698,-1.5343556142801056
1460,-0.7262573854612588,0.6558998587407121,0.6551191342551996,-1.090346859775468,-1.6940656409154362,-0.4040707955309051
1470,-0.7209383162697476,0.6600399119433077,0.6598506462150027,-1.0931840156452917,-1.0164497589002655,0.4685873735460848
1480,-0.7209106608365792,0.6567391346018344,0.6605286198226448,-3.0018521852493705,-2.8743571062724866,-1.8158581263405922
1490,-0.7304859744329104,0.6506551048164492,0.6518873714858003,0.05593932151462999,0.8691905566033595,0.8071854211544652
1500,-0.7012335142298295,0.6827643365652794,0.686007180670807,-4.173905659557166,-2.5459815774294006,-3.932294250371818
1510,-0.7054907253067947,0.6725281854800697,0.6800898664982891,-2.882263852420933,-1.5427336176984787,-2.9526950062894115
1520,-0.7125823802726197,0.6660978448957637,0.6730668022680244,1.4566884539087734,1.4335843280916172,1.9901572149245388
1530,-0.706491738966529,0.6705958775621046,0.6760320157030669,0.23796263574778043,0.07630935318590532,0.9206336368026129
1540,-0.7444366514054359,0.6330810693689909,0.6371546971308781,-2.76098335396013,-1.5927524470426546,-1.1155833854192936
1550,-0.7341818497376627,0.6412722256300378,0.650775254861946,0.3954493326736812,2.791788733141917,2.7001160337297847
1560,-0.6817999863643038,0.6863941497424246,0.7003028388805103,0.04466920672370023,1.3995120255737072,1.0721679341803136
1570,-0.7365449873927874,0.637412799254913,0.6481814825504689,1.9586383023618459,2.8470569932170644,2.8647493601648115
1580,-0.689778555246323,0.691477454366057,0.6903889553734165,-1.0316556730451794,-0.275769490658546,-0.12056228729401808
1590,-0.6930707011792627,0.6879197130649678,0.691572224609582,1.897560999506475,2.6559818937432755,3.0179360107010997
1600,-0.685256592513509,0.6926232255875616,0.6984226892414047,-3.077492484943809,-2.8821971015890835,-1.8877250128316483
1610,-0.7374135623329028,0.6400763939036956,0.6405839750904964,0.8982161553818881,0.42153861543227783,1.0326158028683563
