time_ms,ax,ay,az,gx,gy,gz
0,-0.882355488690697,0.04016331789368337,0.2517209587768813,-2.0769829431386357,-0.17770169362885385,-2.00073609560687
10,-0.8837733030448214,0.028296090649149074,0.25742261150599927,0.12338775660652512,-1.6752022638037056,-0.7898297181868572
20,-0.8512904067895815,0.06887898969655688,0.2898633187805399,0.7907336506380377,-0.6601447415022546,0.7016296301535808
30,-0.8752193950228008,0.04214504817834163,0.2607377698717037,1.8010952080284346,1.2672199997621334,1.3579222528625265
40,-0.8737488343979263,0.04879644312815954,0.26387164541000696,1.773470059671909,1.7951107055171636,0.9915087235802884
50,-0.8703437497833852,0.04537781928912017,0.2650999156730776,1.5808273035079097,2.1979141334147845,2.037604723912102
60,-0.8861888473090399,0.030049147103826893,0.25040781820514796,-0.17347251359233984,-1.0717559419963845,-0.09684674884193001
70,-0.8634594012227204,0.05805922028099068,0.27048650222513165,1.026940316299223,-0.1525753027688361,0.2858919815475326
80,-0.8773066764833588,0.058555728424893844,0.26875102941409834,-1.6862847381935602,-2.6015004254325653,-2.870208694339638
90,-0.9286624044243772,0.002019591527730069,0.23505159604762546,-1.2584495416837946,-3.11317989437922,-2.675795222049508
100,-0.9517194752837649,0.03226016388848722,0.27430991398364635,5.8607986170635415,-8.497320397201062,-3.8216950871189357
110,-0.8849012838722874,0.13406676558162983,0.3463024064912755,4.5077221785959525,-23.762692402240866,-9.045552278482711
120,-0.8237552393757167,0.0526480202661737,0.3327910874978362,-1.201617350166272,-26.405510237634193,-10.651076578936692
130,-0.7901784665768284,0.04348793396985974,0.31256314160331844,-13.131916173017336,-30.817757870705716,-18.88315977571629
140,-0.8063151678924073,0.08795023356254926,0.26429269767191316,-16.760892633582248,-27.158662585588104,-17.50503978594593
150,-0.8535403963755142,-0.02088095302197015,0.2634066364367138,-18.78535760903082,-6.8044738927701225,-13.52888804252483
160,-0.8782439397498825,0.026298494977413364,0.2985185337455006,-20.34746484240071,0.2574016774618497,-10.381077476729454
170,-0.8676468160782456,0.03378818813895878,0.3171790107917794,-30.34407166346352,-4.895031376447671,-10.077338394991315
180,-0.8490783430378062,-0.055672049621265936,0.2760862853441961,-21.32933536844892,-2.669129622694504,-7.919784254408851
190,-0.7988874398063727,-0.025477785451262905,0.29618917411191636,-19.979245858477377,0.08420305462283517,-13.45996574830634
200,-0.894256594661774,-0.03316492385092923,0.34710168026021665,-15.34199608344427,-6.119196553216303,-11.092501631468373
210,-0.8928331859741847,-0.14082036448983135,0.33197132627773923,-9.199187559218105,-6.2090104669128,-12.092425100350257
220,-0.8652423206999903,-0.11325467490761025,0.44201524281167265,-9.418792964066999,-12.44573409879254,-17.53986458773484
230,-0.8816647456374116,-0.07206278540225375,0.3761662397976871,-3.2338733647914637,-10.940626903985553,-7.117941653353619
240,-0.916257367218632,-0.054041916107823364,0.26360917509233206,-6.384300018751212,-2.434864577939539,-3.9748330534495846
250,-0.8468086092571432,-0.08604819680024768,0.2024613436723054,24.604680134865507,-11.112514503639142,-11.305566927723827
260,-0.8451156750799108,-0.10072897375340804,0.37471973402121106,19.68620365654053,-4.555948162587349,-4.531621359532697
270,-0.8104934626311402,-0.13654326192746108,0.36078987382179495,18.38047983274037,-7.613887690991202,-10.039501395817467
280,-0.79927397300211,-0.24063522561250672,0.2010640089647696,5.043096615784985,-0.8792839327798825,-19.96311967586377
290,-0.8041012457286173,-0.07095148517215544,0.14242022481318575,-2.4509695347661262,1.528261714017763,-20.3357856637204
300,-0.8966009970737696,-0.03456778905857261,0.3156357186001817,16.056010348161582,7.155796575011847,-2.1547605381068213
310,-0.8856044245402822,-0.054475833373790625,0.2314914725815825,16.501835997654684,6.843303706734767,-1.6492000840162444
320,-0.8759598766052327,0.12509588188882442,0.2181240988372621,23.93472713911482,18.705596463408924,9.669421863608044
330,-0.8278016014625251,0.027947486808882302,0.15703954331534134,17.751726604323125,19.148965077689688,8.402689344817732
340,-0.8623838368667918,-0.052809168575839935,0.5725317314653171,-8.661614462256239,15.59731906680012,18.919239808997503
350,-0.9312175725966996,-0.16219395448814036,0.5581450547656006,-30.732274984442068,14.64310512224716,18.285995403103165
360,-0.8999874419844129,0.026427380493549008,0.17956509900822593,1.2241606733563815,5.928768688140925,9.355387311070164
370,-0.9132167388035342,-0.010542432664636992,0.31231874962095996,4.7727579418907045,5.94764678816038,15.468721027162228
380,-0.8678658653602003,-0.06517306451423725,0.3308910081310914,-5.762965076515163,0.5647919391164067,12.064483684526955
390,-0.8717976690888402,-0.0858580623391738,0.2773012661710957,-2.934404029541075,-2.796482119712108,-0.6185468541537031
400,-0.8883003200487121,-0.12219895871738973,0.3411209094060814,2.4642839272617754,-7.543100394501495,-3.8281879738744107
410,-0.8167234633251194,-0.04790969103864826,0.3294220897558223,7.059106891301697,-8.068938092179199,-7.938605241961723
420,-0.8524958797310142,-0.1223065006794593,0.3238755954765765,10.657963903782841,-3.450696614532162,-7.862248195346004
430,-0.8743269112271401,-0.020572593815190776,0.2513903783621837,14.943729248003176,-1.8159704152336877,-10.051679760865087
440,-0.8864569166110856,0.045540447864752816,0.26496708586800016,12.734664293579756,6.809474200422141,-2.1777747007321264
450,-0.879330927789329,-0.09227619754021425,0.22054306058647424,16.95742462774389,14.698165143547694,-5.25242502355859
460,-0.9198234248444199,0.022300986822776855,0.21421385743855653,8.52104785956581,18.633537427814293,-3.489563168573736
470,-0.934076962796629,-0.010145525497614733,0.23483734204109669,18.31423352545535,13.30093776041026,11.147385313511318
480,-0.8527943109550804,-0.09565156463866774,0.08161588336898472,10.894964221055485,26.843244878259853,20.679400631515083
490,-0.8096994574303295,0.04408571497187121,0.5517675435496767,-13.074766416769917,9.826109680942354,16.313767257530174
500,-0.8659804705465237,0.07356692666531632,0.4509826272470554,-21.810059687186843,-0.6178069152557568,12.060210201092248
510,-0.8420123864538229,0.34735546917821825,0.36803357134154474,-1.7823713245460562,-10.170239970669822,16.392442209044443
520,-0.8503598683979346,-0.01407905939307989,0.45695871133374255,-33.34964360567006,-20.46404420146036,-3.241684123360441
530,-0.7876799757053763,0.047886727415160056,0.34476526433883015,-10.202897060405542,-12.589782467800472,-3.254726571878648
540,-0.9050579940397008,-0.06608464178048437,0.22103246583428898,3.427515705132871,0.5222586086883096,6.456494101881554
550,-0.8809590746619563,-0.003820549406765988,0.25436212673363723,4.5609309453830535,2.5975845611418276,13.584821450228024
560,-0.8922885577350846,-0.01623109726929466,0.2526749609112239,0.9044163316401738,0.7747424406650768,11.00688188430812
570,-0.8897497289632488,-0.006537771211669457,0.25335818869680565,1.0046016751503146,1.6156806354230056,9.056221346308094
580,-0.8570067641877737,0.023475125469997526,0.28103223465481836,0.8912215734720668,0.908804499104614,0.6516454868698194
590,-0.8743135806918898,0.00941955009753409,0.2728837353790761,0.20310447012161414,0.6663499086747605,-1.2141728630730366
600,-0.8850860115327399,-0.018329901251130716,0.2597452764097473,3.3377726224755637,0.8540917972894949,2.098649193679538
610,-0.8671531778349113,-0.00907472236787427,0.2694122077286019,4.4258422213952935,0.35429594038860096,4.716269352820874
620,-0.8821398310885522,-0.003594843572091965,0.26206102801646536,3.768153461022324,-1.3286903476070238,4.536411276074267
630,-0.867487203012727,0.024434774918191977,0.26904498566426793,-0.21463591435659146,0.0911205398474072,-1.3884711407363297
640,-0.9010310476955259,-0.017750023064793483,0.2457063086348405,-3.2062808787816204,-1.8085515250837787,-3.574084742496259
650,-0.8762369371516091,0.00495280191209693,0.2709682015436442,-2.1205140169862524,0.25001602607869156,-0.18371498106473622
660,-0.8584561850048521,0.02268615546550147,0.2850837188822185,-1.4743775863554043,-1.0590252325266145,0.563317524064483
670,-0.8798299556354308,0.002852594988000034,0.2583847628148448,2.179319998042299,2.0550270467701854,3.021156494804513
680,-0.8949266282374594,-0.006460320484746738,0.2450642231031182,-2.668526478087294,-1.453524172693502,-2.938587954415581
690,-0.8864660350499868,-0.01175786378474041,0.25740689466328087,-0.1896762070429212,-0.19613788383573788,-1.188176322333896
700,-0.8747669662535857,0.01053158988807704,0.27354292180592454,3.582147318249019,1.5834767476782194,2.620655871045682
710,-0.8759326211383807,-0.0001588391703225599,0.26122007371093775,0.04564008368930794,0.2163737952937732,0.5666831992703862
720,-0.8894001717729816,-0.008616115544030271,0.2500252450504135,-1.0025574559899488,1.5085089856065539,1.0289260164999918
730,-0.8950597866864521,-0.015137902750634761,0.2373611998476001,-4.468919239400241,1.4558595010926927,-0.6898116293086829
740,-0.8776107888765788,0.008405647145992136,0.26321142303854855,-4.147664113956668,-0.1281122201638809,-3.1018723045784475
750,-0.8597759407852976,0.02931492630732026,0.2787054608073239,-2.243592787684205,-0.844538792638158,-3.9951892329198535
760,-0.8875233362230468,-0.0024447760296566,0.25280489678087775,0.11529366592132617,0.03879507585597908,-2.2010545662659045
770,-0.8956778135704261,-0.010824528308597876,0.24474937048205098,3.3373883738143215,2.41873395204331,2.7769650750254424
780,-0.8839675924207149,-0.0009578072617304921,0.2620749843074804,-0.14122326978698774,-1.3264827281880753,-0.10468912950298703
790,-0.8786678963554718,0.00586099027416921,0.26306589742347886,1.5396788359212272,0.3374181217306287,1.1249033430899422
800,-0.85961168809002,0.021920605864946645,0.28361554137816153,4.013379530352484,1.9702902359174037,2.2423080241057125
810,-0.880960808494667,0.010048667035371666,0.2683073013953249,-1.13402295361083,-2.367101744360031,-2.483457364479775
820,-0.9070556307396329,-0.01682586495424471,0.25112680380157887,1.7874448915386176,1.5340597475814681,2.7001393549623613
830,-0.873779059561049,0.021106023614509868,0.26883671502756995,0.05467708254689341,0.020949134765110733,0.7279889369641788
840,-0.8739233272002419,0.004939724512655289,0.26075321453797334,-3.3438356332414876,-0.4825544127686916,-1.2253338167919576
850,-0.9066697730065753,-0.010686587298809164,0.23706985254565235,-0.28537908713624827,2.7938805079813966,1.1892269786164433
860,-0.8670526251726465,0.021058688114843183,0.2750627390607971,-1.6141944746061716,-0.38071632158570456,-1.5502559158780544
870,-0.8643018809979219,0.01195508120622487,0.27997000494633123,0.8229290061343381,-0.30219380879213575,1.0388262129645884
880,-0.8868822698172508,0.002704124846468505,0.24893451586372833,0.4358670451837734,-0.9225141992192468,0.31003162566036147
890,-0.8796953314308481,0.01895568836218056,0.26124882906294006,0.6797451614942966,-0.9936582336880722,-0.5739806167543916
900,-0.8755721103209385,0.019080911126321667,0.26189556026202226,-0.8028221842909022,-3.3606526928975935,-3.5099862050183157
910,-0.8864462053645948,0.002520499282845482,0.25284697518638577,0.4917839364074961,-1.2121072009657958,-1.3383916856491689
920,-0.8821032023529054,-0.0008534948535076524,0.2640422143271677,3.9749899811859666,2.874821308373547,5.099405607435969
930,-0.8648276121925859,0.023232109835716143,0.28170102513379974,0.38118541278222096,-0.5046466381273714,0.45028409119600177
940,-0.868600701191066,0.02420143908795941,0.26247771204823794,-0.8361588137229631,-0.353962339041466,-1.1981456617479949
950,-0.8954460254290155,-0.007187968604385766,0.24518660622165667,2.9757451451121097,3.9949010663497515,3.1295312344762536
960,-0.8799057583426511,0.012531916864465158,0.2574598369428893,0.4925755620809637,-0.1360793183266118,0.46938154089685197
970,-0.8742545583848556,0.006750957701883022,0.26733832139885466,1.1510534676127895,-0.41619342615348587,1.2081932838654974
980,-0.8691287906652132,0.01809454382056476,0.27233042858029055,-0.16313969741495993,-0.9761709465596358,0.9188582076140959
990,-0.8938247389958525,0.0026844806928252724,0.24715042827425848,0.11588231843515695,-0.48302302877736125,1.0232450968569877
1000,-0.8539796373133369,0.03465872573490772,0.28521791327815,-0.10803570972627796,-0.3417039970191054,0.13251110030979385
1010,-0.8656020278891491,0.020875176928706843,0.2741985576255765,-0.7433915174905361,-1.292693162898275,-0.39850288509810583
1020,-0.8762652731565669,0.01262906410916664,0.2680037194384658,1.7684642335209262,0.5004975579352557,2.3714608216446966
1030,-0.8474801534881472,0.044696423512880966,0.291999268560602,3.5289754368081185,2.5078989319399425,4.804340755062702
1040,-0.8868084736792669,0.0018056604794554898,0.2486800058513269,-0.910132353700059,-2.503936965254208,-0.38955174519268576
1050,-0.8661542262728701,0.03423185979173916,0.2741376262361783,-0.057225297484285065,-0.6854041479500995,-0.27653845545566524
1060,-0.8683561301452206,0.023388330438782856,0.27988671258638664,1.8564215703524543,2.6783280252639674,2.633840412231977
