time_ms,ax,ay,az,gx,gy,gz
0,-0.6922856027606201,0.46316818464787785,0.5950652422049142,1.9027094055112346,1.6122708715681482,0.19208781244956075
10,-0.6550776091140973,0.4921162042309815,0.6242074827882864,1.343949361864123,-0.32370898528195813,-0.9534500581843393
20,-0.6762454813704758,0.48104645135204765,0.6130757937591954,4.455886388912558,2.824545806551158,1.1318014949255129
30,-0.6942197489163534,0.46687381491046076,0.5973804426385827,0.5635585801050709,0.4934803181023737,-1.4258629731482648
40,-0.6991079358297351,0.458654695014868,0.5898523308300446,1.496422816638396,1.4576126663591913,1.868942496355051
50,-0.6589017055373575,0.4940941282559031,0.6263752140270827,1.0527113966057808,-0.4171437448348466,2.132375458746575
60,-0.6927124166795884,0.45940252189779857,0.5907797908077899,2.740761368258576,-0.10098272337394514,2.9592599750402657
70,-0.7005700939507099,0.4543667357205218,0.5827314784560108,3.351575114194345,0.3951598754365633,2.550892081113133
80,-0.6978701339344988,0.4611689981022663,0.5853110300246138,4.6375225231274735,3.4213853903734956,3.239715599607181
90,-0.6985883725850744,0.4694137191394068,0.5902157572897166,0.8781748975967111,2.8081696183185416,0.6186539302253058
100,-0.6915889707021261,0.4655904567151598,0.5933765900017368,2.7951411454422326,5.201622984534225,1.795220724746027
110,-0.6850438140600212,0.4743149263562515,0.6024933293730064,-0.14737738543626933,-2.13550864204262,-0.6763969042378555
120,-0.6903187442521928,0.4670090286862634,0.5963681896007806,3.522184154362375,1.0429770901778956,2.846084642203509
130,-0.6841690316948777,0.47399534193329623,0.6046239349783873,0.71252234895878,-1.2548860873400511,-0.11840502671041386
140,-0.6915646291767694,0.4685632033083144,0.5962174122456488,1.5215075662524227,0.39827327932775936,0.3386090506097087
150,-0.6817672887554723,0.48263676741017075,0.6052275316777633,0.6430572421106763,1.298894524312884,-0.5496324039491757
160,-0.6826553175000045,0.48080444779388404,0.602362302049998,-0.9266513283649871,1.9625796845284054,-1.7732198395918308
170,-0.7067330515987851,0.4487537762165582,0.5745121637715007,-3.6087146687635774,-1.1521045989259528,-3.95196241630543
180,-0.6886796632204631,0.4667845001131094,0.5945623987635292,3.4613816768691272,0.9292916888490843,3.879257811726942
190,-0.6690565411301128,0.49518928974180193,0.6159396686843901,4.082456479213091,-0.8856590748199357,4.555429269075508
200,-0.6627309242935195,0.5051119903827942,0.6165567498518354,1.5570077096152444,0.19125319900427074,2.5084380296935964
210,-0.6817510402757264,0.47917633450711966,0.6010661058257568,-0.1472320442017703,0.5005493571054893,-0.35004653614801684
220,-0.7243510655044285,0.4365125318289555,0.5640568500257653,0.8132724355009487,1.708280699348895,0.06510819278233893
230,-0.6839131299546002,0.47531104074298874,0.6029725618850059,-1.6022753770029667,-1.5100170677133433,-3.472183322472522
240,-0.6662125744831576,0.49405081742463075,0.6174056621994777,0.00532923820738973,-1.9222079139718455,-1.3423756055915326
250,-0.6939607856055805,0.4655922423373008,0.5888167057706938,2.0982959701341506,-0.20001977158592166,1.6078630953987272
260,-0.6870017612481292,0.4721435972722009,0.5959267614061357,1.7946743782452423,0.4062180414908188,0.9127858836252751
270,-0.7095201281163994,0.45402427453108524,0.5755423919127163,0.8044841447097829,-0.3537894438564724,-0.8311930354055417
280,-0.6832545340573156,0.48293245552064856,0.6078878172798052,0.2290774816390958,-0.0930706863821508,-1.1678288914768815
290,-0.6604617726182158,0.5035456049931059,0.6235644601813516,-0.4342729776708705,0.11403707252277098,-2.1207215952923972
300,-0.6851746025808614,0.4757814409857943,0.5974126845018218,-2.91220363337461,-2.3992195865499517,-3.3311679387121247
310,-0.6907208238664185,0.46863365483592917,0.5889466007553322,0.892712149974083,0.16112010965836254,0.3486159191264372
320,-0.6767801271619689,0.48399421013767846,0.6058948470048604,1.3592134423906033,2.4898509975815073,0.5219978093235795
330,-0.6813602320328956,0.47678457318626827,0.6044147586359144,0.6370913569219577,1.9182214687805765,-0.266333521087595
340,-0.6779855929634439,0.47816429831673185,0.6070868363426464,3.368061890260154,3.428345323829205,2.732992486085891
350,-0.6846782881739122,0.469160771862536,0.5985056106870499,0.6253184924748383,-0.767898471170938,0.02563382210493581
360,-0.6654071804126389,0.4882528324474334,0.6181276265333561,3.0289001296550517,0.4261002246189419,2.348142520147113
370,-0.652251851784502,0.5043325765317446,0.6338812820229477,0.6953289263996703,-1.3115071603736534,0.9962802969848086
380,-0.6672423026701195,0.487881334436452,0.6212897024486805,-1.760928473019856,0.1358553308681461,0.7816608430476838
390,-0.6943493273032214,0.46335820865487304,0.5942040148105753,-2.127839138610006,0.9342498051545081,0.5270524125354159
400,-0.6847822686723314,0.4724645121597695,0.6035957914342189,0.5933576486893588,1.8674118292808393,3.110950216297332
410,-0.6903137277246327,0.46960838496241153,0.5969478051229721,-0.3261945265528531,0.01483506798566503,2.696652662005255
420,-0.6691633951813459,0.4973335474561358,0.6153333582799014,1.5536625876694206,0.7027573960916693,5.3821449240652495
430,-0.6986748719384082,0.472276913052658,0.5911082197937358,1.911619315583577,0.3100661948459338,6.728506980574872
440,-0.6723733078792586,0.4935481709884445,0.6231973586574413,3.2989237160411387,-1.7177546706653937,8.068450055103668
450,-0.6786519590374299,0.4849931064020323,0.6281085775773586,7.976743670634845,-2.3079726219693937,7.716138083637415
460,-0.6618602336679364,0.5123491084640038,0.583868671372749,13.6279901874934,2.370681991372849,9.80281494798052
470,-0.6589001400734347,0.5701226877605045,0.6131021618851888,7.3176399266364145,-4.5484928715951325,10.946834016187946
480,-0.7380188887949817,0.6139544206526572,0.9745157546297285,-11.960395124199005,-40.07790218513709,6.436417217257015
490,-0.7738258326147718,0.5751505132449259,0.8218604371005863,-18.892091683546223,-60.19177016432259,20.355211419303092
500,-0.7595339401400087,0.4610527785867648,0.734366501350903,-30.312596653903345,-77.46641257298265,21.615357532200488
510,-0.5700780188909829,0.5017853332765333,0.5940719281134729,-38.58619915026581,-72.62328262509767,26.320291654695353
520,-0.5136124349938795,0.5578879668578156,0.6104428448075018,-38.12721087839268,-62.62437928290658,22.239902076961638
530,-0.5725694421394631,0.556120078944368,0.6252977079327624,-37.23894991571882,-50.9148050904092,21.347658637697222
540,-0.619525371112386,0.5586340454613843,0.6458368827305286,-38.29349608532158,-50.31686465702295,17.9040769823944
550,-0.591154256613472,0.5763094116689611,0.6767629916401674,-30.976778836643984,-43.0149835724353,27.45256089540634
560,-0.597495746761775,0.5117472284712954,0.6075610255595622,-36.45626530632211,-39.17725252544363,29.35405743762472
570,-0.6210940457035425,0.45338352709462115,0.5623242279970525,-34.852299311522096,-21.49938303766577,26.360285944485145
580,-0.5902048667396,0.5037060877173292,0.7276732267323367,-29.410773822909572,-3.465715594409762,6.400622330735731
590,-0.5623930085055672,0.5311057906119169,0.7382624734460589,-23.74089318454185,2.325041960975806,11.236748876427638
600,-0.5224786804592149,0.4021016064784849,0.6715982007556908,-15.656233681776335,5.167846613357558,5.832769890764671
610,-0.5400603216753445,0.5144010031211351,0.6063770393763198,-23.493945398718125,13.996444121741538,2.7982848435332404
620,-0.5684940188357211,0.4425264193219357,0.6658794099430732,-26.68045414377163,21.507143294983802,3.595458838315904
630,-0.633736873250257,0.41459744272749577,0.842611568051767,-27.52478619829433,21.59651305179281,-2.1549975096097227
640,-0.7276218623217582,0.41612378151409146,0.7479860581407954,-5.158514104955997,-5.73558127309664,1.3918160345547004
650,-0.6529100759244483,0.42002349140555734,0.6915258315112415,17.965320971001198,-18.24832189437446,12.828670282010142
660,-0.5268379132946712,0.1907191699837514,0.764110193320921,5.008550446709188,-12.433974593371767,5.84473805248188
670,-0.3593015465862508,-0.0018210081344990497,0.8832479100578273,-11.481268900536794,-9.041634700056182,-5.5165682407231
680,-0.4038822388415096,0.2659425446025326,0.8850802218443047,4.2363811063920656,-8.068857563631898,-9.988464589520131
690,-0.6614784879727952,1.3667250435191314,1.2762132044177021,75.6310474079908,-4.771489301593784,-14.37630109260322
700,-0.5475179175198683,0.6237400808873933,1.2262296970744555,24.10741480457317,21.05682866646678,-39.079050750245756
710,-0.6759811989582678,0.38241894877971777,0.492169413755264,17.0305341326386,12.830984611388233,-27.496900183350363
720,-0.6453863882762392,0.5663552462868278,0.8148246892631643,6.495608714236818,6.515962968002201,-15.420874031031085
730,-0.6588120162784689,0.5859901745662598,0.8920474167656507,6.467514150751812,10.888311220774833,-18.598249774078226
740,-0.5952066353613557,0.5911012303194132,0.8498179777576486,3.844856796701116,13.409431295128316,-16.210051074434073
750,-0.7551822989644259,0.5595445957828127,0.3982530376752229,-0.6761497999331653,22.4870684267961,-17.34688533295999
760,-0.9386813181617397,0.5237367705960218,-0.004463312715845855,4.986412322779957,34.26171206664964,-21.85628747254453
770,-0.7649127380223092,0.5153237591878567,0.29241645930880933,13.184526351617452,23.28491136701415,-6.378690434594889
780,-0.6490534135406915,0.4995713701897558,0.21360428750428045,21.32995466388873,17.867561815863166,35.62471899697219
790,-0.5897923763499435,0.26658063096784307,0.42601823424461804,23.08203083198537,9.118629147872964,30.970840284960886
800,-0.7554397165299449,0.8774161645171945,0.6358977258818063,-48.91090234354696,13.496527674150627,48.30638283322521
810,-0.6803811395371335,0.43614789456528846,0.6176245449166663,-17.33827621347039,3.012653528888687,17.605396977142806
820,-0.6261462242295168,0.5008807785738263,0.6482195780035684,-31.638441596391672,-3.454356297856936,24.089160361584096
830,-0.6278028303247876,0.42331293841094114,0.6738689022070886,-10.316010235580608,-1.629801096505498,20.582572248079423
840,-0.6753089610893496,0.34608400776479836,0.6298753415582098,13.18674769453095,-2.7588993253733465,11.400416159485443
850,-0.7482041519894731,0.43134393252647696,0.5372863818962647,30.36276687063668,7.05271237234223,2.9974623275942576
860,-0.6472904759891949,0.5236725764811283,0.7351096448649515,33.47458706904172,20.208865165648014,-13.755004601209597
870,-0.33001746995313397,0.36042583988121946,1.0385294889977703,34.57598682751611,34.0287382572414,-22.648759646719895
880,-0.14069921001789532,0.20487319310758767,0.3761800871102539,83.59445264251278,50.14510271945415,-47.25941012246265
890,-0.5469354231794478,0.6489263169842013,0.39997605375055567,86.16551727039695,30.65918577033981,-54.824643456029584
900,-0.5485644076991232,1.012529654861738,0.3817603743048936,42.09691164745558,30.38544372584497,-22.635834178495337
910,-0.6060790822485308,0.5766224147813855,0.6367788188747485,-20.17833808095161,24.78375639364426,-33.63385785828443
920,-0.6669849095299732,0.50868159645423,0.6291843871246929,-32.083892187547704,20.39257613109026,-39.16894133407345
930,-0.7322869167937726,0.5908162272799484,0.5353829373064733,-22.42669932676101,30.35199627343095,-23.02955666022177
940,-0.6077985746239792,0.5658637831662123,0.794545937138159,-53.764575086050115,33.75503597732496,-4.930788188854059
950,-0.43723465586992355,0.3880163759220687,1.1988242096434207,-74.44092441185256,27.351495568106255,6.799405361589681
960,-0.39649714661995855,0.17768052690235964,1.3159752249821046,-29.708166939116744,16.373802857830917,3.7268494638929313
970,-0.42153215797947996,0.22602130169242543,1.0195365934310328,37.12398569583766,15.703066032605399,5.360878742253863
980,-0.6858970485109015,0.6514055094645336,0.22810846982277191,28.18758973104335,7.494992711888752,29.412222665774223
990,-0.660087117278209,0.03894426079910074,0.5621433335808821,-1.1185069889916,3.6678528713266116,-4.5754425813568655
1000,-0.6217321388099674,0.9964699906814737,0.6537066007511579,3.4150329523368086,-2.621762846260644,30.565750459382826
1010,-0.6735114858226434,0.5405115997556493,0.6473034052700505,-12.773320290021594,1.6933684311525286,9.876560051585633
1020,-0.7824792065760544,0.29986916478374054,0.5354230250159308,-25.856158894029615,-10.692299987109584,24.69310595709172
1030,-0.9749187177986942,0.12923474151357262,0.15711254404968847,-49.51369784570034,-24.882578048088842,28.58396511916535
1040,-0.9279730511969825,0.1798617196946217,0.20826513772624056,-27.44030555060789,-13.317436251856638,17.357679025722256
1050,-0.6560696328936659,0.5289685707654719,0.6232740202488892,2.545211255696598,-4.896705368641809,8.078240898981147
1060,-0.6645447390427921,0.5908455194396839,0.631660496933349,1.3084202424743627,-6.003482182273721,13.637034006295567
1070,-0.6859861525496566,0.41943000519974794,0.5948933059020143,-5.064507449174757,-0.5249969380138205,6.172387073506614
1080,-0.6908985722456715,0.4475656581419236,0.6190584098261308,-1.8953031241956915,1.7248587310530932,0.6886632814835743
1090,-0.6552024341133245,0.5114211599826473,0.6359062775076249,-1.2167415257061363,2.655546042412878,1.9380215926961575
1100,-0.6556598347988208,0.5027640919046098,0.6496528794863642,-0.954260451119358,0.06354042665113568,1.5254567996276105
1110,-0.6874857418635567,0.48549325911712515,0.6177531755035415,5.9451881182547766,3.130473097544166,2.1690822788710467
1120,-0.6659591599306683,0.49494410252896587,0.6296066339010888,5.171283803887096,1.0991812997114394,-1.36960154605501
1130,-0.6347614340468959,0.5321123173571365,0.6607017758428374,6.962082745864972,1.33981545289923,-0.9374522729793551
1140,-0.6657158999985199,0.5064392466778583,0.6374255357967267,8.221835397595836,0.3091130782703475,-0.8193773632824849
1150,-0.6536391357301263,0.5074116350844522,0.6479130216497546,12.280675205642313,2.095880261494858,2.056799580318846
1160,-0.6825709399179805,0.47997968606917635,0.6202492886604095,15.966271453054139,2.440122804213738,3.2380948683221566
1170,-0.6837942514897509,0.5121632632117639,0.6430210793140387,17.630181419634923,1.207951631461889,-1.4486757294403407
1180,-0.6565804064205419,0.54707406400203,0.6459450326200521,14.9479391576734,7.047563344574456,-15.162664002442398
1190,-0.6805334380889586,0.5046980478404043,0.6198114266127669,11.06181451612718,4.8916553142044785,-19.740462193594336
1200,-0.6703226094960396,0.5142842231127277,0.6340618410953867,12.715759226198873,3.2466917166317124,-21.199066856330255
1210,-0.6697865706166329,0.5164753773660921,0.6253756443901862,14.109135504927206,0.07935212881635434,-23.087656880562694
1220,-0.6592649003211976,0.5019231419309808,0.6368186555320062,20.252195138489867,-0.34797266893435363,-20.863013096914212
1230,-0.6963965252878079,0.45233568978737404,0.6000110180061916,32.71260614236242,-0.08210456652092923,-14.397456537425414
1240,-0.6748710516563736,0.49528835732074356,0.6236266040082243,33.51425439202923,-0.9781169612472479,-15.613894852329583
1250,-0.6517538048928208,0.5358542994094303,0.6495772259619185,20.192975905062823,-5.479009829789789,-25.56844154255863
1260,-0.6657192693742027,0.5073215599262701,0.6377352876178911,20.14131069826949,-0.521292341561082,-22.022948135788944
1270,-0.6764146152015394,0.48619664521507444,0.6325656049026042,22.791737518677238,1.6278474494541562,-18.445509154648093
1280,-0.662811757322816,0.5021957035492941,0.6355190321309047,21.060002250918455,-2.8399082026463467,-19.976372566459368
1290,-0.6668285844013362,0.4852919064474916,0.6342110752991895,29.318576555077193,-2.0393411175048435,-13.742440746299314
1300,-0.655835945436183,0.50546651970052,0.6671990530300766,38.91948901451621,-6.863739231267709,-12.297284621329396
1310,-0.6758981045129885,0.514572984688513,0.6400119140085123,26.625165787815146,-6.851197071364017,-3.6230179855812237
1320,-0.6393064498218077,0.5522954765915828,0.6689564666931501,10.772101768713934,-9.265170729310059,-7.205262080799698
1330,-0.6409305957432858,0.5491106080680423,0.6678425667890224,-1.4461007024306518,-10.334247191388517,-13.227401671190425
1340,-0.6610990903162353,0.5195453139600753,0.6513027095623523,-6.76735156462864,-8.256897943069442,-15.565876866511928
1350,-0.6433748338560459,0.5206542915155462,0.6704699626852311,-7.420665661181272,-6.406749773104086,-16.258339493238797
1360,-0.6580887525817687,0.49829013132679184,0.6545242942540905,-4.449867611577133,-4.0618283409278275,-14.597854641670073
1370,-0.6652822236490366,0.49091087959470175,0.6453522062977692,0.5613072545118631,-1.7277790698464592,-10.506347035135022
1380,-0.6473352278511418,0.5108161208458396,0.6627655110980755,9.872668653171742,-1.490825496252242,0.17694073439484792
1390,-0.6488760357203031,0.5145695895785666,0.6556267809556637,5.117096484148434,0.4774343923837316,-0.10035365496369736
1400,-0.6267726414609441,0.5181838223787344,0.6870376527328711,5.382934514434116,-0.011058622243534377,-0.8066473150429789
1410,-0.6722942892643665,0.46696733838001714,0.6361549730568594,10.221454345944661,1.1031513736707843,1.1316226742923858
1420,-0.6573786412610223,0.48542899890591984,0.6525307656803824,16.809095801795923,2.650214711446261,3.500494603882542
1430,-0.6312907090735383,0.5260297062321624,0.679851929097584,22.250496616532224,3.0574282180742074,5.589859669411407
1440,-0.6789003567044589,0.5036760351648437,0.634048503499705,16.34464866758283,1.761804049741996,3.240518995052334
1450,-0.6799723222752782,0.5123305622782947,0.6314015963536374,4.578783611226271,0.8088967065747491,-0.8594268495252888
1460,-0.6426622128742752,0.5307500003150883,0.6646971824886458,-0.6452720408459778,-0.3104461869888664,-2.2129179358753177
1470,-0.6608162778649114,0.5020343306363063,0.6549584074626443,-1.2171357311613227,-3.8179102890667638,-2.2464960692160845
1480,-0.6422786204353471,0.5159205517805722,0.6625339271240048,6.388307570718188,-4.100235652087302,2.918613705387968
1490,-0.6629553286035409,0.4986562671698477,0.644177202271744,10.057764170157768,-7.908044085964346,3.152545039010243
1500,-0.6751102314977603,0.4976614050756962,0.6333748899094173,15.982857479613951,-4.820476353142546,6.35862895572398
1510,-0.6665810582783485,0.5038027412518257,0.6498660287009447,2.939749419240487,-7.7076986589441345,-0.04465342124530253
1520,-0.693655757162821,0.4679389558613866,0.6272543947799278,2.4755755539154087,-5.8953166534872965,0.7937393997726979
1530,-0.634894210284706,0.526368189951736,0.6841701328618618,5.08073549328705,-5.708383832428269,1.2167142262085429
1540,-0.6529084760609403,0.5154414937016272,0.6654676396945496,7.931232519572432,-4.51373238944764,1.4458365352453755
1550,-0.65605802511855,0.5226464875245014,0.6631714669363281,9.717950845459008,-2.793594404145065,1.1766096866739117
1560,-0.6475468467917773,0.5438901847306109,0.6705085954843585,6.134146250962896,-3.8342621499411607,-2.4633210938975383
1570,-0.6656144414879761,0.5268307650221576,0.6545844791119007,-1.6516255499399886,-4.658092984921588,-6.927561439176235
1580,-0.6808559276516698,0.4671882306289057,0.6344539308205156,-5.857823433066275,-7.330374676563943,-6.599115181958985
1590,-0.6473277415038806,0.5006387159214271,0.6810378562586591,-2.6350159927635355,-7.658911598057005,-2.3792537260176383
1600,-0.6507769977096689,0.5047632209634364,0.675753579631751,2.839926486679603,-4.911745908126962,2.1902845646664817
1610,-0.6511611372975609,0.5071166715724721,0.6690890248967767,6.596117366106296,-2.3179447694757354,4.657286487396897
1620,-0.6195272480081223,0.5531134008160623,0.6960024245105937,2.011263610375334,-5.065238104650069,0.19455760922574905
1630,-0.6548637991731676,0.5209810343739133,0.6639161797260431,-1.3953697087527688,-4.106920189637945,-3.2115576773303545
1640,-0.6326703478912077,0.5260915176748288,0.6907934775916822,-3.1410549561396937,-3.568119390383467,-6.083272102894944
1650,-0.6408679030788854,0.49984664447470906,0.6831132488435497,0.3184129597716139,-2.2990624963641615,-4.086622208026896
1660,-0.6192468456740482,0.5225692911612984,0.7030273404795305,6.2483128590939785,0.17536922662203502,1.6986026850639022
1670,-0.6199172285939353,0.5341679250895831,0.6984929083012476,5.04643070740236,-2.1161477013141314,2.1176812851216185
1680,-0.6318024508959966,0.5298481011747075,0.6853545828360175,7.250884385694338,-1.1358049424796992,4.46702470577471
1690,-0.6534692570395131,0.5179338776174908,0.667841581266895,-0.9648212893037806,-2.8719191586866177,0.5094077899412147
1700,-0.627867361699928,0.5363083296649975,0.6967465608666177,-2.666192363264269,-3.3065250610705297,-1.7132619767897248
1710,-0.6726892764935601,0.4786558241267592,0.651057664546235,-3.4434211268865216,-3.429957951501467,-4.81553693260027
1720,-0.6217010850803955,0.5260360222309368,0.7002021208723537,4.793198777865435,3.3047826642405758,1.4739080712592019
1730,-0.6341684918956647,0.5157551536932415,0.6826435743521059,0.9321597595386559,-1.9335732399724024,-3.1340412936437447
1740,-0.644196070380183,0.5068537283165218,0.6741330617184949,3.0443753381742384,1.0449881887745551,-0.40347715656381533
1750,-0.6276559416892546,0.5235540973597383,0.69513638994541,-1.2227940291118657,-1.2367773803818176,-3.2207451444847863
1760,-0.6376117792614777,0.5146048342244008,0.6812354085526362,-3.031055545068318,-1.6734475120996315,-3.5146018050811123
1770,-0.6192066032218033,0.5290298921604901,0.7034773254528235,-3.6448821650147867,-1.2276796565595756,-2.9652957631621426
1780,-0.6673734096820957,0.47267433274301096,0.6493711147319303,1.2093864969257675,-3.3735240977821412,0.5915074748965128
1790,-0.6487350342455871,0.4991760894397718,0.6718059254889033,5.136465386224229,0.8330575546742159,4.498238254388086
1800,-0.6363377959110927,0.5252369524735432,0.6891731785965713,2.3509695994439617,-0.5906806270458378,-0.30277264380129
1810,-0.6321563356104544,0.5267419691083723,0.6923052039161058,-1.3141047775499373,0.03719937663032402,-3.7573585280830515
1820,-0.6340685369028999,0.5135131261455754,0.6898800075929505,-3.283426604040009,1.2184148056316593,-4.936148201144089
1830,-0.6194137793099196,0.5215505049594826,0.7033534503560911,-0.9694906570228061,2.953500449306633,-1.900381402050997
1840,-0.6758090225350318,0.46991770664200655,0.6479597281338961,0.9135996951641546,1.354145907199802,1.6504076821425626
1850,-0.6343386846670166,0.5193066813735426,0.6918160694489746,-0.6630284750330252,-2.5253733995927203,1.4427322704361845
1860,-0.6575206008644343,0.4962117545626426,0.6666783317420015,0.8060501919170855,0.2457104684669196,1.4889747231849033
1870,-0.6507609270342541,0.5024239103837552,0.672239817816732,-0.5919605998471228,-0.20050103147037407,-1.8224134908177843
1880,-0.6391824943235457,0.511136101259073,0.6872254808393746,-1.9844394053110408,0.6144401775982297,-4.3708182028520035
1890,-0.670482365949139,0.47644080676547973,0.6551171343038285,-3.840585235661509,-0.7109510984272864,-5.544947386272688
1900,-0.63115561941256,0.5112741395682942,0.6919748290832574,0.5405820882833039,2.5365453694590596,-0.864641440668906
1910,-0.6240735856978827,0.5252809453104317,0.7034022809967182,-2.314144157591131,-2.74693903660804,-3.1942978506605186
1920,-0.6535897275001058,0.49199294686821043,0.6742426785271693,-1.0633091538471737,-3.1265414853099247,-2.552497824444351
1930,-0.6729696294133776,0.4717090339157445,0.6541853086010371,2.4467319363361164,0.6441306049585791,0.7828396721905839
1940,-0.6232227659795615,0.5193532929661778,0.7016201321387571,-0.5427821095465548,-1.6979902886290654,-1.9296134692004105
1950,-0.6366198952020252,0.5005763633430458,0.6835242441501381,0.1848247901177984,-0.2097192598041775,-0.7281890745209008
1960,-0.623955783805241,0.5175250092892739,0.6947708645540783,-3.925935901588722,-2.387701178605881,-3.5267075641870456
1970,-0.6461982901879788,0.4907766215085509,0.6754017060740243,-1.359536623405537,0.0418788050444191,-0.6750175668695964
1980,-0.6173445824451445,0.5178553673884277,0.7087863515449755,-1.4437838346698375,-2.2418812773710157,-2.5016549507013397
1990,-0.6416559979381524,0.49729323812935217,0.6821826594788916,2.3783053728077257,-0.3011924680455388,-0.00835363159509478
2000,-0.6533028798296593,0.49513298715625464,0.6764462634237702,0.8233923445937803,-0.762457394334579,-1.3477918853960338
2010,-0.6369878890902527,0.5076071290325505,0.6901724796712999,1.3362381862682284,0.017638761427836935,-1.1240908767755033
2020,-0.63484591193998,0.5074071294100228,0.6910196275917062,0.31442212167737554,0.36459814599479723,-1.3229020504662077
2030,-0.6694775763608397,0.4707036516557979,0.6562549509053999,-0.9264429261605804,-0.4188246990580736,-1.5539383103470261
2040,-0.6135986777655776,0.5284997790201504,0.7109702174721765,-0.3456222028511413,0.8313859803867315,-0.14076848842732304
2050,-0.6296948688582881,0.5156922361411302,0.6958614127576981,-4.686332365883903,-1.5537266468324649,-3.890445709882389
2060,-0.6557936082635868,0.48191621067386786,0.6723668390936984,-3.885388878371157,-0.4769509631704682,-3.4203389527063717
2070,-0.644251409445092,0.4899564362269298,0.6749591126525727,-2.891263237897662,-1.0171329757102199,-2.7166463386702184
2080,-0.6262743811420313,0.5124787599134324,0.6972328932315992,-3.2541641550773726,-2.0260460017132345,-3.440753465908108
2090,-0.6340904913061317,0.4950038836058688,0.6935356337362238,-0.3692878498947476,0.4960616420161659,0.2603860066118078
2100,-0.6591572717296239,0.47279421266087107,0.6651186814139172,-0.7278467092989144,-1.4567655154986676,-0.9078809497870166
2110,-0.6479294401045068,0.4898513429237994,0.6760064828504783,-0.8478271884679721,-1.3689381202058923,-4.691510635595753
2120,-0.6106433826332429,0.5249727202206861,0.7136734258698708,4.244512253437832,3.634357367735325,-0.9779322643197306
2130,-0.6328761607536377,0.4996411712780259,0.6935893464274143,1.4480104505976013,1.5508307544921003,-2.210448663609995
2140,-0.6593481037387485,0.4710472459949375,0.667186550857495,2.4480270032912967,2.805788013050665,1.1666171190092753
2150,-0.6245467025232723,0.5041953779137682,0.6985823917525794,-0.44145716009715064,-1.8895645836068111,-0.5332104899665251
2160,-0.6180325361269998,0.515443146566205,0.7043365944389696,3.005272184614931,-0.1137436896857068,2.270117916319423
2170,-0.631412480544,0.5071639107554486,0.6899608823359165,2.2201503733365504,-0.8003713569837246,0.15098500870991566
2180,-0.675360638787017,0.45821202739818245,0.6521066079684121,-1.2661056007270073,-0.8831010401771093,-4.418522666514251
2190,-0.6415467381736956,0.4837123596021137,0.6826086023650545,-0.050086862610324856,-0.25574405183658555,-3.406686541350001
2200,-0.6252561997965197,0.49825817553988205,0.6971693012539308,-2.753631061987607,-4.336652212623074,-5.208978640777498
2210,-0.631738107727796,0.49351938195945233,0.6917294026277053,4.461490476100126,0.8757490984826333,2.021698633678797
2220,-0.6346434263829936,0.49454742223986525,0.6899688783871836,2.618871892753977,-1.645345379398913,0.7544264443890241
2230,-0.644479752121831,0.49032353645261617,0.6796230432654087,2.499604464034748,-1.097148713397417,1.657623002954956
2240,-0.6387064146151474,0.4955255413464214,0.6830911000031173,1.4960732439487172,0.70221169866996,1.304299924688259
2250,-0.634516569988504,0.4911863292292003,0.6864326460094637,-1.317595745656772,0.6060840461599848,-1.303624277606396
2260,-0.6065318204343388,0.5160066014017449,0.717941979324957,-0.7562186676555523,-1.4163966469975375,-0.7918177398771339
2270,-0.6571382322908038,0.47057572614600746,0.6673583331081038,2.5240180013178786,-1.0481143839296527,1.170081316754978
2280,-0.6655947479020431,0.471156478734506,0.660661715018342,3.793419680961434,-1.7752457211661719,0.5607438661880004
2290,-0.6240261553105253,0.5147046832310965,0.7029246518098968,-0.5529214670567586,-2.9270844199600137,-2.6148127336655307
2300,-0.6627351436858114,0.4763484145785122,0.6630042764600831,-1.459747968422955,-2.216841393741328,-3.39120918954345
2310,-0.6481618244202316,0.479022604225912,0.6734752188627386,0.20417089358558363,-0.8274178134576552,-0.5610639232132626
2320,-0.6405041185745582,0.4839607044024066,0.6796698066012055,0.9178452447309946,-1.3218170965181433,0.43341037414079575
2330,-0.6134381593594532,0.5185842455894838,0.7110182762980822,3.6648153444191136,1.668402088902818,2.7981519750988615
2340,-0.6446223632490716,0.4927403473326282,0.6835263192081258,2.2997046349305297,2.1941554835866097,1.428587661392064
2350,-0.6471679163450529,0.48919725795922153,0.6783341783498901,-0.7856741756061422,0.45182839576570055,-1.802235333810152
2360,-0.6027660805891534,0.5329047490510697,0.719558725067895,-2.7836420264578607,-1.450270682229983,-4.836714166994655
2370,-0.6328629660018361,0.4992159221534654,0.6909104846810151,-2.278813291774848,0.5008642330570384,-3.347377622606879
2380,-0.625831001636751,0.4988335278300726,0.7007594828026051,1.3200171802254217,-2.6226037294930027,0.8860830649860616
2390,-0.643790504362601,0.4872127182780613,0.6798468556591872,3.784222245319007,0.8283159679886241,4.015622073368572
2400,-0.6101726023913941,0.531505671216426,0.7135357576637256,1.4719067331041562,0.32005333986670526,0.8834474646817487
2410,-0.6467540829160091,0.4916284125354572,0.6751640893407502,-3.0948049624214855,-1.5770057160430606,-4.521168301074759
2420,-0.6244671247192546,0.5053779143015591,0.6940388975615751,-3.414764135790466,0.6737616012309608,-4.514867871846605
2430,-0.6624069783450944,0.46098112794643153,0.6580073912208941,-2.452311798546658,2.185126547437587,-3.229660176667826
2440,-0.6446184706448713,0.47923023843856954,0.6809868014208017,-1.699141273835012,-0.37702415593793087,-2.6119749499169203
2450,-0.6360567812363418,0.4937129356487646,0.6913334528105505,1.4162066745055892,-0.6378513831016841,1.1878926001071632
2460,-0.6518033182271995,0.4775999206996819,0.6758616148977402,-2.768496242342976,-1.1709188525291399,-1.5022508108670625
2470,-0.6286302912746619,0.4930903662251633,0.6946474453588404,-4.819292161549992,-2.7988297985985406,-4.973808171208219
2480,-0.62635933280272,0.5008394714802875,0.6962517877840911,-3.3876229350425207,-0.15252327506996766,-3.72143483093733
2490,-0.6227136898646045,0.4971942257306885,0.704866232220201,-3.9827085002215363,-0.9861919628195966,-4.760005119622921
2500,-0.6387751701344376,0.48147387972880995,0.6852617626513299,-0.37133679371727824,0.21634349137772044,-1.151730130189182
2510,-0.647501168473507,0.4802821618443673,0.6770167380019614,0.6456693122071583,-1.3017603553542973,0.30961294040745313
2520,-0.6398768978578118,0.4886519036793937,0.6854427683576002,0.008986787234202431,-1.5269045161012689,-0.24564481947254857
2530,-0.6428086202767174,0.4808877164276702,0.6818042939600365,0.5688962617967817,0.34929510918342593,-0.04642139154893915
2540,-0.6392868149951154,0.48170151682115797,0.6840302000951979,0.2968573679203346,0.7113282364623467,-0.5462746430646499
2550,-0.6352884551344828,0.4854376574838581,0.6875075381118889,1.9495763640259085,2.7879434581680878,1.3148554870821147
2560,-0.6311403578084984,0.4878931182968409,0.6928786366261429,4.8024247702780105,4.580593332962704,4.337856950394858
2570,-0.6223289779060942,0.49959112997298394,0.6979546534214154,3.259698706941243,1.1817507571952621,2.541460411769716
2580,-0.6216887891663206,0.5017184502075783,0.7046134412518309,-2.0224190241160303,0.9762243027920868,-0.8421320651769035
2590,-0.6220790203700179,0.4980096926230252,0.705201368127991,-1.6680124494562036,1.1469553576569194,-0.7271789268436757
2600,-0.6625992816711915,0.4578752509850166,0.6630167312460759,-3.3202338039139647,-1.2580489177201404,-2.630740993120534
2610,-0.6575536630128048,0.45800476824493885,0.6671773255736633,0.030000678127189095,0.011821783393455076,0.42393324959723216
2620,-0.6183279442106656,0.49720284750857563,0.7040555517509788,4.3623154068120895,1.9235007606625687,4.493988438625929
2630,-0.6328438625852254,0.48471222043831985,0.6890170656432449,1.625120369089886,-2.2974822735731575,1.581583804808591
2640,-0.6380689061300545,0.48177576142731754,0.6868942634956952,2.365255030208145,0.06552122580284214,1.6304021380469746
2650,-0.6491773435531392,0.4734037791557426,0.6786736042675128,-0.5085518676303739,1.1813532104858946,-2.2563472217627014
2660,-0.6295143475842574,0.4844027303068727,0.697682370027236,1.7094133916693302,3.4532396543996375,0.5911205424612387
2670,-0.6320557359116814,0.4788350970654189,0.689169712838645,1.5632862800334646,1.225978429790422,1.0946082759943936
2680,-0.6491091167730735,0.468499026671639,0.6734221295373548,-0.2255076336804862,-3.559067400345203,-0.5615044643740394
2690,-0.6527621960635248,0.4697546831447517,0.667756096399397,1.0386886339605979,-0.6855944220093233,1.785503961051225
2700,-0.6379628021859967,0.49154173885205377,0.6824334323667022,-5.637260046645664,-4.757929967283648,-4.281240250839059
2710,-0.629599046545432,0.4906434165923892,0.694460373524937,-3.8581781476599444,-1.4563555117812468,-4.3461388630480196
2720,-0.6698572137177351,0.43942147172571727,0.6537787336367542,-1.9780582120013133,-1.4706188215294382,-3.8683382960674155
2730,-0.6260874354657502,0.48394287739362457,0.6966676624541657,2.6129753445480173,0.20766021687881409,1.1122490211530074
2740,-0.598469187121601,0.5186319888644408,0.7275101154088338,3.755065756442809,0.04558843451764383,2.9112974640211
2750,-0.6617610770512736,0.4576129609075615,0.6658060479372145,2.806619278251043,-0.6092280616392252,1.6782140589482968
2760,-0.66203730962547,0.4571406468383988,0.6604269619534898,1.2295418014359234,0.07254850285860759,0.10499157140957927
2770,-0.6271987659283507,0.48866218273224094,0.695522783773385,0.8150279249908231,2.6755802699043842,-0.6231040097318121
2780,-0.6327918176371891,0.4816549256840833,0.6883464775982028,-1.8472147650668607,-1.0451534741210393,-1.9675738900456834
2790,-0.6370168995939215,0.4762430060316781,0.6813366794394988,1.9998331342495566,1.748221557814372,1.425425756521588
2800,-0.6621630722672264,0.4557704856718057,0.6587115446289805,1.0912928738621306,0.535757726290577,1.172598282460895
2810,-0.6169182050353547,0.4983002967476074,0.7052327661797881,0.11346416434508888,-0.92848356069532,0.2795427677642528
2820,-0.6437858315031412,0.4744853376414248,0.6824244900177154,2.4533522217214974,1.4864286330922978,2.703577802165811
2830,-0.6227996888380727,0.4995601729724912,0.7056488514444037,-1.8878600425372973,-1.9396062867888626,-1.2460162408486497
2840,-0.6639290098404749,0.45769262787449877,0.6628820086354098,-1.9711561454508375,-1.602963501201988,-1.596422398518536
2850,-0.6468163536590729,0.4737574794463087,0.6787902737791016,-0.6175950092999272,-0.8291539363303473,-1.3843595259531956
2860,-0.6178831124434089,0.49278948936229255,0.7023366202575577,-4.07008857003303,-3.6546862529526902,-4.890136683930844
2870,-0.6385466013966422,0.47185418906853765,0.6861450531531459,4.41915110952878,2.5967832347793536,3.175980740124499
2880,-0.6102029162222672,0.5024409727506931,0.7126209495059208,2.5329886914123487,0.004827645004860437,1.3088327274620997
2890,-0.6660456899207277,0.45120238652552347,0.660775307053463,3.548052119515287,0.3684427778518169,1.6827638300440362
2900,-0.6326903235396892,0.48963657587836956,0.6926425305604305,0.018672089135690628,-1.5223293594868639,-0.6195995874867757
2910,-0.6371903554440479,0.48255770711198365,0.6842217467835696,-0.7265010575715822,-0.43127947037780223,-0.4127512742192826
2920,-0.639925676936947,0.4770026735919008,0.6860054808443118,-3.1786564194196245,-2.2623107976709536,-2.9073480591286742
2930,-0.6359059074863367,0.4803943469460875,0.6946223769720241,-0.3015970846642777,0.2902074605677675,-0.5471946325215586
2940,-0.6353361978232347,0.47826991726957613,0.6907069593458495,-1.38878917769251,-1.3814588901363143,-2.1757659673828025
2950,-0.6373929525458506,0.4726161349361516,0.6828289153155463,-0.571332326151474,-1.6378277212005674,-1.9461215429657424
2960,-0.6338722730659667,0.4812121229222552,0.6854064388877508,2.4486587048432407,-0.3081644009854271,0.7363014509246032
2970,-0.6368337164347406,0.4905000524901453,0.6854977334714477,-0.3252554570076305,-0.47412010297073404,-0.8110075256846145
2980,-0.6398695491109891,0.47765891847921443,0.6813683471108349,-3.234125892377752,-1.565525252025612,-2.7309831327060663
2990,-0.6315538798430201,0.47470917200656626,0.6901398307445,-1.0828345333389011,-0.20156603737009915,-1.4570572740420376
3000,-0.6518149030077337,0.4566842292659437,0.6710131655810847,2.7603062536172347,2.0243060709833554,0.840937391615237
3010,-0.6706966051720349,0.44385962390767025,0.6565840873393061,0.23676314296669876,-0.26200250718242557,-1.052292706042475
3020,-0.646507042251943,0.4705821598706348,0.6791683416611438,0.329342715975923,-0.18211560368799007,-0.13976772575544627
3030,-0.6482456874788498,0.4713368369543744,0.67131550099259,0.1493346664474482,-1.7837485609068904,-0.9063578550461167
3040,-0.6341607214048613,0.487346807241208,0.6830112870365049,1.1432600968926763,-0.14252021370126544,-0.08436102817333224
3050,-0.6325802291476645,0.48341539845713466,0.6875126240289687,-2.8822473222478755,0.18322938105029463,-2.5495730324216987
3060,-0.640240938676649,0.4719333885091725,0.6855936534670037,-0.9247798147834484,1.227357752591538,-1.6847849195822828
3070,-0.626344183877719,0.4867088555119652,0.6890663489704713,2.5343420722480627,2.336534364111991,-0.15081166485866437
