time_ms,ax,ay,az,gx,gy,gz
0,-0.8003212909139492,-0.05863036355751406,0.6265895012359298,3.262046648790668,-0.04282865864171995,1.5170406347877816
10,-0.8152760452614154,-0.07217177888767291,0.6102038560408923,-0.7519905245933882,-2.654143984696974,-2.0631843761844855
20,-0.7933077350048022,-0.0487713271759435,0.6352790666090972,-0.9245961613649107,-1.4281818879922448,-2.146256576932665
30,-0.8410332525907938,-0.09748206612754934,0.5930889912573416,0.6005382976952227,0.5634296663177442,-0.09969912487851179
40,-0.8077136868859441,-0.06465313292676984,0.6246106091831085,-0.5846569374725153,-0.6929361399642264,-0.6749690008791727
50,-0.8074894989453602,-0.064541618025758,0.6227747769366683,-1.6310578443122792,-0.4421499736303508,0.139966075611628
60,-0.8005545211537313,-0.05832206152953352,0.6255515766841747,-1.812887718615043,-1.2501895183067377,-0.2205226651286264
70,-0.7709531923037396,-0.03182685778143416,0.6576335020597268,-0.1762297699462394,-0.9908548283247178,-0.47062311213924135
80,-0.773721239115467,-0.02923748242656993,0.6529276447623984,0.7028344558446654,0.9703448719241896,1.0110328635903747
90,-0.7735302464414019,-0.02915376005628548,0.6522566296960436,-0.9220643158253266,1.5445473015062385,0.06294060626127473
100,-0.7879639757993088,-0.05045828072706062,0.6435495031238967,-4.280168948085821,-1.1996271013247501,-2.982040193584414
110,-0.7803705498686221,-0.04806941926471428,0.6441061984347893,-1.4582855896616518,1.812032187799526,0.8468087038475337
120,-0.767816140874919,-0.03211005331156907,0.6604269627098776,0.8759219928619448,-1.2066288446382702,-0.534758657718745
130,-0.7853436015248779,-0.03858562898859036,0.6421976545391924,3.984321491921331,3.7419848015366806,4.0300545245114305
140,-0.7671049141932234,-0.02935578390034888,0.6524134289253596,-3.931006190614359,1.498266987380207,-0.2506037873691195
150,-0.8158123825005482,-0.07483234977670951,0.6084877782306846,-0.9319244068176471,2.733851972539277,1.0646365308613293
160,-0.8106977588324757,-0.07800426915163616,0.611295641182246,2.9738653752352895,1.5540107258596896,1.6640514292299455
170,-0.8446441477741135,-0.1055864449255673,0.5820707950743202,3.8728844527769057,0.46693722151329764,1.5151229984458734
180,-0.7999077613688326,-0.06166636997002988,0.6284325454153384,-2.1104030590240885,-2.1492391890584495,-3.230182296828929
190,-0.8079854607198848,-0.0773041516449739,0.6180412259395348,-3.73726766166369,0.0481616738231746,-2.4803515167448484
200,-0.7954204005329291,-0.07347125222657881,0.6297854703906763,0.8423517374854338,0.565025153490702,1.6068338062823633
210,-0.8262945956747343,-0.09747670121552536,0.5988665736179969,6.269892238138786,-1.2397862930261285,6.232560416447507
220,-0.802596034921306,-0.05146779629015305,0.6220536031263906,7.636113015228381,-2.7921227372941333,8.184611455269014
230,-0.804726714253339,-0.05435511451454972,0.6216367026943687,6.778073672742217,-2.1881191589052738,7.121669087848462
240,-0.7993620563880174,-0.04898590552551123,0.6282531407422483,9.693264100715496,-1.5182147451092356,6.462301580197315
250,-0.7923920549017688,-0.020670718761614474,0.6477296358770667,10.224791852296587,-4.4293044845272895,2.30493935284674
260,-0.8056000261797633,-0.015589226749459058,0.6728539919841796,10.407488810789468,-5.058833584165257,0.7401704917256942
270,-0.8294683855825339,-0.016092426257976054,0.7152234658748905,43.84911083472438,-11.230265057104608,10.253985587091499
280,-0.8326877065614366,-0.10050430395301045,0.6465918103404675,32.97986736095219,-18.76232433294445,-24.434838178790894
290,-0.8088898429511852,-0.09013310428099222,0.6150152523103146,7.739747043559625,-23.062735484844815,-51.8528119695739
300,-0.7117826447195076,-0.1806278195264593,0.6187772388789081,19.15371267385526,-21.442347843127358,-50.65762884805789
310,-0.673151075134671,-0.1452014673642385,0.5862042674127735,15.667498770275749,-19.149675724585983,-51.46241848381155
320,-0.6526510351662015,-0.03362017186486761,0.6275591391991023,12.090431611540813,-20.881406320607002,-47.471765653264484
330,-0.6533374481978752,0.09775243090392735,0.6411226269276473,32.76167733000805,-7.183873948405622,-26.240712082201174
340,-0.7466732330949546,0.15553184833800518,0.6694514595679528,41.908365305566456,2.7257327967132308,-1.0645213842934298
350,-0.7302680879088362,0.06288751033528059,0.6794269054157925,34.74275976995307,4.476690769334903,10.036990845447649
360,-0.708608875757683,0.13851053168424107,0.6833469439126857,16.322365804910362,7.070100230286895,13.55822702376451
370,-0.8262677436105027,0.061639854309289165,0.7350965237399907,0.24872206201933345,6.56039013409918,17.286940730219076
380,-0.7996410151931863,-0.0358324659272637,0.6320410890573277,-22.014720724197932,-2.0861037171942396,0.5884823225320099
390,-0.7156056031970015,0.06511163833889323,0.5724937835892738,-18.435941080422023,8.061571597396707,3.3000317205186116
400,-0.863777570380258,-0.009762658241311874,0.7665632586712764,-8.29059826910517,3.2329071948263213,10.081137967416153
410,-0.8318462380137371,-0.1424345372771169,0.7252901559007009,-10.268621851853759,-0.009235682849427995,6.317692867151514
420,-0.7983379266272363,-0.12355866522591087,0.6662768709866522,-11.179275875335133,0.2405766247962049,3.4421825948547458
430,-0.7568573773742181,-0.06859427530247977,0.6918819501879591,-23.1855607805411,0.23459922150531792,1.5072963406379192
440,-0.7048687192265117,-0.08582833900252648,0.7306801404062524,-12.841439649417,-2.892656103959122,0.47714143630628336
450,-0.7802772295265767,-0.061446887588893516,0.6539783051659148,-7.493784822997611,-2.8070733483032972,3.4281315533554944
460,-0.7933065399093507,-0.12411410135213269,0.6846539477295912,3.4991471400550305,-2.4719137601158154,2.2790890055906736
470,-0.8170950673634605,-0.03880482215822352,0.6662529643422759,14.19714329741422,-7.574514309584643,-3.7099635630425345
480,-0.6535289696515919,-0.22188876158149645,0.7188714760283199,21.28958380241946,-13.441164497580944,-22.03103785379012
490,-0.7140360020378738,-0.05596647354553709,0.6800049536208526,41.30687686417838,-8.53964726405562,-21.02657949058855
500,-0.6597015068803213,-0.5637450818548684,0.8276137082393729,30.136358384938955,-9.850048456108265,-31.010802772499247
510,-0.7938990791884272,-0.18696040678902354,0.7701774478617781,33.49110001308642,0.9716345977410912,-23.89590862270341
520,-0.7386930831562276,-0.030428144661299568,0.7075821680783959,27.10279627792543,2.33583653410783,-24.328621889799226
530,-0.7629380142750662,-0.20403151643387665,0.7439532072823477,25.28641001829679,2.537189503760176,-27.136587934509183
540,-0.7898051863026646,-0.08885209673477637,0.7338374123930264,8.072926906615669,6.438935012733941,-14.996914743464204
550,-0.7922387592109383,-0.1456062416796524,0.6108028697415151,36.75868245166079,8.942591540062518,-5.392052547528491
560,-0.8541033195716004,-0.007467230782138203,0.5790765753449247,48.939127567275484,15.881043020758304,-11.579215438213993
570,-0.6548384428361521,0.255378962796376,0.9939260538993222,79.77592331473144,6.874594378156409,-9.579680546310447
580,-0.6976049536817536,-0.015568465993694153,0.7760048150012295,15.612095833795042,20.817684031238503,10.452854376807188
590,-0.7270625429343749,0.08166168102821281,0.8326869610743836,32.34240111748982,12.141389006876931,8.067373655085111
600,-0.7089863648135358,-0.05191268857168645,0.8538619064900262,24.10830368157513,16.847167323513332,18.10871714102707
610,-0.7032999269015394,-0.0811251579873147,0.7664353463594669,21.180958197708296,17.657779325999954,16.890866610993445
620,-0.7870839979505729,0.10324590817997159,0.5548358654758252,2.4157201677842077,25.61022091700459,29.696339143272397
630,-0.7885362252691211,-0.07389618226007531,0.9675821941065179,-15.402253018367523,26.59379232195958,49.592515303163886
640,-0.7655942753195266,0.4695798567998567,0.3789070481133096,44.59444355769339,19.447479607457176,45.63801936990341
650,-0.7906428146717893,0.6018213150612195,0.4123600603346124,9.306536149938378,22.010141682335494,43.99604126865019
660,-0.802399208960702,0.0988923478249031,0.7420942821783114,-26.87435922562549,20.275487160266444,38.46546083511778
670,-0.7761757278367853,0.004003107783189016,0.9103981389332676,-18.42014401477365,11.971949969962665,28.942659318640768
680,-0.7740136874743505,0.09234657307509696,0.6891864420721752,20.500002165796936,5.488138456044577,-1.2479961812424394
690,-0.7804308394876335,-0.0035626881806514795,0.5913846756471994,44.809734888423904,-0.34725884906750304,-4.868657736810886
700,-0.8104601917190762,0.03404845609995377,0.5843733644223071,70.36928671928233,-3.531614137186731,3.566505141356236
710,-0.7956487035263106,0.021464645573657078,0.6436266528836028,73.18097549770258,-2.368704039590982,12.682090514620445
720,-0.734865982218322,-0.06781175614744599,0.7134368250817296,60.49738052242841,-10.986006920503037,4.87874534844724
730,-0.9444925049913372,0.061502176774576506,0.5231826974224347,22.961608256890983,-5.399792580504987,-23.223773084232047
740,-0.7951443515547281,-0.09670482233792158,0.6044559320507283,-27.066845871531015,-3.8945791727630765,-48.335663089416656
750,-0.8078239862103482,0.10277251785718962,0.6749427922374301,28.235478461213155,-7.727517874439265,-56.13089797348028
760,-0.9446669713426014,0.11811569852039683,0.442273144569211,20.975487458172697,1.4649220472802158,-30.044390560299995
770,-0.9289941962168663,0.15260592195885858,0.33191672807407147,2.1832349307980343,6.37227000486237,-32.22094610186769
780,-0.7038757434385473,0.32074775201884065,0.5954243785098632,39.7142742490713,13.219719764830051,-33.06681210231878
790,-0.735953692343634,0.46488518151127045,0.6653344837286681,38.57623782310801,21.05467997693131,-21.210653314425386
800,-0.7420284101839862,0.2282810283038877,0.7183908958957196,34.27074687743931,18.966652408176337,-4.871152822577121
810,-0.6951598839162717,0.1331688163503892,0.9708509375245803,41.2708301131769,26.856826256144657,4.839071483419181
820,-0.7899350332873872,0.20653698442783877,0.5393500130079066,4.466098512765169,26.514467247073224,3.1310629260127687
830,-0.8376773496940981,0.31957231114734774,0.522165225881023,-30.264416649398672,14.709534237624773,-19.708191455235013
840,-0.8333197384758056,0.4043870722562724,0.3956740702317834,-32.286727525544826,21.074917498771534,-2.8041894564025536
850,-0.6921247655054604,0.2260239408952144,0.9028763059557,-19.553755212623066,8.916696427960588,19.229681645664936
860,-0.8001943370502556,-0.22745082724983134,1.1209051333240425,-89.86499528569597,5.631030247845251,36.68312751503705
870,-0.7210905576713754,0.23400957486514853,0.5908155274611505,-64.22238804742447,3.2982405453949717,49.016151479897225
880,-0.5509259454465268,0.38369870014920476,0.5822320653332804,-8.12724960201821,4.8786345414628105,27.391347204971733
890,-0.8418085155989464,0.14652072376243194,0.40292355331577473,-27.275190512547155,0.015605805600734879,14.834562961888668
900,-0.891870970286754,0.15619058224851398,0.6553775239967017,-46.04282763123018,1.573643959127841,21.245901510075313
910,-0.8038321992418452,0.004832093594573466,0.71733469947844,-9.407340923747523,-3.368753473363382,8.574934333532553
920,-0.9205683105608476,-0.36149225355705733,0.5545289094164316,-31.32402499353909,1.502345055464758,-17.327743887617963
930,-0.8272561662821954,-0.021830062906030703,0.615399561014366,1.574865061415541,-2.889291155489354,1.5093241487265896
940,-0.8475218083247761,0.015510528308394802,0.5601290292569167,37.33875817274322,-2.9127206827202166,17.116966119349005
950,-0.8185094072181943,0.1333168176070688,0.5920660153041858,31.647061969935123,-0.19735831703431028,14.234245327842693
960,-0.8062599705697687,0.16649494183889157,0.6213436994233066,3.1036140139934876,-1.7278497497471168,-0.9743598544256209
970,-0.8634231581149794,0.06384028561431879,0.556317293513263,-11.011924941807878,-0.6684359557241981,-10.114995334395175
980,-0.8063862582039765,0.08260180071194809,0.5975853407229305,2.725010004264247,0.949796103978115,0.8049002886069391
990,-0.8052919603552944,0.09270001748115234,0.6180442478614941,8.393072539687331,-1.067260419535603,5.82730731627187
1000,-0.8106019401871222,0.10599134209238026,0.6027114854562207,14.118864960496323,0.7499912677250153,9.0778437978701
1010,-0.8189669452308854,0.11202968901118492,0.5951386492887606,11.39624548685594,-1.0093477068399235,4.66323995862871
1020,-0.853152169398037,0.06859557180172553,0.5601693221816679,10.074560510982478,-2.4136830604671786,-0.5464812579620306
1030,-0.8182161496886353,0.10600909376430247,0.5897207436461568,15.944888937087589,-0.7024907220721592,2.160743045760287
1040,-0.8263390164289401,0.10855149823054352,0.588315946672574,14.99797718497524,3.4531215888950397,6.409742229031844
1050,-0.8240342306046127,0.09517924121466596,0.5871199328581398,14.017700902497126,0.32548902522618023,6.032578240632744
1060,-0.8312962689175539,0.1098479359547751,0.5868471329463102,23.371478243653492,1.6376932179263748,6.659938998067652
1070,-0.7989249889356672,0.15692116151278573,0.6238366882950848,16.21100420306857,-0.04949888323976881,1.1364186205272413
1080,-0.8326307232707759,0.11570795144597974,0.586357497931482,0.07203044910060852,-0.4229576824430724,-2.934894688778667
1090,-0.8183962708586463,0.11897165170854766,0.5986626813573829,-10.01804801194214,0.9115857455303457,-2.8656495277877636
1100,-0.8128020083281418,0.10073571171181721,0.5994096226212973,-5.942950720477688,3.8405334826681052,1.8574368692552794
1110,-0.8021084705136737,0.10369639429177921,0.6056780685642349,2.577338858396259,-1.684806600669305,-0.1362222915183282
1120,-0.8053199088848533,0.13455891219014582,0.6049549287448452,8.35380117490888,1.8044060618357765,4.435965283830796
1130,-0.8146560672541879,0.1281284661174154,0.5947808569881671,7.62948030470622,-0.3537812555952854,0.15830576599573354
1140,-0.821975985071912,0.1168264159141956,0.5914090337053024,8.915007072558534,-2.1690049649055254,-1.544134031232174
1150,-0.8380670696017679,0.10809506353212524,0.568602656895394,3.9649524986166353,-2.8981674219699167,-1.13968700733081
1160,-0.8154328035011112,0.1382276156229884,0.5912535478568754,-0.7648581583233665,-2.7610869816597114,-1.413959165192272
1170,-0.8107503177373313,0.14408769153528814,0.6074425133458587,0.228280114639398,-1.6244474643787323,-1.4644837895111906
1180,-0.8262726142998821,0.11321688743664653,0.586311180428187,9.774500510520362,-0.8889482166036146,1.624269614101479
1190,-0.8199230540476627,0.13950881634396955,0.5971972392989978,7.425417039855982,1.0946715737959143,0.3326677936802271
1200,-0.8023023513606427,0.1483498560870044,0.6130039597853396,-1.6607830574430151,2.0059302346773715,-1.1879030486339321
1210,-0.8281128494452932,0.10388214053289944,0.5780693734012343,0.5456902219875497,1.6580653475244351,1.626803835922217
1220,-0.8143208314064442,0.12974145836323248,0.5954656194213186,0.9955868374166381,-1.5818600315995495,1.4843596673276358
1230,-0.8377284748187579,0.11100311796896123,0.5724438290492129,-3.6391549603362545,-2.5861337379034284,-2.1233774213042698
1240,-0.8265343226134013,0.12985580754453557,0.5859088290725137,-3.9252698906171095,2.5084120338478346,3.2432900490750676
1250,-0.8470827960121398,0.09760712202246224,0.5674646534219158,-6.462944585260864,0.6341555980713257,1.2681289560428266
1260,-0.8292092317371962,0.1117296424350284,0.5812513608522512,-7.2461427237513,-1.6166143997529123,-0.060662894653597865
1270,-0.8251243453057295,0.12183113166847492,0.5831750355354899,-4.108291931581805,1.2129197868669837,3.086927940829179
1280,-0.8050324339638247,0.14225489098422445,0.6109736076559292,-1.2869669495906175,-0.13097410343366822,0.871757928522411
1290,-0.8237424090919019,0.12495390781755268,0.5923082914057224,-5.154401034838315,-1.9657980311886405,-4.015398166591017
1300,-0.814857062728505,0.12390676498959148,0.5940834241148526,-4.704425173768198,-1.93265222252308,-3.64878715069115
1310,-0.8307641128432479,0.10671015321647395,0.5808873542742412,-5.357315669949985,-1.527672539135711,-2.0434548102736168
1320,-0.8282811027422311,0.10812337029000985,0.5846589433153486,-0.270647401311897,1.2548406198528284,2.3822476523153453
1330,-0.8137369352080083,0.13725178961616707,0.5943978286403429,-2.174865997875833,-0.7494576826838448,-1.1340590819779819
1340,-0.8243975529731337,0.11728562683392696,0.5865952891840023,0.9037694842284891,2.633912680502015,1.2806627398670216
1350,-0.8112138942029784,0.12713956102986815,0.6003749972478835,-0.22344555612292283,0.6810034045023318,-0.01966962280577711
1360,-0.8371424469953093,0.10363969916545934,0.5736637773220501,4.424807291710924,5.311115310170981,6.321981820402798
1370,-0.8050118113081786,0.13491729810407999,0.6016077024383857,3.010090362164827,2.0799531228619443,4.9003959652489675
1380,-0.8006740295846273,0.14732567842460847,0.6138862784935444,-2.9010396170811825,0.5949076116130799,-1.5608501558374852
1390,-0.8211234486285214,0.12028402944596875,0.590215453213054,-4.433728375254438,0.9483699603160809,-1.889916856219375
1400,-0.8069913526580548,0.12515409126034593,0.6006151964949262,-5.564171240752789,-0.5926291267016419,-2.4270568067277356
1410,-0.8381899048710125,0.09501358351042292,0.5715084039951244,-1.3555510021808619,0.4152353718642588,-0.5006593165345439
1420,-0.8160700905865091,0.1139182536654211,0.592992758089054,-0.06676462972135117,-0.6449972062145662,0.4772097713050292
1430,-0.8331271605124012,0.12021945792939887,0.5827208849607792,-3.320302918746261,-0.36946500106383656,0.4023568502983177
1440,-0.8249462820655431,0.11682098857252363,0.59325116829661,-7.161150477018184,-3.022903147661794,-4.160557742498174
1450,-0.8046535072439762,0.13514780579598806,0.6031967368395926,-1.6102135297251738,-0.2564752834606712,-0.9289776316374196
1460,-0.8387244772935862,0.09859432201636173,0.5729259709863471,-0.41469745048024276,-1.8432412753730874,-2.693309719790551
1470,-0.8344799462395966,0.09437168965081627,0.5705004109459894,2.1987363300036624,0.46836961589351844,-0.6165439435554432
1480,-0.8013558110526667,0.13297269992366714,0.6062249628305935,2.419418364783815,-0.3679663253659127,1.0230595602342372
1490,-0.8227779989329095,0.12395958710384174,0.5880131545542889,-0.1836366505096052,0.7240931692907362,1.0511133830739399
1500,-0.8019195865054246,0.13922282378481401,0.6158039526014791,-5.464239004119507,-0.7613897477180924,-2.3050290743155575
1510,-0.8213640364685663,0.10717008107717922,0.5913410798545641,-3.413265317070663,-0.0791639392985585,-1.8981678892534595
1520,-0.822027135250668,0.1060891912596108,0.5891925444191666,1.598521897543712,0.6203815465648915,1.1536782191840127
1530,-0.8204971920385893,0.12232316300568968,0.5931883760345855,-1.164125769152424,1.6654558788500053,2.198859620773761
1540,-0.8268757275336356,0.11354736528982119,0.586480253700574,-3.0633132334421678,-0.576872044997027,-0.2936568541780798
1550,-0.8048857263585325,0.1292831010354228,0.6115568363114434,-5.5668941458603305,-3.567224989305207,-3.7411608343301355
1560,-0.836689770792431,0.0985479836306716,0.5795691922275811,-0.8378042897890274,-0.12450983821152564,-0.6283399225494954
1570,-0.8092184418594742,0.13020375494967146,0.6087116027877815,-2.620554798491689,-1.5412429399090586,-1.7451501717000668
1580,-0.8159026860012227,0.11411099622635135,0.5946196866722622,-0.08135828486690433,2.3910018852054664,2.980574662604841
1590,-0.8070450529023554,0.12172732630510204,0.6078038049732898,-2.9478288340051493,0.032472849681965066,2.049627131082116
1600,-0.8207863055375643,0.11877817583223622,0.5979269320741794,-2.0235139973153076,-0.5231444789340283,1.504887487625077
1610,-0.8205450255112535,0.1197972909082477,0.5974743150780584,-4.467237846256145,-0.866128155909534,-0.12254670262477352
1620,-0.8310472038614642,0.1072694193063715,0.5876293778352838,-3.8914039546843857,-0.13279921715366286,0.16781256936757977
1630,-0.808504196172925,0.1274715090303295,0.5991921134697744,2.11428124795696,-0.8022693544675549,-1.7847175102475428
1640,-0.8117387177053311,0.12231737015217509,0.5962302473234524,1.125697697509951,1.2134809322671452,0.41283952153951486
1650,-0.8188112826819579,0.11978919757889343,0.5977544970282934,-0.21895543763198155,2.1663364281123108,0.9813010758868425
1660,-0.8358829996617407,0.09841740223059134,0.5847597598292115,-2.3135433454113756,-0.30832150242922124,-2.111413235527833
1670,-0.8075549521826625,0.1222964670826314,0.6098621182522205,3.1296187026528246,2.5897072557717338,2.0433125730179427
1680,-0.7993734490902157,0.13818298614994629,0.6109007757293379,2.899693872179382,2.2658617964143275,2.395744268748481
1690,-0.8061009723402058,0.1275919181773454,0.6069998774535161,-1.4225091761621265,2.1880237018273867,0.5680281645823024
1700,-0.8334693984599117,0.0944667858791548,0.5783233534890776,-5.461733818957841,-1.9372881467163112,-2.6230758386173387
1710,-0.8191388816210401,0.10541371620072013,0.5938972087096585,1.724470932307407,1.7174529816258777,2.3423108580894785
1720,-0.8154336832308448,0.11906305010719681,0.5848698896420154,-1.522226129813582,-1.9995275604086011,-1.5177616786786516
1730,-0.8335970264651814,0.09705193799883988,0.5713675047347689,-0.5475317351025262,2.39349250725578,1.1049292517415283
1740,-0.8490309651226846,0.08205874332555212,0.5656334471462348,0.2744640500161837,2.633040779357265,1.1133963520586574
1750,-0.8424203812977485,0.09027244487875995,0.5709589572641378,-0.8508666981655991,0.22819432987413985,-0.9789953218598292
1760,-0.8127281240870978,0.11773556044257319,0.6029264052856831,-0.8597402082772064,0.04731875398962171,-0.5774760615151162
1770,-0.8200737959552102,0.10844760344971506,0.5975332651311485,5.144678169752282,2.0504004478776294,1.6270317521716724
1780,-0.8190665864131175,0.12023875873694179,0.5908340524982073,-3.871578143720966,-2.1301804660215597,-3.034235477450857
1790,-0.8173090462089986,0.11902541843865619,0.5986553076826807,-7.004376150356489,-1.3013168492134262,-2.7611523390122836
1800,-0.801124197011249,0.11612325150043733,0.6140349624840984,-6.223623761354514,-0.506289943450283,-2.323245913871382
1810,-0.8349012706337187,0.08038041582728786,0.5778233443828049,-3.5865124968925475,-1.694764168166931,-2.8984046281114666
1820,-0.8419248964832237,0.08118116274751448,0.5708760726280359,-2.7698559421419695,-3.1992970216743264,-2.3657031717976302
1830,-0.8313146392199242,0.10379820949098092,0.5791660161151767,2.02337630187613,3.0606635650633205,3.170150074671178
1840,-0.846102985280349,0.09297562848413386,0.5596848868386578,-5.981465407882306,-2.6104206287162683,-4.322824822269088
1850,-0.8324706376137194,0.1002762831570625,0.5814266768522506,-1.1576560087909997,2.166616029827699,-0.21834959843682555
1860,-0.8421752066627233,0.0810848056488134,0.5694431584614535,-2.11323252655115,-1.9577088664166935,-2.528209944001711
1870,-0.8444986082665493,0.08458154065369207,0.5684567061987905,0.9069382174781815,0.04722837811635913,0.589201087122695
1880,-0.8198927709622669,0.11266397630019558,0.5932093471401071,-2.163540450442414,0.5229781408873628,-1.1501249540915746
1890,-0.8301115640022588,0.1075507935439335,0.5861129465993439,-3.961453918176397,0.858212009711807,-1.3938092032743072
1900,-0.8131746685147334,0.11126942804300613,0.6035942433715562,-0.8230046301077415,0.6758707133423241,-0.9188874122124772
1910,-0.8110346417787928,0.10602319037039006,0.6024126292882287,4.725711585525223,2.6660023118639473,2.18965951757883
1920,-0.8445037760773783,0.0789940817667154,0.5669499830323403,6.951826623094252,2.5574898621144837,3.6859206000783447
1930,-0.8235242020470807,0.10613675788933165,0.58169824898456,-3.9458596302551947,-0.5292421166458283,-2.764547521024016
1940,-0.8112258706600225,0.1115697610015822,0.6034595362221813,-1.5159544003300944,-0.794389079464424,-2.6394107190209533
1950,-0.8358880354562362,0.08715042396904177,0.5804159809888226,3.866814900880318,0.4094060607965808,0.47113106425025436
1960,-0.8356198256311361,0.09433093171363115,0.5792236140534187,3.1569455257447836,0.14885770200537307,1.582007997367881
1970,-0.8103991942918458,0.12869820809547253,0.6070859022125306,1.323767663226063,0.4692804212194413,1.5926928880777789
1980,-0.8202475870696898,0.10857302044272141,0.5945605181549999,-4.372641628833224,-0.3531517827424097,-1.628990407597375
1990,-0.8135048118434478,0.10336199824418638,0.6007903651405959,-2.8985440330855363,-1.8930402240135684,-2.5513865324403775
2000,-0.8428661314133352,0.08153023589143042,0.5682684749188834,2.356970055139568,2.3656429514755586,2.5932824408219606
2010,-0.8296859220545306,0.10148520199740868,0.58527193990079,-1.4984062799170519,-0.7596634889422913,-0.7294703880180377
2020,-0.8565100977371791,0.06780698170285249,0.5541125937165962,-0.8379236802550187,-1.175246622786673,-0.498679158901813
2030,-0.8198503599048585,0.10064856425544805,0.5980576751044495,-6.05133376275889,-2.5232706974239627,-2.8477845931153345
2040,-0.8219382517468227,0.10248570210310985,0.5890279959756609,0.4038005475938467,-0.08068466094202409,0.30977931881708837
2050,-0.8082270389823306,0.11499902925964615,0.6057312928279721,3.7083486354135373,1.5922826693648704,2.7124410809665864
2060,-0.8372919582252242,0.09662991304825824,0.5756217905168383,0.19433001175654163,-0.9248741042533034,-0.4439180960762451
2070,-0.8116252736187792,0.12629748960364923,0.5996069708917223,-0.858283295330714,2.011181573158977,1.1311864670347305
2080,-0.8263329844571187,0.08947210427910353,0.5877874325129689,-4.204035662362031,-0.098939594036767,-1.1728427241234856
2090,-0.8009394148058482,0.11918897300763981,0.6096746596958023,0.7320193687702432,-0.8386899577792648,0.107125281241361
2100,-0.8293311763379027,0.09898570661718559,0.5816462584510885,1.3450228276676093,-1.3177788706103424,-0.25879132112686487
2110,-0.8492283417384691,0.08565569502583194,0.5663389419574474,-3.428375434283627,-1.3253681365406604,-1.9198382968951713
2120,-0.8075083995482993,0.12012550736647616,0.6036848728663899,-3.7582564833654812,1.0951575218330043,-0.5463653648436615
2130,-0.8071242285645249,0.11389189459389938,0.6030088082897215,4.284822391559699,1.1211282677677146,1.039065973191764
