time_ms,ax,ay,az,gx,gy,gz
0,-0.6328755247419708,0.12405159817771423,0.49635158490158837,1.1900268268810748,0.8016447681850492,0.822856146795716
10,-0.664102240458029,0.0906128848920944,0.46605791070088004,1.3110551758039777,0.06091975046271933,0.07980424511349835
20,-0.6356698503659559,0.11724346441876837,0.4844918725734263,2.0976094837973185,1.3780489826811826,1.758329543929816
30,-0.6399918309862512,0.11618600381112106,0.48343072520305413,3.3106481286399827,3.408897967351157,3.2388145485422046
40,-0.6154003386085573,0.13947984234120586,0.5109919283553624,-0.9027371202696205,-0.2772173839058648,-0.4145062356282457
50,-0.6150579366196028,0.14020362295789818,0.508167701410906,-0.12965602927289266,0.6456235779392873,0.46740242440382973
60,-0.6211550296416389,0.13178598669952168,0.5031147938528924,-0.19305221903872216,0.7522660507225869,0.5772104137163941
70,-0.6015510330665144,0.14849746477760642,0.5241773037923826,-0.19012929632851114,0.11625467181392214,0.23349246308574073
80,-0.615291221132364,0.1321259158621668,0.5089096497997407,1.5055930632779457,1.9614002377592317,2.059980732431237
90,-0.6197779807876886,0.13170717112081615,0.5072685198159085,0.4502311839212018,0.365290471956849,0.8115601834878505
100,-0.6449469156852163,0.11079513091873258,0.47995669268770336,2.7983723053172076,1.5506110812246092,2.3279295155336257
110,-0.6572427404945185,0.10478321385912238,0.467118675566439,1.1058218093390773,-0.10115838541975575,0.45689373260690924
120,-0.6384345098104223,0.11800558929020925,0.4847197859146186,0.9591724388133963,0.8598633185618071,1.074842680750896
130,-0.6226342171970903,0.1300862389913739,0.4955955301697227,-0.9885883649237756,-0.6755445299032935,-1.0384868024891425
140,-0.6090785109541558,0.146354477021018,0.5132648838855862,1.1629042064971933,0.9803615971269262,0.9061909422492909
150,-0.6345516821682877,0.11879471443486823,0.4871725021883983,0.11586161858014485,0.28189553099370956,0.6520214195632459
160,-0.6365736454011176,0.12385385566509911,0.4838857078007399,-3.5201590860755534,-1.892579574357278,-1.2184674712082824
170,-0.6122780063406085,0.1387981801521485,0.5129244339055161,-1.689609434022569,-0.5989630906238983,-0.22096514464893133
180,-0.6353373009455584,0.11261191494983053,0.49008417851208175,1.8629626711816671,-0.24476527953511307,3.5702905215725735
190,-0.6389286387968482,0.11436495429888738,0.49156069357274806,4.8020668193991165,0.41897277647188624,11.02815255237448
200,-0.6491083222879398,0.12189924245007007,0.4935229023973125,7.645663264755594,2.197074853377824,18.81198139610054
210,-0.6736381582821371,0.08860170484046588,0.47274041519439436,6.767441774289311,0.48288927193341913,23.39577060688128
220,-0.6885496001455825,0.10700475166513784,0.5229111480499135,19.096842255856632,2.074597897548836,31.05343508119775
230,-0.705135489378994,0.04049435620260089,0.5864064083408996,26.64289027399589,-4.869612417377823,27.0080935222765
240,-0.6382728779444364,0.0641933954235198,0.4829810192742495,-4.561248240869603,-52.92508874226314,-34.19252612041975
250,-0.5712062654246969,0.18345787519436624,0.5416091150225176,-8.792990812314965,-48.44584944878934,-28.836005190563185
260,-0.5751717483925416,0.2170925365693218,0.6245162205758317,-35.7952646581568,-53.71917060026824,-21.43726905953202
270,-0.5644483558784629,0.2703032511949156,0.48008141009661376,-19.769611247813458,-49.373970825809835,-7.217953373651117
280,-0.5484684018112331,0.17426732841025233,0.4625315827825212,-34.628043951654874,-44.54921589842352,-1.4065018587365956
290,-0.5066500040740634,0.1292117773201399,0.4455100338733627,-28.68235536365939,-31.98798725614553,-7.653097800988857
300,-0.4827780885120617,0.16160322948269018,0.5289195635067712,-23.0046393562031,-19.714883414002994,-11.069041259143614
310,-0.5120359456391895,0.20595075830879203,0.5619604300197331,-38.5019522528645,-19.941190672039166,-12.643184860622545
320,-0.5631335783332634,0.22355918619308465,0.543192346456898,-51.874048462343,-13.326598272151426,-6.418774298100446
330,-0.6031965357395548,0.17352150140517086,0.4783572340477896,-50.95504069112613,-4.596595248411457,-0.6781319686942018
340,-0.5747075214203946,0.061538761840363186,0.529536557414346,-49.02412867837229,1.2534153819247627,2.0422729152690664
350,-0.6620892680442363,0.08668529291933338,0.6705025368687381,-46.5898931665237,-14.606178870548629,-13.156143117835565
360,-0.6317713478927609,0.07833359947814733,0.4481826208067651,-37.736840080057355,-8.637767585270282,-3.2798992161063056
370,-0.5220921618422047,0.020565466805933345,0.4988078361961018,-6.1186705435360365,2.9636430550163,2.276837615494241
380,-0.5356034017489119,-0.009809033586251169,0.5125408846768142,7.064234412562977,6.549752811628581,-0.8074350805582731
390,-0.5338844465618252,-0.00659378586878538,0.6184262193284725,3.7939910524529257,8.363720686121074,-1.1766951802162955
400,-0.5831107665689256,0.024130704793141902,0.5991880250375103,-6.549180058720083,-3.3796344021704945,-8.450821682624888
410,-0.6519596868353289,0.06770119410039953,0.6005420867906811,-0.7838226748949095,-8.211314812340301,-8.043815810687427
420,-0.6776454857623316,-0.01233907057971619,0.5911702426701796,4.10142978640317,-12.03514302843446,-9.965013949686979
430,-0.5624858366742467,-0.010041428659258864,0.6348882142067332,10.404167721181286,-11.882303280283024,-12.200662394045557
440,-0.6349749172636737,0.1025927848866417,0.521420760458608,24.312937959787757,-5.856045685894132,-14.073678792403474
450,-0.6214454545961389,-0.05260498235774815,0.4822569877364222,8.481762607232222,-4.051103531101509,-19.28207752336695
460,-0.5969714636214756,-0.03875930679018973,0.6672355609918874,20.3921732111587,4.3881373435803805,-17.44058295200402
470,-0.6460650472110788,-0.11334335638834075,0.8752945063613555,39.240161170041056,8.362095297454871,-22.807525673936688
480,-0.6116725948838643,0.15876681555145933,0.5968518447668082,25.31415310491958,8.576746970463155,-25.034445327593733
490,-0.5694468947831252,0.09695218695700276,0.53278500366281,7.415200471938365,15.322902950299413,-20.075455279326746
500,-0.5214682568676974,0.16102560031459945,0.8320139086638215,54.278582660297346,20.62372378965646,-16.25424168695454
510,-0.6046876009419813,0.15458475005507782,0.5694927510778708,41.24570658807467,25.62728453243368,-2.0643365716613595
520,-0.4316641146637599,0.22163554760604276,0.8083443402337417,20.671120859026853,31.815737366432938,30.87262533022953
530,-0.4824518672386048,0.07105429874253656,0.5847007791199863,21.84313165638287,24.41787205233682,33.27501714810281
540,-0.6355533588471095,0.04275777106463573,0.28906653873452043,13.484999218508118,18.105555751068213,25.66511250006362
550,-0.5226924984780693,-0.057674161677044894,0.6039901503219702,9.299393219805745,7.947049310001031,27.002168805430347
560,-0.45052481080964285,0.0021045372443210184,0.615403752847847,13.610228338231995,2.3020808785702194,24.374688708476945
570,-0.5419960851422291,0.03766185563239237,0.5792718990224852,-1.8205753181875801,2.0471461794087427,7.784134596590808
580,-0.5424656130299752,0.08621599913684141,0.6267402402213264,12.24427239497787,1.6691031601310105,-1.5420056488419074
590,-0.5990581638360662,0.04973344277188192,0.557772802210945,27.34076691135487,1.0347483749178057,-0.5425049808948438
600,-0.5777076012410725,-0.02529049176449155,0.6233305077962585,9.602265764614591,-5.39037475498564,-4.9179501901956275
610,-0.6132753888039129,0.10677333737942045,0.5678781110401517,3.583267358363444,-3.388002507783506,-4.436726649994407
620,-0.5274559311152692,-0.019819645352634117,0.6232016396298464,14.779130294648313,-2.051175081874156,-20.50090932865576
630,-0.6578068997878842,0.26743758913241317,0.6006580595172869,40.97801446107199,-3.1110082660464426,-35.76697642048425
640,-0.6926033710402235,0.08259237810827232,0.6837407299656294,39.650422069710835,9.23492737856169,-27.417192397762363
650,-0.5886442979874715,0.18673004808425975,0.6748502321634711,-5.472431573077553,15.315280932532367,-19.331593932427975
660,-0.7276053798211513,0.2399144554038892,0.4099545961993893,-12.985170983025418,24.90023274164215,-11.043362681409791
670,-0.774171450270949,0.23940462555385245,0.2509668648219214,15.42733272033124,36.935427432717034,-7.015517358438107
680,-0.5634881695684805,0.18593324318241308,0.43848906285222394,6.438789466295778,35.2616204298467,10.636134558721475
690,-0.6093193994512892,0.1594324618851859,0.44254257221793464,-11.622938568037558,20.294930082851735,16.715740902414034
700,-0.602673592695101,-0.04478275224406986,0.5727119646288961,-9.574076739488003,11.476771254482252,18.932883397554026
710,-0.6224847306444029,-0.03073073952652289,0.487613019328577,4.958364606540893,-0.41353187204579545,26.59469061845786
720,-0.6586752125328417,0.29685741083794803,0.35469043625473046,-26.15067995522277,0.18194437381751188,38.77550278305689
730,-0.5609786673608618,-0.061137325085032695,0.7619167795057573,-56.17116313788532,-10.160394254404894,32.57127705942682
740,-0.6355174839037602,-0.1593388854454277,0.5737013717475115,-17.531621898443795,-14.775592314483886,-2.119719665071218
750,-0.537072204430381,-0.07176839941209119,0.6816739123983241,-16.282099912137447,-13.854383141980696,-4.651796607862632
760,-0.6704310767138316,-0.007887364416025588,0.48199705247577257,-10.426904957416905,-3.750658593032219,-6.372804883239741
770,-0.6674143125158207,0.04750512915514468,0.4707442874083124,-3.7022442719118156,-0.3369962977937331,-1.6811623483060705
780,-0.6248800368591486,0.0895824810404464,0.5076179426518536,-1.7154211869184626,-1.9338172859652594,1.505170668590976
790,-0.5804226781512161,0.13721635741896437,0.5529230370883301,5.188861967495898,1.337412032194097,4.7775672383089915
800,-0.6158886072477028,0.11174462179657266,0.5220470473025522,8.092659737782563,2.048573253036432,2.7220756350902526
810,-0.6092649164999178,0.11410157211596954,0.5198692444477816,2.431903599367274,-1.7730508237990654,-3.496502819356576
820,-0.6250822138772387,0.10010425270968439,0.5080998117634457,2.1774266808558163,-1.1869092328217656,-4.755319422755239
830,-0.6258330709824609,0.11533388156190504,0.5028331589071744,0.4707561314628761,-0.6459619725444126,-4.737313375311157
840,-0.6030236647518639,0.12287762974332007,0.5312622356620298,1.5602485070207162,1.077741314380327,-2.1564087033401655
850,-0.6132274331633646,0.10609003973774603,0.5158382590263889,7.354378546848563,2.2982061369251445,5.617352176684217
860,-0.6156820212624636,0.10847801424125461,0.5148245537130961,8.534304100508544,2.2384287752458274,5.393265879817568
870,-0.6153419912727186,0.11440698629474239,0.5118272482990202,8.509629724972683,3.368590329448565,5.273074892532282
880,-0.6620896262854887,0.07855098632362652,0.46639701617742974,3.4849772440856484,3.0212070588979074,3.2099659155999083
890,-0.6071121478237509,0.12478119248517779,0.5238506993128502,2.1733921856223084,2.6488803447575724,1.4223030952911613
900,-0.5886860219637672,0.14239436117780763,0.5407841284087147,-1.0922184712081888,-0.49625941521767875,-1.6177213548379081
910,-0.5901887604438177,0.1368561265094582,0.5432295918355378,-4.087586406412602,-4.369725021382723,-4.58653846896803
920,-0.6009427729292218,0.12311615195918926,0.5318774690745993,2.197896381437122,-0.03878385500844639,0.5476496778823714
930,-0.6200554928534825,0.10481220819196706,0.5078535676759721,0.11743636794778389,-2.500565706882475,-0.2103526985227715
940,-0.6071330183527764,0.11271899873333156,0.5161248023376479,1.0525581410873999,-2.0191491934297763,-0.16019161440768714
950,-0.6209119372085895,0.10903558259297923,0.5198264746762372,0.668297840395276,-1.757904595730489,0.3681438245321482
960,-0.6069597567390583,0.1325187151325651,0.5222134558972953,5.130268793308819,1.9648570994971977,4.3944918269939555
970,-0.60425885163672,0.1339749631813377,0.5257561639989314,4.843242513416024,3.037501582279417,4.815754624451058
980,-0.6302194032115399,0.10971148867976983,0.5015139952274689,2.1779010149117384,0.18069368457686186,2.2580998388372553
990,-0.601972973703752,0.14303981114397712,0.5327184220217435,0.20086951599778624,-0.5756999368347998,1.6048434444781707
1000,-0.6304770831002794,0.11444328783058744,0.5012592775920837,-0.2952657232761583,0.6474702670666551,2.201539993869088
1010,-0.6120137383138299,0.12773986099986825,0.5182218403363631,-1.0510502660024261,0.290827639774899,-0.5963848111431698
1020,-0.5847601260871973,0.15331573225921272,0.5424255190426425,0.49376960871491393,1.9508931233848161,-0.6003450422357912
1030,-0.5915601302893403,0.13899608058522986,0.5340082883481503,1.1063014592027103,1.3059353715544453,-0.28999673154754846
1040,-0.6241107028553217,0.11383948484700805,0.5104333341498745,3.0458477711522227,1.7959489353195695,1.4724090825745721
1050,-0.608922297463072,0.12095188059310959,0.5215072203572637,3.4287764031313404,0.5716960105927165,1.1814337790037603
1060,-0.6157802545518521,0.11680208873223875,0.5146569043392056,2.8482997303902486,-0.9521238893452736,-0.30055021411480465
1070,-0.6041355627131865,0.1378704058941074,0.523387916450049,-0.3870297700493375,1.0427096655094452,0.8621616926831446
1080,-0.6062076170368009,0.1257899725822331,0.5231072624607742,-3.642797117368576,-1.1826167341357223,-2.0322447003152364
1090,-0.6100425855137522,0.12011107865190754,0.5219314909005455,-0.6868242530545947,0.2678086522826596,0.016190128408395454
1100,-0.6019818890030992,0.12964636527248113,0.5274633980387832,-0.07759309281511895,-0.4678733599965695,0.04656332459543577
1110,-0.6271808003599484,0.11549165826428162,0.4996072178563496,0.029827288990383893,-0.8251479415455664,0.08444237752756456
1120,-0.5779764329949328,0.16075345468010155,0.5469479194065779,-1.2503514725992173,-1.1236453723484332,-0.9429060512452364
1130,-0.6039400034876105,0.13691243878274076,0.5223126782565388,-1.4522976150495517,0.444302023062323,-0.2701410218005952
1140,-0.6223232118765962,0.11912324843146109,0.5045680356187331,-2.2125027784048985,0.1469566583431638,-0.15265245388028537
1150,-0.6069349278148978,0.12996892740591606,0.5244329149967709,-2.031222629993308,0.2343334359783049,0.3764472586167995
1160,-0.6196449408135706,0.11963229212984464,0.5101479557917982,-0.2926399821752277,0.8938750110367117,1.2742131077330927
1170,-0.5907948703795853,0.1406387556537843,0.5339579687810502,-1.8453332934053706,-1.49582970315012,-0.9687916869555251
1180,-0.6038185865902677,0.13712571817981506,0.521516870821694,0.7674515993765204,0.582122693314485,0.06629617403138072
1190,-0.6123503958599725,0.1257399582239695,0.5193412261214888,-3.696915036680106,-1.6459450877133641,-2.5260873812671987
1200,-0.6326375693380659,0.10919308691266306,0.5025664307314661,3.1254149580681627,3.7812250351354115,3.087149979540899
1210,-0.6228838244607295,0.11124317049665514,0.49719024335148554,1.383228928669369,1.9282036517484415,1.7938062327530389
1220,-0.6086069264799574,0.12502699159525285,0.5223497442838104,-0.581288366546793,0.06964045523677426,0.5677171763736335
1230,-0.6326905447844751,0.10363535232715686,0.500077335172521,0.8515426455193136,0.3343811074870847,0.8532533294434178
1240,-0.6018630945484654,0.1371399035546012,0.5261827422719068,-0.48215733478239897,-0.3271586523226753,0.1534546718048564
1250,-0.6078570792710366,0.13511364595679354,0.5207902934070605,1.0680515784590565,1.8164304238044395,1.3587180458889703
1260,-0.5922858743203715,0.15009170423992985,0.5375357305442656,0.7185455855803964,2.302857034848651,0.9296764012893628
1270,-0.6022944873680042,0.12749128918845035,0.5193497515496351,-5.482797451633235,-2.192527016353275,-3.7628218299037024
1280,-0.5802796220664224,0.15332634008241527,0.5546219156950186,-2.5353306699447287,-1.7107861317535222,-2.5209696793926497
1290,-0.6123945295212221,0.12119901904524623,0.5196300441458679,-2.4812080030066994,-2.1393917825515705,-1.5254433483358887
1300,-0.6080721479437374,0.12653948211751517,0.522350684999832,3.709731114291089,2.6836532521611454,3.943475148586332
1310,-0.6187486988911765,0.1072472390686266,0.5005295671542688,1.2539666919352876,0.5381149385000452,1.1226602592178299
1320,-0.6159400518003927,0.12088153584955115,0.5202656465954185,1.2812009901653785,-0.22985520882390376,0.1526912961313105
1330,-0.6103776770556817,0.12837580109357588,0.5196495066583604,4.128997113165337,1.423382884970826,1.7814019687299179
1340,-0.6232718201793218,0.11553961915217979,0.5012693341822332,7.348120723213064,2.58993424410973,2.5732042068295082
1350,-0.6433850188183284,0.09597395698080767,0.48361864401469895,4.264936869738677,0.16801979789881605,-0.7723891096349235
1360,-0.6239719664338489,0.11356865229555875,0.5044819311766294,3.7100820347840995,-1.5006937211323788,-2.2259439072442793
1370,-0.5905410161013184,0.1526219434001323,0.5360050258582434,6.949955436727537,2.115442377573722,1.3666844083179017
1380,-0.5957268198317675,0.15109151719486702,0.5280628161743817,4.1936264471487315,1.9257839015566385,1.24723710007604
1390,-0.6168752558386,0.12807992584792277,0.5041205666347665,-1.2455018861198386,-0.023904520515209693,-0.5399571123886038
1400,-0.6098028361989993,0.13268411746049064,0.5134802321505285,0.08508204985610113,1.5712243953922713,0.8994584566445987
1410,-0.6069311993587148,0.13136916417130207,0.5207407861574666,-3.7498376051792017,-0.7028327561188931,-0.4255154254634545
1420,-0.5864071416165104,0.14683981293602588,0.5412065088815854,-3.525097158981029,-2.342123579537137,-1.5254282467916238
1430,-0.6087101496407296,0.12690947278728607,0.5211593487233397,2.216081727216661,1.1590175248684007,1.893834079875019
1440,-0.6243044540598823,0.11825489830951207,0.5050741710738479,4.528216002003275,3.504647991805218,4.218192023378277
1450,-0.6102025004785816,0.13246083280569163,0.5156688251903652,-1.5871972775289325,0.48263319789667275,-0.014780304371133368
1460,-0.6101998580595311,0.12267053278102921,0.5180424469403927,-4.539943273809302,0.2697554611500728,-2.5960329161364863
1470,-0.6229418237400244,0.11164642352540906,0.5055341857655495,-0.5921265403765728,2.415538258043163,0.8346187333427979
1480,-0.6157306072802371,0.12281822954117572,0.514069674370334,-0.4079983255183085,0.2169189511773189,-0.17685284711005345
1490,-0.5819656183507914,0.1549115532700395,0.5443411565465262,-0.07759120160496624,0.7374244250082513,1.1595279533350695
1500,-0.6248168438841522,0.11091430313164417,0.5020709008344133,-5.10374654252041,-3.2052871507585627,-2.522543616905166
1510,-0.6267939008214186,0.10469668351049642,0.5000393283664304,0.20126227629025228,-0.7245109444559995,-0.027726100938145093
1520,-0.5998974781418456,0.13702507871960265,0.5326653944765595,2.949812278392751,-0.8075832189788235,-0.2923730123266921
1530,-0.6087243752944472,0.13460193740584264,0.5153649639422003,1.1840124106715086,-0.9672363795697804,-0.4221964088805783
1540,-0.6120189255650215,0.1344321663330814,0.5169163568556152,-2.744102641629114,-0.706082661712461,-0.7631722244375062
1550,-0.6243614923745813,0.10640078969171714,0.5037077449486743,-3.4658641340606895,-2.1496266259562185,-2.4669554244314886
1560,-0.6151756403554904,0.11688621212759491,0.5115735199970532,-3.2763415365911572,-2.312200817815544,-1.6783614484859946
1570,-0.6098861430792757,0.13161081437065864,0.5183642504555805,4.836363718750002,2.518893947232951,3.07090505245117
1580,-0.5985676075660266,0.14020282460761144,0.526258271987444,0.8228955071216327,-0.6614217925293753,-0.8043678426732515
1590,-0.6095987566913028,0.13033108704191682,0.5185962358966769,-1.6185592559262294,-2.4774875684129287,-3.2077842990987855
1600,-0.6355488595652896,0.10586298128575439,0.4962964586698654,-1.4699222487337285,-1.4901210814278063,-2.233673527274786
1610,-0.6005615576938315,0.137153012863712,0.5331494625648137,3.111962350193734,2.870542791117378,2.758170217149893
1620,-0.6318817676894402,0.10792780121941015,0.5010030337182277,0.456859413208653,-0.7371553664149999,-0.5576713344003892
1630,-0.6249951671738496,0.11563658763537037,0.49808090786612236,0.7921481818227655,0.12970493670566863,-0.3919597645387807
1640,-0.6154381290891082,0.12812304801099292,0.5075527655973706,-3.106335622781164,-0.8918814834750138,-1.8944791473396403
1650,-0.6356838371319263,0.10823379187440586,0.49336669812388456,-2.869279382761657,0.16754908634428264,-0.811447703235279
1660,-0.656696683091445,0.08327789619852866,0.4706845771758999,-1.807346516486706,-1.6405432152566517,-1.770313213951055
1670,-0.5925428413204523,0.1441707643231937,0.5311728448865238,-1.5525751819470615,0.1718010428727591,1.5795695380174606
1680,-0.6148242000195512,0.12281527877113482,0.5152217270165486,0.4879934344273083,0.6962863603613398,1.53813615638473
1690,-0.5910850273297888,0.14646599637776883,0.535924070917746,-0.05972645037516544,-0.5570414311150487,-0.5721791227962166
1700,-0.6110227709223617,0.12759241860140366,0.5155452837465435,2.362316308484166,1.542739043108499,0.9944348643219765
1710,-0.6245538649597171,0.11746964541104245,0.5027491807172718,1.0425821069452448,0.7626144694393279,-0.17579664473354706
1720,-0.6135748037891253,0.1264005237401336,0.513606732454213,1.6959973920717906,1.8568888697283292,1.4295402172764922
1730,-0.6011367477120989,0.13749839284457382,0.5270330482607757,1.193168244765566,0.5146239402639858,0.800200307943034
1740,-0.6162989322950599,0.12504754155851944,0.5151177067153764,1.8477862067014343,0.09247683539966,0.09454871394746955
1750,-0.6158989728860608,0.1256321024576938,0.5093136485642439,1.0104094091518716,-0.7643211967372313,-1.5202654549094485
1760,-0.6466698011977235,0.09359480028875841,0.48336460769068357,4.18302830847706,3.5950246064571876,2.324896665196917
1770,-0.6242444122573871,0.11406822803690644,0.5032882042423124,2.2984992292012647,1.3152186724739918,0.02185039031801561
1780,-0.5994829932409124,0.14258476903793965,0.5325749531537226,1.1136480872429118,0.07333622154692768,-0.317888297394034
1790,-0.6108183696511726,0.12883082722488984,0.5151864451866076,-0.06628504531019938,0.025403755919863078,0.43691358577209344
1800,-0.609118257752371,0.13005164849157222,0.5193131646906012,0.34307954821487874,-0.11240218685907946,-0.4297149074585207
1810,-0.611582379538811,0.1310654264538496,0.5184106816219612,-0.09745254663165959,-0.4926257257129401,-1.0934259022574344
1820,-0.6168941058612228,0.12546415729373475,0.5111129239135815,0.3189557571092071,-0.41997531028070284,-1.024990110576772
1830,-0.5914563347160547,0.14972492604437537,0.5323730932922123,2.4955554578167156,0.9571051705735896,0.2827877431271958
1840,-0.6228668535536567,0.12238765594118016,0.5066421956338685,4.828858270239159,3.3154055804296796,2.932590050009266
1850,-0.6263423372419112,0.12172775004918794,0.498456096573917,-0.9571147880170189,-0.7882122544884586,-0.7043946878476764
1860,-0.6062950351018569,0.13874016249788712,0.523296792217202,-0.8004792981752324,0.8547492443670892,1.0897711425187475
1870,-0.6338443317774242,0.1086027187818807,0.4911834360859283,-0.7744242243731891,-0.7794015827303789,-0.5645082420864116
1880,-0.5995733575156803,0.13951057837942324,0.5244294121228121,1.6850500949293212,1.5045870574919604,1.215268942586411
1890,-0.5926465035074832,0.1508152933639749,0.5401696335115801,-3.128587745222992,-1.889414572319045,-2.568441770131438
1900,-0.6278663811018739,0.11706082956372452,0.5063300839054166,-1.1804167273313304,0.08981277262952712,-0.17598437665556838
