time_ms,ax,ay,az,gx,gy,gz
0,-0.8071098236625885,0.12819710550320154,0.607698047423009,0.3181058939672804,0.5919915415443783,0.6195597795716346
10,-0.8053685242593002,0.12269037679165602,0.6026648370590091,0.16961994551557247,-0.3358626966272894,-0.23252876844024428
20,-0.7915520823089978,0.14497050090884786,0.6228009220118472,3.318368066460737,2.320216335976419,2.4115763340191503
30,-0.8130975376142804,0.1265471150417362,0.6012734824475143,-0.3657551417544296,-1.6390277298881046,-1.9090993331340496
40,-0.8151508668829777,0.12341999755162632,0.6000754353366858,4.840961157503593,4.000897747354594,3.8551880072517815
50,-0.8019488426094253,0.13029384132346958,0.6070761706390426,3.5398776777575836,1.6523087134111505,1.6882848449764263
60,-0.8113692037754207,0.12181500191533237,0.6002471323886901,3.226878941512698,2.2626679576639046,2.008449525990887
70,-0.7947147969380315,0.14531647853483004,0.6142041208165704,-0.6575845823118063,-1.0454961396633364,-1.3768185010581002
80,-0.7964009614084935,0.14638689415181697,0.6107878246836578,-0.32760012963837193,-1.4895227124244066,-2.6106579259337312
90,-0.8182261790514209,0.11778487877992322,0.5851412179089865,0.3322676463282741,-0.9616908013231549,-2.0169856204737857
100,-0.8205795772175503,0.11592777068248147,0.5920157534222003,0.8990369696135139,-0.6659644507355237,-0.500670291259857
110,-0.8249334798614322,0.11244280415678565,0.5880437225411886,-1.0882700847924816,-2.885566544309636,-2.278373258123027
120,-0.7974579638220418,0.1424987445067367,0.6116711440112111,-0.10545358287538775,-1.7631043031081508,-1.1012988476521968
130,-0.8012284611701349,0.13519249942373496,0.6127199958750628,1.9745070088906604,1.2307270609845653,1.2927786842400617
140,-0.8339255824744812,0.100780626795099,0.5779768172807354,-0.5330773293752812,-0.9185281371383136,-1.261515450860336
150,-0.8409937012590489,0.09764481937435404,0.5693992512885125,0.5938293937592065,0.3388271450993848,0.5089883179127281
160,-0.801439362912021,0.13893146522827832,0.6117853163785013,0.7369249931515435,-0.7885222485609256,0.8136432175985938
170,-0.8266546494058842,0.11257195061845893,0.5889567955483015,3.8643783665263682,1.3123495531484473,3.6784492225066803
180,-0.832051882953069,0.10398572088627167,0.5855850821175237,3.3317096802790225,-1.737535416070222,2.4339430440004834
190,-0.823134751988997,0.12099088590548827,0.5980778938980317,10.0313149714247,1.642585849333338,8.278224298005986
200,-0.8407544270185631,0.1306145259901341,0.5953265430162685,7.656365992943113,-0.8034310771940998,8.9323737834291
210,-0.8554048388157593,0.08371264787985228,0.7271875630835319,10.835914990964683,-5.749840706975659,9.948079688764244
220,-0.9260839476812031,-0.0545947544425478,0.8405469707208034,15.680886180539735,-16.488967841549748,2.3441596592836547
230,-0.9292063468705435,0.08207829205256488,0.8264031697066572,9.328559235930436,-33.14090059694666,-14.533477868514003
240,-0.8934489585914932,0.2943310381191877,0.7894129251476243,13.242138954104929,-43.41899174430593,-10.359682564868017
250,-0.7651198144222401,0.30964155306292873,0.7053367301826896,15.186099540604495,-52.65890460749316,2.7724626073619385
260,-0.5885986272424618,0.19980191955826393,0.5500102321503799,14.153610502735383,-51.082534280074896,10.793853102286418
270,-0.5409015399605887,0.08824711673022632,0.5284760365281524,-3.4448084276272004,-34.93414374567696,3.988521136926271
280,-0.5962596657423547,0.1387650473956961,0.6247056766605271,-16.24573971843467,-26.34182067161315,-9.133001009217063
290,-0.686999035109235,0.24038320665389057,0.6346394681678591,-21.415048756049035,-23.80096517386077,-11.988999505530895
300,-0.7528374766137547,0.3524949629535663,0.6288378088509646,-29.46925785548976,-17.543683961670816,-3.2001208463011164
310,-0.7967566125397919,0.35332650681241184,0.6280027186773262,-30.806537434848615,-8.687433541169806,12.847501013426406
320,-0.8548200713712059,0.13971450719011813,0.6324519234552158,-31.731300328038213,-7.5313051601554415,14.81813467769016
330,-0.742114988599741,0.06535045099700616,0.6901446729433104,-27.26702599372526,-2.7637650601715253,4.233929711373566
340,-0.7307393812623775,0.14350479317027076,0.6025908420964579,-37.81422620583292,-4.429163989357164,-5.6657222208043745
350,-0.6944776839707844,0.17374982752958995,0.5971018408644222,-39.51523847908379,4.419179090677522,1.4434925398584102
360,-0.7011281660631216,0.11102353392163891,0.6962844745579208,-42.361503797327465,6.8379795170042,4.80812316195418
370,-0.8604947497072148,0.018444972178959067,0.8682343314297075,-37.90950832716664,-12.677421060563452,3.4100128073444327
380,-0.9779455291746294,0.034854192859048456,0.5124755403172248,-32.587104314926854,-8.242588300480643,0.4850043374826196
390,-0.7555109422068024,0.06176860684104317,0.5618510892395757,-17.825794960289745,-19.278641179385254,-19.826145459816868
400,-0.6943524004853244,0.009840223336557305,0.9463305542572175,-2.39762869590283,-26.217458303059544,-22.809319303768845
410,-0.7764579959917352,-0.02424757971890464,0.7571322341690921,-9.748100913032815,-17.146303456708523,-15.050840679564304
420,-0.5877269260139597,-0.11039961714926036,0.7415035434085289,-22.698220523888697,-17.950249343330867,-17.628773841273727
430,-0.640337877722163,-0.1548943978891569,0.7372614803648891,-23.907352360254436,-16.611164964182887,-20.168599560766882
440,-0.8748828461816154,0.23576658645555734,0.5461342394259981,19.767192129097246,-9.522520779029737,-32.22889008789687
450,-0.8742734056169194,-0.025336727118669182,0.887109026560397,43.20318655421637,-3.280865441938916,-51.061551096527616
460,-0.7429926184638583,0.3267575997224921,0.4017599943519106,38.88383814688392,8.437470395052136,-47.1814698385115
470,-0.9529412502383925,0.05631391334908822,0.2972374978077139,9.771808449514035,9.770445060442272,-30.788577768658293
480,-0.6409443266979248,0.4262610412620958,0.8490244612659545,46.29741656965752,9.652038854260068,-19.30497748628593
490,-0.6280659745906074,0.22020893154270477,0.9439402051967789,38.17033213624197,16.997972173150693,-21.331148883076494
500,-0.647877855504864,0.19647315313898014,0.9188640370950605,12.850407653837166,10.590575955113433,-14.19933756778285
510,-0.7747296400611596,0.11500346874783667,0.7658697012860459,64.54729017886196,30.365362683147662,-11.94639229761049
520,-0.738362702715421,0.07736926322800873,0.7703642084202557,60.36766413717464,32.22361741564672,-0.35250406471698936
530,-0.9076611226289967,0.14481316744315292,0.6229449171299148,-12.980555393081383,23.989595475042837,18.08986543144009
540,-0.7122990441537087,-0.06240888205836869,1.8572639951290524,-44.554825105124834,30.798803411900288,36.08128766025512
550,-0.7801833009174712,-0.4513562488488423,1.0591587596915464,-34.329744212809295,27.970240815715165,43.88204682412117
560,-0.8568208997045931,-0.1586578242518682,0.601646369721569,-26.215580151383772,35.513475856750915,53.988192275045876
570,-0.9097634245952199,0.6145814472968445,0.055798716520941274,-24.27810207895387,31.558549074513035,54.52746990699751
580,-0.6828570234151004,0.20004650073508734,0.4772446660092588,-10.45524034555483,16.783665205552367,48.33771293175766
590,-0.6018767242591108,-0.31715628672921703,0.9363029656498726,-7.399398437181007,12.952603437120061,29.368890312526354
600,-0.7359827663009578,-0.6810806099775842,1.117967950933421,-25.327582745324733,6.344806361897694,5.947194499417433
610,-0.7402426311205408,-0.18338128204864731,0.7269992787073916,-7.005578091846612,-0.488967508867961,-6.6889509170698025
620,-0.7162271510631391,-0.060820757523711154,0.6941524860017824,12.513484968142402,-5.204560435897314,-8.266207386321126
630,-0.8294718540074273,-0.2517371713661065,0.7122149855002573,33.65056746866451,-14.07633152729572,-24.730296687056075
640,-0.9127170372754779,-0.07986305573566252,0.798416258716616,56.988268468057576,-7.741502086563336,-36.581298377647904
650,-0.8377128549703261,-0.17692938355865317,0.5468447858610098,48.57185602675594,-11.78353270768207,-56.86199634688905
660,-0.9354320986914793,0.038458869190826625,0.5371604048883669,48.47393033813683,-3.1177825839926543,-50.110858641861995
670,-0.8504496466974298,0.2307144156745587,0.5237507330831416,34.40006179512992,1.4624869997840024,-38.99981294705568
680,-0.8176213250837396,0.3773005436597823,0.5055534850710521,34.6200800670243,16.221809793051637,-24.10694904585064
690,-0.8070774938375787,0.3821853709731814,0.7092824277509355,44.64529838183228,32.30608074530433,-12.756797096056467
700,-0.7567717167803218,0.2839726233694541,0.879319748487546,35.37480406687045,38.75882812210601,-7.631892975119968
710,-0.7089406543305892,0.3864100141127588,0.5183997296086542,10.982572731843245,50.71079761566492,3.150104240571471
720,-0.7209596665117981,0.3713569327937693,0.4311611662054018,-15.557083011980403,51.04657717379897,11.776592770302125
730,-0.6311846381346792,0.36277081210509277,0.8513893878445786,-36.94686649830923,45.39569434593066,23.244918845676853
740,-0.5176246244980208,0.769052283498182,0.8007823824716922,-33.30672321275307,23.280989061875314,40.21409430057029
750,-0.4956705904919926,0.5351029359431062,0.7817187333007881,-33.8020412398346,11.52208444858531,55.75723269190322
760,-0.6856973537293166,0.11573803952542301,0.46897675741923817,-44.800044728081595,9.600370928345887,56.66598603132917
770,-0.8844909611559402,0.06311268483394986,0.20895654799531518,-58.25399398908151,0.5675499041804729,44.07057674421016
780,-0.7793404503147067,0.05964159362778884,0.38334824849584415,-50.67453147011019,-15.473590773878614,16.244212905864792
790,-0.7220834779440977,0.13939689564886626,0.501900099720439,-36.213244828731185,-18.048253918718352,-6.476043318955016
800,-0.8511380431186876,0.0426845693681471,0.5022174527935664,-9.518094387958595,-3.6212720117538577,-3.834994203837005
810,-0.824789924619396,0.09830299659826577,0.5842036816698323,8.716622718757241,0.007744973176333936,6.386136481953797
820,-0.8028309531332051,0.12984766822939614,0.6023411426503321,13.70589135985549,1.296682188789359,14.869124166206833
830,-0.7865695162143255,0.1571139628753062,0.6201161765314355,12.352616977115444,0.29657372890579237,14.681420181304535
840,-0.8278097857324632,0.14584853697470848,0.5699103987260492,6.523434959417877,-1.6019415241267956,10.246185970833805
850,-0.7960720971342253,0.18521021709797236,0.6067279227750806,2.2577874064552477,0.1688077885890083,7.7097583682802835
860,-0.7926812440070475,0.1666801978282596,0.6137034999918415,-1.287248855772385,1.6159701667877768,-0.4731926951019956
870,-0.8257335200187652,0.12257752281138865,0.587032266037123,-2.4192900408396496,1.0350543555535685,-2.467716963885934
880,-0.8158985964023097,0.11815418122340593,0.599169304656808,-0.5409148711783013,-0.9928200766392303,-3.267738654484831
890,-0.7964979262274436,0.14970042567231437,0.6050061765102794,6.041854681232638,2.763019676546025,2.715010533034609
900,-0.7999812194965168,0.15590132574767823,0.5945573200363022,4.1724592978391115,-0.11428926931026517,2.471244094730129
910,-0.8228777156451044,0.143158461856147,0.5879205197093714,3.30848356928575,-0.8282061572142263,2.8505969223396033
920,-0.7931990161805076,0.164287931423776,0.6061680968796863,5.478178288614955,1.9526971460753055,4.239155645363566
930,-0.8246539808991772,0.13464642646227193,0.578501322299915,1.838097232412304,-2.8874740678818793,-1.4003478194688164
940,-0.797458883233689,0.17115820369701176,0.6151288060273498,1.8192268431511898,-1.4714443758760565,-1.083089981298501
950,-0.8128924437383264,0.1600414201689815,0.591693408937873,1.303725383047752,0.7373724301124687,-0.49354335173296426
960,-0.8014129151219693,0.1679715028743473,0.6018629985489767,-4.851417379320761,-3.368996247970797,-4.511425145224143
970,-0.807210537185455,0.1513888886184585,0.5878637684810606,-1.7361790125077887,-0.0537554470454463,-0.885666330965524
980,-0.7906003134581244,0.15442429491731996,0.6106529350064437,3.956412623902053,1.607102951767402,1.524989847328264
990,-0.7980062018195051,0.16981334324011793,0.5912815787128733,3.3320596127462516,0.004606054752886113,-0.9192177205461692
1000,-0.8222413088084367,0.15113462421779958,0.5911042015134101,1.7279352481020551,0.27952205715837086,-0.12164588954541788
1010,-0.8083957142771565,0.15841617367132144,0.5972305483909198,-0.6182464547278531,-1.085624658519397,-1.639491735955445
1020,-0.8148427482439877,0.13921427892192273,0.5762801267676047,1.1317557188493357,1.0590483896762446,1.7735009694542279
1030,-0.8181549065967118,0.1399556067320979,0.5883100289781688,1.4584219963193545,-0.007452683827606821,0.9545184181896423
1040,-0.8010615862741767,0.16392617510968366,0.601949312678397,5.216118938871737,-0.15080817373082928,-0.6857264512815309
1050,-0.832903069487356,0.14345149531244974,0.5723349421889701,6.576331855430114,1.0955311667985594,-0.12238976787544864
1060,-0.8228539679912712,0.14606027293843313,0.5922539885619006,8.739450382020811,0.9281595002159356,-1.8728648040614992
1070,-0.8223121387957613,0.143579454301476,0.5875714952954079,3.845231953055958,1.5760795978893056,-0.008911904827256484
1080,-0.7874096026712052,0.15960206909074992,0.612422744016264,3.3039122037447446,2.648801276908693,3.0332483869980544
1090,-0.7937821800972452,0.16882903262653903,0.612248380227738,-1.8573674878643325,-1.6779143632226678,-1.3227727832908167
1100,-0.7985592205524709,0.17654384318960295,0.6093508296833062,2.133433297843771,1.3524944820643297,-0.1514208925908802
1110,-0.8202157912035594,0.1525490239679823,0.5788599697388367,3.3234195914772404,1.7276756214734492,0.8120480234128615
1120,-0.8008503939131609,0.16381884610519823,0.6019759577545154,2.0749957949636517,0.08129958009678917,0.00786746622889345
1130,-0.8069796725338133,0.15954857355536736,0.5945910358817951,0.48919369066280405,-2.313279491347035,-1.787041093566481
1140,-0.8190534880519645,0.14741768787757434,0.5871122824466584,2.2099273745479735,-0.21087833952749224,0.6770311113780784
1150,-0.8278705707237838,0.135456943474527,0.5796491510289431,-2.297272645275054,-1.8183579910839514,-2.1622798991000396
1160,-0.7984182470699251,0.17257038972290376,0.6074213955638077,-0.33420603197244114,1.2028337479589295,-0.7110678389622649
1170,-0.7952550366482093,0.16528752940347824,0.605800588285957,0.990246531334887,1.9303329312435156,0.2439708930071629
1180,-0.8210394342824949,0.1362645796018936,0.5799748583637313,-0.1947671501017707,1.5956495284221521,0.7280554476530909
1190,-0.8209514376178477,0.14368687134411107,0.585316029364133,-2.523962719924939,-0.9911963965307244,-0.7566815258465707
1200,-0.7973088598095953,0.165068228110916,0.6089808544353548,-1.635304175638789,-0.8403055533144759,-0.35844185654267857
1210,-0.8049581156348236,0.16442589830475074,0.6065538893307127,2.6527282671475483,2.4583991588626612,2.4088421664801096
1220,-0.8115045763472998,0.16676510268633976,0.5963095801761487,1.1413991724263064,0.9666695994931066,0.6927449903977709
1230,-0.8177485639421042,0.15909877055828672,0.585125225656594,-2.0407043007195425,-1.1185573571505514,-0.8440990701051215
1240,-0.8124027267565139,0.16213964305821602,0.5957916631108884,0.7210744722158098,0.7652584640145002,1.0741537985747311
1250,-0.7931693829518667,0.17611078582102874,0.6095380882054363,-1.4332001366877059,-2.997494281322292,-2.4102184363190617
1260,-0.8182192027725378,0.1484696531150281,0.5798694174853367,-0.03490415501036359,-1.366955615489799,-0.4980395234388136
1270,-0.8007019229155818,0.17157941806749938,0.60048452173075,2.1941140434243476,2.0744205629759382,3.2365514558225614
1280,-0.8338765921092789,0.14311257607700476,0.5690647260163474,-0.44487016322710626,-0.3964808160009853,0.23962230563245024
1290,-0.811807886908608,0.1679761740766165,0.5869278307953396,0.8835867734152457,1.027728730007714,1.1972471125560842
1300,-0.8317255199592254,0.14687706892856325,0.5641396093490041,0.6697938876630414,0.49408665440898925,0.042093092188283165
1310,-0.8337651180801847,0.13610808906778024,0.5720170349579161,-3.4682998586852145,-2.4866665804660393,-3.08356319241659
1320,-0.8087027884776299,0.14829544835178574,0.5950445993914146,1.0903693250275388,1.7665002236264373,1.72963247888881
1330,-0.8028100962673312,0.16947764576965813,0.5984045714048676,5.562376147527748,4.896813392663377,3.9209832909218196
1340,-0.806498302995798,0.1747176948090428,0.5964197075430397,0.3711819907613352,0.10323395377299316,-1.6435796737956916
1350,-0.801507325235158,0.17943171159367882,0.5939104688147505,0.8252772725555754,2.153671130480981,0.3939682114590547
1360,-0.8151246864426299,0.16397206062301328,0.586624924879314,-1.8532596440814453,0.7687745258137502,-0.5990176027523644
1370,-0.81601809190318,0.15494413809334967,0.5841141307438071,-3.0383981459247313,0.184111327161382,-0.6185282752962454
1380,-0.8034638820725859,0.16760811609748807,0.5971305824531655,-2.9600160715945254,-0.935995510720066,-0.6939182121365626
1390,-0.8407101029658999,0.13315822155055776,0.5582942727435722,1.9548514644336807,1.4491718002447014,0.7648280846860664
1400,-0.8573190639925239,0.12537978749743758,0.5454761520300275,-1.0127531321393686,-1.335916452193362,-2.222115589574308
1410,-0.8055454207398458,0.17751265180712505,0.5970224748861723,2.234073049960225,3.1992935077912676,2.96912841880945
1420,-0.8273551044975211,0.14931467108426433,0.5785017375328845,-0.1170327838330738,0.5118256048632533,0.588755803557613
1430,-0.8235922014359895,0.14809392121408016,0.5740719427996201,-2.75514656356439,-2.1875195517083323,-1.6824667045276152
1440,-0.8278651417992928,0.13571190065587518,0.5692766838626735,1.760519581354289,0.18593659259747608,1.2275714632260002
1450,-0.7964903048366335,0.1847927906072487,0.601929965377245,2.802564381702638,3.5749253309137767,3.3793330540165014
