time_ms,ax,ay,az,gx,gy,gz
0,-0.6849593817372912,0.12678419226574886,0.4260542138796027,-4.353929536098133,-1.060677902957316,-3.3180320989605203
10,-0.6652658315304076,0.15471135620794219,0.4480500708335671,1.4399232611089368,2.1448987661560888,1.38953171915329
20,-0.6518036693277685,0.16399682984328964,0.4620698081837374,-1.1436632390527277,0.021736659932997587,0.32798486437911756
30,-0.6725290395338743,0.15589232115132412,0.4405607605495946,-1.2095931314965886,-3.313690559137671,-1.163993927107382
40,-0.6816946786521685,0.13955403509201683,0.4288588255452146,-3.043414301245469,-0.5111404669758131,-2.46709012254618
50,-0.6738153996146677,0.14905508338415946,0.4370853045532594,-1.8108873780855332,-0.06698131986748851,-2.569985800492632
60,-0.6432988471496083,0.1745154421801352,0.4690240291502051,0.49394435205951853,0.6470855867494307,-0.03601132590830203
70,-0.6778711656920902,0.14127284561584685,0.43463318993450334,-0.3160212431537084,-0.7345239894741026,-0.5357445284579756
80,-0.6535862023636934,0.1676879883347991,0.4583063809539478,0.1986876200209884,-0.9003242320291718,0.4575844957356048
90,-0.6721389197148528,0.15193789100087576,0.4396075646372597,2.26347961534874,0.8963157185810584,1.9807634744752298
100,-0.6801800687636348,0.1432974228143183,0.43148026607086704,-0.022394888976973726,-0.3867675338270534,-0.5901107567628033
110,-0.6336282942538302,0.18981096137334494,0.4776675070788563,-0.6503338591538484,0.43781490185414396,-0.596301900448532
120,-0.6828143947288108,0.13937934773717275,0.42865702507686165,-2.1916720643737873,-0.2797998420383336,-1.2166519047294702
130,-0.6616662071872463,0.15582580185648343,0.44795453247801037,-2.139474974153094,-0.9537751691733829,-1.3000509651192635
140,-0.667352902674499,0.15210990848135486,0.44254150073235615,1.1844595274348002,1.275876818359673,1.6411459979207859
150,-0.653695316248897,0.1734213958888826,0.4590145234599273,-1.5786285285250847,-1.921814258017907,-1.2406532427158377
160,-0.6924157113733993,0.1353846870680005,0.418430117616141,-1.256150175460395,-0.025503757269638355,-0.5965103898893931
170,-0.6631718817897541,0.1592670948041795,0.4461929266997639,-5.575595502796015,-1.1901565018212172,-3.115907789914136
180,-0.6505173110699577,0.16803353502586024,0.4616344357735994,-3.1613275034836157,1.5294857260627468,0.6706989570249484
190,-0.6867391222965137,0.13179493905437875,0.42555197139371964,-4.083398309289534,0.3293687641744123,0.4226428779684162
200,-0.6907677897199327,0.12321797276146383,0.4203074197820973,-4.4714078577699246,-0.9148939438350897,-0.25752715620308997
210,-0.682283798680284,0.1285124722154861,0.42865253673763765,-5.4012918104482255,-0.2164803584026237,-0.13099136649182969
220,-0.6805577263110917,0.14001644640754876,0.4291697077212934,-0.9884356436085617,-0.4587742577081251,0.10778796260429802
230,-0.7164266353761589,0.1105639112485992,0.4059127169746481,-1.9901774800245964,-1.0420450543607778,3.0138057684891133
240,-0.6994695403690221,0.16369358850730953,0.4504672148586933,-5.7211205234325035,-1.0747412891296053,7.016703911446932
250,-0.7394465657234145,0.1423292514449093,0.4625988209889923,7.930940778001037,-1.268703757853272,16.37382536922189
260,-0.8182420860384814,0.06007985588252835,0.5893643991739088,21.157895164669203,-2.224251395397327,31.802150273487378
270,-0.8822675640339962,0.049346430014194795,0.5446948116054858,24.229224087303418,-41.15850917386134,12.401041104283625
280,-0.6816485553160275,0.0769175508920718,0.48304503981487396,30.70484263096132,-47.39829396553947,1.65824549009274
290,-0.5889758219586507,0.1799821436254585,0.4437975127434621,12.684654150020563,-41.71541555016561,-36.38927000777628
300,-0.5775116916817133,0.19422355591850646,0.4029462661741039,-2.479889709123627,-32.24126144391612,-40.04037524689151
310,-0.5057140733543191,0.2695073302240749,0.41042216763410355,-7.555043738633032,-21.783934321499245,-34.39378075527453
320,-0.48749389046230274,0.2656071810928431,0.36506971487695555,-16.376511960790705,-7.686113549756787,-23.57668875224801
330,-0.5144579835780684,0.22539699696982446,0.3283896442212265,-21.52503458088994,7.740556709699838,-12.041018624124417
340,-0.5590174677960761,0.21442003543503213,0.417205937341299,-14.152716645589766,17.9589391950561,-2.634993684012433
350,-0.6448540267421602,0.16258732062928893,0.47126128463671685,-15.50615134472426,15.83516625871023,3.783934203757987
360,-0.6595960722350221,0.087710967107608,0.4539217903342685,-13.674279395104897,16.61010058615896,5.45774766264842
370,-0.6239391530944116,0.09211792738258608,0.4888931190418809,-18.327003235727005,11.637102640790427,-4.335203656516254
380,-0.7110433025054516,0.09503931616232288,0.5712799207716979,-19.908742716599477,4.0467915447195155,-5.305461623663478
390,-0.7784842668893677,0.10520046704809854,0.5558708397307228,-6.2022059025220075,-2.3188618123750615,-2.7894006236765088
400,-0.7101000018074156,0.12168264704535982,0.5171250073368616,4.159652458334641,-5.227685158925313,-4.550885067191585
410,-0.63366963033991,0.12818917413262287,0.5465425692214534,11.94319941474236,-9.209288517777466,-4.708157899474439
420,-0.6600619256400719,0.13280107052457213,0.4803695308930325,26.840224187412044,-12.086545561969274,-3.3671000994523723
430,-0.6817868951183425,0.14174141875314852,0.4126830315285776,19.2297319377607,-11.602092184258698,-8.76138424793702
440,-0.6643644701864323,0.12899591316114803,0.4015200260127279,9.975462636608903,-9.767797338922106,-14.196696019556251
450,-0.6849463635997453,-0.007186367811183449,0.43002854202358265,1.5271996869763949,-7.154441613079341,-21.16501078351905
460,-0.6673644122937321,-0.20489766805507745,0.588555934714857,-31.00912285555431,-10.812253788427702,-39.45279194362472
470,-0.6634021136547996,0.2449611876779885,0.5877702279184676,-10.753383060501791,0.3162596564704714,-13.987085677965991
480,-0.6975454357714408,0.07577490570171322,0.41473857649753004,-0.9575042629646058,12.17472627747784,-14.884250560059703
490,-0.6936082707944691,0.14240142510810902,0.3926165384949785,-27.146666131872156,11.873364279010339,-18.719436299438705
500,-0.6975330417489827,0.1829274031780311,0.39372705723754414,-28.43427176357121,13.64246856822001,-13.626812474981632
510,-0.722057386052299,0.2088753387918527,0.3217595916928566,2.4603166106900067,22.178297443989653,-1.2899079752890144
520,-0.7750621366563777,0.21214614421190742,0.22036803731701232,-2.943946371483979,24.72692920788384,7.8229627741688725
530,-0.7281980345811078,0.09434338590937838,0.3436567338013415,-16.026326891101743,11.092294578977391,7.146907160428765
540,-0.7181422760172722,-0.1442847226680498,0.8240012004236662,-34.60815406569138,11.674114273577096,32.682603562164026
550,-0.6474196830281339,-0.09466284946367441,0.6617901942173985,-27.46939670245094,2.4606788143404614,23.59496182611162
560,-0.6820195104678082,-0.06420530714269752,0.5503669476109012,-19.428717307365815,2.364857936120608,7.058294319829372
570,-0.675769044633813,0.009673886517071783,0.4667125520411746,6.221628079452833,2.032892929527486,3.2101150863907364
580,-0.6546741306902308,0.07872907271768155,0.45095799042533263,19.239408748696807,2.231082267552061,6.113359620688742
590,-0.6874684604587952,0.060937262854882185,0.43489101646933676,27.05118437034105,2.9204118640879857,5.654374909149826
600,-0.6240517248902049,0.26623423802881857,0.5239315807822638,21.843707708856336,2.757368528465703,-10.438340944750594
610,-0.6616098601445359,0.17960115331962512,0.4190200287525848,18.936425962989315,10.923260542440138,-17.37109795908833
620,-0.7187380191547457,0.15307217125557376,0.33058195422812475,15.805216253474013,17.819535241571334,-16.479403041301524
630,-0.6936138884813188,0.2770006130149427,0.3540413573122195,25.14728707115119,22.343081494307185,-16.206029949871418
640,-0.700732415614662,0.3104706972086213,0.417765386132205,17.40738990543788,22.62541152908266,-13.275996915950167
650,-0.6074657876191539,0.1984830294210562,0.7658653761580357,6.219377148332865,26.45305267626043,-4.263807437916051
660,-0.5768085180956859,0.12089418474741613,0.7851117274035515,-7.7901044381651,13.465399779754756,2.8601086832888307
670,-0.6954383972096613,0.1723167270972363,0.4160197041394482,-2.751756541485404,3.0181722613805575,20.234219377120976
680,-0.6629002117118846,0.19648701983634057,0.46133076725065997,3.841684829542734,-2.1419717841356065,16.2771879994581
690,-0.6909831223099018,0.08827330687119743,0.4462668432517002,-1.148216658749828,-6.214167979690098,14.368672111790044
700,-0.6441298381128713,0.13898154102698534,0.4769638864241957,25.796210285448787,-12.071068305767142,26.20123235328972
710,-0.6471855553891186,0.1784721143302845,0.464600687646169,35.03752210546352,-8.716927408185223,18.26407854283407
720,-0.7114214340817221,0.1172417568311783,0.4193347939816625,20.13574154984789,-1.4563300689640744,3.016662569027029
730,-0.6808818425640341,0.1402430288152669,0.4289833099651385,7.4642673587825,2.5706829256092325,7.630533932715581
740,-0.6658307629858536,0.16435959985660833,0.4480292390661132,9.849346502268254,4.3720916528846665,9.59990402021481
750,-0.6634500961964889,0.17750880546127917,0.4471091925781917,4.169355702077116,0.02714565636514865,4.322790649740844
760,-0.6816415504802195,0.15955143930716578,0.4301928368468524,0.38445606047032355,-1.1601147528291862,0.20724843835027196
770,-0.6757977921246172,0.16838594176545538,0.4382907798327022,-1.2669576462167502,-0.7729243741141387,-1.5891300506960249
780,-0.6669400018696694,0.16053841045713493,0.4392464425228519,-2.450327449098705,-2.438213694656594,-2.573004574025104
790,-0.6864281997305598,0.16920594311125237,0.42545841730475653,0.5671798102902867,0.36366842449463016,2.853999966221065
800,-0.6887214454830188,0.15322877647089903,0.4231337487619176,-5.649207932634272,-0.06898097258300123,1.4594145436211055
810,-0.6685027018374666,0.1608784540678469,0.43930684026877076,-11.388625205463782,-3.3295290432751274,-1.371008643053728
820,-0.6822828736002279,0.148856920357139,0.4201962596369863,-8.772164287667952,-2.897954124533536,-0.16013046140765863
830,-0.6956656422514484,0.1275339382594768,0.4103608670537403,-4.618853919241596,-0.11192449791129622,3.2387743280086596
840,-0.6428446000511914,0.18421438915014401,0.4671745342473118,-1.70049042858808,-0.20144408505656708,3.7676969314367685
850,-0.657111586916745,0.17493410144841257,0.4523410559435584,0.17270466481802893,-1.5506173592253987,0.7635483685903173
860,-0.6585418678200933,0.17365902397838542,0.44612348456273193,1.6112166238322685,-1.934531317464665,-0.15573211395350928
870,-0.7052690755314366,0.12782719298136128,0.3997517799504228,2.8773464847753063,-1.4329137827835765,1.0819745716824456
880,-0.6635077983558786,0.172919163679919,0.4398381979116158,2.1493809744788877,-1.7298386834793889,1.0975558175667781
890,-0.6678217290231412,0.15863548184371218,0.43475579613724363,-1.441241164520705,-2.5521652595247644,0.048780689361820784
900,-0.6881633935231035,0.1362518579695465,0.4203084735512406,-0.1848327709280596,-0.1781483306186979,2.8004178664234596
910,-0.6603526092111189,0.16944085987459642,0.44914763019705567,1.377234669104091,-0.5693707256262546,2.1418971345551716
920,-0.6673711944504446,0.1602954940733619,0.43877903842061605,1.660829220030993,1.0159118776609237,2.7598078430550523
930,-0.6729325903172989,0.15783785756019567,0.43588991296309937,-3.7006589633292903,-0.2908956367808855,1.3534848223155467
940,-0.6653730995786815,0.1716106486655801,0.4448187353488575,-2.4308314300261156,0.01571142395589331,2.029588892036646
950,-0.6493875902184063,0.18799959094248156,0.45881154740202257,1.016139074393775,1.09207882630383,2.996627371815397
960,-0.6528579698288456,0.1836210967166365,0.4550637943769125,-4.33340963736307,-1.584331122988731,-0.9532102630406412
970,-0.6499511525860309,0.18372071970843057,0.4519681478199369,-4.142589022368184,-0.6027392260743534,-0.47899440254285747
980,-0.6781988848856818,0.1581111981626457,0.42701614654982284,-2.251488080389518,0.04515310617116036,0.92762664449305
990,-0.6724565796625984,0.15923986733608586,0.4355699159488803,-1.590366498058063,0.13211904102614175,1.4574779490635112
1000,-0.6838860630118595,0.1491849041013881,0.42406760460878085,-2.465737999145005,-1.0708240746259738,0.6307452848924917
1010,-0.6778036893941201,0.15677961141008162,0.43395836654329845,-0.7317070248900818,-0.4877831458930775,1.6171743064342818
1020,-0.6744155217231306,0.17033097198035907,0.4374988317046314,1.797355966396353,-0.2453893690129637,1.8091387823508358
1030,-0.6725008302067699,0.1648623162091969,0.4393856055338194,4.602817435654483,0.2722114909335919,2.8779942812475885
1040,-0.653979305068501,0.1952505105210925,0.4565182257352496,5.6101113807373375,0.6877851008532598,2.2468628762831906
1050,-0.6366898870846942,0.2190701950966823,0.47339234723773344,3.6706044317635267,-0.07343417787667972,0.89177767766241
1060,-0.6772867007692867,0.16412320477248926,0.4265782209149881,1.580592921885494,-0.6653399489918147,-1.059964955479734
1070,-0.655972390438423,0.19344790242742987,0.45191155850375525,5.056927891437544,2.7120156752385056,0.4228920973069821
1080,-0.6937519966214781,0.16066605263982475,0.416891851277593,-1.9041417311194877,-0.7135670590506464,-5.622211315410176
1090,-0.6815619472860237,0.1592127267969845,0.4263190205053846,-7.749402201640712,-1.5515006787504038,-8.738938655355817
1100,-0.632847388838357,0.19242236020828407,0.47689648476389984,-3.6476994550292563,0.3590226145795453,-1.7779504030425104
1110,-0.6914976342422038,0.1347279379547356,0.4214986099000463,-2.4530435482435746,-2.7687559756038267,-2.144212419322602
1120,-0.6697204210548179,0.15207687226088512,0.44250670355246263,0.1853375368312673,-1.5213696843505924,-0.1424063985713745
1130,-0.6907217072778844,0.13508759974290557,0.4199644953907705,2.2117738099375064,-1.8822020086850322,-0.2221097528442989
1140,-0.6716327823226815,0.15802718546080788,0.43652195358045576,3.499360735334758,-0.5086149028675202,0.014703696168466701
1150,-0.654580559805032,0.17538235237076105,0.454743951062033,2.1576948505784954,0.10657002410475971,-0.3213593068375862
1160,-0.6418228895750425,0.19190453613387407,0.4707444081351529,1.0755678294248,1.0339702981034202,0.8715883899929697
1170,-0.6739154191107128,0.16035776997866397,0.4387004653694895,1.7722209945190737,0.16563013672251112,1.4223168454312514
1180,-0.6621235166236354,0.16919573140931532,0.44750885647681543,3.6262918573809695,-0.49084978321080297,2.4748312903041176
1190,-0.6711891827536148,0.16012079003837631,0.4352406844595894,5.497260004038887,0.9973743702211006,5.329380904023502
1200,-0.653387898533737,0.1844687818127584,0.45199928472849055,6.881942146855371,0.4185685885663979,5.790461013533778
1210,-0.6860035225623429,0.1671277917715041,0.41999717042629897,4.547175348298192,-0.34594549981520545,4.245932090912036
1220,-0.6882675444738067,0.16809888209396864,0.4184283546976987,-0.839442611308843,0.15192289897973477,1.7757536908388114
1230,-0.6467586257387223,0.19334144255477356,0.45879622620504024,-2.012496216300903,0.6577105219449761,-0.6152628577846342
1240,-0.6511134554943664,0.17996859982634292,0.4508036608873077,-3.673220057338959,-1.2845004769608275,-1.7670044251718586
1250,-0.6673049269951101,0.16238350393848203,0.437309258054848,-5.3214320333317335,-3.6085984417929473,-2.7244661255305265
1260,-0.6931060391515043,0.14488132197437412,0.415771737093858,-2.454998313763615,0.27704623210340024,0.8170344151721858
1270,-0.6575508790216683,0.17587963521682798,0.45274038967276303,-0.3812724088462778,2.051357872272119,2.8723822343827043
1280,-0.6597212194624776,0.16590746237247778,0.44590313528387043,-1.3739461334885728,-0.20879120637696358,2.4370416136336064
1290,-0.6662936774398022,0.1705815948396388,0.44038466083428723,-1.5273990118733858,-2.3608612391985804,-1.6565931473592221
1300,-0.6714771032308546,0.16990323058162618,0.43089455017657174,-4.487649646907861,-2.8224713199538316,-3.297423869123624
1310,-0.6874086428916413,0.15572060665860946,0.4261950978016331,-2.243993573382685,0.0033718883515904408,-0.3111202805401917
1320,-0.6543974585108131,0.18577147249423442,0.4570080409989357,-2.1935232393905175,-0.7907812216411236,-0.46488260120045044
1330,-0.6628058939809436,0.1739626347004094,0.44180284693299077,-3.2497551119323185,-3.053841845124655,-2.2512303944675436
1340,-0.6693172602714189,0.16396704398564527,0.43702406234250013,-0.3735044268336567,-1.0731879228441428,-0.16158768608440377
1350,-0.6392369025125332,0.19760390039904333,0.4678272722875005,2.8956915292320984,1.8461990983420973,1.8017952922233074
1360,-0.7080419966829069,0.1313939412142773,0.3960986146844675,1.6449432654547786,2.327885900964881,0.7524773267383233
1370,-0.6767376214608932,0.16448393145650725,0.43226548922807534,-1.5619660126665913,0.6656981902196063,-2.244003361296124
1380,-0.6795249905992344,0.15700109288634326,0.4285145643389079,-4.772455420073682,-1.8618138200178422,-5.093214174977675
1390,-0.6687912247791912,0.1640504825988134,0.4385482471043738,-1.9554536769599653,-0.42264834858666084,-2.2261822702152845
1400,-0.6492182947558564,0.1863528746680435,0.459768572375931,-3.2758997806033636,-0.8802633741213558,-1.5392582606576946
1410,-0.6552618327320908,0.17860877508383652,0.45345640790830755,0.4588218177819791,0.2841521557230072,1.8782919646799827
1420,-0.6721519070788647,0.15781984427874216,0.43454413847413736,1.9883611182441228,-0.7560423885513374,2.0694655866431226
1430,-0.6608998781395133,0.17583434871134104,0.4459204183019631,3.144801834653724,0.9797029159760822,2.2805997581683117
1440,-0.6519082589793211,0.19052496293946128,0.4568258462836081,3.4516173603691134,1.5548639674143319,1.1517992724430492
1450,-0.6460192423328883,0.1924210590763884,0.46177252044083145,-0.6998832648567901,-1.619185862134212,-2.3632462209797307
1460,-0.6522462807006304,0.18560407005141355,0.4549610290863605,-0.8566019404033205,0.30274880073644694,-0.42635561317915394
1470,-0.6751993216961271,0.16424634382570108,0.43373042368995846,0.20744229269582892,0.9526290327260398,1.0709819655403428
1480,-0.6628254780645113,0.17816942222168883,0.443079055013152,2.59877232656141,-1.087232487469943,1.997756117603709
1490,-0.6681097893503299,0.17299182719261993,0.438576980771981,3.425986480947582,0.4469089846194002,2.524734684337587
1500,-0.6840258943988825,0.1549214226573356,0.42217824753056915,0.08786448019742643,-2.0014032326156563,-0.8590815759276016
1510,-0.6561896394794181,0.19040417982599456,0.44963659630013486,2.770958286409452,0.07567467527878098,0.11820944627169923
1520,-0.646349484128891,0.20207152490462252,0.46083404882691864,1.3958664481552678,0.6139755989423102,-0.5911106935182066
1530,-0.6638990341413555,0.17448995389074895,0.44527130698452544,-2.0421919444861887,-2.146523065769398,-2.7319414480686373
1540,-0.6504149834579123,0.17583620543059852,0.4519953615652238,-4.142262216043161,-2.01766933035822,-2.2068815764527225
1550,-0.6461538433931856,0.19041701253340446,0.4639796687458876,0.7584999551902966,-0.021448143759649513,0.7490761429440068
1560,-0.6624473922073268,0.18148413646935527,0.447535528205455,-2.111944031563117,-0.43765126184625525,-0.26440490554893814
1570,-0.6490578078878915,0.18731915201071775,0.45614050741747497,1.0159371771368189,0.9400595051793039,1.652169291389224
1580,-0.7100561603447855,0.13607686869835361,0.4024291727848157,2.240275771659844,1.0996571343473727,2.5440876803450014
1590,-0.6752260966701334,0.16991829414427947,0.43417997013807136,3.0209257650428696,0.4649224466071129,1.1782005805509694
1600,-0.660467425968765,0.18408956648874364,0.4524958056219222,-1.8398740949349108,0.938932383653723,-0.9914499172817639
1610,-0.6574812956556724,0.1785887098319611,0.44917709013589957,-3.965541239583353,-0.9822073288011417,-2.844952706613084
1620,-0.6598432441655544,0.17057437180027127,0.44373185780244906,-2.003977277727671,0.5147670510190745,-0.5947887527199105
1630,-0.6346120132251025,0.19510457455089952,0.47203090922708896,-0.7211178298462158,-0.026105542912955304,0.712580341416078
1640,-0.6637659936043515,0.17304536947171897,0.44347397065793415,3.8245926652865867,2.5627938106497554,4.983402382675539
1650,-0.6496985029505974,0.18853393536085525,0.45620971670390265,4.363729802634102,0.6626019958753793,4.226124965387014
1660,-0.6729458490916469,0.16558758656531755,0.4336332994954053,1.4639337613047285,0.8264119059974043,1.2771071431010128
1670,-0.661349369758494,0.17728069175684116,0.4465161108388542,-3.9355136318734947,-1.2870283333238746,-3.9650707657132673
1680,-0.6599088928967443,0.17806205711856504,0.44847420083775186,-3.733552740887104,-0.5762588500911392,-3.2959562460484166
1690,-0.6715285119586911,0.1653929676778522,0.43543889027381466,-6.720206644056455,-3.8373842308819017,-5.149098845713752
1700,-0.6790466873776347,0.15729742452326104,0.42680747982256656,-2.139701872901084,0.19210668101163608,0.31416669617086146
1710,-0.6538977204147514,0.1823376282267018,0.45515216739960834,-2.5370336207123163,-0.39280343187004607,0.2836354761750405
1720,-0.6733726322060926,0.1643411520701594,0.438078510811004,0.22096382557983862,0.5838357085933548,0.8976620299412379
1730,-0.665562927174376,0.1771722643988861,0.44307367774645884,1.245792624496569,-0.604952313895671,-1.4059933070202062
1740,-0.6584633091576533,0.18014557065405953,0.44844282884592607,1.2007892401420959,0.7121725387093514,-0.8586187757994266
1750,-0.6709655361348035,0.1634621747401094,0.4368655834176125,-1.622677383060647,-0.7624892236615719,-2.5140858774479544
1760,-0.6643285421187225,0.17036797227495487,0.44797037637655546,-1.3827320129500122,0.14523260242967534,-0.9651871244404744
1770,-0.6529694623346927,0.17982358057248748,0.4535605435079919,-0.4596724620542484,0.6295084025407993,0.3799194516566107
1780,-0.6893008394753908,0.14404666756831552,0.4168541470346179,-1.6172025923482443,-0.6158326215012737,-0.05945960681565865
1790,-0.6796584032272938,0.16016300751553184,0.4266859128278947,-0.31250088405514387,-0.8644985019679203,-0.1091558179489453
1800,-0.6766173269951087,0.159085380572959,0.4351568411219584,-2.367353901541293,-1.1333925791757276,-2.313864034533607
1810,-0.6570634282255358,0.1814920177205476,0.45453932538639163,-1.085560508261901,1.7215191553817455,-1.543825506916288
1820,-0.6829432788811998,0.1571992057668179,0.4266379652908326,-1.8106898498338027,-0.05283429725300395,-2.2402154365545073
1830,-0.6774707668494475,0.15877814941405788,0.43084618466280444,-2.0345296547040963,-0.3041501693760006,-1.194413493680241
1840,-0.6782469253944193,0.1535067872765489,0.4245652750420387,-0.9487612027151382,-0.7178191374049636,0.21973636644513062
1850,-0.6544247674460877,0.1795738266920173,0.4499881951882874,-0.7278012008116765,0.24726746077606626,1.1475979066449646
1860,-0.6723490482115595,0.1722157925765035,0.43477278308164075,-1.9753729655843233,1.15093001338313,1.0989588151564451
1870,-0.663264691004202,0.17987775809727324,0.44894131742384547,-2.243807009181374,-0.3933858280000845,-1.1974908493341372
1880,-0.6825321243184052,0.15759295225136974,0.4288069823171083,-1.048559692646031,0.7887459369569035,-0.4351485400379034
1890,-0.6769927411019746,0.16391099517314944,0.43257084185720873,-3.7847045054984862,-1.3815678418433242,-2.520245057779226
1900,-0.6392964152280131,0.19693330935819564,0.4713202396882423,-1.1871103791347,0.286664360019717,-0.16467272585734083
1910,-0.6848366088028726,0.1482421217062788,0.4238531763380331,-0.29125028883708826,0.07730654131707951,0.4681676311982732
1920,-0.6822936979239336,0.15342707854758358,0.42419809255682817,-0.861781324655009,-0.764831049072572,-0.02057789165615842
1930,-0.6616172724878864,0.17550757827381322,0.448815867913027,-0.3476055522733918,0.6707315247357997,1.1552467845472458
1940,-0.6368411610498157,0.2011324883972801,0.47716915160784906,-1.3462587283802094,-0.43718980841760136,-0.3648538695591009
1950,-0.663429598280168,0.17564965476471,0.4502866477500203,-1.4966410898035272,-2.4287319084894095,-2.2687984481189094
1960,-0.6601317869205061,0.1772441598611879,0.4512482907362493,-1.3484786793982457,-2.8201563895777726,-2.5554094713702074
1970,-0.6588260947418131,0.17597041209295655,0.44919138656462027,-3.4967524459167016,-3.178051121211927,-3.40417884853062
1980,-0.6277747420273453,0.20756342207963513,0.4818070795248464,-0.4115455489575033,0.9054140683314916,0.5448809734684945
1990,-0.6703266709302892,0.16764788299698763,0.44289587026250027,-0.9163688493706065,-0.35329931789029506,-0.4772686469491905
2000,-0.6610443463242885,0.17507408563321772,0.4494120514524916,2.124207698449471,2.8847737470066646,2.4574145170756734
2010,-0.6353128449293408,0.2004949534111056,0.4722603875476314,-0.5611534166612648,-0.48254997813785777,-0.6313344993529375
2020,-0.646953453580243,0.19131589572079166,0.46014987548757263,-5.156538258030508,-3.774674261848158,-4.068658371689856
2030,-0.6839565976014353,0.15372229330176904,0.42768750947366535,-1.8651173759775663,0.9061425289330154,0.4930143682200424
2040,-0.6694843104570146,0.17832619482036288,0.4414570304366535,-2.6312417343992403,0.775469454773128,0.8899623712634961
2050,-0.6570378026480038,0.17936088883489923,0.45359923030960786,-1.432110640063536,0.7003983104961117,0.7678229403174551
2060,-0.6791734077599311,0.1507583233552506,0.43429974006094274,-1.4349252037622424,-0.32265780219250983,-1.035501486146587
2070,-0.6479327295012215,0.1924703055600411,0.46285186778159115,3.032050154795881,2.609384552168251,1.7640471254089287
