time_ms,ax,ay,az,gx,gy,gz
0,-0.9210279628713797,0.07268804245172544,0.31426784426272764,1.6709266433182564,0.30159703989949815,1.6299032312100723
10,-0.9462049743135378,0.0520584409170567,0.2841732358113491,3.128143018577025,2.758889154857103,4.158147068864139
20,-0.9358105410576778,0.06381662746354626,0.2961192755232006,0.9340804895133876,1.4501422130899204,1.902695903447496
30,-0.9516420302240827,0.05122470875885189,0.2851823732781589,2.1280049119020696,3.3183645048290926,2.3779537960374935
40,-0.9656287065397616,0.03762482100536703,0.27265548673290335,-2.22152002864894,-0.7150213391743503,-2.7651817968628487
50,-0.9713783671123157,0.02834446931244338,0.26486259503912996,0.5876934555846134,2.1691555048853908,-0.1785247996560333
60,-0.9352729699568112,0.05848706462057093,0.30262194853727287,-2.00748450822842,-0.7643119947038559,-2.3650470340034473
70,-0.9568570202989213,0.036923032105913765,0.2814212596895859,-2.6002664308046644,-1.623163498211001,-2.238603014123848
80,-0.9567070294781027,0.03995739244584452,0.2776206773002135,-0.19622093339035218,0.9329130012250126,0.6818759422878046
90,-0.9638783806900036,0.028204761144491487,0.2730613679949044,-1.0006823941847323,0.12713841061892336,-0.15602691216635073
100,-0.9608590600147527,0.035605889215517494,0.28076395876625815,1.5716728977369754,2.544887159687624,2.2168914629999037
110,-0.9790374060001911,0.01643386720688097,0.2555814149415636,-0.3759621686086308,0.3705005758993967,0.036837973798005796
120,-0.938513223235793,0.056793840374876975,0.2916399958224576,-0.7899468234181213,-0.33848613289779617,-1.099331620287833
130,-0.9591857060988839,0.038999322047580214,0.2744435575548311,0.29482891238597153,0.8336416047608791,-0.1814903190394217
140,-0.979762617321164,0.009133517737007928,0.24970714283229084,-0.9926662912536969,-0.505500026130823,0.49169612306216837
150,-0.9466540811947095,0.05029487781601337,0.2884080671988465,-1.4135703087316693,-0.648605076743288,1.1661260659310277
160,-0.9338103883101498,0.06210437653846847,0.30701878228867374,-1.3766501455570255,-1.5738764385671828,1.6856879322726877
170,-0.9693678774953876,0.018883869636208507,0.27239118573122517,2.6328563445018753,-0.25262549876757456,6.490411854780047
180,-0.9793828333852846,0.0244428866627333,0.2790399930646642,2.848214663762941,-2.183169234518033,10.46769837857969
190,-1.019395375739375,0.011309193837753563,0.2683574459040751,1.5511116521456616,-1.1151808352934764,18.577904810314276
200,-1.0130515839734582,-0.0038941378251645987,0.326237675736188,6.518408183314724,-13.906593735544675,21.553539942353414
210,-1.06534892486186,-0.11885533718097442,0.33268707956914484,38.153029354070085,-40.03183395700118,22.697132550962596
220,-0.9343413516378892,0.015979112859041942,0.32979457407004126,41.90109060341485,-48.10506282481887,14.312943604679392
230,-0.8029140756445684,-0.013642351553582822,0.32355381683130613,47.323407834291935,-43.65150474069353,12.614020898569967
240,-0.798701591620316,0.04299869828345117,0.232625477787824,43.52789152528887,-36.487460450209326,7.143006418451693
250,-0.8155460325424572,0.02896217937761065,0.27935672698239133,38.4948160969302,-31.176769205260896,-1.0478893658210182
260,-0.8201405627788196,0.02109835151411431,0.32529242221410326,38.8724393843245,-24.637440837713115,-9.14084720261865
270,-0.8359923525335076,0.02850604853840627,0.34420631719693595,40.17848567640734,-17.89967193763126,-21.00254432137143
280,-0.8214042595653519,0.16540263050412707,0.3337338389467538,32.33256113226953,-15.390351984690838,-29.903009449569744
290,-0.7970053060183021,0.22216241708152668,0.3125143736955553,21.07358180649836,-9.246111900165289,-31.01358005191324
300,-0.7871631481327929,0.14584024627635164,0.31647640322608445,9.988229967605529,0.678021304279446,-29.65987412436849
310,-0.7874023819926999,0.07181317802737883,0.3572485237585059,1.0990204135750328,9.053976419846146,-32.43250468402727
320,-0.8021664014478995,0.08442032974821748,0.4131535430339511,-9.234491570455358,10.93089931643838,-41.933954098806026
330,-0.8804109393762115,0.11549151177767931,0.39162009162843914,-21.703555490137745,14.652979007943923,-43.48236313583627
340,-0.912099818167047,0.027423460374591337,0.22583475121825733,-31.785415931117022,22.727997518701486,-33.68191158126008
350,-0.8553344685915788,0.15062400882256854,0.18712799211116177,-27.580219826047745,29.50112562663826,-33.46061318155402
360,-1.0530792462092466,0.3004654702222273,0.44030846385416506,-22.699053815141692,11.862779986688262,-16.888194011939387
370,-1.0745470532923955,0.19823655450836217,0.36837214767573934,-16.684474697344577,8.035417494726273,-3.605540535302282
380,-1.0847468734436507,0.025184229546534653,0.35881223866943707,-10.142508678213394,4.243653642115629,-0.35836070944366927
390,-1.0066667986425353,-0.004081734893483672,0.33326565341159425,-7.570573472485263,6.7992044425697,6.119193555489384
400,-0.9432767394242125,-0.03132108747249163,0.30508609027595707,-17.240491053579976,3.096491321141882,8.655822421432509
410,-0.9359052120839866,-0.047861913905556344,0.3140399508964432,-23.643549253785995,-0.5154414144144432,6.555584960229754
420,-0.9317607206448151,0.0479847591950423,0.33624344719784266,-18.95996601210718,-2.7855705052508375,9.44953788185142
430,-0.9215473615722539,0.07303320756663878,0.32029853844200196,-18.52050888350953,-3.2525571070471564,12.336521977662239
440,-0.9229022190352607,-0.08766535448924215,0.30661378563875236,-34.602411040068006,-4.311790035655134,1.769944653803972
450,-0.8851134513661953,-0.00877612069287021,0.3924895956025599,-39.93198973045745,-13.587813868995912,8.318365649969403
460,-0.81386807101906,-0.09572078459911362,0.5308705859314709,-58.82999289386436,-23.972291529043456,0.932637595405201
470,-0.8718152112896114,-0.1108682354658576,0.3237945047922025,27.325151161329444,-33.687019265876366,-1.8527518437098403
480,-1.115503115676618,-0.028545295741356034,0.08379218612513262,42.48041474054146,-22.071512915735838,6.097850772485401
490,-0.993870339527725,0.032349007941168746,-0.25065861502005043,35.50622886281807,-26.71161330215725,-6.213401832821098
500,-0.7609472799917776,-0.34517139354028764,0.5042783744708268,34.34873254427387,-37.6521131179708,-21.424937971662533
510,-0.9851380717591728,0.10029684209670921,0.23416084407213647,40.977947931617095,-28.51530208816727,-13.822085673914756
520,-1.0993588516460613,0.20594185101581536,0.017883827926211796,63.0485908239443,-19.461425478652654,-1.2360976390996226
530,-1.0570100948396153,0.1557894140742859,0.21318919821905635,58.36698507152106,-7.783875859082362,-9.729123121705912
540,-1.023273833033984,0.43201066050105014,0.2770532995563029,46.62423627537724,0.694624280205568,-18.32329083938277
550,-1.0105792047299116,0.45787904818888364,0.18354311383343874,55.928191477285544,2.3096843819849244,-3.2781233649219628
560,-0.9890028266918404,0.02343603111898023,0.27906964248194505,23.86219322700978,6.913906490731107,-9.900582643832548
570,-0.9012159171841724,-0.17709769174319842,0.32270665241285984,5.6579310574101,9.628790883960031,-38.187414194578345
580,-1.0218366215229306,0.3126823046433856,0.4913074593444597,55.730830652051,11.272098660051272,-6.711187568642167
590,-0.9550277106321381,0.2822967025225613,0.18237158059540967,25.24897030665106,13.252653749971742,-20.715956053321232
600,-0.9003341680536305,0.14091839077696205,0.19062024015014026,18.765792036515208,39.24629956047747,20.27530663246357
610,-0.8526799341651061,0.37162953309626046,0.17561564735534485,29.053638211077875,41.817043245439095,39.020758655118826
620,-0.8460404359387732,0.23493322742068865,0.24222490824231274,20.31348337715453,37.100543280563436,32.34514407154103
630,-0.8873786146994453,0.1390799087694233,0.4077550176211222,17.10270559287594,31.70182392064404,32.816892678474616
640,-0.9050855414695951,0.11323168523026049,0.3859165901065894,21.798313973126312,26.936643142105265,32.70662375033929
650,-0.9095135428121817,0.09413466400074488,0.17371226238747614,32.255832881922935,16.903124348576235,30.115302991291962
660,-0.9760697645566392,-0.04254110596118618,0.0127330145375752,20.21908204485334,11.150671044982138,23.683107210981483
670,-0.9510493171130413,-0.21119279159283819,0.17689521336785285,-21.0134355662699,9.07507297957389,1.1350622949656217
680,-0.9227753935477758,-0.27100593115768207,0.38014200562150935,-16.22483776365454,2.5766127200445395,-11.560520836421249
690,-0.9286801633393231,-0.0731703487137933,0.3690383616615999,-20.793834904921,2.05843076081548,-12.881775773649805
700,-0.908772393593306,0.002740230306251399,0.40114051348129404,-14.880494659108592,4.203893802718607,0.02239731047095317
710,-0.912261949889676,-0.18392050597518836,0.2335745601975487,-22.248645780433943,-1.0362060964768047,11.61499409330834
720,-0.9144299307649655,-0.0694054961740912,0.2940289233096019,12.718755445157239,-11.035082953947313,20.23518364109355
730,-0.9651395679723574,-0.040414399109290705,0.33077904891170595,15.195093047643216,-7.217459949255059,9.28245781614949
740,-0.9269331288644094,-0.09239916985119379,0.3241430555100744,15.739814980041537,-4.663743315107391,2.315135037230137
750,-0.9325526901616124,-0.14460306965447317,0.10545040741933784,16.72491406363323,-13.36762974234717,-17.63220111696261
760,-0.8909421274464456,-0.20196609261846823,0.15214241290360633,16.87679732130213,-9.077514867611477,-26.931612732954687
770,-0.9101649755036354,-0.20019934228736608,0.18528139370893093,14.07010587106065,-3.737645443261616,-29.1075309701451
780,-0.9222267443147742,-0.12072207019602219,0.12665805955426523,38.224769069140905,1.0159546836021922,-23.090437680076725
790,-0.9137826376101325,-0.14187338961361348,0.21301849041778192,50.663499699872624,5.0371347493883505,-21.69786731463666
800,-1.0096888430789188,0.09316865020985785,0.10598260661883134,2.1453858931115732,21.172364580694797,-22.236629716701227
810,-1.0056582733659007,0.07055971351496185,0.4382121110166723,40.107651244464314,21.29737934119691,-6.796212702046269
820,-0.9423713059298032,0.2892673729000193,0.19032992952420222,40.44477470288167,34.20049284342974,5.893875077767936
830,-0.9921666965851476,0.27877670424679785,0.3925011499609383,55.136535254485686,31.434001601528006,24.654030848275234
840,-1.002819116942578,0.09751918739386183,0.30249283163433194,48.14010715033301,35.140062629897024,31.221958681817195
850,-0.971811777695007,0.20523066598668405,0.4568587108623456,47.20075455368835,28.98859231135056,28.307605531089614
860,-1.0193780442001625,-0.08679692204788564,0.5238445410742413,15.244145980610169,19.538601138123763,7.296499483855969
870,-0.919475632135681,0.1935181100192685,0.17370752925254856,-6.860374878460901,24.232801515555806,7.364524187687784
880,-0.9259032971380492,0.18333235614397933,0.37305324772553133,-26.084587944550407,18.54244005369517,1.57092226464166
890,-0.8933071227252735,0.010928952243778729,0.6263288545445473,-41.14742937979588,13.62030881557999,-2.762991657378621
900,-0.8439985505581876,0.12655418884782269,0.009516988848229296,-45.04261023412097,25.21288387597194,12.435495861521247
910,-0.8865417035678622,0.058601908083322524,-0.015039859372312624,-61.1410454798261,9.896996849061217,-1.4012884368251188
920,-0.9548082528251419,0.1607209388825022,0.5130223102747367,-44.72988202253021,-3.9898613434600803,-8.436579849024676
930,-1.2016215690428642,-0.3605937126603249,0.45966510589439413,-106.43275807145126,-16.181367400807225,-11.334483959127063
940,-0.8985847134996566,-0.29953656314232235,0.5734470646777902,-31.14979202753339,-30.88838976298349,-17.27637367914015
950,-1.144386043467785,-0.3355524346633042,-0.03423390734603419,-4.80196017766724,-27.137602243033,-32.10462270282257
960,-0.8873777372818928,0.021152791584105993,0.2627559298059079,-40.30673444656976,-29.62885322092491,-23.47340659858821
970,-0.8694633676816131,-0.04106816468794696,0.9224437042510983,-8.020380034111007,-31.045170261423625,-16.450049095858287
980,-1.0231679332105406,-0.06724400774560889,0.5871210580585673,-0.47304045319679244,-11.77603966267635,-7.540122453456004
990,-1.02954114073871,-0.023362600080203556,0.254786334369847,-4.235725164929443,-3.521412895114656,1.9683844233439125
1000,-0.9509700390933975,0.029745418570784003,0.2712462666296149,2.7308167741918403,-0.8723630576104873,9.85536704605283
1010,-0.9561211378228616,0.04188686106090088,0.2689532366143813,0.8403694305243516,-1.603653825517081,4.50477131341115
1020,-0.9655178369230814,0.023083360172142783,0.2703959017957449,-1.5771932024534923,-1.4662397850185478,-1.1575580533322811
1030,-0.9353623205550444,0.03487666532671437,0.3059839967629394,-0.6854491272333125,1.2892666715773993,-4.229603308851399
1040,-0.9291153324677514,0.04446832685783342,0.3178502090773576,-3.4932975605026515,0.6659247554994626,-8.297405700415263
1050,-0.9536771927266481,0.021624204033123144,0.2927070512399814,-1.7399997137509695,-1.1343231438477632,-9.47585686348167
1060,-0.9567858999509671,-0.0312105435591565,0.29293681334624905,4.586322650341535,-5.1250486467984855,-0.27125418451360295
1070,-0.9212804388522853,0.0222882553627232,0.3300347338600961,10.261763893463954,1.2278608006651583,9.923501350371094
1080,-0.9549175300923142,-0.005175782503019484,0.29713900292359474,10.834218813213624,1.0907598006387613,12.66157135856963
1090,-0.9486252684746292,0.017018751672261363,0.28956027805446555,9.193553961276866,-1.5098961863106637,10.05079083586254
1100,-0.9704446400959499,0.010877517140366864,0.27039957547926935,10.515236978671606,0.9487661454214437,8.60721610935645
1110,-0.9449265363884972,0.03144287181307815,0.30315368922371466,6.346854736088052,0.952857658089266,3.178710309731335
1120,-0.9320965744373768,0.023497301918698452,0.3070641221037449,-1.2421036826057024,-3.3833063280296103,-4.159822482683692
1130,-0.9453410063995528,0.00027862159990336326,0.2890226705065903,1.880988478899181,-0.5467485214726369,-0.5312347537608508
1140,-0.9219605865028148,0.03076972932135594,0.32896271023224566,2.8954849094139026,-1.037042082590789,1.6171590053680798
1150,-0.9587687937813175,-0.004638423990202406,0.28939370535153025,4.616144125082104,-0.04882237687849533,4.915635392620598
1160,-0.9345509138351126,0.035257146676054195,0.29576722252998505,3.7275950085891383,0.5180040039680307,5.262511738643105
1170,-0.9349741611487906,0.037481033291626775,0.31230353478358536,-2.8296747593411866,-1.9088132166157745,-0.9338688244165735
1180,-0.9455029521556908,0.022389323361475613,0.30482670661882577,-2.6097572560108855,-0.025749927564160058,0.15226510743775368
1190,-0.9464557523023712,0.004177747355339813,0.2896129236978021,0.04268208819503028,0.685586352682161,6.863104667830281
1200,-0.9541676576772304,0.006331173917622626,0.28514014354537665,2.9932389556616146,0.6775576382905976,9.370989992650523
1210,-0.9426989762495674,0.029926077032669227,0.29592272897292277,4.096939724202378,0.41947948534362656,7.308621094676662
1220,-0.9258193937769486,0.05874068067620786,0.31601950129099243,2.972405257971964,-1.6663797977141734,1.4071973080096898
1230,-0.9561333074305526,0.028267732428942684,0.28665895923033496,1.2268814965725483,-0.4984066636712142,-2.7858675836528546
1240,-0.9593661615910546,0.016921384575999086,0.282662036126395,-3.811180591165004,-0.2863338166518472,-7.011162272593764
1250,-0.9467125794043298,0.020537675403917283,0.2970962650240268,-3.3242493430623004,0.36461285746623795,-4.1070862913080335
1260,-0.9203016808289407,0.03647067922966339,0.3214371428213509,3.429314661796559,2.0810436180554848,5.607699997587911
1270,-0.977215430206117,-0.009712132184286373,0.2622961583097943,1.1791939036821422,-0.7027543960986359,3.9118974933338486
1280,-0.9239961777059461,0.05414023351526037,0.31336416722859106,4.274382237225643,1.3444898230166429,4.620817899309792
1290,-0.9343177473263975,0.04396957675596295,0.3131045878402401,3.2793375654635124,1.2496322769115824,1.0611225628362133
1300,-0.9387778899621184,0.03189206891154239,0.30226677916274153,-0.4319794810762669,-0.4205730624181989,-2.815085099806129
1310,-0.9720877510066959,-0.004955905283183619,0.2786927016218331,-2.08374221648468,-1.0545301431118528,-3.6479359511410827
1320,-0.9430575348987557,0.021736774217254774,0.299258460188257,0.8358419032760785,-0.15765445209460532,1.461596796306803
1330,-0.9410538733360982,0.02946893553654316,0.30402950668610845,1.0037613290996221,0.21022084399291915,2.018621141840642
1340,-0.9357287081091565,0.03276581900940125,0.3084697530753571,-1.515396493999453,-0.7111666483509282,-1.4402714469495115
1350,-0.9591611884355733,0.005885918815525918,0.2816293040139975,-1.708978113668501,-0.5736351637655018,-3.2274768786116197
1360,-0.9120250613543027,0.05765339213144307,0.3313721118008894,-0.03715913940608184,0.26305969396386686,-3.0715294977760808
1370,-0.955022768606472,0.014929873733810245,0.292831815507676,-0.47211497133830227,-0.3430100419649227,-3.3392526187914218
1380,-0.9498340440900204,0.008074733763752694,0.2991703258844651,0.920854755764767,1.0569880343197342,0.7070827791614364
1390,-0.9484043151539532,0.011005769473448028,0.29440051935929995,3.459103955740768,0.9950228025552311,6.343146865465532
1400,-0.9332779023597597,0.03253933015623809,0.3078153215070056,4.566711573417717,1.762535052928636,7.362593590353434
1410,-0.9295386472961644,0.05179013761615721,0.31678117253763627,1.4794628607321396,1.0208695715141443,3.124105765004367
1420,-0.9510488478149778,0.022787794686761932,0.2911358142737644,-1.6514369453475004,1.7854559965628283,-0.31839708272425793
1430,-0.9359844695636704,0.029746146887466178,0.3157514243767672,-2.101215895061102,1.9058386731042019,-2.3847855408367478
1440,-0.9343860723776246,0.02838923619044812,0.31012535370954053,1.7292580553059353,3.957806945073753,1.2665985915586386
1450,-0.9459328977020571,0.01839688269514546,0.2949465472066526,-0.04777035386843265,0.14400567305779322,0.01819016523679129
1460,-0.943463473525728,0.02244539869095823,0.2932781107762159,0.5921693611465689,0.5953559015690187,1.3403354535360181
1470,-0.9597028197588703,0.01032367377092157,0.2817115437757601,-1.3699674047977595,-0.3951362524904838,0.006468034031483549
1480,-0.9518204474578837,0.02269136245032203,0.29875149173981475,0.2167674131347399,2.4496273454638295,2.379900303990804
1490,-0.9388407957974905,0.032543405526446634,0.3043257221357525,-3.5245401473520563,-0.3916168819174586,-0.6896359524190623
1500,-0.93733945074105,0.02734714429510053,0.2963211668150471,-4.548655216519213,-2.8823401565726243,-2.3979760437146522
1510,-0.9308062421039635,0.03361037108492433,0.30805259033727633,0.148158136797653,0.017691727980178706,1.2078598269619603
1520,-0.9571309157396551,0.006777468549152043,0.2836922584820881,3.5828813760973506,2.25679481902111,3.854928937114846
1530,-0.9369510345874553,0.03922009553451966,0.3053192877252198,0.8048028832788754,-0.30468924765626815,0.29590005849010725
1540,-0.9157794385432688,0.05785885231089816,0.3221586256927317,1.3058340095751793,2.218388869578181,1.3621873986641584
1550,-0.9413125579395059,0.03101615053595508,0.29821686546239157,-5.746659204842249,-2.239230107947397,-4.721522793967561
1560,-0.964502912205816,0.004532547830583451,0.2809214650812377,-4.3354457186341575,-0.8089732921532217,-4.050109727408974
1570,-0.9480603338751296,0.012584641652431833,0.28923006387117356,-1.2589318716524034,1.53870906972968,-1.5814101711490054
1580,-0.9767964016417536,-0.020181488824514197,0.2565431365509105,0.38187397902917963,-0.1464815014987182,0.6318613035592889
1590,-0.9433926536369261,0.013905043184071703,0.2942012118762344,1.1712789731392232,-1.5017474358450706,2.7643094625600235
1600,-0.9337636622894843,0.030277463623352326,0.3110113352307509,1.845205265489919,1.4891072911259013,4.2735746452847465
1610,-0.9418889922936029,0.03565742023171113,0.31188188255605553,0.8241967815297844,3.0595170705478845,2.7113805946185217
1620,-0.9398971399580867,0.03440662487130509,0.30449963925256596,-3.540999402580585,-0.22965744300243918,-2.5277543038849535
1630,-0.9445455826917803,0.01928711498457755,0.3025400920979117,-4.777346885727322,-1.9884845952312615,-3.9940034623244123
1640,-0.9622648579589883,0.0023363641736027594,0.28420224991875703,-1.250281776014286,1.4841675655578423,0.22561571182654672
1650,-0.9159273761421042,0.0517655242083255,0.3324578408992191,1.1474534628917243,-0.6417200337920249,0.8764357262842163
1660,-0.9414356958906406,0.02606183881450843,0.30245108946430527,-0.5958606647348845,-4.599300459706377,-1.6014610946507783
1670,-0.947437050435431,0.017901661017267482,0.297459204911097,3.837383415267293,-0.5217110071064849,2.685625981578744
1680,-0.9498135847511805,0.018898372460161166,0.2978136772823033,0.5495786565166112,-3.025676555513842,-0.6457881647393906
1690,-0.9354826477163096,0.03736541182400161,0.31435448510008296,0.4419133796392285,-0.6594939069461404,-0.14467523560137896
1700,-0.9507912827706286,0.021271546616010738,0.2976338974632586,-0.10099511166302994,1.0160270226325558,-0.013939887794494399
1710,-0.9674140183708329,-0.0014490925433000741,0.27204900120298964,0.5509545337750601,1.8108826414792412,1.256960394124189
1720,-0.9501835436438321,0.012639789038690273,0.28263931908012735,0.741329157981065,0.8377474261321592,2.2415193638715776
1730,-0.9242651882811951,0.04283435265396281,0.3198547525849683,2.882722367285488,2.3106569421052363,4.803818002796183
1740,-0.9344024932707768,0.02807529401896974,0.3204734762259846,1.113379049872779,0.8428386322698906,3.347745318608646
1750,-0.9345047291798808,0.028312095218261623,0.3070348403471844,1.8488087411768679,1.9274931643020152,4.242702805133219
1760,-0.9681312067639405,-0.0027011001187635456,0.2815963278548346,1.2521797239491763,2.1733711782862146,3.374858547181855
1770,-0.9496099018933636,0.021212245512722504,0.2990073098038395,0.32033450193885216,1.1667534662361407,2.3772152839596323
1780,-0.9243077259654057,0.05439937947158009,0.32508707184574387,-1.9006276234642776,-0.0640016780807727,-1.9026115417471536
1790,-0.9354243718365214,0.0316551475435833,0.30882657556913906,-2.666928971634272,-1.185771409955845,-3.004571218449686
1800,-0.9445710655869015,0.021820897792118914,0.29635030345149804,-0.6650653058507466,-1.0569036832177,-0.980805513512515
1810,-0.9561847184228366,0.012492133665179707,0.2896243828069907,2.0421046117239285,0.6072234041834907,1.9814916840234922
1820,-0.9383339386695979,0.028509030621685194,0.30868320113808106,1.931489268437491,0.694218718094969,2.3944176957753163
1830,-0.9167304172470575,0.04976328279092399,0.3292666740172081,-0.5117305456527304,-1.487653363007064,0.2896816161858875
1840,-0.9639349652265765,0.004280791923890834,0.2835753556791109,2.091285354692288,1.4304056600163557,2.508035107662587
1850,-0.9214638487575142,0.04630227769933132,0.31574067018390206,-1.1742909782631763,-1.0199484180878988,-1.882559698416042
1860,-0.9458817659209312,0.02361941151051111,0.2936970889567996,0.21082613276362716,-0.2935638583496689,-0.9191650663434512
1870,-0.9545830162527762,0.015594207500457806,0.2909915747393286,-3.1559051246196472,-2.9028816796235954,-4.0145745638151356
1880,-0.9434879575566144,0.023006891381432693,0.3051799821478669,-3.1500258863416963,-3.076132822908198,-3.8154661740475317
1890,-0.9562630454596818,0.009547687532959388,0.2874631433554357,1.052233976436821,-0.780920690283432,-0.21007197161550295
1900,-0.9296627284224717,0.0323967624667477,0.31742713296452846,1.0894850044413305,-0.7991377317270503,-0.387250638458038
1910,-0.9584949500359123,0.009652650600170726,0.2908599263555123,0.1963332597500182,0.6870286827449357,0.7592807249331802
1920,-0.9289420710569682,0.04061577720130666,0.31102628448754066,-2.057470578812182,-0.5575480782721166,-0.8961749168270686
1930,-0.9422877561810618,0.027496254920144618,0.29647197062104536,-3.6953967902288345,-2.1889740694084128,-2.8146721643314487
1940,-0.9645466870575382,0.0030589166715050947,0.2815245205146154,-1.248407651091876,-0.5590132916104988,-0.9962156640811238
1950,-0.9532126283480445,0.007154357159601083,0.29530886452658656,-3.574529658650211,-4.0832441181227725,-3.7599130839412833
1960,-0.9629774614221354,-0.002011965713061184,0.28264296197640487,1.5959949292639257,0.9018793854206182,2.2881341827421937
1970,-0.9319335904624017,0.04391128907162262,0.31003974561039394,-0.022537059606914323,-0.6620888746308545,1.1067465339963838
1980,-0.9389428687147914,0.035872831864959154,0.3134988023535248,0.2629808103445621,1.3785466155146462,0.8171350186877051
1990,-0.950947093603802,0.02148995296205349,0.29803303367217915,-1.9941506891313705,0.5771085471782833,-1.9412724892551392
