time_ms,ax,ay,az,gx,gy,gz
0,-0.8181845119129301,0.157265209873082,0.5829834012195246,-0.34279922927606266,-0.7044467098628451,-1.2350139213185234
10,-0.8197975541115846,0.14903919904044194,0.5880529655829067,1.9027948882565968,1.7822211176366336,1.749260289407871
20,-0.8207056498523406,0.1446524106822294,0.5905055878009832,-2.0897257840392207,-1.7984523370890706,-1.3314723115679028
30,-0.795897858566727,0.1703440945948157,0.6153624781106858,1.5275711288941776,1.7667645106449814,3.443555916544697
40,-0.8013941214595404,0.1747267765136484,0.6099840588355512,-0.40206401180642315,-0.21142150182041192,1.4141588897622301
50,-0.8241376317463595,0.15211124651430047,0.5865114472254745,4.060954977518045,3.488540447325694,2.8718545738111114
60,-0.8471089794457574,0.13104993875340848,0.5615078901715639,-0.47120765934297615,0.9850729073655284,-0.8677113350998471
70,-0.799883850344884,0.17779568022039183,0.6098938213854235,-6.366077736573439,-1.7457601634495181,-3.4632574119385193
80,-0.8095910496839004,0.14989191975726315,0.5983822142382285,0.05453677910429833,-1.2758889036808911,0.9968453111310231
90,-0.8289932273714694,0.1372527838472898,0.5755885323678324,2.893595937150062,0.6728977422993081,2.5320492462904634
100,-0.799329344691958,0.17349901779609045,0.6074171753860709,2.6829063294072384,2.2256681563901655,2.4765242606700446
110,-0.8060531852154916,0.17277072832629836,0.6088796526142288,-2.405253895885867,0.18624113276462675,-1.8080310666447756
120,-0.8128342204204853,0.15655099111447285,0.5915615563684443,-5.0113041184663905,-1.889135630274322,-4.273354295060517
130,-0.8149358430194932,0.15016165268425555,0.5907121155327267,5.293198377184849,3.089882977248507,4.950772251114583
140,-0.8263840245946876,0.14435730273840824,0.584423762484073,1.7195273117052312,-0.9970195406830751,2.0026598184802604
150,-0.8133327798040298,0.15677346968836078,0.5995923274407561,2.743059517610736,-1.4330240542937904,5.151439219938482
160,-0.8119973083670788,0.1539738380197206,0.613166842991268,9.234673599004891,0.44304739283347017,13.037632274548141
170,-0.813427665234375,0.14755840521810776,0.5614847916620441,14.082087673179753,-0.7967942820889045,17.574672683703213
180,-0.8495445021858046,0.008703800425180437,0.7775326631048142,24.252151058997395,-42.222675521011375,7.838385618997686
190,-0.7693997212118661,-0.19820702095986803,0.702232665839811,26.65935137117518,-53.73482424910496,-17.218923340712912
200,-0.7768464665144751,0.06755044326218826,0.48453688877600193,12.674449620362505,-52.209628281649906,-33.38768750021545
210,-0.6922311401590925,0.31424949807564373,0.5829715687135114,9.664040934129218,-41.49628921162427,-28.959548346182007
220,-0.6424888983535902,0.23783916495609492,0.5966024929264436,-1.6291652017057383,-38.710933137828235,-26.51220021616419
230,-0.671846571599541,0.37009713649202397,0.5429414248058629,-22.70659727557855,-24.285484267525387,-29.503286739340354
240,-0.6970641145903482,0.3430174958088986,0.5923766944388524,-15.272243501956801,-10.787408275637754,-16.39011192332314
250,-0.7102936833913136,0.16550971466759856,0.595468359265833,-11.808059989784823,-2.8610713333039004,-5.807018550547035
260,-0.7429640482446437,0.13170750642220566,0.6534514419201529,-17.202089536165385,-0.8080338278477844,-7.912639492465293
270,-0.7743833188828333,0.15665567748313292,0.726422358407026,-23.08582792503803,-2.383334995172369,-7.300156739447552
280,-0.7981008837168915,0.13729639046029987,0.678087296713384,-15.665821845509022,0.407013293404499,0.023141029941120564
290,-0.768222116033887,0.16991236341709076,0.6623137098101082,-7.7705255524658,8.399715589474093,14.721149651933786
300,-0.7473494432645914,0.08662314351487047,0.640664384275114,-14.782373386468128,8.832551208511914,12.25267363927667
310,-0.7725524878753476,0.10245167900032008,0.7437344585970351,-17.410200524978915,7.034644378343968,8.776450629231938
320,-0.7576906362062028,0.10428302293752649,0.7111691485947803,-14.545283617612792,7.411931007718149,7.1167034807440235
330,-0.8252547973690688,0.050182574490642576,0.6618249506795253,-24.484087500301055,-6.025339242561135,-1.5320887088183366
340,-0.7404621183077988,-0.06692974000350604,0.7440037752703673,-42.426265633506546,-13.117422921712338,-10.3012380367835
350,-0.7664793933317845,-0.03953317472977998,0.7453554093370615,-28.06384382988932,-8.149180062052187,-7.028051122117992
360,-0.7615403212788294,0.12267833647895388,0.42219034249936654,-19.57003755384359,-16.45825994698325,-14.039638267967533
370,-0.7528448901918677,-0.10364300098295237,0.4599719687143815,-10.197529005005176,-15.156394855967369,-14.351086235859833
380,-0.7985003414447915,0.09750984257143087,0.43650269498672445,37.47527078924796,-10.436400365196496,-10.466539096815634
390,-0.7996931191266131,-0.04669174429449365,0.4061860561930716,22.795848587084176,-1.2338498214288083,-26.9764863505326
400,-0.7130054936522336,0.5951325940610798,0.8260039835709871,60.11219806978036,4.380936657403508,-17.71846151905584
410,-0.7713748551730673,0.45359706275680667,0.7482774513369969,32.03461116882038,10.205949930640301,-15.452176763068255
420,-0.846629723821708,0.17928164143871403,0.5971695324715675,-2.125274895617323,16.09768902917439,-9.373101412479954
430,-0.8294334964689535,0.25502860964129503,0.6251326338995992,27.373455318991045,23.12023255216885,-12.686690646062774
440,-0.6463868078362893,-0.16964583119280358,1.1086688506084883,4.474902829457738,30.626599151918487,30.332995967963196
450,-0.5458192172382461,0.08844003541644382,0.8926959930503799,10.765286691359783,26.698543353957543,29.46373257718975
460,-0.569828457575519,0.5629021223715215,0.7044286866209034,30.886773340200193,24.574387686543663,36.93489809115974
470,-0.8568462696356258,0.8011282336042349,0.22490295893492446,26.252459840701036,18.296105191902313,41.983596792893096
480,-0.6161229988908679,0.19601860254928355,0.5277323366269411,11.024129829848073,10.89738588310069,41.68455110008967
490,-0.7359102712515123,0.031118876909879384,0.7050932262107389,6.370248750082283,-3.7109812879626154,4.1666898443075056
500,-0.794527175322235,-0.024900022875351355,0.6316542041205233,15.57356900918123,-2.4824358689634796,-0.10004653493253512
510,-0.8151194926120017,0.015760285079945646,0.610483711535351,32.73923142720343,-0.29695558700787317,5.285411582071111
520,-0.743633321392012,0.1381148676400851,0.6872286569750653,37.958475997824785,0.8805847168292779,8.870764653176476
530,-0.8126423195902032,-0.018175196634141536,0.6689408772255917,24.711325328485355,-3.625305021831072,0.38441369041230145
540,-0.6823928111278648,0.049926002030380584,0.6964642216788665,38.237192808485645,-3.7062955655851884,-32.62085327698696
550,-0.7163542333267904,0.014852564196620191,0.6326247348529241,23.349638826751427,8.737795861269218,-29.66807459673635
560,-0.75921306491619,-0.024538014112772722,0.3399495089689903,3.9096042233155357,13.802186881097436,-37.08797388439314
570,-0.7750238181677821,0.13984702738968796,0.606092426654372,37.78589138885608,15.522568500156586,-27.83203104138867
580,-0.8933885139855376,0.2699036038824439,0.6238161026173851,47.93850674117847,20.669100480732407,-15.212923620882982
590,-0.701020079416537,0.2701467876648248,0.9404255199109646,60.12256870643608,33.144280432576366,0.6753296721392853
600,-0.7485132012663661,0.6108633926146846,0.5111995243494574,15.89231348319915,26.10586002859134,7.552680148095109
610,-0.6133617504204636,0.4019724751359794,0.9889403153862539,-8.325901603472623,18.358749321545236,11.902675330248268
620,-0.6477217425180996,0.16147100388690513,0.8268807931333187,-25.513383468026788,12.276956941810347,19.643969742149213
630,-0.7791198275322548,0.4071688402888095,0.44477662035594406,-37.40648096465394,5.1278993790271405,23.070451186942087
640,-0.8239073725557178,-0.1250794786223679,0.46696144234081005,-33.47088961080846,-9.123520486845406,0.7570699350720511
650,-0.9049114691110125,-0.04205878551653967,0.39252386385619376,-36.97797346065981,-15.998094055709508,-20.863461655911014
660,-0.852051691527094,-0.026936673903118845,0.5380352093983105,-33.21702426211553,-10.038163327323797,-22.26476554860589
670,-0.8497022663659092,0.02986607069481879,0.5591667578107398,-7.481506863877522,-0.845693723487771,-9.229947071362997
680,-0.8023522275817907,0.09726693017344397,0.6013738429902264,0.5372676297214437,-1.0528099527470933,0.019685749908557426
690,-0.8117665941344058,0.12211130438186521,0.6004784362424003,-0.2355773116750493,0.3439171942159892,2.359637865465965
700,-0.8096652745438924,0.14865131043351815,0.6136484131786224,-5.247874957770197,5.8505342072270965,-5.747880405542322
710,-0.8381393454155261,0.11704081750424736,0.5802656277093027,-16.103485483669843,2.956816110460889,-14.509331647112717
720,-0.8119769382605129,0.13615147398452765,0.6107247393504958,-31.52523731369351,3.8255693668357003,-19.706127810760485
730,-0.8298010635659355,0.08043022227567521,0.5930094953725202,-46.58512762235681,-0.5951652850850206,-25.21853975737273
740,-0.8156517718348482,0.0797717015748372,0.6145265266994946,-37.00217424150907,2.0373771823888087,-18.308347925097568
750,-0.8223323405933034,0.04295166541027525,0.586266317206531,14.521636780360378,-0.5862594954647191,17.618970430846215
760,-0.801761111202201,0.09643479176913851,0.6155956491930745,18.68981228340297,-2.160273303136442,20.07649961799621
770,-0.804432638591586,0.12116786377097757,0.618595417276627,12.931348452601537,-2.0094995880347204,16.027226196419583
780,-0.7971013572717074,0.14063178672095175,0.6300450730517243,3.2898619747521702,-3.3297555539948784,6.984800972188139
790,-0.8425052736407256,0.08405345384379605,0.5854354840600744,0.7714915670383578,-1.6310423783611596,3.1574499441734316
800,-0.8161624150410522,0.0648240709176936,0.5976802083649345,0.09758658947056831,-5.661620043464094,5.106803549575138
810,-0.8056535219902365,0.0999095772879138,0.6224176250639329,10.23176799298585,-1.9957313467444733,10.695813682475542
820,-0.804506893239259,0.1244528935234734,0.6175721526248642,6.818781460228129,-3.730709266108417,5.336563999078988
830,-0.7977577580053349,0.14110627931592956,0.6166562023026766,-2.7462407985749078,-3.995294870124655,-0.15578624323196655
840,-0.8056724313117393,0.12003508062852983,0.6180451680105222,-12.143537134724303,-3.648002641058259,-3.7081938774203125
850,-0.8027781713232777,0.10423794857741786,0.6207663206396825,-3.19310373024985,-1.160179499644486,-0.7649278322669458
860,-0.8060413975686205,0.11803625628549774,0.6205960691261468,0.9253689824108159,-1.7393475378595293,-0.8201611138419382
870,-0.8079125600604719,0.09661501974174741,0.611713596464298,-2.2366428980065254,-3.3769225920562054,-1.8413398359280164
880,-0.7971343805465538,0.09859372889743415,0.6180405430282879,3.5071384333998523,-1.5786110818007968,0.786013246395899
890,-0.7939489537613164,0.10148206765295167,0.6270841761941813,11.16553744404955,1.2598418113843322,4.580427677570215
900,-0.7914168609247925,0.12724942793405952,0.6283181027289341,8.572235855958866,0.623251572844997,2.9067784197122215
910,-0.7954686254409584,0.1287964901833877,0.6275391663899592,1.1198941867589995,-0.6255142625787927,-0.22268301870961138
920,-0.807047642796466,0.11087620729457531,0.6082146162224656,2.2847796642619262,-0.7150769596161253,0.016552003943027693
930,-0.816347040807437,0.10161674475489794,0.6007211397537173,0.5052132108885228,-1.8721485442285204,0.13036204132549178
940,-0.8166397289718065,0.1067241889155869,0.6097407543541556,1.5312441131446843,-0.5281225430543668,1.4753464504553961
950,-0.7937565761266014,0.12275983041764627,0.6259413527067272,-0.780592496273216,0.9802615782510913,0.16880632180913535
960,-0.790101823120773,0.10541442349278107,0.6276468597506787,-2.218353064551292,3.161134789674626,-0.5629915946758253
970,-0.8294707140496693,0.06729782440236073,0.5908355744276936,-1.6366397810658606,-1.1159010015292778,-2.6584392567565462
980,-0.7916646360129838,0.11289921798399337,0.6312007822429034,2.2363119771864888,-0.1492679495670367,0.2738148739377898
990,-0.7871804582807328,0.10854635899850615,0.6297722889149873,4.492527603392395,-0.5002710189790662,2.372959220024936
1000,-0.8165558784421358,0.08369974276493057,0.5983353327061381,0.139502383573334,-1.031162878381531,1.1619651774802395
1010,-0.8033842732109671,0.11173410934459577,0.6115589160325028,7.228609969628171,0.7246678877291484,0.8550758336104878
1020,-0.791385977686417,0.12544500310023765,0.6288677392488131,5.471502884334401,1.663533433062732,2.1886192751123508
1030,-0.8143612614790292,0.10793381119107948,0.6044904647510423,1.6488438809871424,-0.8538036265425285,-0.3381197674759262
1040,-0.8027810910714595,0.12433213244801743,0.6189092252852952,3.724505388475242,-0.23081517791640865,0.14188623090372787
1050,-0.8107968213199889,0.11759851027913526,0.6008345520488715,1.4231268633693657,-1.8357932197524867,-1.6023439086115665
1060,-0.7973578941592564,0.12376997062177025,0.6117726064333153,2.353780935800516,1.1109431468439968,3.840775767279845
1070,-0.7855407837815882,0.12638354752197667,0.6243379672191327,-4.486933247542462,-3.0185539144746434,0.7069593827107652
1080,-0.7907584344006201,0.13806355852509977,0.6299417891520331,0.4642675228575262,-0.07290403521087574,4.284195251154729
1090,-0.7917154778256276,0.13939367784194787,0.6290973541008962,-4.618690068777449,-3.1414666747125106,1.0140514022289269
1100,-0.786934784048834,0.14053229648386584,0.6399511450010631,-2.892887597632133,-0.011011470728070183,3.416167507995006
1110,-0.8138616405033307,0.11704342821844753,0.615338670444235,0.39983976751966144,-0.6432675644874899,1.56784272209767
1120,-0.8245970672089504,0.09846933446344636,0.5975145569104974,1.76064779742167,0.9370229696545642,3.1461463516155463
1130,-0.7744391695814529,0.1605184422708298,0.6430278151023645,2.116205131625552,0.2811342015159528,1.239839186523818
1140,-0.79290595039623,0.13541597683829076,0.6228172903308093,3.764879898410894,0.2906053180434612,-0.15614362625862788
1150,-0.7992225604830212,0.12990308128249975,0.6126411766348835,4.9384230017686,1.8134731424147732,1.283481237977178
1160,-0.8114641412071745,0.12303819870714731,0.6023433352435624,6.137261166573696,0.7655147022605443,1.4224792559660584
1170,-0.7858910637471686,0.1553674052459594,0.6338330623233277,1.1650440016286077,-0.3834903165801068,0.6212926907325822
1180,-0.7977594960430598,0.14637492683802966,0.6275569063364144,6.743203224399736,2.768944845726182,3.3839449888439126
1190,-0.8321157073573037,0.10848341407701058,0.5906351096566779,4.479913162305738,2.0937088734880263,2.8544689217193784
1200,-0.7763169791254187,0.15844329733127846,0.643791812127284,0.5385227916821036,0.41275917950878804,1.374585058823345
1210,-0.796418779523285,0.1333758241641517,0.6185066342773446,-6.764575288283702,-3.2611372763620037,-2.9038542872021793
1220,-0.8032281326306676,0.12669212780321412,0.6129395568338872,-3.7957296601690955,1.0981696396581953,1.4545918688194122
1230,-0.7951094999949502,0.1296312899705196,0.6325422890348965,-1.91914768310073,0.20966180026650805,2.0107007125592653
1240,-0.7879127350153369,0.12944779099079978,0.6370963318135464,0.5201823815031065,0.05086702579385238,3.049616913236769
1250,-0.800213475659572,0.12578678933565235,0.6198935204231505,-0.5970377940355354,-2.8150516087594615,0.16238944544950096
1260,-0.826012706182877,0.09555168315290075,0.5887957996276594,2.7633664244101372,0.2607163123695755,1.3582402066219161
1270,-0.8002725252825837,0.13320616823226683,0.6129150627909821,-1.0881234761399892,-1.7353290589612236,-2.9235171215227593
1280,-0.8175558760967414,0.11893225422930016,0.5975250051807531,0.8665287557427451,-1.0172180334544085,-1.7626347074426008
1290,-0.8071936682585882,0.12801129048129323,0.6135961456813683,-3.107137021843001,-2.5553715582792726,-2.64429755977451
1300,-0.7844985144589831,0.14242574460948088,0.6329781971228213,-0.4731961106728384,-2.4694355026364145,-1.6816261900893086
1310,-0.802910676255384,0.13126616652295298,0.6155158464027618,2.1383801548204913,0.190434819331746,1.63476852433428
1320,-0.7611474436113838,0.17200111154488748,0.6601002472314514,1.1288681231066926,1.185531959793563,1.8327365938903908
1330,-0.8088213383158291,0.12320413835269549,0.6105665027808964,4.677896951371074,1.895835579383814,2.8754792370990416
1340,-0.794992059641972,0.1377642365868773,0.6240140514333367,5.293270848153288,1.1861829152649284,2.419693927053701
1350,-0.8178890345436591,0.11994851291844968,0.6004026228352857,6.653074165810712,4.009157493080131,4.996694435914001
1360,-0.7974013402787623,0.15025675653758483,0.6113429001635781,1.5712072974682687,0.6794243408670931,0.8472620896899417
1370,-0.7788194198452054,0.15469056980056978,0.6332294694749333,-1.882166457594407,-1.5610650704830946,-1.54822605009519
1380,-0.8189242276165801,0.11864863358909195,0.5899104539567093,-2.256071794568266,-2.4114910725686682,-0.9411206322938332
1390,-0.7802570456810163,0.1593186404211372,0.6329635235732348,-1.1278454739183386,0.20826098789699202,2.5296400594863595
1400,-0.7978133837618087,0.13947865433576043,0.6187177221658792,-2.778764197529621,-0.9115959968497734,1.2168242844102295
1410,-0.7908573117653077,0.1448300988951306,0.6282449499168397,0.3642413417567837,1.0851386309392055,2.2506670297560913
1420,-0.7970654028292213,0.13436135743991878,0.6236312479809697,2.8897536800189045,2.319490151157889,1.6923622359148243
1430,-0.7667889097337401,0.1690759613011478,0.6513072480670493,1.5298708976290605,1.4517249729755926,0.7790304646175675
1440,-0.8062011431360316,0.13297016736117917,0.6152433512601085,-3.0188970571426466,-0.6465942265197334,-1.2429857914071842
1450,-0.7665997626380912,0.17224480198972816,0.6544288057494455,-0.9055602628305608,1.029369841396611,0.293103119196672
1460,-0.7905960059410015,0.14377017662664904,0.6264930850554182,-4.667079389793561,-3.463071797161688,-3.333488647158906
1470,-0.7997984628563932,0.14808328371583318,0.6176327958840854,-0.3788970723652103,-0.2840836482974716,0.4520368727386313
1480,-0.7985908029827901,0.14697474469038263,0.62282181462306,-5.169857902569159,-2.2361673863232,-1.5776896631249837
1490,-0.8093058885487091,0.12748516911662272,0.6078724337975081,0.047281224306681136,2.419234867754595,2.90477894332766
1500,-0.7887763515433508,0.14165417012012665,0.6257585388318804,0.9337392486117414,0.4872311296670425,0.9139277934163887
1510,-0.8069106051411638,0.13846251740501025,0.6168300617156188,1.3644738694937666,0.2382400908663901,-0.11842245987058364
1520,-0.8180341102536786,0.11808084183037083,0.6027816826126817,0.6557375298818737,-0.07386098262299468,-0.7862699965464801
1530,-0.81790709096706,0.1128359314073217,0.5968872825681895,0.37289553955745935,-0.625040294477942,-0.676010285091901
1540,-0.8098110181644669,0.1283067599098363,0.6104362336268561,1.2595436700574945,1.9391608478338516,2.395298881370023
1550,-0.793062889675933,0.14341421994912754,0.6246825682938041,-0.9972179139076878,1.6783171157851176,1.186856833580469
1560,-0.8142608595666965,0.11007537920869158,0.6035793046958563,4.104613807641041,1.7934768346426073,1.6177124194798467
1570,-0.7977632638788271,0.13234766729278843,0.6168634918224281,4.906581467799436,3.3273460099792245,2.9272130393927878
1580,-0.8009175216606446,0.13793662553871372,0.6146659778277714,-2.7806845275547554,-0.922431123902282,-0.5982481636074523
1590,-0.8183337139052103,0.11300286445248539,0.5984135381974607,-0.3973051239823313,-0.218731068408326,0.6706913607801922
1600,-0.8086006475393065,0.1354571948740485,0.610974875350193,-0.6917657261877199,0.029045570934737752,1.1523174495286963
1610,-0.8182525708843972,0.12454468078824629,0.5997054065617582,0.1582760875368463,1.6772918022211583,1.9112208541662952
1620,-0.8229408197223189,0.10785085818591517,0.5929514801375276,0.4102860638770095,0.9109250028891268,-0.021812176485029033
1630,-0.8137277035479012,0.12107590926682689,0.6031321007155169,3.787136282392706,0.2244256149721673,1.1436938954278333
1640,-0.7993707036265403,0.15023491347584042,0.6233980963321556,3.584023550330471,1.904023175616794,2.981972485034274
1650,-0.8157711761694185,0.13320335015709528,0.6027533272312112,-2.112002380872607,-1.8959651599651988,-1.741435165254285
1660,-0.8117978294971698,0.12475300399351937,0.6046177317673476,-2.827580305668952,-0.3636630281863904,-0.5924471810321009
1670,-0.7885813964116596,0.14340763591374137,0.6230417700881068,-4.154814552863902,-0.9763238384417521,-1.7907421089453643
1680,-0.7681394313325008,0.16241739718954218,0.6414420628766436,-1.858056529282321,-0.0845215537991023,0.29225819897776406
1690,-0.8186812871046816,0.11732490721262596,0.5986392875915707,-6.004504112870117,-1.9280197881738725,-1.83575301632817
1700,-0.8149076143599312,0.11710615512634981,0.6030982558556806,-2.0058237270399895,2.217418924369646,2.105265308875806
1710,-0.8114525546284693,0.1170391794324995,0.6044603415220617,-1.3224591510577404,0.39782521322270753,0.45461214036199854
1720,-0.7962736028452532,0.14329164641508943,0.620703683988198,3.440772637578046,4.009407909052383,3.5091846568441794
1730,-0.786027329848093,0.14955793624157826,0.6318210268247056,1.1063420219491626,-1.343997041655083,-1.8046611435229944
1740,-0.7934635290358368,0.14998334790474988,0.6318711764633526,2.0897230337086325,-0.49218298577274555,-0.4705475003868872
1750,-0.7776799879216296,0.16153866260847713,0.6381766994261945,1.0662689357644275,1.6348593282299748,1.602613223540084
1760,-0.7874113283679695,0.15501665213915772,0.6269318858031078,-3.4745458355046557,-1.0575817003207166,-1.0167613973307597
1770,-0.810216983514973,0.12366631615970788,0.6084498588828916,-3.0927235214433573,-0.20918426450002867,-0.6520421743916658
1780,-0.806192210769564,0.1327502558221151,0.61544575889755,-0.2703176755889025,0.36323300647841567,0.07952833843281049
1790,-0.7910384944165078,0.14014432074022945,0.6271138152156757,0.7913395176920953,0.13518041214937326,0.12411243461542365
1800,-0.7888141443837092,0.1373528430667623,0.6295697526992436,-0.4192366446859057,-1.4333748283025898,-0.7370463417472586
1810,-0.7893738252549263,0.14416575743691887,0.6257528432508632,1.6059231277561412,0.16261101055470276,0.5785892914960307
1820,-0.8161197129298089,0.12066008772231801,0.602134309269751,2.179949905682288,1.4739732995610284,2.1814389682008746
1830,-0.7934529761985898,0.14593026850320917,0.6259144773612761,-1.3846865356664209,-0.20266027592020983,0.00953051355913348
1840,-0.799518217241286,0.13612570362667686,0.6129262019987273,0.4533826509652714,1.2901056855661444,0.6109037725011514
1850,-0.8045015887575918,0.13032740215021524,0.6116502211698304,0.6175162968447084,1.5983047825518493,1.7177270747827489
1860,-0.8007162578832111,0.14245869494134974,0.623502869841866,3.338356666611928,0.8610770755445498,0.9609619318581835
1870,-0.7832137478643286,0.1534733851230529,0.633418832324465,-4.6441799426578205,-3.84256325511044,-3.633523817963087
1880,-0.7896408564661882,0.14695036855896,0.6286611358399694,-0.8809480210618839,-0.7204409234227908,-0.6986554602928929
1890,-0.7905878695757382,0.14194419727778423,0.625483348225347,-0.10882948995119292,-0.13607385391760124,-0.6975267462681863
1900,-0.805187195828729,0.12278768066782733,0.6145237656679611,-2.5044148447473584,-2.865351885083738,-3.0884098662387456
1910,-0.7960963051998947,0.13710803672372956,0.6241453886511695,-1.4279636189785898,-2.1038245718584903,-1.8965366462480389
1920,-0.817394901326933,0.12698923247247929,0.6027488271221253,-5.184294251510554,-2.779731093643015,-2.371825725396679
1930,-0.7793733228865907,0.15641982487633013,0.641810345141556,2.324477692651733,2.9363359317966893,2.6536071983289515
1940,-0.8140624804092269,0.12447733726799556,0.6053133216281049,3.379656628786825,2.3219858278973486,2.9817469156186736
1950,-0.8062249750651437,0.1297006000661527,0.6085971267919354,0.18086145317954594,-0.8714250445172624,-0.10619875743051921
1960,-0.8087743442827006,0.1259533773890331,0.6065271845043346,-2.5457470336890813,-2.956055691578944,-2.709949518899883
1970,-0.8072378824451916,0.13978660087449127,0.6137539095471661,1.6827222665341763,1.1303364525470372,0.7204394391939534
1980,-0.776295925532524,0.1660736468939733,0.6417678284358489,0.37962322469685544,0.8304069035394233,0.709304316754131
1990,-0.7939903078615367,0.1430069167950761,0.6188034288921689,1.8379504318178752,0.5801493084679449,0.9189123168867762
2000,-0.7874130159283179,0.1491444451950271,0.6302282144657908,2.464388687661634,2.4355038141564234,2.239142892181365
2010,-0.8094808151726471,0.12540377591075377,0.6081367142489885,3.6002279751283304,2.8294732553861435,2.174804061747319
2020,-0.8146552635031978,0.1230975332380617,0.5990688292789245,0.8778899348705449,0.2772239550589831,-0.5531662579541728
2030,-0.8021291006126449,0.14134947334005987,0.6104735658325523,-0.534055313055501,-0.8843191505898919,-1.6335946414163653
2040,-0.7862143872988044,0.15223783416092448,0.6295721082496374,-1.4744322059077446,1.1151972490962816,0.9964614285786161
