time_ms,ax,ay,az,gx,gy,gz
0,-0.8623822755014372,0.05230246237878274,0.2861659157611077,-1.8740324283551626,0.6051300550419254,-0.043833863336770196
10,-0.8730709364353926,0.013964818085057212,0.2824741341650748,1.0387924894606497,-1.2786235389210847,-0.19432671062979723
20,-0.888746190747689,0.010313407319922464,0.25821652951127294,3.1371805214990363,0.9032602281165913,1.7812316792367575
30,-0.8635168837054162,0.03376390756233208,0.28511435265422574,1.5915364620312582,0.08563451546462464,0.4951988840471232
40,-0.889508331986022,0.006304948525582778,0.25750322734849473,2.088760886743803,1.0285988797064087,2.290400664089626
50,-0.8656985503169164,0.03564911790242567,0.2851620076647972,-0.769684363977447,-1.4527118444466376,0.021150354249224512
60,-0.8615415366245377,0.03651891596811046,0.29235748421467633,0.7768365822465605,1.1045204112328397,1.4741677483181765
70,-0.8926023276555829,0.0051413876607482156,0.2593594651840996,0.05798304020376677,0.7906815270502751,0.26983897618119534
80,-0.8551720288338103,0.045467459663380255,0.2983196701793341,0.665088943981271,2.1082777686592387,1.133112975965869
90,-0.8714242214880111,0.029392894088754572,0.2840499052404575,1.5289047625826502,3.4249010651889824,2.3595750082080427
100,-0.8778579389483463,0.01880857877369404,0.26988804008540823,-1.7185661486839412,-0.4527176630206966,-0.6552267979602104
110,-0.8757854032843093,0.01401965388185177,0.2686275678245749,-2.3429738434029055,-1.2082976062383821,-1.108878788455057
120,-0.888585298292974,0.005646398536948108,0.25974061344352434,-3.7251435049182486,-1.7319822768365816,-2.1903750959595976
130,-0.8686051168898329,0.03052770876062441,0.28110996438628444,-3.5977924862136827,-1.4344753533904815,-2.258531039614398
140,-0.8754002613800861,0.018184501272051665,0.2732397892878007,-1.2376965415189578,0.220212216880254,-0.809408097971819
150,-0.8577125096269296,0.029036019346212513,0.28659963016838413,-0.19332783013466653,0.4365203073263159,-0.48078129765198746
160,-0.881385154706936,-0.0032129048079394965,0.2614196878560454,1.1602688681778952,1.736543065395527,0.8985084370379802
170,-0.8689515078385418,0.02689853321511213,0.27839221735792774,-4.232362089768176,-1.818466314288323,-2.96688409707364
180,-0.869242666745436,0.021519237721425236,0.2758856506898039,-2.347018617426076,-1.2265990829093196,-1.4272196523279639
190,-0.8585122895530645,0.03039442969007739,0.28707982380534164,0.49608439396368686,0.7754635428685585,1.044239830610483
200,-0.8607955698928486,0.03555095368933717,0.2824753195160796,0.2993291220499313,0.2759473705711455,0.7170904447049096
210,-0.8698184330500369,0.02853407510289708,0.28229678217735665,-0.8906705097832971,0.29475404820816553,0.0366428096065628
220,-0.876859567336986,0.007927797799337704,0.2744001780736885,1.9139995498049087,1.9360279615047866,3.026036310052527
230,-0.7598228709294162,-0.03451732086928608,0.2322601813147336,28.05455386866051,-8.991987303659332,21.058545808187553
240,-0.9570766907305405,0.024154699162074023,0.2640409527768386,14.196862811400756,-4.973950447298246,16.340330043630725
250,-0.8863026022245362,0.04177318420542342,0.2985257255411797,9.428691565249345,-10.129790252609084,7.998197842695176
260,-0.9859129682191361,-0.00412230173212647,0.279457108739968,32.376887315612336,-9.128952649723846,24.070948602888347
270,-1.1336303208162664,-0.08701007369873516,0.41495997381140487,28.365533677237,-18.265300738509207,28.619288931363098
280,-1.0672090789981663,-0.2399106755427147,0.33205238973725687,25.507854308190627,-33.81435574840479,16.325373372394125
290,-0.8217750644790226,-0.07037904420630053,0.34798344965324673,51.09930787729421,-40.21183497555801,-9.962228382477456
300,-0.7629845812936097,0.04157002814205353,0.2962316248825361,61.605010286892906,-39.74632204583359,-14.390926157215112
310,-0.7609694248780141,0.11122444628821797,0.25633211145246737,46.29699040141749,-34.91731943271359,-13.342040501052912
320,-0.7486188368130946,0.17669074494758152,0.3405725562135749,22.013467454817942,-31.873219295657734,-15.918701216637235
330,-0.7357640935109805,0.20763467791187257,0.38771633983254733,8.691545497487379,-26.27769880300528,-10.59827360885027
340,-0.7415410661000176,0.16126240346037995,0.2575631624719811,-9.186703113552895,-21.672351591268068,-10.39857785533667
350,-0.8419734335278286,0.13936208432094024,0.24752290292962542,-9.417551660381644,-1.971390633431532,11.732024549125148
360,-1.057965222814116,0.08744957175534548,0.37280736433039624,6.513679801115606,15.623343757715705,42.71658792407245
370,-1.1131943091534324,0.00417323269370324,0.34324870328672186,11.332921069496699,14.781304336366816,46.069508960413664
380,-0.9513838085532476,0.0639104781616566,0.2583853464381247,25.193422617737752,15.019388509629351,49.459890524612234
390,-0.8538874412356163,0.08980871845625465,0.28883840962699925,48.3367383776198,22.51539303324551,61.095978435917175
400,-0.8029358571867936,-0.021284729187054596,0.35092877632004293,31.7238830222562,23.953938475207096,46.24664096506446
410,-0.8130101499671188,-0.015955202728774015,0.4207970687203898,29.30286601441581,13.392269622051893,13.670786634949383
420,-1.038617324314243,0.0325844387009694,0.4320641830109676,13.348795805166008,-13.547662840564348,-24.611416913169144
430,-0.7820611652551184,-0.013568258543419528,0.25816579951302565,-4.592832261768285,-18.96340103807863,-55.349542646181895
440,-0.7274042675455269,0.28258175524315265,0.35517009924596116,-4.148176804264575,-12.455193400779486,-59.41283436266014
450,-0.8255649990521553,0.5762847138787008,0.4540755863840153,-14.969139987848447,-18.864502260897332,-29.68285788110818
460,-0.8573053885842524,0.43113596813743105,0.364448856919711,-15.797434870474973,-30.361802245613877,1.267731827765863
470,-0.877500210777065,0.3156136976906457,0.37079914497120653,-40.08708196878456,-29.348968804989912,1.133062051603379
480,-0.6986595088682973,0.02795516868839142,0.31090388190893586,-76.68353667098732,-13.71029794149661,-30.71197988130217
490,-0.6206794281552437,-0.02416711119600666,0.27278397543070854,-88.04449793606415,-3.0459261000131685,-46.851649332434626
500,-0.6912752093187704,-0.09614562065883073,0.22587036450718695,-80.06020718466988,13.50504986556836,-47.67082597833429
510,-0.8636047823023606,-0.180663352681956,0.33018190370048683,-76.00065498023287,17.542033678551178,-51.011930946167915
520,-1.005870998253199,-0.2506968206725806,0.2717363998699273,-75.91403229010919,6.657140497740167,-54.99381640385009
530,-0.9946378889733201,-0.14780300524159756,0.13660248486220455,-34.820539139141324,-2.2268936429856168,-32.888107348741876
540,-0.8696704665551247,-0.2172388144796609,0.12401366379281036,-16.630359539180187,-17.28352441403838,-44.014463524899405
550,-0.7515047996417185,-0.21857636239616168,0.1206848748532448,-23.728256690659226,-12.828701094429727,-59.08844444890115
560,-0.7483944549128417,-0.21930852415470622,0.058456985818774274,-29.766148198781707,-4.384624292937297,-57.097947201148685
570,-0.8906409429119955,-0.024050960972080482,0.24226075453632356,-9.546164993671626,-3.604319757417626,-38.21305668535156
580,-1.0143075512665836,0.1892926335629872,0.4343909301077735,22.977475608782964,2.6189898300618966,-6.524581229390452
590,-0.9730016241561361,-0.02309558405165656,0.3491896667095783,41.611501916348125,5.847156016717103,5.032393185528561
600,-0.8440330645482824,0.00967019096875011,0.3881581886005085,71.70362124574308,16.431575490197776,8.410511679498834
610,-0.8911474475791358,0.1860963759657218,0.32085652219923344,73.65270288575847,31.024284380341875,17.710030393150845
620,-0.8480280273282292,0.103063219137393,0.3361058072751451,42.92484176393972,37.86761146685716,26.43186131941048
630,-0.6938007266956955,0.08389670777891481,0.4066050575000185,39.778501100939444,38.665754688309676,40.37822553579764
640,-0.7601395600941654,-0.15015527235424433,0.36116459344212304,15.256224436738602,27.348832745564525,31.12410291835328
650,-0.8196210177829594,0.06592841569279244,0.4100677618124901,9.621912119955981,15.842644850643058,25.057492000902077
660,-0.8445009433277213,-0.052553935457853904,0.46627081648141316,2.0773209933941708,9.689520457850543,22.066200651898058
670,-0.8551301771988798,-0.1147009222047484,0.3692953258461602,-19.22650414320167,-2.27109048885421,-0.25958132882348295
680,-0.8407874739100729,-0.1451361669886575,0.3539161468131592,-1.9680151301468742,-1.6057576875510409,15.033056203919706
690,-0.8429643164159522,-0.1879082778084678,0.3036044833913184,6.898057273283138,-8.280555595747957,19.02180199925217
700,-0.8767468858189306,-0.10898780583123614,0.2881842232338771,34.503670188943886,0.24854224104312728,30.310921337225114
710,-0.8640492606747502,-0.04151855432309511,0.36157136908694726,47.56762241285757,-2.8668471207992647,30.832404845728732
720,-0.8431330215374319,-0.09554221582921665,0.3035022929621391,38.082491813542205,-12.704926681968539,9.857266848202897
730,-0.8566826360833962,0.05156070302111074,0.20856619455686645,41.78432228877445,0.3083063753377644,-14.527067120675639
740,-0.8146697088416587,0.16164648627135988,0.14861665562776172,49.57380705891916,4.163847980244559,-19.397500038207546
750,-0.8739916979728218,0.07788700074296737,0.11740329957065217,36.09466132764404,15.658649472312739,-19.679166307896217
760,-0.8577173674734764,0.135161393305972,0.1461967283771073,18.9783629285739,26.918896499730653,-25.302026963708137
770,-0.9237941104677407,0.2629614362060994,0.3098977412906181,43.950357239240255,32.14507171121988,-7.300924049676417
780,-0.9617886678434511,0.27295063290742094,0.413974193345576,55.24609716699291,40.00565814086523,5.019458307750302
790,-0.8578524004944313,0.1826718661959225,0.5335617103477981,5.127444390780935,35.422426320508436,4.0682994132012915
800,-0.8375693674651945,0.09360114718008478,0.4877098102835372,-34.68597005403234,25.293530464550884,14.051687197764736
810,-0.7660943718089446,0.1798704775459306,0.33334083982978924,-45.592288166252324,23.473741058785592,21.22042516733896
820,-0.7768799715696781,0.08980515571681597,0.20578047966627866,-65.83582933445562,13.178954345949522,15.306549067002797
830,-0.8489216947316655,0.04189216707515448,0.2136161669801658,-46.73848838559783,-4.9803829645079345,17.279102902537257
840,-0.85737576579609,0.1479912755560157,0.33934301231011776,-10.892015350520268,-18.741632673705162,25.162601388189774
850,-0.8588686961941263,-0.16132097928292347,0.2932499430917778,-10.466223551468154,-13.622699304655578,14.729299145515869
860,-0.8702237576141328,-0.09039010699435221,0.19872924483797563,17.123234819857863,-1.931455439422297,-4.1881938599002
870,-0.8717527241899764,0.03370087365535754,0.24725365826979084,19.78629083366694,-2.5411961333762534,2.0024651255119776
880,-0.9043368989135038,0.00960522376479114,0.2492550355261897,17.459739768583287,-1.6533946136181652,5.129475310138807
890,-0.8802996493227796,0.0665382342748533,0.29399120058936024,16.381072484847788,3.4378337944570503,8.268064495898908
900,-0.8868079079136445,0.08175344766156248,0.27639686065735225,-6.425195301140457,1.6675836838366485,-5.193786047074515
910,-0.8743327819412104,0.07424577275673756,0.2854628812190839,-16.781229860054157,4.153679695518594,-13.710398536229185
920,-0.8637682187640328,0.030338937664680102,0.2975450915255599,-6.568084161227664,5.944749408398593,-6.813685167178703
930,-0.894520968867718,-0.009371976447650235,0.24646113788779417,0.4693163724273415,2.1925948196742677,-1.3832952327358146
940,-0.8943179559767088,0.00869379241955856,0.2636913729110351,0.07588534499115163,-2.2423575520363395,-1.460498637300099
950,-0.8532937154196931,0.047426390315943125,0.2920290061287259,7.0864805761576255,-0.9574058935856129,2.8197948055762776
960,-0.8740020266560511,0.032711959853325964,0.27137183917101987,4.9247120094973775,-0.9801974963460709,0.5453847104161826
970,-0.8771018383018421,0.029141025707994494,0.2735990459384817,2.4440795125624724,0.014606258705017472,-1.363336192405329
980,-0.8578767122828531,0.04584839284286105,0.28727102164902063,1.4655624592837668,0.9023352171395158,2.674449589830205
990,-0.8949093033280848,0.011915017829742462,0.2547991839087631,-0.8839254052616258,-1.7246137643093502,2.5220650220339698
1000,-0.882296147979105,0.02391031948932741,0.2766933399835203,0.303147414969285,-2.06537202940542,2.4693288226058825
1010,-0.8629319650692612,0.04653677359055253,0.29456216655612333,0.8129703896285647,-1.1511783758226113,3.040317629471608
1020,-0.8837948387580357,0.02816320644867862,0.26807990491362144,-2.745947862804914,-3.1863587771264195,-0.17237207157757561
1030,-0.8795383648901379,0.02651351610915886,0.26952914715273296,-3.84994306444549,-4.399795345320534,-2.7692818318037644
1040,-0.8887570821720291,0.013363336805699774,0.26155339443466213,0.4086704576087994,-1.2756706700488925,0.5685271666045134
1050,-0.8533125606498095,0.050774494287236134,0.2960938707142828,-0.861318020210422,-3.643746172055488,0.3206429136260298
1060,-0.8757893316246265,0.032701136402293836,0.2657640288807127,-1.7609509327610087,-4.312122633140188,0.5485699237516486
1070,-0.9015422515356282,0.0022600919622547573,0.2495097059303977,-2.60865611148951,-1.6967653128653999,1.978842832439939
1080,-0.8812930987357049,0.014118666057506089,0.27185352589491213,-7.7433012133177765,-4.505668159222017,-1.0783620611858076
1090,-0.9040191216505783,-0.017272188522709273,0.24368257829260992,-1.3792705493835298,-0.7984153203721908,5.585112549698544
1100,-0.8588513080926867,0.045538895729055485,0.29762307320842507,2.3501209745672176,-0.815752444575772,7.945938383306032
1110,-0.8689211689257832,0.056547080757944096,0.2932865175305853,-2.9713305476478276,-2.498348397390004,-3.5789929575684316
1120,-0.8804280612161534,0.04068399538230997,0.27894187576991936,-5.746676711830171,-1.7463127054585061,-6.771510103036335
1130,-0.8971693956429847,0.00764063785751784,0.2534676955886774,-3.436029835620802,1.256825394701713,-4.075630819170398
1140,-0.871373827823752,0.02559396498442811,0.27173957450985275,-6.967330863074325,0.4827326553863551,-5.683318859009585
1150,-0.870939001458916,0.02132503838522374,0.28213499790741,-3.693602882151279,-1.0630740651384682,-3.4685290270129148
1160,-0.8575465176250864,0.05262239098264251,0.30048948106597395,-2.853305711530438,-1.4899471001327516,-0.16631757327577434
1170,-0.873108307512917,0.03167103495150052,0.2802024847673492,4.567266679000657,-1.5815224308499838,6.531819881042269
1180,-0.8831724101612382,0.027138879312110488,0.2697652252124511,2.264139833039586,-1.8230283669443517,5.04792606595748
1190,-0.8917378104692226,0.027822635374835206,0.26042959183911,0.4857899510691889,0.524121933565536,3.5269952423623936
1200,-0.884707845757056,0.03235792346825751,0.2713356294331525,-2.2266512690322546,0.5699036509575712,0.7617267258916589
1210,-0.8665139222157773,0.04122919957368825,0.28582567517961494,-4.320621507032342,-0.09789609886062792,-1.6705254419973108
1220,-0.8624661676475959,0.04302518968941124,0.2929906329579322,-2.9119545637861175,0.7430240438609665,-1.1298012588541337
1230,-0.8722932445149868,0.03414925169791815,0.28584714785258575,0.6095708998604961,2.281997345061199,2.098713882863113
1240,-0.8767791742719222,0.028821772593377117,0.2776510594224383,-0.0189165848985616,-0.08752062648163642,1.7463172210028675
1250,-0.8591110412276912,0.04954951014915029,0.29488304190960424,-3.3020687600148433,-3.492542044676892,-1.0670243533589776
1260,-0.8527671530959867,0.06301969762081977,0.3035636522606212,-1.9044234899261576,-0.6585066559092134,0.9732633239729599
1270,-0.8662938179090626,0.05193608573555398,0.2916465475715746,-0.6946801191012555,2.4679054813259254,2.9025971339094565
1280,-0.8667381634494957,0.048815165608643483,0.29200111190663475,-4.032043767884342,0.3260016060658975,0.12323453591257783
1290,-0.8686146061472786,0.04402145838680953,0.28774379688424756,-2.9553473890604387,-0.9026276186653781,-0.26374388132795723
1300,-0.8736706795715861,0.032366224431545805,0.2810759669125273,0.6662199142567324,-2.7034882439168135,0.7422805833683639
1310,-0.8929067195160652,0.020223315233156746,0.2659968611032178,3.6030706430464603,0.9407318392501804,4.062505519404448
1320,-0.889830774497438,0.02596967757929677,0.2695618686321451,1.3112636834282054,0.8314230089492572,1.9703874212659875
1330,-0.8782803106787023,0.028651623735974574,0.26993935000346025,0.84252635475135,1.6612320547590165,1.0900474042566857
1340,-0.8715003223643836,0.04160156791248667,0.289464436552023,-2.8916507998001686,-1.195498126605307,-3.1144189485042846
1350,-0.8713619376000833,0.04542903473444505,0.28753391057619665,-3.6725202870004523,0.2213910970483844,-3.6174942318877736
1360,-0.8561644304319143,0.04618424001473362,0.3024831058759201,3.830077807197407,-0.17032802464379487,3.3853350591167892
1370,-0.8868170461526297,0.026298102480780242,0.2714595094664501,5.621554079682143,1.172249294126866,5.420536025117038
1380,-0.8782366567366332,0.033571273680387176,0.27979395807474666,3.300967700135784,1.1347297163060175,4.1958253217778365
1390,-0.9037567781664082,0.008629012161772982,0.25241382159942216,-2.5715931306376545,-3.2478371006524225,-0.9618439117892228
1400,-0.8652264571907451,0.04979027252996783,0.2867922439548795,-1.0376211817568393,-1.2320587852743725,0.16387148859410083
1410,-0.8817582651778787,0.026536529521653904,0.2698610373494114,-5.667803037787646,-4.8878222330052745,-4.184341349151806
1420,-0.8500240374266494,0.06101741889535034,0.30810899583731605,-1.603379016501939,-0.14540320351449815,0.37694669055578983
1430,-0.8664087239396165,0.03878601549275698,0.29333057095419174,0.06718117196017892,-0.926262358128164,0.9359845427326812
1440,-0.846119237341908,0.06117461327475864,0.30804978073255107,0.5655817223744044,-1.1057230566000946,1.0889582186754336
1450,-0.8671729906761244,0.047585977452762065,0.28519246919342345,-1.3163771114197471,-1.4532389078366663,-0.4633835160754902
1460,-0.8711120250020434,0.04208593544450596,0.2786238103483217,-3.2358130017173643,-2.0888516466004603,-2.4216332714741404
1470,-0.869651144778516,0.04287529915223059,0.27846800070005223,-4.1765762431078315,-2.2246758737118277,-3.4801813066847505
1480,-0.9026163041074489,0.014044882715691178,0.25103468828039494,-4.065268967353125,-3.0207587428865548,-3.8249167616748916
1490,-0.8707298305087515,0.04799712367536618,0.2885426947059096,0.35346427549080695,0.10595392411902654,0.202138364782574
1500,-0.8655766950640262,0.051824073011079844,0.2951949080517364,1.5077082529065944,2.330713535259889,1.621964213501412
1510,-0.858067510448163,0.053922846259754506,0.30270539708046645,-1.9527159802005907,-0.42313551958546675,-1.6273978697319573
1520,-0.880645379787523,0.03437337596475243,0.27996012086578625,-0.11404400717161489,1.8066369254463848,1.1151786891511009
1530,-0.8892719275525608,0.022316532738726465,0.2622826710981577,-2.8893091894368435,-1.9550596227947101,-1.8944294866186024
1540,-0.880719725723539,0.02748096508232744,0.2666599404761552,-2.8906389175115197,-2.5073071628470283,-1.6366065662437421
1550,-0.8761217514601737,0.04193812643251464,0.27462257232050086,-0.8801805048392118,-0.27154047822882443,0.8408521004235288
1560,-0.8741907754440327,0.045005797775125554,0.2815459199183948,0.904169413528706,0.396840837892633,1.713021171137486
1570,-0.8490570943185041,0.06402876946876425,0.3056891338650527,1.8867813989169722,0.9744301765293457,2.2421198689511335
1580,-0.8774390630035617,0.03924717049001614,0.27581951063195254,-0.6477162906027666,-1.5921192599091665,-0.014209480740806857
1590,-0.8895362078324083,0.02727841246153251,0.2693895815939138,0.3965506464654496,0.7236033384116843,1.6326279358959905
1600,-0.8734010713043439,0.04935306516309316,0.2840234276701229,-3.8708391437425584,-2.5007200628328494,-2.699853549270641
1610,-0.8903367329730852,0.026326636292952524,0.2676655851757678,-2.6517577907737593,-1.644342768900938,-2.1142609481324626
1620,-0.8847748466008417,0.027723416620874214,0.2710447017457823,-1.4582908743023788,-1.0713467170907658,-1.0066821945059667
1630,-0.8923759406058387,0.02638763845807829,0.27122483838606637,1.9624536564456487,1.6236314336203903,2.213538306674313
1640,-0.8722039904253814,0.04990161610911118,0.2909405579481397,2.1334751694701835,1.4917922839428945,2.1645734220894157
1650,-0.9108874942852614,0.005108736685542591,0.24327624392011193,-0.17760857538658992,0.5804548076222711,0.4704679997096512
1660,-0.8674495223208192,0.04370244937560499,0.28577646013686986,-0.922811935356477,0.6202307433281717,0.04153868724441789
1670,-0.8704514213162822,0.041081293732650015,0.2850952618697261,-0.7650635526078293,1.5211921164759326,0.8858480890482258
1680,-0.8884464208811474,0.02217510181150581,0.267947718991524,-0.42837018429980944,0.39681262783123483,0.17756851775365806
1690,-0.8778093427518505,0.03492770415488709,0.2789248500766582,2.673362227588783,1.02035724840852,1.8577585438799566
1700,-0.8728807443448108,0.04321176671896508,0.2813948349957541,1.6131301199219852,-0.6546491775452847,0.9565265603847155
1710,-0.8403640117520939,0.08282475842810616,0.31594807427547417,-0.6297347572499352,-0.2233386682448702,0.5269000868690054
1720,-0.8764534404756863,0.050942682927571675,0.2872514892204639,-3.996485114616136,-0.9104011212265394,-1.1324848989424305
1730,-0.8506925119106393,0.06361552741508424,0.3090152738896652,-0.47636383010822203,1.2333360331847993,1.1876462505587382
1740,-0.8768335454212155,0.03868732551173752,0.27691546598331324,-2.8337509762871482,-0.7492989218919401,-1.9638152813654113
1750,-0.8764344538973396,0.038475698565315866,0.2834334477905029,-1.3019395431877334,-0.9470638774679258,-1.84487410522016
1760,-0.8660904322660926,0.04635066322167259,0.29389923920424754,1.8397207709519137,2.3160998728597173,1.6077745185261525
1770,-0.8627506661057018,0.048232834953725906,0.29391488055476417,0.775580805405106,0.9794966181374697,1.1708652054610722
1780,-0.8374672518215375,0.07847810016526342,0.30958546434765577,-4.17046244234137,-1.3235380222920814,-1.8834652370706948
1790,-0.8632768777530407,0.04756588267585238,0.293113327546381,-4.387857834042633,-2.054310617024007,-2.3326982386629673
1800,-0.8644672021665788,0.046602081956555,0.2969736287545349,-0.8863986839441422,-0.29076103357126076,-1.063735264466779
