time_ms,ax,ay,az,gx,gy,gz
0,-0.8426340321142737,0.08997568259663428,0.3523706710273008,1.3880116341700903,1.4957837072810691,1.1925211796324007
10,-0.8379568221675037,0.09516939764594336,0.3589896366105672,-4.729826253804297,-3.763329621220607,-3.8526273782642
20,-0.8444326378367663,0.08647482053638943,0.3654264071289011,1.9162095847443,1.793570246553435,1.764474448912456
30,-0.8205092835915133,0.11507521140240168,0.38052557088733624,0.4740102446908821,0.03959652327358385,0.43501074145237506
40,-0.8185899185134585,0.11362434601786603,0.37572806961814376,0.508768456177856,-0.34866713662583326,-0.522797042618055
50,-0.849637082527693,0.0891651785903843,0.34088160825244285,2.0526339932126008,1.8997350074385255,0.3590456934921714
60,-0.8453117651207348,0.09596948318389571,0.3581559684317297,-1.0411325383955392,-0.2969405920143076,-2.0750897553920593
70,-0.8278530072506752,0.10600278376645818,0.3802791741962076,1.681439829224536,3.17655474952797,1.3012618544592203
80,-0.8032345292349754,0.12785998664328185,0.39503545772126186,-0.9662993285833834,0.05594476642456886,-0.6713050203894264
90,-0.8338562484146562,0.10190809043402381,0.36409032811252073,0.9666599902274193,1.3248527273770079,1.5149385213893791
100,-0.812633328062629,0.13339769261162823,0.3804317639474332,-5.0175791783297505,-4.503177615560821,-5.489962399160229
110,-0.8327222797261635,0.10854393695114979,0.36970173114251503,-2.439418332260908,-0.9290052082769731,-2.095878036960484
120,-0.8246951714575284,0.10566615760143717,0.3680586623183843,0.4055087340804818,0.33746067471397684,0.3081730714994404
130,-0.8044001227923554,0.12842448278048796,0.3942767736794738,-0.23155719925264207,-0.17233128199979225,1.2978701800711305
140,-0.8312597869821922,0.09984938175768074,0.37139841654905686,-0.8644149184152922,-1.5260850064442706,0.3291972813290782
150,-0.834777038335459,0.0973312016444504,0.3595323717762062,1.468244532294852,0.5224275047896415,2.951898980366766
160,-0.8367050938554393,0.1033439640548533,0.36623291517018997,3.42904709654841,0.9290490961651824,3.568870476249044
170,-0.8385076912575261,0.10480805753343786,0.37459018862799803,3.8837597162568276,0.5293023975267864,4.169122518276569
180,-0.8163334914920659,0.13143287716554805,0.395294455649222,6.517960219740231,1.1095360553641576,6.148957525584689
190,-0.8427778701861,0.12045298089171712,0.36317693329172657,6.365095266204507,-0.7565037079721437,6.836476762401881
200,-0.8315733965980182,0.13141688956352754,0.4047190405112458,6.795008307429084,-0.894069187055121,9.071616065263232
210,-0.8580047515663598,0.11427258798443457,0.4153480408094013,8.557233534896994,-5.28399406265193,11.703567504866104
220,-0.8500998888675706,0.022919156728580886,0.5258980257273272,-5.5641012425744245,-42.43902485627896,1.4540262311955792
230,-0.7364420454978838,0.0024512349305137633,0.46601267147984665,-8.119282529266297,-47.65820424724085,-6.43772955265485
240,-0.7048777014668058,0.0927268626578927,0.4113377956573737,-11.411840553981504,-43.424478895911285,-8.690578252621933
250,-0.697697156357095,0.18787132442556437,0.37020377528013326,-12.093944592804801,-38.92158409803078,-4.217919800514652
260,-0.6920120012510337,0.1429346487084439,0.41256194989766715,-7.0650570161265005,-33.1278667207287,7.310395916820697
270,-0.7201584839717268,0.08705939096055074,0.4346803663203587,-3.3649496153614233,-28.405260778297272,12.273635948636745
280,-0.8672748988475915,0.17753992166329466,0.3993981986006495,-19.255601416101694,-18.882155551556902,-6.103457163231006
290,-0.8117668809336986,0.15629855812086457,0.4859351273816296,-18.726847777439747,-19.9945981697515,-8.995087686125531
300,-0.8116814027449566,0.11861105706428203,0.3875247766344222,-24.916377260303314,-17.508022043960743,-15.82261498985075
310,-0.7907727683875672,0.2413740509767232,0.4214580896657298,-18.154626756950332,-14.114487645878713,-15.501754390629394
320,-0.7493891646854678,0.24206596854828,0.4763234566148266,-4.127785406598837,-11.090747001115679,-9.905952194661856
330,-0.7206804812637194,0.19763808285194118,0.43154936733033267,-4.724584362105638,-3.555327275258277,-3.4706752262310174
340,-0.7992067869472466,0.1694891250245902,0.3944260524522273,-5.825233945470107,7.169255767591398,0.14266893434492545
350,-0.8893173921999477,-0.02492896555182685,0.5203682319897172,-7.558815713828165,6.721086887444457,4.342024801606368
360,-0.8174486132202367,-0.025224271001545874,0.4672695986237287,-2.171420799071318,-1.0523740023971353,1.3206690824981862
370,-0.7450749309671261,0.07010048245269741,0.4425518930813174,1.7671021794842887,0.7539784965560938,2.980662636717529
380,-0.779609363576009,0.05465681353152429,0.42203997578262026,4.20209411001993,-1.9965234420807847,-2.975120817092403
390,-0.8106868544559401,0.04540215531738895,0.4410443862874166,6.766111520731604,-0.6169687213762074,-0.5425528101015602
400,-0.7495317041562477,0.008974468089554467,0.47244721620852065,6.935505672784239,-16.415719521246913,-8.858119322668456
410,-0.8122312216660019,0.22468579110269668,0.6225916716388803,38.20546799363758,-11.01105277298466,0.2101436675972113
420,-0.7187881068340819,0.09511563047784066,0.6616492922561509,31.417590146232218,-19.567193902288505,-6.214238487076234
430,-0.8845969289678766,0.15465290599003872,0.43657287194276445,20.986840191654117,-11.233711023685235,-5.2789003904392695
440,-0.7522155309918359,-0.027083283903581785,0.4662011440240155,32.6624520406372,-18.687210822782845,-20.825871097101697
450,-0.990940750210577,-0.3009581445868568,0.42859065906057675,3.6201698268066536,-24.110961116316908,-29.316954450912277
460,-0.9070426708498105,0.23403143701481857,0.2449251701083208,11.964658018676701,-15.264424013966435,-18.462845072509744
470,-0.7201355923135684,-0.4165994831462659,0.47773330861916674,-10.886832864471437,-4.63006468050825,-23.798230077247652
480,-0.6256337535153684,0.017082760026251084,0.7528192412586688,12.17696997150278,-7.0060364219712,-28.626418820697225
490,-0.6762689406084241,0.17533264841021753,0.5883154914265193,34.99319337117796,-2.4221803814820886,-17.081275389593607
500,-0.7953287343545479,0.09849593610473141,0.5545204290325201,24.350025331797923,-3.9024635479843672,-25.55717202840055
510,-0.8794249059009671,0.05692537250329881,0.47124110426084087,44.24303850331473,2.563842851224736,-13.324980067327697
520,-0.6995215968060668,0.38462282683025617,0.646145768915896,44.68668190301614,13.153467439585334,1.6713375205412941
530,-0.7970704626540347,0.02322238412412237,0.3719649446591156,38.80135492435879,13.4446868740371,-2.5884334575694
540,-0.7662223843035699,-0.07943450373953113,0.3304594799707852,12.345009914782256,12.789556658744381,-7.55541948321725
550,-0.7808875526554199,0.11278412775432903,0.4324121839143337,7.731933231796633,18.149646527622018,4.595378683354419
560,-0.6485284863551464,0.037281308281022094,0.7312650560290765,19.736774235784104,20.95109326903433,9.961651447009729
570,-0.8195586552012051,-0.020350112387356456,0.4116662718887311,-0.2768609068278916,16.902057166405786,8.606998240289904
580,-0.8893209076184796,0.2964700345215622,0.18713921092181238,-6.059548662532363,12.967616200081851,8.139155207938522
590,-0.8145236656325416,0.3004959764342135,0.12747845545654513,10.53186495886593,22.974449596003222,21.748083733554672
600,-0.7600837985731363,0.17479265636519964,0.5038110909075784,17.25416973100895,19.941610661464168,19.304849935088008
610,-0.8642730951016735,-0.02736974973090034,0.43406889073325905,-16.85162209074537,10.908591782667989,4.556927006363672
620,-0.7885628598555497,0.30551638726645486,0.4549522735615385,-6.0281665400607,23.748804829468096,24.144103040721742
630,-0.7780003320544358,0.30730530932566485,0.07345812490832879,5.322804533421342,8.661627614801509,12.899161403993546
640,-0.8149162569673211,-0.08862532479813622,0.669478113740312,1.9415220050418305,8.595740951954614,5.848946597225002
650,-0.7062886548433417,0.18760374797918125,0.4362884459135276,3.692623146250427,14.289196720131288,21.80519502198685
660,-0.6368803659655337,0.6463446079272841,0.32762534954803896,21.816101212916323,15.70387077763529,33.10775702550893
670,-0.7385302628378966,0.29963247030806267,0.36526091219582596,21.90352065536985,15.939805521743235,23.06511145031359
680,-0.7774718438865681,0.17538085358912595,0.3811391718229058,30.630498193040367,8.548098683536503,15.979513221067617
690,-0.7450063259145363,0.2296925406389735,0.2628132933240483,29.501478236828543,7.787324647650499,11.383878803441501
700,-0.7609357850915968,0.05139754992001837,0.5001981160529109,-1.880044307741295,1.6976748067136027,1.496253458885076
710,-0.8132547727931813,0.03347169811070774,0.43552959071960967,4.262993030791956,1.8336293603399199,0.16660891745714523
720,-0.7927424309986084,0.09839812043879453,0.4371049136692692,7.374377121911495,3.891466257926075,4.848331938445307
730,-0.7953441665719142,0.06986052554239897,0.46492444742178696,8.715748349683103,0.33794179579904005,3.4483127187706346
740,-0.7971982730577593,0.029981959543562767,0.4672701142880478,8.510144203178315,-1.5844347531839478,1.384256990918062
750,-0.7836756186621978,-0.017054405211598588,0.4841781447773905,13.326618989105757,-3.447865546875763,-4.420787240784721
760,-0.8017075329200565,0.032067432910737284,0.37432897185254427,19.37573569284578,-7.156837709386857,-12.599631634397884
770,-0.8320102070715079,0.0372612044494666,0.13873349893427198,0.186658672931859,-3.95402492597652,-18.548640052695287
780,-0.8303507650731824,0.12352949074167376,0.4983827402335032,7.801669958725468,1.4302218794211894,-5.565195769327129
790,-0.8253637157956732,-0.20363489864281192,0.5200777938636699,-8.866187014030945,-2.9929170430229473,-17.702590994410556
800,-0.6864693522039462,-0.32518766335653604,0.4667248405937515,16.62330606926008,-12.033443133951002,-27.93188388447332
810,-0.8263609964157754,-0.016375915347411053,0.42806505802070766,19.138685716759188,-7.5075151897181325,-18.310101628902235
820,-0.8362540893856325,-0.029208367494428716,0.46735882943070123,1.6519738640372301,1.9869435563802762,-6.803794886674355
830,-0.875012952521052,0.11026487942159897,0.3420367895812528,5.655048216050532,2.3881127446273283,-8.198664291186098
840,-0.7875768197483223,0.14234635739788107,0.36182913502998426,10.595449430238506,5.879753738568314,-11.650955889237785
850,-0.8723546015663033,0.2909938805364844,0.4319682119912662,-2.6237876650872343,3.662410801894356,-13.301442163601376
860,-0.8804559879527959,0.0900525400325479,0.2613378220533997,1.2238581246992244,12.967452922165737,-6.773937976701745
870,-0.8079956691555643,0.27747979253697025,0.4657131110475845,30.34960634476631,6.217978336062229,-1.9244919269224727
880,-0.8311280765899468,0.13402174918648296,0.4972572722785708,9.607404029875106,18.08279025118608,2.382200668914196
890,-0.7664646181842799,0.036062893806726115,0.8355059453310077,7.935567346085804,15.948632222090282,1.420172577101023
900,-0.7499800529133703,0.008741396870335998,0.6684816676191645,-2.303368746017698,19.360247814105335,2.2107644366272576
910,-0.7897551357885846,0.03850106961599428,0.574479405870295,3.284225414042014,19.780667245710838,1.7547830968768876
920,-0.682827706138479,0.07152173714071691,0.7933206071895154,6.076799883867241,10.994621986719482,-2.6519606739709665
930,-0.7786705439393773,0.224643614592887,0.6098616089315926,-9.307758284523969,23.78128042306884,7.809664951415702
940,-0.8968031777255309,-0.1500037720244013,0.2841018397221473,-2.3248713295894445,20.044626529545813,5.703160760180336
950,-0.6310083952766903,0.5129202212998337,0.09298026286869138,-21.922025451673758,26.577965628155642,17.046560492541158
960,-0.8992483582233957,-0.263664847761985,0.27714205346305343,-34.24473312329653,17.90152776560235,-7.039803794813151
970,-0.7796851201913316,0.0661312224309694,0.5115849677239472,-2.588888476990681,8.350544520801602,-3.802346137871312
980,-0.7318062757759628,0.14273998429793044,0.5508313340389467,-37.91326080436155,16.39101231884344,4.168102407517103
990,-0.8678750568968212,0.010542515843353615,0.25734112194147096,-11.33725234201274,13.954190546883558,5.042361977421432
1000,-0.820779386188571,0.24096307223835028,0.5391367195090735,-37.366771056772244,2.2578735117430564,24.162429003740012
1010,-0.9357339894727825,-0.10748727275283917,0.4334470136713249,-44.67586353951995,-3.6041921062484463,15.17007686527542
1020,-0.8290791696251928,-0.42540789232179854,0.42065956219703987,10.404047210991454,-5.90225189430653,12.688124906826797
1030,-0.7394879464280368,0.3498470233527192,0.1573064410399124,5.30206503353561,-2.6125139888539692,11.19343631214965
1040,-0.7654023328365035,0.2017388833323525,0.4359793532226561,-32.146474798361055,-23.016849080414847,-4.751128596097567
1050,-0.8001487463640552,0.19126709229318523,0.410887968645126,-10.22732149329336,-13.838193693071629,-5.165310198630859
1060,-0.7960991064708475,0.10797823389080893,0.42374637766669837,-10.84380107884245,0.40204784719245934,-8.510555477258404
1070,-0.8288719738511097,0.0205488535589089,0.3795628878099856,-3.0765685339823694,-3.268284040359747,-5.649581911072937
1080,-0.8354335191343701,0.015429790196082477,0.3682734109256281,-0.7299736751544919,-4.3661710934729365,-4.309288783781298
1090,-0.8498069356725677,0.0423578841358648,0.3636315106818908,-0.5250840627162918,-2.460105273629514,-1.366302320286171
1100,-0.823191290555758,0.07996384306414404,0.3727173008263395,1.4070051755926292,0.0913130627974702,2.629299385716113
1110,-0.8264185677181065,0.06628823618098091,0.3796863511086185,1.4980861359695965,1.3982200519471295,4.463819831587737
1120,-0.8202450529945458,0.10672402044118137,0.3887595639530911,3.796809166359818,0.5287120031471662,2.3513180132638762
1130,-0.8048730924218161,0.11242830270418508,0.39398738003581046,1.62422792013596,0.3305653437259467,0.9738493714821561
1140,-0.8442987156139062,0.06211845618031788,0.36145634388895254,-2.1541355895611236,-2.657585063441444,-2.3443476607544076
1150,-0.8251357261870551,0.06783763929447044,0.37339061331658985,1.5927244634387778,1.1983707255388252,1.1034488396277427
1160,-0.8278173497552846,0.06865692626868207,0.3854919846808323,6.129077614666617,0.23134048353870543,2.2837686201009806
1170,-0.8510150383835057,0.057829661895974924,0.3514683037897377,11.283383204193617,1.0201426975868118,5.656704818727109
1180,-0.8284633019896223,0.07118102677389736,0.38254740574403884,4.745851835268528,5.206135592269232,8.420317674721792
1190,-0.8329921538613245,0.0886738450529925,0.3712216260056769,4.53183602033592,3.1683328431053255,6.093938304047347
1200,-0.8076368324218886,0.12159100872619048,0.40384212402905906,10.468915369128277,7.215078270666593,9.976210237350399
1210,-0.8205214625326668,0.12214838088763806,0.4004127788933345,7.028048501225997,4.252064663099486,8.61594613017274
1220,-0.8699016335028481,0.10058673518671139,0.37798901786292327,7.403782230256483,5.530804348077488,8.154470513235557
1230,-0.8087377406267096,0.10753607839172317,0.37601157698138193,6.055971054815002,4.892350890393123,11.659319343299146
1240,-0.8614005710285255,0.07720495405704507,0.3425125365213934,2.155278609729244,1.7640704117836477,8.56401347069063
1250,-0.8390432896460807,0.09516072241697221,0.35761849640050125,-0.24752322875055333,-0.7156949561381833,11.173321365966105
1260,-0.8317601469520535,0.12731333745734438,0.3875015584147648,0.8370053601388867,2.41710422668306,23.16382773652691
1270,-0.8292018628758197,0.1267814767525976,0.38896965553255364,-0.7138335970469205,0.6476962253558148,22.23760696814041
1280,-0.8300413046399483,0.14746369837944678,0.37486276441199906,-6.596204103126747,-1.4027811420688292,18.174213735725107
1290,-0.8431722154630998,0.11150754822208749,0.338238905160864,-7.964939442182599,-3.580442920303031,14.486391818110835
1300,-0.8261711202196655,0.169784240514679,0.3798217061207374,-1.3435761511774689,-8.902192784506104,2.049215131233417
1310,-0.8296648390401606,0.14279493383616892,0.3761323957273886,-2.420034674494927,-3.8297710220957777,-0.16187651871415998
1320,-0.8620241953292914,0.08929366873228856,0.34826834465462836,-1.1312128571986588,-1.9300320876827568,-2.9431923856060562
1330,-0.8246328873979225,0.14337195274203104,0.38526132109034217,-0.548208528496626,1.6699666104203457,-1.2000072846082148
1340,-0.8135623728861552,0.1469698679020605,0.38154026264970053,-0.83204943483695,3.5383463479662205,-0.4024315063783992
1350,-0.8133143862858134,0.14253229448799276,0.3793432179815164,-3.8798240959357226,-0.9020544887126412,-2.990710852563731
1360,-0.7896787559986871,0.17401416304866374,0.41364914311051465,-2.13456362517463,-5.743388085014598,0.009200948673972809
1370,-0.8618154106381084,0.10066643515800236,0.34224137874575605,0.17071456249387207,-3.0858892862881007,1.3851488250711559
1380,-0.8212378577375846,0.14555232241838803,0.3903917922894016,-1.092359980783983,-4.148757024638533,-2.632537759494957
1390,-0.8168809517777879,0.14165175139422514,0.38893558353461966,-2.855216867047052,-2.9014808051790135,-3.94213580029455
1400,-0.81639840355604,0.15922633344995143,0.3993559621486029,-1.9957124266049096,0.9443541189032241,-1.3039740641430733
1410,-0.8376878665140466,0.12430854375837423,0.37746471293714523,-4.178477622267293,-0.10456851996893524,-2.328092932098106
1420,-0.8364099670503355,0.1212175303313735,0.3754081261995569,-1.738081987142146,-1.7777341798586952,-0.6233299348705942
1430,-0.8387209092112914,0.124989525177096,0.36930503503708223,-1.711532417725318,-1.080808238565448,0.12760906715905296
1440,-0.8018118138840618,0.15000756195392997,0.40319519140713045,1.356754244995774,0.4856817077201715,1.6573016911383218
1450,-0.8131892525147277,0.15135503449345902,0.398424671142374,1.4109864491252586,1.2853737461243746,0.7504475417255371
1460,-0.7819154934246317,0.1840458297939564,0.42887317384136997,-0.05933284636383629,1.8986711973415422,0.1974832290127957
1470,-0.8033772831732322,0.15811515798036857,0.40914897013647517,-4.566748522293557,-1.8594543737586795,-3.5369906287997503
1480,-0.806905269513875,0.14352064397133338,0.40819883776552807,0.8480923588275289,-1.5593745799274559,0.7507391467044482
1490,-0.8439989683511915,0.12005489938076956,0.3740377194588823,1.5959399800734728,2.322703549420843,3.694332783359371
1500,-0.8616948038473635,0.10082100414565828,0.3508436016572546,-3.8524867795411755,-0.9916299996666675,-1.9729340097007215
1510,-0.7998307373362402,0.1616467060960145,0.40617781537404724,-2.580066713354567,-0.21448463005122786,-1.7964042578296426
1520,-0.8175493732307825,0.13825419349425394,0.3922556174909926,-1.6393458550536835,1.7604906752178886,-0.5886634405819233
1530,-0.8450832413167686,0.10024838290075697,0.3719311688593618,-0.8738845142885485,1.5330999844817543,-0.22512847768192357
1540,-0.8243067125538246,0.12683019584353183,0.3951541585608211,0.7222667323800276,-0.8600535011274428,-0.014075840142714069
1550,-0.836604348180874,0.12542102797815488,0.3843842207047286,-0.10163663317237759,-0.19765184315471984,0.19393277782150892
1560,-0.8371252258226946,0.1114685301245179,0.37463152822550355,-2.3626621800792256,-0.1680534482376778,-1.0360562365643848
1570,-0.8096383295279619,0.1392259346634805,0.3932298988838904,-3.203165356444515,-0.9116476158723997,-1.384259680448979
1580,-0.7962424699800381,0.1573098498694119,0.4107990828891141,-2.6343730667506877,-1.3241130537413,-0.4877154293603979
1590,-0.8251901661322707,0.12615126739170882,0.3950838091785643,0.16523765838825044,1.1051538144688795,1.315687191768744
1600,-0.8240196552611272,0.12657645745741233,0.3843275549113223,-7.50379051594388,-2.0884087211880145,-5.249928081620546
1610,-0.8132641841828344,0.11099906782450839,0.3929835650349868,-4.116590795913658,-1.8498285443232794,-4.277420993494561
1620,-0.8217860458913958,0.1205972820996765,0.39107577004228256,-2.1295266337678735,-2.4614230456734494,-3.3915478312970104
1630,-0.8484334395433968,0.09546614760293982,0.36339537623141704,-2.5535387214172114,-3.2496971565135646,-3.413357140825397
1640,-0.8132143666711604,0.13834266752664237,0.4117469312539251,0.38853371017166516,-0.22516069498481633,0.00575662166251692
1650,-0.816126102738029,0.13146248703504101,0.4052851020330503,-3.3206395373978728,-4.48247301026964,-4.619124810488696
1660,-0.8252869371598412,0.12603518954039633,0.39048815875964943,-9.929922978459564,-4.118388771852078,-6.261242700475595
1670,-0.8394434977639724,0.10050943675086929,0.3767856867807641,-7.963528223401655,-2.9133728298629116,-4.616075885962509
1680,-0.8450472055246113,0.09469902984787039,0.3745207542313931,-4.985110806263718,-1.3874911124733635,-1.9091117064579577
1690,-0.8118832157686091,0.1212392806394938,0.40137693166072425,-1.864626997635479,-0.37561270046104367,0.36655690662392515
1700,-0.8459187299360625,0.0902363061307728,0.36182883848792025,2.8428817302494664,0.6272603407825702,3.2910775182580245
1710,-0.8261044927994595,0.11332406589324046,0.3871535101248896,4.647049714659195,0.5782781988184992,3.998289891355365
1720,-0.8150905847900962,0.1216038537030913,0.39748284762926506,-2.0140774471588654,-3.607861824600331,-2.351859350013049
1730,-0.8288078436553981,0.12061292374809536,0.39270687558206624,-0.2686806312869324,0.04489438515457678,0.17704017556964705
1740,-0.8266172664789092,0.11803620881870243,0.40131163889158994,-1.6021249413550502,-1.6173000429227062,-2.205670014506396
1750,-0.8310206933099077,0.09876303918891777,0.3822759107041582,0.9591103604687681,-0.9096504036107289,-1.2453057217634418
1760,-0.817929603809506,0.1271896396311145,0.3948093971129292,2.2179985754059035,-0.6851136448997938,-0.07680841098390478
1770,-0.7984270833829437,0.14773234058879503,0.4166891760913701,2.476793453477681,1.5771323174988543,1.6600463934324823
1780,-0.8066915639161405,0.13202956650472503,0.4044469626737274,-0.2962079339669499,1.2121881673771921,2.231824020313488
1790,-0.8218064558933722,0.11916662242453063,0.394529817292723,0.8684839762389022,0.6173168193153772,2.146136373560232
1800,-0.825161823824933,0.1130567257064705,0.39044913326147324,2.6827989129583196,0.2232405738085793,2.005925155835933
1810,-0.8433587074278253,0.10694795266334656,0.368669274094816,6.092001580642531,2.7878284993836053,5.254318848475229
1820,-0.7973283157962301,0.14504611066337908,0.40750740231192994,2.210620353279049,0.6331483554501214,1.6334463560044332
1830,-0.8239934924698282,0.1332410648173274,0.38653466984665125,2.875812089916284,3.47172284169412,1.9813621142375
1840,-0.7739804087961194,0.15774043102807153,0.4427713519255048,-4.5106497589420265,0.44078331767211226,-3.426187291255413
1850,-0.8051058097989424,0.12659497948364742,0.4116059201629755,-4.039838404679876,-1.0333747936938058,-3.514756105009399
1860,-0.8224311642166412,0.11871821705913564,0.3844233750995942,-2.9814117765038923,-1.5520699478308422,-2.0925075743267545
1870,-0.8267384625505111,0.11638837467086866,0.4014931230342005,0.7777544293927714,2.44038663560719,1.8868515134121768
1880,-0.8468377844555677,0.09587930588633328,0.3766236942633562,-0.8609283834645393,0.8993762271991632,0.4155913577989708
1890,-0.8202513353088635,0.11501531493824861,0.3948491977955657,-2.175507367715972,-0.07214352264987811,-0.09284561066662189
1900,-0.8344702946124202,0.10771814157147275,0.3830716955855612,-0.672097949585249,-0.5684062307232027,1.1225168693942722
1910,-0.8181889396306155,0.12624468742383557,0.3971372081164469,2.5859513550741102,3.5594473859880686,5.121860806442786
1920,-0.8342330559099603,0.11384345121685387,0.3800407911333793,-3.5180744346259303,-0.7346478740152543,-0.8957107651913869
1930,-0.7974905800223613,0.13595284058952914,0.4180311592975551,-2.4360826097298545,1.3804958851709233,0.19289949465013811
1940,-0.8312122353322828,0.10518560029992417,0.3833043823935641,-1.61130707167935,0.2961825574113037,-0.7482163921210522
1950,-0.8231079254310236,0.11714590534998538,0.39169350163416705,-2.1148833181737476,-0.6603948969813812,-2.5351610785552525
1960,-0.8184973287744182,0.12114434876205069,0.39548956442459354,-3.8716389739855206,-1.9398741853912995,-3.0960455072016497
1970,-0.8084463207813969,0.12175645459128065,0.41176774499773316,-1.5078743242294559,0.8195233197772799,-0.7322808574455848
1980,-0.8230510589161734,0.11293734392975607,0.39379206407692496,-2.9558008299776684,-0.2980124767978434,-1.3857770724428882
1990,-0.8288484364343445,0.10319257445744939,0.39614431423051005,1.5047009477419637,2.6647708803276977,1.9656737577823111
2000,-0.8268184206401259,0.11280500097688911,0.38642242624434897,1.8634551146817062,1.9877362553690938,1.7553664410127785
2010,-0.813258989449891,0.12099717166180778,0.40378115478605053,-0.9055253779332606,-0.7261182242171854,-0.9853022277329258
2020,-0.8009275134736191,0.12957258587391712,0.41653383697780966,-1.1019559664842546,-1.9278334908920534,-0.8880542300603886
2030,-0.8056932007111369,0.12725301848251444,0.4128925121706304,3.882387583757306,2.9479498991258715,4.23340009055204
2040,-0.8078176476413497,0.14179263209810006,0.41042535426649895,-2.6211204017542222,-2.3840569228247315,-1.403420615632286
2050,-0.8258750529088813,0.11134694237428805,0.39636641209826146,1.8323348056089812,1.617870993197516,1.9869416687432686
2060,-0.8147221072950219,0.12280328931623793,0.4062993440003394,1.6853135842294606,1.8530122739191919,1.650141910539756
2070,-0.8487538131623561,0.10378047976192947,0.3632534381454373,-0.9022292587203877,-1.7853841054589883,-1.1830237257240852
2080,-0.810396771304447,0.13425242691307476,0.4143810872426955,-1.48337225312936,-2.6484718997310477,-0.4366593503402947
2090,-0.8453008658842573,0.09740050562241938,0.3724524422564623,3.2628734940617825,3.0216971310116802,3.881002019550502
2100,-0.8137036521935571,0.12971087254379576,0.4067887894099637,0.8897371144212984,1.072301524666961,1.590953521937824
2110,-0.8473059282037239,0.09008667458923063,0.36006975761940985,1.963981203265055,1.3950022852511936,1.3848897780963507
2120,-0.8022876526676791,0.15127252848304795,0.4073038756063732,-2.599788316929496,-4.317491042289096,-3.728454461829346
2130,-0.84296211232957,0.10403288918850784,0.386288176714111,-1.3937049246623656,-1.287026440071463,-2.23011269079647
2140,-0.8132907512382478,0.12464619817662828,0.40997013206285915,-0.4272322092183588,-1.3524191706955038,-0.7512004937300825
2150,-0.8128676579751722,0.12862188965563343,0.4111884586472552,3.062527082556695,1.2258102485484847,2.1998155996068225
2160,-0.8169571775924989,0.11924148915243915,0.3990885675742948,3.983744999416201,2.40765742499553,3.5995126043651897
2170,-0.8347387961840207,0.11316284518956916,0.3882086843779526,0.7502141640770066,-0.6770006962559726,-0.13916646945222544
2180,-0.8064260667626656,0.14011920044052392,0.3996260908823019,1.175930861510076,-0.39031674345615835,0.11807279704254547
2190,-0.8629631622246732,0.0914301221769992,0.3555875237423512,-3.3939300844170086,-2.0315116139405704,-2.6656433656319702
2200,-0.8049778011104971,0.1354944834054307,0.4163413265541135,0.3612934980230557,-0.685404756020476,0.3933832282189435
2210,-0.8270125971069318,0.11448555177568022,0.39574286605716164,3.4889470001984937,2.662445416637479,3.674447251403837
2220,-0.825686902679543,0.11872383395786712,0.3856400671332308,0.9331541375834528,-0.0707497845070707,0.8738052161669224
2230,-0.79998383722071,0.14492946209739993,0.4098104309761437,1.4292009644142456,0.35391108075529004,0.833324347156284
2240,-0.8102163645544743,0.14611474389122336,0.4116895378286973,-1.4788285348199044,-2.7782967974239456,-2.7661771856757262
2250,-0.8231466487584524,0.1311298841716649,0.3930425050265778,-0.40972445373165534,-0.9733773420557956,-1.4674753073078866
2260,-0.8018037290696304,0.14608397427733852,0.4169597045101218,1.8660603662043478,1.2584603776975876,2.0120295361955423
