time_ms,ax,ay,az,gx,gy,gz
0,-0.8419020248451449,0.12631884854180717,0.4725291907630911,0.10599734387625612,0.17812502718790035,1.630870250055016
10,-0.8646254558407961,0.10930457476592428,0.46010142643003604,-4.604051558428692,-2.9393122867796024,-3.6014420299061527
20,-0.85606339687184,0.11149105562391826,0.46056493341864413,-5.44997599564554,-3.7520093212340364,-3.9549255709260662
30,-0.843630123419469,0.11610020558945194,0.4706980159214543,0.9266968243781522,1.0788831421140288,1.4782153372586468
40,-0.8376802757142835,0.13186177110667402,0.48105198854852343,2.5359908780451788,0.6310437479832378,1.7830460332850655
50,-0.8665013153280728,0.10438096691671209,0.45194136539163543,4.726669150946403,2.7298098156777866,3.42558409158005
60,-0.8382166356842389,0.13782630755651581,0.4798892058760788,-0.16672092494622331,-0.28477431350395077,-0.5900481893894902
70,-0.8799946603901438,0.09434964582084869,0.4392942067041865,0.5049937050251752,0.3264651965935362,0.7575930437943619
80,-0.8716122574269068,0.09879749305445198,0.4488063926799759,1.5537171259049636,1.5307567975950434,1.8074115265636768
90,-0.8458319068196903,0.12954497210720803,0.47989703836661457,3.365785100935426,3.070323124001866,3.5735533483011404
100,-0.8700636353594616,0.10427133401578884,0.4419974118452835,-0.757558757327501,-0.385975629588983,-0.8069153208611252
110,-0.8433806729527141,0.12548045426572582,0.4712244079561015,-0.9380753109843726,-0.3212039465837265,-0.33600134321618597
120,-0.857525635063938,0.10641544372463,0.46235627196822665,2.095143118245285,3.3630906338813285,4.674773978422964
130,-0.873793488564084,0.10243651528277858,0.4504388407707846,2.7088232746566168,2.797935374024748,6.69548320715785
140,-0.8503122657108606,0.12129487393325394,0.47046588808005047,6.568725937174442,2.4967109459889603,10.31712463636966
150,-0.9322308585270128,0.08530269190737069,0.44656085703090664,12.939653817833534,-1.645055040806551,18.24085366012687
160,-1.0670585632509855,0.07875261811646453,0.5068340675967569,28.87434609398306,-10.969273961756368,43.229019937819515
170,-1.0480714245054161,-0.058042211272134346,0.6248606489756595,38.07028587025708,-28.48872577069187,42.28349730664298
180,-0.9249301328308847,-0.30606490701740185,0.5654257032948461,43.60925137739926,-36.83465660507769,14.578382307036785
190,-0.836272677451199,-0.0451736109096498,0.4986793266883766,52.37327872582308,-41.80231736736021,-13.551255996357092
200,-0.6808775046213739,0.20781381689317163,0.42804837599389,35.2596724175398,-31.425647951602805,-21.738369937526418
210,-0.58894672734115,0.3486735581967209,0.4404195966410766,6.830932528500636,-6.8454831216900764,-26.634420676992292
220,-0.7196308834074668,0.4246408724838539,0.5097940021256989,-26.187144391096925,-3.8329305954389215,-31.233333526110563
230,-0.8093402788706081,0.4680785062533334,0.5717717837092722,-37.851771665421595,-5.801214385889034,-27.475355876216234
240,-0.8505239162570564,0.44265650254480887,0.5854128410644748,-32.00227617663736,-8.31872228114775,-15.780412876078154
250,-0.8049023390157936,0.24921323019843067,0.5289483693244375,-39.355999586979976,-6.377845969203372,-15.461931984830903
260,-0.8724499868970762,0.1151231651223712,0.61212011422332,-47.17122889888976,-7.751691464662134,-19.949290811473
270,-0.9137912765576093,0.12083708561569248,0.6451029295602331,-43.99218827945688,-19.754049026378734,-14.955791357832945
280,-0.8195409567545431,0.06298110254360169,0.4250101874203281,-60.35575694402308,-25.553446311129925,-18.60907410563719
290,-0.7921229858437351,0.12274476213137236,0.4858489245798574,-46.364552859373006,-22.794895713999743,-13.90740645594385
300,-0.777428459394558,-0.02543656583076777,0.5714162984625417,-20.03582740911745,-34.24240510862312,-25.460866380451474
310,-1.0734303911065781,0.20392257990536067,0.5204828696485181,13.823142961736366,-22.518944924312894,-13.46502036237271
320,-1.002938153791123,-0.060147896725362755,0.2998869579751263,0.8085873774925636,-16.073327414091107,-25.13987319223717
330,-0.7870177979273091,-0.08274119317678569,0.38796781539947395,1.5008862834069117,-12.633762213474496,-38.702956571916225
340,-0.9829779568555403,0.3390829766144504,0.3878016670184639,50.88499352847866,-7.075516087705371,-29.627761360404218
350,-0.8934052987278781,0.06609261183146309,0.46295131800397044,32.09570781954958,8.749168548107745,-31.48273167588683
360,-0.9901132104481147,0.17448068720598797,0.3692839076831642,64.41187776553333,18.375882574225653,-29.29512120040123
370,-0.7562337460098639,0.1640392544655131,0.5375786500895021,50.55567522198542,17.371245346098586,-24.618728723116796
380,-0.9721435836680523,0.06271610299409745,0.11287394164061587,45.31602906954194,36.7449847066341,-1.7121168235850543
390,-0.8217733806791163,0.21066975994192627,0.6016873916146986,38.27658815995421,49.08329363809509,8.852967295602012
400,-0.7003814847286159,0.09259200545607492,0.3536403979379869,27.129891912778948,25.236131132164523,43.228610062650866
410,-0.7787860754966749,0.21357070728187882,0.5837082328738241,25.40349151565709,21.795764215900615,49.396281313537166
420,-0.7405842459804428,-0.072429354862856,0.5773059473185259,4.958810431924601,8.852235893344801,46.34512156492607
430,-0.7774109452176575,-0.19633307817493828,0.6424014367544358,10.39948612513645,2.736032757397847,38.45608380294332
440,-0.8783669189336494,-0.25816326159616854,0.5105909912807309,6.293797291134312,1.374478889496378,15.965459872858084
450,-0.8379865991951443,-0.03846223375560179,0.5839810973122858,62.603920509060565,-0.5336979091020382,-3.004188801843899
460,-0.9358080036544681,0.24023335294442258,0.08010529918562491,47.919420380253165,-6.242096297353573,-34.05519666381437
470,-0.8728464815799027,0.05029173912628136,0.1931011724789113,17.300859629201103,-0.5205102306666529,-51.03831704568539
480,-0.802912007702965,0.12456490553569258,0.2908696148913222,33.86483902365438,-1.0926264608953247,-46.555205205612644
490,-0.9718237010588489,-0.08828004049357825,0.1746762248510207,17.970967094031757,25.89933993781448,-44.13405969234939
500,-0.8648851660273472,0.545549585741358,0.4534411896026006,68.71203491023654,63.028684401028826,11.957133516313917
510,-0.7975930433946682,0.5798669801217958,-0.03858012087444182,15.156268692588652,59.09303167880333,8.149323485453365
520,-0.7294264234289233,0.3492830782694327,0.4190566417011473,-6.572942482338378,40.48499346719732,9.39650100445556
530,-0.849761820374666,0.43541876059419926,0.38293220408985784,-25.722852216943718,15.164941749187607,10.316891470164228
540,-0.9225969180686283,-0.09619374904872538,0.7422669880394149,-57.36964367835887,13.164413319825297,27.970740091611034
550,-1.0447642937677704,-0.8113936455193136,1.1360865520907313,-80.89512460999836,-7.255743174716946,29.785104697581477
560,-0.9516049116117633,-0.5165185225575231,0.6527081737340463,-65.24050782772875,1.9156051118700015,5.665836076400602
570,-0.736680933804927,0.09624131209926211,0.772681623258112,-21.321769997767756,-14.486825939977397,-10.449709306676008
580,-0.9382488572363307,-0.08807155364204891,0.35130328956858486,-8.640579766993714,-8.540806753994454,-9.55239258454953
590,-0.9068042992522461,-0.06497845875882327,0.31895659458133085,2.8124021129723094,-5.7831313471388714,-7.490319509625108
600,-0.8643955693584205,0.06076468440240543,0.45282629820745063,-4.745715723270973,-3.095026289794066,-3.059282224184777
610,-0.8808066512492093,0.03881396937461473,0.44776375470755436,7.753693936714483,3.2501444868739675,7.731906530323661
620,-0.8441577413140676,0.10692111260674499,0.47287656260820354,9.992150974653,1.7131885232749644,7.143737918529471
630,-0.8155320572719454,0.15017683573338375,0.4869809785819458,9.174987129905363,1.909178719307223,3.524337429238403
640,-0.8825551724192799,0.08391078589328935,0.43400560657577114,1.1767153020335077,2.3915321802574496,-2.268893078235437
650,-0.8586740743850806,0.06404703683803822,0.4582828321468211,-5.148565796997901,-1.9316097425717125,-7.516519809510378
660,-0.8318188600345418,0.09203018656510258,0.4841137676383987,4.8122071741637304,0.47359051506416716,-0.35466004306091325
670,-0.8616149001850142,0.06344220148614237,0.46180988665149864,9.4088154217072,0.6800097224996108,4.753610950814094
680,-0.8604517692902933,0.07715749505545122,0.46215529481787876,12.858569854428286,1.7915584064545713,9.903558328753938
690,-0.8594436166401397,0.0958066075087834,0.45759636269503223,9.279170865081788,2.8210819743897844,9.416062628867106
700,-0.8264735399705565,0.1379846119425543,0.48868268081901783,1.8432376085238371,1.9010955271897558,4.159598078554664
710,-0.8622692463428734,0.10607884918687252,0.45111088785703524,-3.778929264582257,-2.8730539159259583,-2.94800101176517
720,-0.8382071375819193,0.11617631550966012,0.47963520556016404,0.4340392177131551,2.0084626162976695,0.38963776596648336
730,-0.8563507181885436,0.09649501354684632,0.4593093094411344,0.22918088299659722,1.3673847818862375,0.13670359955543843
740,-0.8711486594294842,0.08294645611392476,0.4374125254953316,1.0110014670923926,-5.117628489829743,2.42481827620166
750,-0.8623151460523368,0.09484168664811318,0.4616930340323986,8.751511152686213,-0.17972611508004216,13.578066610062736
760,-0.8861538453466914,0.08288636509851238,0.42980661656481794,13.247373033258352,2.347348556736215,16.323498799206643
770,-0.8629970446074803,0.11503300299568263,0.4477624644577859,11.19126599286274,0.8818478135966836,12.091611718032743
780,-0.845923543780834,0.1406647758633138,0.46453110258050584,5.019813420287482,-1.3009236248916647,5.207360763924258
790,-0.8411511196159376,0.14334665024547139,0.47804652017807175,-0.917755709078948,-2.1160344853094575,-0.6042210304460129
800,-0.8744023477097925,0.10934162682770998,0.44974176389171483,-0.4588555911852794,0.07896930785148962,-0.15435243798922188
810,-0.8336056529930119,0.14837831510342306,0.48515339506049837,-1.7336130030869237,-0.3835912506762768,-0.6489878600863992
820,-0.8555727230155673,0.1258672561183594,0.45962685309949636,-3.216873622649268,-2.812724916798213,-2.699799056395182
830,-0.8644061970152699,0.1122097323223351,0.4598111047837024,2.1402851443797726,1.883978056001406,2.03625307194383
840,-0.8328620849202084,0.14199863904491017,0.47606792358287986,0.8886809674552247,-1.687368444525867,0.6027688225922994
850,-0.8594877326515961,0.12055043092044944,0.4448490312520414,2.0353356511212066,0.08337394908509516,2.135485064393509
860,-0.8512340421188115,0.13732178259898242,0.4621218047211122,2.5222387877563923,0.6142552460941824,1.833480877628881
870,-0.849437472717102,0.14048452534714867,0.4614410574997059,-0.3512020865610832,-1.5175607807439628,-1.6000332982283267
880,-0.8542302312077348,0.13069981137425388,0.4544928778493517,2.1097128247552286,3.317559616622492,2.4012898974869783
890,-0.8388686536876607,0.14143022379535564,0.4778841288896556,-2.3621596345638114,-0.589738410476932,-0.7799122544069568
900,-0.8447808278445791,0.13723618640296914,0.46570707205836254,-1.6211160849538846,-2.2861648801798786,-2.243930333448112
910,-0.850254208406152,0.1326105240207966,0.4607221450273646,0.5423526279061198,-0.5063608718302666,-0.6619601264037134
920,-0.8540258262918409,0.1251312923282683,0.4614771134005447,-1.5008023773642347,-1.7141228321886623,-1.6478970332160703
930,-0.857028247079323,0.1265267414602766,0.4633740407844775,1.4489014814184251,1.1521494583187784,2.444436812939452
940,-0.8443692507081888,0.14381726894371172,0.46614654472803096,2.374499154061582,1.1671317025302592,2.1032225021354214
950,-0.8676511565265315,0.12270123171669417,0.44516986464063724,-4.387691586274812,-3.878008007663066,-4.658199490777514
960,-0.8263055700906772,0.15110336253496692,0.4858370483416269,-2.1167665259703226,-1.5230873803374012,-2.620728535573332
970,-0.8586164379400936,0.11647289177964314,0.458374215887253,0.0844632773868681,-0.9898844793361512,-0.7354181948028075
980,-0.8468861004811195,0.13758169479409277,0.4747835261823641,1.0644050686298172,-1.611339498006151,0.8035708276153981
990,-0.8360729216081211,0.1490795632608807,0.4775550211163367,4.8179359688107,4.4401432501937155,6.261656603773852
1000,-0.8484111282316528,0.13964994141898057,0.4578525289376168,2.1529051897776785,1.5431540720152868,2.3996873479687855
1010,-0.8474882115085024,0.14677224965135222,0.46602914617649815,-0.2501433901328409,-1.0926512422726982,-0.8904067080871735
1020,-0.8586869182130249,0.12818045104851258,0.4591238598149092,-2.4588956276589493,-2.222231234651938,-3.886406865121358
1030,-0.8466018042442901,0.13786740764944283,0.4670211470461027,2.0313341099445705,1.9942513964442083,0.32611979731593665
1040,-0.8161000756126494,0.15960783355991143,0.49719456809213775,0.9935652496083007,-0.1651005636977639,0.4162473186364064
1050,-0.8655952234446721,0.11597993402629711,0.4479023479185386,1.5722543658157053,-0.34159201169214465,1.4098759230416056
1060,-0.8632461804837629,0.12601212378120183,0.4492518124648463,2.6094210670193263,-0.04441185488819398,1.6936204358525813
1070,-0.8642012930006094,0.1315797369691329,0.44561281923848445,0.2824754690705792,-0.7384079779297792,-0.4486277568944869
1080,-0.8599775937445678,0.12953510087692055,0.4602232106106514,0.2358709534370711,-0.29943683595506765,-0.383692605224769
1090,-0.8352245862458848,0.1455026964981871,0.47875331341962646,1.0441166885355284,-0.6403679758705189,0.06765231243757142
1100,-0.8423892979698947,0.13962325745216242,0.4703468494663307,1.9386557878889463,0.5393719891669413,0.8286293861207327
1110,-0.84374313707127,0.13870891701919055,0.4670722008036142,0.5685758527936065,0.5188217835043278,0.7470231656171762
