time_ms,ax,ay,az,gx,gy,gz
0,-0.7116942226816931,0.05347075744091449,0.643181856481628,-1.3392256700853684,-3.23120495810647,-2.776781856032109
10,-0.7292992458946046,0.04196466131275216,0.6208138112934887,0.5295391526816153,-0.35847719946805373,0.584975168205643
20,-0.7178497829408116,0.054068750785346856,0.6346626294835448,2.1792035199335027,2.637708729267326,2.8196047885190194
30,-0.7083914872817001,0.06558670496696285,0.64867458870228,-0.3773103631127528,1.3976057915259634,0.506293687215567
40,-0.7215099540777576,0.05062878554152119,0.6342402245458869,-2.9055792935306206,-0.4361188986936412,-1.8380434917265225
50,-0.7395060414828916,0.027583503252821606,0.6160676909221746,-3.6985846649366056,-1.550787885512954,-2.732274508181665
60,-0.7517420464776754,0.010408049446106127,0.6053082258588868,-1.505737847396309,-0.2588731229940143,-0.3516012396718736
70,-0.7163257413567157,0.051843270123956134,0.6366233162938123,-1.2358987050054984,-0.14002037705418252,0.0636718138926255
80,-0.7312673020420608,0.03155752381429278,0.6238531344651738,-3.30445465532725,-2.262622618956834,-2.1891701787893307
90,-0.7249998029410346,0.040981594328986314,0.6327580641638453,-2.4845457577250682,-1.581255965282117,-1.5838879409906066
100,-0.7221049891720741,0.045539784240423105,0.631405057892457,-3.7826057494234604,-3.0514804584102033,-3.301384073646413
110,-0.7189308161663251,0.05054810720077279,0.6342771337928713,0.2349814313656955,1.0878913612593195,0.5573169473067969
120,-0.7372439782772224,0.028112381803410087,0.6144572397561824,-0.8478660023391897,-0.31129841817545695,0.28240003915070666
130,-0.7232779297365466,0.0431215648171477,0.6307256534946003,-1.1941794091710487,-1.0743999012449175,1.085892165267101
140,-0.7249957435225428,0.0415651947541141,0.6343249066682362,1.8898511706110204,0.9064390743272073,4.22100177394806
150,-0.7404866246785144,0.01767383559254613,0.6207046031251854,3.544561985632758,-1.799054513758736,3.699048586265587
160,-0.7222053772813342,0.055196624101172306,0.6652658631345754,7.530101750999545,-2.348888509929288,9.032372611992544
170,-0.7526378031535865,0.04231499779316802,0.6682929899364386,5.745065825242137,-2.8779598963565407,17.744766868318933
180,-0.8075924773351337,-0.09759539337821634,0.7090582227984245,29.877299984967994,-29.90489035808891,9.813260286564411
190,-0.7613395656719001,-0.04737734079561855,0.6578044965371317,46.47081658351843,-42.48492831291709,1.468675971640038
200,-0.5955695007495685,0.0005846744955703524,0.6340569308940001,45.349976416673925,-45.670625060243,-7.89581597282097
210,-0.5588723003056859,0.0785957094034092,0.5717279679130158,39.82725542598115,-39.76464314351926,-13.671962260182884
220,-0.6167815324989498,0.016256114376430646,0.560302438664948,35.80300241256923,-29.507152629824056,-16.34531932100609
230,-0.6249871206890054,-0.008275550652297979,0.6048425322087774,30.620111814451075,-23.70073529334972,-25.834539533455587
240,-0.6210908599989341,0.012662326259889927,0.6253551546271869,22.959909342704584,-18.390650052323284,-40.38824016270159
250,-0.6404749489262427,0.19159713842656004,0.5696768357176901,12.7796432299455,-14.207044378206621,-41.38603362505525
260,-0.5653737405995505,0.19094551360626985,0.5864292279659278,-0.9656398279820582,-5.50952206115689,-34.20299039072646
270,-0.528571252815277,0.09796443133615126,0.625164838033966,-11.577507841132881,6.195390044424305,-28.572540333067344
280,-0.5649039508173612,0.04325035776659748,0.6593488067794611,-22.099242317389663,11.4702905712398,-33.29056555460375
290,-0.6000546586592935,0.1325603007603566,0.722298477367396,-39.62446324049179,11.914448845860374,-32.87517219244845
300,-0.719608849479815,0.030314664354854033,0.5485964721687593,-46.87899333837306,18.930868512907686,-20.899205408972737
310,-0.6906512351950065,0.18875144640575958,0.5902567813790365,-30.65496179176097,29.12121426370964,-12.32368847077392
320,-0.7873644560613001,0.2514716145353194,0.7963638017641375,-22.799678692949733,9.311292606435003,-3.0039406895427527
330,-0.8064162311890825,0.11056233435645355,0.7450954272472106,-12.465553208317392,5.798878848209526,4.071715077503447
340,-0.778108900965675,-0.013485566901576632,0.7170234474172413,-4.850774241582684,5.918390570435847,6.916334554054073
350,-0.7164805128107303,-0.02310266813589997,0.6475841377002558,-11.60254954202655,2.3803911758835032,11.53507428956483
360,-0.6916778432117897,-0.040319681775877386,0.6563619742878622,-21.019496476115997,-2.542512436829032,14.458871698974736
370,-0.6857283770669759,0.0589855723176279,0.6685866690480187,-10.34900092609769,-1.9158656047534937,16.86666416570063
380,-0.6841054486409671,0.024020709411897278,0.651981818238076,-12.222308146788691,1.8462204909015705,21.30506171551731
390,-0.6628747092761376,-0.04069392860984606,0.6574631117424902,-30.193427911460592,-8.177794519636036,18.17760902554641
400,-0.5261316438351349,-0.027924400745758353,0.7729370616371556,-46.70838371064733,-19.050726233632567,25.219807437019412
410,-0.5870500316580117,-0.10130090420298737,0.6943856778072807,-5.842976069891758,-30.149645402367085,1.5297983051092774
420,-0.8876495419297946,-0.05913185995203479,0.5383570345890136,33.84074637788857,-27.256886029441358,-14.14734676610742
430,-0.9523208879218499,0.05049906770107265,0.24095884814164303,32.61064094435594,-24.123140164191973,-17.685663568443218
440,-0.46059991645272563,-0.358338828318713,0.7779426540203727,24.27848966489676,-36.047062111061734,-33.3835669036335
450,-0.8776048865058437,0.2507529546919255,0.5162867282304392,32.010787940754305,-25.936680170457024,-26.42560991524731
460,-0.9165167286697189,0.09360968233146066,0.4979955542069277,66.51171969440246,-18.01082914729608,-28.477645878946404
470,-0.7895974000435455,0.2686511584397635,0.7043228009839085,24.977162668258433,-1.6997909047769577,-36.6328628870588
480,-0.7974535034426147,0.5856371676433901,0.5438115409351043,54.84932922228783,0.7974835487943597,-30.896156185199498
490,-0.8420998899071594,0.07436695834062808,0.6219903383601553,26.690640468028306,4.344782614359007,-14.848365737614728
500,-0.656618054569149,-0.2410446188259313,0.6137164235454611,-14.291581304926126,13.800864678471148,-34.400491108077595
510,-0.6953986635851197,0.312103459566689,0.8555671841411077,45.36858676826286,9.186162988262865,-30.34388281629424
520,-0.7636428372545034,0.2632619993638538,0.5353627961659568,12.348670095333643,13.675384045305934,-27.646018195357676
530,-0.7439543759666701,0.12124672064045364,0.5010340268957738,25.184517081996052,38.85479925980801,14.851013244305706
540,-0.6415230056538096,0.40355751918698957,0.5224403449079673,44.95800330105401,41.44180923421393,24.38728863742654
550,-0.6385327615030096,0.13884698598734727,0.6281546990914839,27.96011142989241,34.99244617977982,21.097009615646257
560,-0.6223063612803026,0.12213098026510084,0.7594020283574369,31.50820662156889,27.60897458121259,22.33911544611488
570,-0.719039858425414,0.0833089117335449,0.5469600790232992,39.45556736256676,19.83065837466113,14.75207795501268
580,-0.8256511492369975,-0.00741352572554108,0.4128472230512817,30.574225896002545,10.818124174322213,13.019989038440627
590,-0.7655236465296311,-0.22486588358428378,0.5511653260267274,-19.035967186683504,7.7159194341194635,7.727532521491373
600,-0.6988778955352458,-0.24452553970310364,0.6807396033690446,-21.927860803634,1.090217523422516,-5.4039953779292045
610,-0.6593792117869752,-0.040435619824518244,0.7109252682564821,-25.149184500588706,-1.8938938039298283,-3.9287479416176057
620,-0.6543499967019534,-0.06682738410876146,0.6658472730182128,-17.858673986398742,-1.6260725565839764,10.236517261057704
630,-0.7207628416207817,-0.13655850368358616,0.5801657425486367,8.337144464595559,-4.925909620060654,18.305149337527066
640,-0.680063781539771,-0.016789318490310852,0.6838481498130696,17.03060269887703,-11.051511511933393,2.6041522604004377
650,-0.6970207694351414,-0.09093331331029371,0.649788512354581,14.559789352879964,-4.466347803507871,-2.5238490519799286
660,-0.7341943622335653,-0.09693348863022637,0.48356914718782507,10.365114349175336,-12.15270368689497,-24.336104966259892
670,-0.723699850408702,-0.24600971342800876,0.5130249028492542,2.3861043781878943,-6.558070531256533,-29.471645509053403
680,-0.7414101703861565,-0.10414127251109495,0.4910786284717038,3.2005737862559918,-2.910975169342766,-32.92417279051137
690,-0.6912911756422985,-0.18246265682100113,0.530998137684916,43.370011560183755,0.061999568594078625,-42.88046068706328
700,-0.8247982899744098,0.0399633187070892,0.4653957647425425,-0.4136329310993032,18.19445445358777,-23.484463686166034
710,-0.7273658737099,0.06104182097850176,0.7497706260513685,24.579289841276815,19.74660242894423,-23.071698847000967
720,-0.7544009356302764,0.24923245988153434,0.5742792260270979,36.72535284895853,31.00621548127183,-13.5566281499687
730,-0.7384801075197014,0.2507454925966351,0.7312385796069923,58.5563980185005,29.763110564481316,-1.354163398491204
740,-0.7453881555082136,0.08939354446681927,0.6741526466745834,50.98363865441364,31.581698782112735,6.439038655171235
750,-0.6485932449792243,0.2350063129249235,0.8242031986204397,55.29477700233129,27.499004476221636,5.713543548056833
760,-0.6728600375861897,-0.19138934692403134,0.8864660893845157,-1.9058400406710092,17.28989536139055,-0.22016944203186462
770,-0.7574609124194303,0.4637508483848963,0.3247617925962084,-6.939733762698074,27.589964916387576,15.982419568043984
780,-0.4899892979879833,-0.08166837120184567,1.1367474693260147,-41.84570502976861,8.543887297210954,9.448755774844091
790,-0.716016792546354,0.14693515014901865,0.37269624728747325,-30.388791487811964,26.458708609988733,28.387184634645173
800,-0.7985239080688094,0.04373144107562312,0.31557559116483397,-60.77323127295796,5.8753848737749,20.226204013890932
810,-0.658779682408426,0.100068110298991,0.8382882275175619,-53.82414323974573,-8.375733261709147,10.388188746576015
820,-0.8069216809536497,-0.3450249111629472,0.8682927208559063,-82.18926453420683,-17.709569724684044,25.822436047104937
830,-0.7108108372324765,-0.29375494804187985,0.7085849700262775,-30.545413514558874,-32.49088326260219,-14.95706311196478
840,-0.866861062794856,-0.14535094338408427,0.484356034786399,-29.679959526681465,-28.33093923175069,-19.479192640310544
850,-0.49456767790202577,0.008417406885517781,0.920073876679481,-29.00948145394124,-28.500613223579897,-4.459472244980157
860,-0.6255933958976295,-0.12801726213070627,1.0204686734936217,-4.746260109570613,-19.823104526236,-11.332528306639622
870,-0.7896036382991448,-0.001785652471746623,0.6645012901778333,-3.4429533331941484,-3.4141714727786794,2.2524978073863164
880,-0.7131184181721546,0.04588642643831117,0.6328088734272495,3.1731197031691285,-3.7224368663375653,5.187459088246216
890,-0.7361945909168685,0.03622571765802298,0.6166833123894631,2.920562860580791,-0.18755688136630644,4.413710326201846
900,-0.7171878118314,0.03365282429896782,0.6380557218557542,-3.679202747419931,-1.9736550637437553,-2.8282556224740563
910,-0.7303351371929065,0.009903810743561033,0.628777674833989,-8.939877447527998,-2.715831099127916,-7.8144583404602415
920,-0.7448343271121457,-0.0015114255230046607,0.6156067851914251,-7.054805541873198,-1.0401125349717397,-7.360540490514957
930,-0.700141008858087,0.004425575664204734,0.6586551167979118,3.990310190531082,-2.3889881883843627,-2.728652302680604
940,-0.7124583037663412,-0.004982002717590809,0.6488778859935629,11.61835017499853,0.33194436180922504,4.691466799319667
950,-0.7179195279450816,-0.001711591966177891,0.6456139577885831,12.756418523404124,-0.636517638136809,6.112200188441774
960,-0.7074985734213154,0.03233175063495897,0.6435486685327692,12.168858879324029,-1.9303418028727377,4.413025159394063
970,-0.7162036769667582,0.03807988555780706,0.646035235142407,8.390550551419967,-1.80573695824885,0.3874547652698872
980,-0.7263715941879872,0.006285166977387468,0.6298148929626438,5.346278248349767,2.8480337523221477,1.5753268401431364
990,-0.7067532818427694,0.008518891105597587,0.6345284906371206,1.401323654493902,0.49194515929155713,-0.5598431332567708
1000,-0.7021592625324565,0.0187120048528102,0.6619948943437384,4.767685901521072,1.084411943162703,1.7552226010428913
1010,-0.7218190341140326,-0.004644709660683274,0.638805490512467,4.879364403582898,-1.4210847348404292,1.1579223125851794
1020,-0.7250989571879503,0.015846044604088776,0.619318065974083,4.545378194094342,-0.24144855685849093,2.8939449531122534
1030,-0.6744988388117624,0.06364006175224175,0.6839157498433902,-2.94709085278019,-2.298243165907932,-1.0645755424516994
1040,-0.714576451411546,0.01601394679301082,0.6436293996083734,0.4657419732186805,1.7347371071745372,3.355473748525192
1050,-0.7389709689398758,-0.01700896732332701,0.6108966214166646,5.781512632585435,1.8257904125686908,8.001513676935854
1060,-0.6836719406143883,0.0519579861890758,0.6676712485356018,5.129411126122971,-1.6673207800243477,3.8658044650093637
1070,-0.7049465338815382,0.044319597352647615,0.6484554486018089,3.8953297540219287,-1.9515978058607073,0.03157388737646594
1080,-0.70777477911005,0.046299793691867944,0.6491276987585639,5.277717935387004,3.104688349918562,0.9411380656624937
1090,-0.6975564375502333,0.04650698928171286,0.6557869889198075,-7.044063095082121,-1.3574655278815502,-5.973280243324434
1100,-0.7180801157833949,0.0156439675734344,0.63822149436984,-5.036076690331252,-0.7794383658626411,-2.767854796051502
1110,-0.712950331153476,0.014912617464417851,0.6411395838417447,1.572778443891657,-1.4225271745353436,1.2861378701515667
1120,-0.7257869990094165,0.015095810207810098,0.6263533057049467,3.2142146346169844,-0.5956114848293632,2.2091602058085047
1130,-0.7175861324092332,0.028667792496653174,0.6379414649801477,3.36931123980977,0.5644422593982826,1.0475216492668062
1140,-0.7105691704836399,0.030473633786340038,0.6449752621545752,1.7786902007150922,1.7429538013668004,-0.030039573579902612
1150,-0.7140997030101243,0.020086946459598465,0.6448806078142212,-0.8492010563981403,0.924160975579908,-1.142161863596489
1160,-0.7340778344164156,-0.00118779036237825,0.6218252405847161,0.07116970846201198,-1.0377314408092146,-0.28918617773262245
1170,-0.7136966671100109,0.02401261166079253,0.6427543934864297,2.3024935050652933,1.0109096791844885,2.3557951579295935
1180,-0.7251460416162359,0.009067856774856085,0.6284397604176152,-0.18704683687330714,1.5419894860855528,1.2060051862132124
1190,-0.7140453676812939,0.020294358159994166,0.6399599439071997,-4.551847445235421,-2.3652544955369033,-4.36725911620039
1200,-0.739694738958377,0.0014774955673927288,0.6197895346159905,-1.5787006490757491,0.006182972364941142,-2.7872730448425322
1210,-0.7251499507878085,0.001360032888722001,0.6351442701695988,-1.883925060989863,-0.2534865745068382,-1.6230481770658638
1220,-0.7318199724991846,-0.0054465095146906065,0.6241335032972695,5.882633472649825,2.268964579489369,5.45212637700979
1230,-0.7043271884271394,0.027119952517208102,0.6450156946141815,6.1241768302268005,1.3154239945158255,5.457024746712429
1240,-0.7322101129175751,0.016460566329743458,0.6275588180174679,1.3647613579801492,-0.00014485541990083561,1.5183271179839348
1250,-0.7120654854508943,0.028084662845191514,0.64049570065522,-2.7434774794250316,1.9868767509455225,1.213970409848081
1260,-0.7044911836459007,0.02556834207708169,0.6628117181781712,-5.2730798292344625,-0.022528272650232994,-2.8057445351595076
1270,-0.7068225204072052,0.024575168605862216,0.6462562729260123,-0.10704246837321751,1.3946701207238086,0.0018060422521961605
1280,-0.710063994175678,0.024738721082635654,0.6440856097919753,-0.15785150999045205,-1.3130994732449728,-1.2691927783636443
1290,-0.7097062962437617,0.028173157771143528,0.6408816682526547,1.0704000064667007,1.2349512327608902,1.5769573701218178
1300,-0.707681385137743,0.0323738550967304,0.6543711699416636,-1.3365767638667276,0.1515399716445458,0.6363431458497975
1310,-0.7463738552013844,-0.00700020793337023,0.6096468313140403,-1.064515474896477,1.6949971750118038,2.3382885578159414
1320,-0.734042571824328,0.001112962222667841,0.6144087919469907,-4.258907200129178,-3.1717204271496535,-2.080086530909637
1330,-0.7321527274215096,0.0017006459190701297,0.6216750375583708,2.3422136389572845,1.514852506805146,2.634261414430016
1340,-0.7217140253424547,0.016016757250979865,0.6344741287347382,3.705351696265981,1.801241182488913,1.950004791504944
1350,-0.7101953094767431,0.034073441032715784,0.6439083423126281,2.172719716604038,1.735378208673252,0.9975646110640003
1360,-0.7012821567125077,0.04002734723966839,0.6496829450213522,-1.7324947765299754,1.2489867451445842,0.41005918797853674
1370,-0.7148831805323537,0.02349287179864178,0.6434073173577248,-3.030082625444402,1.6923212454798988,0.5118269921122833
1380,-0.7104562865433922,0.021111508070690267,0.6432339748284094,-4.687137105857191,-0.8730036839925037,-2.5992311456841812
1390,-0.7040500305646996,0.023316440322890947,0.6434313151221875,-0.28080316926505827,-1.3116331908945191,-0.20009009934185373
1400,-0.6732756263223272,0.05222358985380453,0.6744186105843445,1.3862069329923388,-2.061430594033103,1.2761753701955942
1410,-0.7192958101131478,0.016111218180438112,0.6398080322406143,-2.1604555513565766,-2.2365167574584772,-0.4920023239049014
1420,-0.7224125720589698,0.02097693019830677,0.6377709202690305,0.7420917033180143,3.7188408293271182,3.1674914597241233
1430,-0.7199520365172353,0.014300287783072265,0.6377368805600238,-2.195410506542883,1.1797906809652017,0.19792929147289984
1440,-0.7176772089398337,0.013824325305688395,0.6406970851457272,-2.017693573525937,0.9318620070806211,0.5757391753832337
1450,-0.7131043590541775,0.021326880450832305,0.6478282316033823,-0.2220584081235608,-1.732187239280121,-0.9860390034264785
1460,-0.7223238572986412,0.012924475265570456,0.6337224893176101,5.047385245444612,0.4756793465132373,2.02552713960465
1470,-0.7335241738144656,-0.0014886448699144746,0.6229399955518498,2.487388713819967,-2.5594192351734293,-1.1862557123785997
1480,-0.726865851149101,0.010004451551581698,0.6330801865978883,5.425099456043409,1.5801676715797697,1.955638907868047
1490,-0.7074179595638012,0.03240550864552728,0.6540612339576191,-0.4452076367196991,-0.31969457322686323,-1.2239855086879234
1500,-0.7034374556539756,0.0327486922449469,0.6530452303185822,1.395636904998998,3.1769146163634714,1.8499279608667716
1510,-0.7267407188601754,0.005583104091196013,0.617813979853,0.33340379210237964,0.15232667670590339,1.01203532405799
1520,-0.6866991724125879,0.04889602203325925,0.6661133480361305,-0.8977274654885471,-2.282360449810617,-0.0032244711569979767
1530,-0.7270279663991271,-0.0008536968018687859,0.6353050363018964,0.7203774156850955,-0.39139529059792844,2.003889812056758
1540,-0.7107529875692572,0.020108614980246048,0.6429808876235211,0.5346889610218704,-0.22000170897747687,1.77930447660394
1550,-0.7424529933927531,-0.009685707901723194,0.6180583900682103,-0.6606414079002436,-0.4872286139439468,0.6603928927929796
1560,-0.7479615572573469,-0.00740452310021791,0.6136890022478648,0.3431922472491848,1.0715544051374155,1.5312831110971055
1570,-0.732038620746633,0.009873381709223635,0.6275006053945427,-5.691685043421028,-2.9214298592326933,-3.9985664894072963
1580,-0.7213764951211254,0.011107180115312216,0.6326861725296651,0.26292262788686505,1.0284860164193765,0.7774637128692897
1590,-0.7158087353435495,0.021240139628624307,0.6416618066450334,4.246493107967445,2.6206214480449326,3.423189777624884
1600,-0.7368103443088905,-0.002722874619969763,0.622999730016721,3.4930218085054947,1.7625546035256916,2.933229063066104
1610,-0.7240918720165392,0.009188275305403316,0.6331338456525775,-0.10722232035442514,-1.7864424417381375,-0.6767151669111222
1620,-0.7069521632117209,0.02816934286791166,0.6487224485562848,-0.5758617785867132,-1.207566316276315,-1.0079557001090804
1630,-0.7062945997818131,0.03125152027289669,0.6444196309345603,-1.1549230831286479,-0.7396997319344016,-1.0867083823317305
1640,-0.7347962286410529,0.0030539793279851825,0.6201332990649375,-3.5089799923012137,-2.8971269019681616,-3.174514446973521
1650,-0.6967811408549666,0.03721775279181512,0.6607803263358722,-1.2450834025009008,-0.5143857222080999,-0.8657202592912523
1660,-0.7097799321827367,0.023116444686934357,0.646002278987636,0.16668820152270086,-0.962955412828453,-0.9938774181501009
1670,-0.7326296880247501,-0.00409564991019537,0.6228873741796094,1.9583765535287214,-0.012088214209952652,-0.4754100453547775
1680,-0.6932435828995078,0.04039863844634267,0.6645907540688674,2.423657453819403,2.75811156816408,2.7632056156065996
1690,-0.7169937161887661,0.021197265453704303,0.6330097760444388,-1.0778849092423108,0.3141757708557905,0.3611382631427966
1700,-0.7199138148609632,0.019242781208503992,0.6353582511378304,-0.7626332351904052,0.8130598650325463,0.7162934465808377
1710,-0.7092125711860804,0.021970953451127585,0.6514191494390755,1.0503410344055595,0.9150437239337744,0.56711213444617
1720,-0.7282641313088069,-0.004582949587140759,0.6311706319009476,1.5239607980844962,0.4527952800110262,0.8379861420970737
1730,-0.7148575050106565,0.02757719219931212,0.6373767256533711,3.3464517563461085,1.4746137715055732,2.7584335042180443
1740,-0.7131688152937978,0.02638611434668364,0.6478544652815063,-0.6513380986236361,0.2833057581283345,0.4215414426781046
1750,-0.7015994614295287,0.03660187694873248,0.6575842045188685,-0.2974078335158379,2.8873045173541243,1.4254817491846845
