time_ms,ax,ay,az,gx,gy,gz
0,-0.7236543102752173,0.13196808753383135,0.2795626365646333,-2.5242614997095134,-0.688041862324114,-1.737827360207572
10,-0.7291112649309781,0.13693685565306102,0.27940751633001726,0.7136555128539168,2.1531980686207293,0.926091889674657
20,-0.6947914781321524,0.15728223197353713,0.308138281794479,2.745939810055345,1.357740537479902,1.1388163575428618
30,-0.7217349331414389,0.1356299062834298,0.2840325636150761,2.9310464810929866,0.9871155181133884,1.1414288473573921
40,-0.7073588094517046,0.14893400563299866,0.2965747741423755,1.809595321972428,0.2549063472033058,0.9358521918291585
50,-0.7202856352376229,0.13850390563087683,0.28745495526424986,-1.259594067992329,-1.7880925487791468,-1.3029501485952015
60,-0.7501334671943054,0.11164576910126268,0.2566522779941919,-2.0899397642635185,-0.9454543395197634,-0.8095352560967262
70,-0.7289911926378351,0.13997578814252992,0.28053416971556316,-0.39985756282711704,1.3563775703696157,1.0560832733090066
80,-0.6799475240433914,0.1860684154839142,0.32554311551332116,-2.411067747797542,-1.6481183616131476,-2.0183530351909407
90,-0.7235000345742734,0.13738059029677252,0.2777625028150511,1.7924973561956536,1.2146648903514103,1.7940212667029614
100,-0.7082138254975753,0.1584507814206218,0.30521983723539176,2.286492004710666,1.7980713873657361,2.0964639733250228
110,-0.7401796168085308,0.13018183545201872,0.26728545392237,-0.8092872483571001,-0.6067560917127597,-0.4119452700041756
120,-0.7554426483543306,0.1160398245745779,0.2492450447179077,-1.3202005781018529,0.29874273081559877,0.01562910857870356
130,-0.7316834821306594,0.1302797408641941,0.27383112058959985,-1.900678861128657,0.41126499293067525,0.033082248206618425
140,-0.7286485858727427,0.1335541650023033,0.2802525849677084,-0.32456277405719103,0.28166197945071253,0.16972522527167222
150,-0.7282822593118686,0.13645434403579265,0.2818266012039161,0.6542939765191778,-0.7001575045917928,0.298455190742406
160,-0.7168899080332076,0.14817726709459297,0.28864600853494976,2.7801612968572864,-0.08264092762256159,1.513613521191735
170,-0.7212350028147214,0.14795701808112718,0.28687408031995376,-0.9249717188907634,-3.8503175439039996,-0.6785362196625149
180,-0.7366171804007378,0.13710209769899018,0.2985345860435856,3.4091628378049443,-0.1398044662080189,6.127469924791663
190,-0.7126326740416971,0.1523148099907648,0.3191584248359072,3.4532340624063464,-1.7097894675742003,8.029136139179023
200,-0.7822852392415824,0.135014232382107,0.27662638859677097,4.2493501151224224,-10.564749568915483,8.077169653110891
210,-0.7058262173693214,0.1827288155866289,0.3472908452228353,7.557005225298347,-24.941680820809776,6.636015016820081
220,-0.6512755101972428,0.1499332301210749,0.3289716354412183,4.6939856477352375,-29.472962137558564,0.19936185905610765
230,-0.6500888355346504,0.14753707084664325,0.34181736917693223,-1.9090239357596712,-31.724078635544476,-6.940818373180157
240,-0.6361242255701361,0.15640635573139605,0.3250823726669715,-13.61592940612504,-31.133872700418394,-13.7929038727965
250,-0.6268764775764856,0.19718304719432997,0.23015810199957495,-21.373601078023043,-25.33973247470962,-18.688293652389792
260,-0.6908415701236955,0.16389694484528555,0.319981761703976,-30.730460804258026,-5.505174919821359,-20.454500016812688
270,-0.7495552935387745,0.15501146742102598,0.32482420594321076,-30.061801701562782,-4.292873568769558,-18.081448252000694
280,-0.740269675943242,0.15599949512028755,0.3253332185969355,-20.058958652418518,-6.0287331476764345,-9.459490386978889
290,-0.7249133078860954,0.11846405655179064,0.3313631577669459,-18.084280595187813,-7.969791255634312,-8.547848578143855
300,-0.7194677275253647,0.10806505311322573,0.2910098773351492,-23.04895942163945,-7.341924315581802,-7.1390201086495315
310,-0.6848777520792007,0.12970797553214963,0.3014951715757826,-26.46878554503982,-7.527718605142095,-9.200208904437526
320,-0.7810789362536922,0.056175899393544865,0.3689207493230918,-6.334625889604082,-5.119702631906625,-9.391304560242551
330,-0.7365761623472185,0.06092378956919291,0.315916377588776,-2.93701650257479,-3.0644662176186057,-6.339239132643397
340,-0.6790184207983204,0.0787748239985811,0.3838216850656687,3.690190350039983,-1.8683860786023532,-3.512208117659518
350,-0.7123469195945288,0.06597834249402215,0.33832088387430875,6.495920620271322,-16.687574463910032,-15.794875815959
360,-0.7059940922513492,0.052037321304886565,0.30583815672883813,0.07375814417352466,-16.524561400100765,-19.691562842956646
370,-0.6784756725903296,-0.05084921412299062,0.39831954991635715,2.6854564477347775,-19.061906188131136,-24.85500532736624
380,-0.741002368214211,0.1868939543300582,0.24783278175274862,22.392499471822514,-12.29678923805348,-15.68176866331307
390,-0.7384319180400429,-0.120965050471885,0.32521883322847167,1.5982530963054056,-7.750518509773658,-30.22892508687517
400,-0.7848409088163625,-0.228004965559825,0.1961750771392678,0.3101647179735805,-1.8177786704930035,-38.0766557206359
410,-0.7574715176944569,0.11680500245589238,0.20967744096164587,-9.582754326252973,1.6629690508948136,-27.28782660235326
420,-0.6740776148129917,0.35087065441241877,0.43129631680025177,29.578550761750275,7.934801417501679,6.023357749799133
430,-0.6990402304894673,0.09547741818688645,0.337935220704483,4.499325191550111,13.989626254553363,-8.223484635132165
440,-0.785677735878982,0.09794148819394531,0.06457898309785622,-14.11058350493083,19.763051161282963,-12.710396036011812
450,-0.7876515774090888,0.19701916394421465,0.16530438763225663,-19.896008973433002,18.63929712428401,-4.698332383891961
460,-0.7129122016686266,0.16022733693955465,0.16976387067108445,-14.229007995757442,15.020454855258963,0.3599645766224746
470,-0.6670490971726181,0.09347483744162983,0.4001783386434464,2.9852065474109626,5.142611626360044,0.3736771928650421
480,-0.6811189090366713,0.06833341439441395,0.3301995363899877,-14.618304418937196,7.871176308579514,-6.298290148274857
490,-0.6679173656746148,0.02475262469355324,0.4011052777368631,-18.96147998626517,0.8072719081241093,-7.853126594113309
500,-0.7141164833664491,0.09515355048407707,0.3358407132730968,-12.214906913938691,-0.38903665147747385,0.2144436142241608
510,-0.7218902217961541,0.015397515914528865,0.30893341390655826,-5.602129500814668,-3.4996971174257223,-5.672012657316365
520,-0.7166298044675923,0.006702157064298627,0.32479379654992985,-6.61266424992845,-0.8927298910891992,-6.631468427887214
530,-0.7182733941072833,0.035629166071490845,0.3193163774645307,-5.027907474029854,-2.096934158710404,-2.934817091930345
540,-0.7158157781874511,-0.12364141257192363,0.4222765426057936,7.381770820373335,-5.091891068823701,-12.318646631719337
550,-0.723979678262403,-0.02341263575259484,0.22202894621470012,7.285446785261691,-2.267358286442553,-23.569137613549394
560,-0.7134328341720133,0.1616206663774962,0.28901248694620746,9.065220915766819,-2.3856746603121546,-16.10062963407486
570,-0.6948707593332384,0.07504522161226834,0.31703675291737843,33.33406771062516,0.4962754424957634,-10.015847118165471
580,-0.7664267835101064,-0.031481573816571434,0.2724654717604835,16.270405427103853,5.010774378864778,-10.158865102843581
590,-0.7196269962043227,0.00630580133286479,0.25182635798994774,23.29473227139297,12.67302182774938,-16.500545628012272
600,-0.736905550181873,0.09243678478600291,0.38725599551124607,3.8608004052576104,26.04101820652015,-2.8112017632668977
610,-0.7003433749379997,-0.05053172631963004,0.6464551987611135,-2.9470256322078026,17.93049548412683,0.6615896697257804
620,-0.71125430095966,0.04553197309038553,0.304074611692756,-10.963096180677272,16.87491082242473,-0.848878378618539
630,-0.7252422875431136,0.17956480097143065,0.1910165837649641,-14.583512094457607,13.547339923067135,8.917354688733257
640,-0.7153009187356024,0.2409012890628176,0.11617583130475487,-5.974873342076506,6.222093064925349,20.496573314869988
650,-0.7231353414337486,-0.047886967607416286,0.1218699726236593,-6.469256099328433,-5.618711507706996,-1.9117830198238142
660,-0.7508376907162093,-0.053169258081255964,0.27685944774206145,-18.257007435497634,-4.0363026241372975,-26.90273997566048
670,-0.7322243559426455,0.05018021741865068,0.2724019622708425,-10.041811797331961,0.22198260135642744,-24.721274799301273
680,-0.7402654397544366,0.025882757966566416,0.28574399016981555,-4.22101410779353,-2.3873898730534764,-20.82767986673097
690,-0.7176626574645559,0.02186350809484367,0.2941026379663937,-3.3238116428691136,-2.9291554494210947,-15.385128282390895
700,-0.7512226037782622,0.002937815479746579,0.268324463379338,-2.5206836738846343,0.08295932270933679,-8.201613132275522
710,-0.7406116440551694,0.03383742250936421,0.2816592069174113,9.562410322655518,0.9330979307943659,-2.321451791210967
720,-0.7397379097541754,0.04537784877686829,0.2843281478337618,0.968833732388191,-0.492771928866261,-14.975742837345782
730,-0.734725697185809,0.04759430625829882,0.29930716312671785,-4.442988854873315,1.1461196990040936,-23.7934132251093
740,-0.7232486527110591,0.027583877099561865,0.3029038862958169,-6.194914649842566,0.7903004224622779,-29.776906478144944
750,-0.7235084604165589,0.0060630770051536866,0.2909947310713878,-5.809884608940814,-2.790211724741223,-33.030793046605815
760,-0.7233052061532987,-0.0027225706421174518,0.2913806651691907,2.0525531895016527,1.1446336301907836,-21.717116321700992
770,-0.7001090270519602,0.0067825864193001,0.3209016057492301,5.515976929417436,-0.2910893780778364,-10.886518410984458
780,-0.699830247879919,0.01152103138113949,0.3251479587485562,5.762594033300507,0.36364292247339247,-5.265348804610033
790,-0.7106083831917375,0.0031358338356666706,0.3127369187122095,2.9026984537983234,-0.6871592476044567,-1.5049532304463809
800,-0.715582356242191,0.0015746492386501925,0.31014087167061416,2.177174378584562,-0.5526762445603259,3.5269431933407525
810,-0.7388908874673066,-0.02131665299827689,0.2880721067113667,2.8230013064156827,-1.499139391974968,6.976008329357123
820,-0.729302070138301,0.0023148612803164776,0.2956763469435576,1.9313319215326934,-0.2850632537279749,7.3720511034144325
830,-0.7438904294059389,-0.01979554627836357,0.27560122158367956,4.214108836863614,1.6279089766081412,7.927456309217404
840,-0.6994685567391291,0.03557456551966101,0.32454233717547876,4.496587267887711,1.260318905867871,6.438863206542011
850,-0.719371928053314,0.022481709574378086,0.29854261872843946,4.114016529663079,0.7382221354643665,4.523557111542859
860,-0.7251099741341636,0.007797485067528871,0.29420058501318436,0.061464841686678096,-0.5573333447509492,-1.60283829719046
870,-0.7307686065363229,0.005242000903737766,0.2984531588303979,3.589059081725075,2.439805944258584,0.18485736740281444
880,-0.7540867186873673,-0.028358515930731843,0.2756080829910257,3.313544613776402,0.16284394563013194,3.431416024303407
890,-0.7215335292566447,0.010187535831498607,0.3003871202756748,4.562608111106055,0.11042134923635644,5.280749018126265
900,-0.7126444304637449,0.019872199305304837,0.31319923636641445,1.451424285138572,-0.901888434794686,3.4162995947346726
910,-0.7344377194604167,0.0003707464685128361,0.2875376395579064,-1.0619348002207296,-1.2829040082822702,1.3202033112557503
920,-0.7278451230366718,0.006691285451695407,0.2929979534193062,0.7633194029321713,1.050275558533422,2.079943861454295
930,-0.7129824278119029,0.017492865502698317,0.311163307830058,-1.1852844823959838,-1.0720202867486561,-0.20232336877387858
940,-0.7190437079441638,0.011343503702761625,0.30441105087119885,1.941355023897736,1.2929177920829034,3.2287508310612947
950,-0.7375650858819185,-0.0007422549168548138,0.2887271538856307,3.6256753743989236,1.6461543519659891,5.4598352516959485
960,-0.729805511751484,0.004087577910329069,0.29996221128018213,4.647078432063827,1.5930745504940655,6.018172250489279
970,-0.7212602537574876,0.01686193533638198,0.311199598920636,5.276622210354241,-1.723118302158536,4.456989772864037
980,-0.7541714253735978,-0.011298146771979777,0.27444825569340864,11.021233869578225,0.4191218644206397,8.718701529914217
990,-0.7429529707614596,0.004192840986290587,0.28480582122632825,2.7247282961631,0.07621436686686978,8.454963889519838
1000,-0.7428354107896725,-0.000408647416206602,0.2928478941792681,5.286536886533522,2.631936370544579,12.38490973833402
1010,-0.726014384560618,0.021577654755518268,0.3002578303046574,6.2498235157078526,1.1761260116681838,12.904642455184831
1020,-0.7213353330129659,0.03754470525922685,0.2952971808833573,7.932674104467646,1.998538232751088,13.518516613610554
1030,-0.72024488782935,0.04533659198817182,0.2971124702967325,5.108002678099271,0.4087034260111649,8.824124843462988
1040,-0.7355626488549062,0.030904614178696062,0.289294509471902,0.2925698661019316,-1.1397936616204771,1.580975464108016
1050,-0.72644574922877,0.03298751080336843,0.30161769539577493,-4.412589197905671,-2.446229416647756,-3.7887260879639726
1060,-0.7234571696665368,0.02985125180454433,0.30086079479341926,2.113488708544536,3.101163636812119,3.195537616885058
1070,-0.7023268829594409,0.05680124174049663,0.3210164540955589,-3.534984575752557,-3.341319951299566,-1.9648271636219834
1080,-0.7095772388232617,0.04705522669489509,0.31263094628691324,-2.567206943231238,-2.488482798151167,-0.9035584712351035
1090,-0.7105993897427585,0.04387385156512166,0.31261967717864914,-0.298815230640036,-0.13562676146617159,0.9009547232137048
1100,-0.7387999579030663,0.019232449356458826,0.28434984531016083,-2.2844275930029485,-1.094458194691126,-1.4061763800152076
1110,-0.7154696812785316,0.04059434953411717,0.3143148274501861,-0.18633188878194096,2.173973423227872,1.877258328844446
1120,-0.718694572917538,0.041783899847348795,0.31539635765008744,1.8242464856993676,2.028305488639606,2.818408835809279
1130,-0.7232309336392468,0.03925868434941174,0.304354262591764,-0.3901600065582478,-1.9166107924757048,-0.9036425536355692
1140,-0.734250066243479,0.023641418063985876,0.2925170349439907,2.2519136279609966,2.0288149001393743,2.3425703868335983
1150,-0.7166656532222399,0.043350733617545836,0.30403225789655064,0.5312230112134334,1.9369831963774384,1.365242956092308
1160,-0.7468868935865846,0.0060116199020138796,0.2807360412541642,-1.2829208217712826,0.17109038414479294,-1.1715465051538243
1170,-0.6935910001960199,0.05937995314925293,0.3303133675354288,-1.0218289088265593,-1.286115109768933,-1.6666067893237915
1180,-0.7355469508532884,0.01857610355617274,0.28930336103762133,-1.6098915191387688,-2.7664738781635467,-2.25093291916217
1190,-0.7377446954486647,0.02323262873002957,0.2894120659663585,3.530436184509215,1.4375131071822151,2.5282410179614465
1200,-0.7050982447430338,0.05780719813565718,0.3220224142769875,4.434878148679191,3.5490186516565885,3.485789241421527
1210,-0.730444071901311,0.02900348708322085,0.29787514191429865,0.6651174770192732,0.6224938242076165,0.3034210997466449
1220,-0.7209326634607632,0.030782206349646513,0.30673205967283523,2.0719627148150392,1.0989513705883431,2.1783544942539628
1230,-0.7144151647921112,0.046177410666596405,0.3162599430917433,0.23966696250087294,-1.0929995036965672,0.2548968731996373
1240,-0.735282230516154,0.025779842472353,0.293035895250076,3.615459175043423,2.2723532612281208,3.0426203995582117
1250,-0.735415697036294,0.028198615251491276,0.291043705516103,-0.11030246287697454,-0.9938563228019848,-1.227801381725965
1260,-0.7401751658461753,0.01831096322911946,0.27490485903050765,-0.349768561323748,1.1503194595809592,-0.9286448766386459
1270,-0.728131568776884,0.026140727100330968,0.2970841666591951,-3.1093551229056233,-3.122324662675701,-1.874574756141005
1280,-0.7140922854192067,0.038111448219428495,0.3122087542295521,1.8227536156528732,0.5993080488029555,2.8251871576852228
1290,-0.7399810113066619,0.018180140938162233,0.2901557683036038,4.219315628733332,3.181764728203171,5.18343048693886
1300,-0.7294804882627461,0.03281562597548768,0.29474335746429015,1.8673967133354727,2.664971853367304,2.2619691254112397
1310,-0.739520559854123,0.020116991690549563,0.28492742098929036,-1.4827073675874427,-0.32029141124937754,-2.385183911886411
1320,-0.71641303891481,0.042975381718134295,0.30958033406862306,1.7272951564248002,2.3160466838022304,1.2964156345053663
1330,-0.7145360452783959,0.040757168100817,0.3089364563597186,1.1958027779447131,0.6311746025768301,1.9851538940520947
1340,-0.749753013313144,0.0071119902806180725,0.276505732919538,2.497572199610069,2.4236244573134242,3.4871050710908813
1350,-0.7530600369043413,0.008270483301203158,0.2773761191945048,0.1550658994849003,0.3470497038781684,0.4078722398909739
1360,-0.7330293331303499,0.033404798776006564,0.2998590940410497,-2.028325806117584,-1.4144247040817863,-2.3724494650104173
1370,-0.7134565554390551,0.04883537756009994,0.3083720275622556,0.34195334646554065,0.9864599960870937,-0.5346849885567975
1380,-0.7445451783047268,0.010583010022875386,0.2809651231966393,-1.8144347600502464,-2.0615762627604695,-1.3493845667838933
1390,-0.7362171765047107,0.018828050470296863,0.2888057661940158,1.677978475911773,1.3622649168220518,2.9495309343070413
1400,-0.7408509439819982,0.021550477710008894,0.2942368777963278,-0.08261862148360022,-0.025521780088741952,0.9746982992381918
1410,-0.7268344135452617,0.03564752215827774,0.3010777009184391,-0.16860817719117932,0.277747469641639,-0.36622239771730297
