time_ms,ax,ay,az,gx,gy,gz
0,-0.890266224109989,0.182250067483987,0.24493581928733726,-0.8374873394049358,-0.1392892093099376,-0.4691479786950435
10,-0.8798989767490234,0.18188969832030963,0.25514282272656474,-0.11012871750542164,0.5039470349401682,0.7645005092478556
20,-0.8841238411923882,0.18511845976723967,0.2441699812745944,-1.6420699175132907,-0.6079882540558597,-0.5893022436808093
30,-0.8894468891111871,0.18262900827323675,0.24256179939971517,-1.3932007259501098,0.21848492537527514,-0.34012115242150703
40,-0.8736414106982187,0.20512385177492323,0.27123692611900785,-3.2675376489292054,-2.233753003916298,-2.762131954163309
50,-0.9036870708682215,0.17007939348788603,0.23969013792975424,0.6022800600680631,1.1436386470858415,0.6511851644516888
60,-0.8713069693863355,0.20172677607654965,0.2652178854971199,-1.6203835830248254,-1.3859924191669717,-1.4954663955143594
70,-0.9400224805967672,0.1373826196264011,0.19461695424525244,-1.0830440916903217,-1.655681809239327,-1.0369351321100022
80,-0.8955069954096914,0.18275123336611657,0.23953660427215,-2.430588518410166,-2.501484413790072,-2.247983933665707
90,-0.8867845200853574,0.18666621605494477,0.25192122423046737,0.07153288962430526,-0.37761997499887323,0.023255647312046768
100,-0.8836527369822472,0.18471375264027515,0.2473769087818022,1.322050186742567,0.4541281459844037,1.0500432452108945
110,-0.8771846567678214,0.19657414623160357,0.25833849665660286,1.2392160087773534,0.8363720332396836,0.9942796098137825
120,-0.8677392505692425,0.212174626742859,0.2725363696813721,-1.215275893983604,-0.812262107479228,-1.2787945126089313
130,-0.8887232157810834,0.18915276163985703,0.2543816477118997,-0.0030190890102494983,0.6972705359994817,-0.29160039731245035
140,-0.8819846182619001,0.18646886916394068,0.25536846940593577,0.10518422051869869,-0.30582576372193704,-0.7796235737100214
150,-0.9374213108843177,0.13914424013622556,0.210874104786539,1.6612597704803884,-0.15630071382539545,1.046576881092181
160,-0.9138311116204716,0.15930066132443216,0.24026719355053225,1.6350816866638223,-0.041266827390814775,4.4779936029942675
170,-0.9175718754699055,0.1580556325600411,0.24281991463803057,7.618070582547014,4.045152516874786,13.80190717132708
180,-0.9172609111514609,0.18872495912308265,0.28346687736321274,1.0180865444095424,-0.2442456090816984,12.502267466475322
190,-1.0513842429923819,0.2145653332054696,0.33044787972443446,-2.8581313203241283,-3.4608318985734607,16.03587925727758
200,-1.0904297100684,0.20062538480567343,0.44639265449109133,1.7259181821813803,-32.04664501686551,5.10816404270345
210,-0.7175416364226788,0.2504646525206274,0.37441797306347546,9.45982092957193,-62.604576430180884,-17.036215752837048
220,-0.7258431602778687,0.28528982477821646,0.3070476074967512,-0.4506626636306512,-59.459741141377265,-15.794448483144528
230,-0.7364207146555473,0.13070248157721237,0.2734883783615939,-13.282056439664725,-54.146518481641856,-25.21768871360304
240,-0.7279108641433139,0.14909405369905065,0.29910321654242567,-27.021825444972492,-47.73164030183011,-37.3807733113849
250,-0.774108613415952,0.14928877278470748,0.23695644278960654,-24.4555556768809,-36.409839780944765,-35.17031903978072
260,-0.8299880186951535,0.2510415740984306,0.31172927154340924,-35.370578873054775,-30.511828707100406,-31.135663608488933
270,-0.808886580850052,0.27824600764411533,0.2999393345118703,-50.124075873885666,-16.422129044467127,-22.455917389129098
280,-0.7321449307184125,0.1892932021080502,0.29157735217651276,-42.78457431955969,-9.358391615253975,-16.523026050353554
290,-0.6905963305299702,0.13599420411767904,0.33807437730138934,-35.16243942927867,1.0465176316980371,-10.196433533289376
300,-0.6994092641396695,0.1001059856713972,0.3433473353016309,-30.57003646241108,4.211194628505341,-11.138269769417862
310,-0.9114453911431009,0.004373136803535077,0.4545257023769521,-30.739637566752645,-6.096206156525425,-15.672224654447712
320,-1.0960241058036886,-0.0948778246845546,0.5584927741990925,-36.806583871425566,-25.28126739503733,-23.211826172148047
330,-0.8406371576350236,0.149109059582822,0.2521722336287163,-7.451424442901105,-19.77561877063134,-14.011491125350526
340,-0.9356809791013467,0.09884064146088158,0.14684922951060123,2.33713453037793,-21.03143085791617,-13.778588571055888
350,-0.9442393393956039,-0.11280472094567928,0.21140351111172562,-4.441901263799659,-13.123097203460938,-16.412101828682744
360,-0.9967177341199676,0.10803158850346077,0.2567035081206289,18.085343597505876,-1.1346759092324303,0.5446554157216659
370,-0.9546547861677375,0.10239269141045866,0.26647200769663326,35.5516249054304,1.4147858634655117,-2.7613115357463736
380,-0.8992081648061715,0.33771892083714944,0.07187665028770476,50.28062955897064,10.33316181918322,2.6854005153148064
390,-0.8270965974444292,0.4299809219658363,0.23380538449752666,35.9907981991151,20.429421075129426,11.532389770787589
400,-0.8159411576774843,0.2840415774454887,0.3378687007572818,17.56651269572236,32.29555659657774,11.698311673461275
410,-0.8468909315826019,0.45803664548315204,0.12007046732318383,40.53463512080174,36.09061652349126,19.974249634693546
420,-0.8369073546697251,0.4849940108929404,0.30143261493931567,51.24890451045511,40.63712368044917,42.567182079031305
430,-0.7647756203175367,0.19444689701537923,0.4856495731192748,50.42047264423346,38.60178093287733,45.13323137572944
440,-0.7084813588315634,0.12530985211017223,0.5009569613006362,28.472120968175805,21.923487093867635,34.126694535761374
450,-0.7963686021175986,0.06165934479183635,0.6337429914354437,-13.379628474311213,12.879013302683715,28.265090479524254
460,-0.8264561295612702,0.03112623706413747,0.4377705728233474,1.008766265298325,3.1223701385762825,24.384993529475995
470,-0.8212027844034363,0.03247583257811979,0.3295206223166163,18.976164776210414,2.65406679760747,21.690771819839078
480,-0.8715851374222902,-0.07393579630715658,0.40064579014251567,13.453082452562507,-3.1129660643701387,12.90226309859824
490,-0.905665351917132,-0.06897738077255586,0.40651178311736474,14.556818422806206,-4.192021231646278,11.659150516416508
500,-0.7950861660372868,-0.0029172786185530097,0.2027045698204374,-1.4967510143185083,-1.7621239149216446,-22.499225823823725
510,-0.8636288953019453,-0.15597666698153456,-0.2305425754113397,-9.920106416510913,7.63171818888045,-50.104730715189866
520,-0.9224839980333984,0.043325784810904704,-0.12121136201303712,15.253427871614953,15.384451904388548,-38.82710053895466
530,-1.0592073243350273,0.24527591912651445,0.4923120549783184,77.0916854970059,23.337151126306097,-14.637008200230872
540,-1.0775093203817858,0.43757870486021494,0.5883177651043782,74.73351230895005,35.73782699899734,-10.66672290368584
550,-0.6998135630277744,0.4421565289621691,-0.722457079838023,22.31175687917878,63.80339921714465,1.9746689125416557
560,-0.7407444283658835,0.34231108784308456,-0.36325196661722225,-47.981743487745,36.198477611486474,11.293881498690201
570,-0.9200315972210197,0.365509396955338,0.2975446923303411,-69.52552953470457,20.54338671324902,21.472115089505895
580,-0.7694279215716615,0.25729416958537604,0.18896103907496875,-6.617818712981233,11.47210983238737,35.81107080315919
590,-0.9483261019817489,-0.3254227360023309,0.5916803340144998,-31.53003603406858,2.6330245320609227,17.70308317182067
600,-0.967283278051534,-0.3163695777418828,0.6045193840031844,-42.68864721793837,-2.6570243776871827,6.8518953060040335
610,-0.9358401907251956,0.007130226076800321,0.4886471948690152,-10.56365208212243,-8.275915568131534,2.5879776124796923
620,-0.8995282410641966,0.14646844559444297,0.3206230260152081,6.300767782473079,-4.068657218549671,-1.3678900748840563
630,-0.8922728777530441,0.16707241803126838,0.26083731277244376,9.37469177525907,1.4056644610947258,2.1530037072566475
640,-0.8934627630790751,0.18139594589325997,0.2589576868318946,11.37197344983405,3.496447423194297,4.623478847700986
650,-0.8965191618222439,0.19515166382712032,0.26191202593808416,9.661013940915112,2.593447388159214,2.4824356419323466
660,-0.8929302932792982,0.1899526182957399,0.2674011753054574,3.21420641779717,0.9885310986305074,-1.0111571218911801
670,-0.874558214251609,0.1959780678049926,0.27198786507761213,4.751789939772641,5.599184058950905,3.0554459641238445
680,-0.8725431324289281,0.19449127710940606,0.27765914803750663,-6.5292309704354885,1.1747635730052763,-1.0759138750013972
690,-0.9039166985997994,0.18226368622943545,0.27434488719884287,-8.325263733845087,1.444909310985138,-1.4296121723710633
700,-0.9041452918555918,0.18396729648388707,0.2698938741373185,-14.40192031649592,0.318381518740917,-8.200189826387172
710,-0.8550443552042314,0.21566905986010196,0.2932050947757881,-12.87716550151844,0.9449519464957576,-5.786635295845419
720,-0.8890141443332588,0.16494577400918253,0.25949211039144215,-14.767682107659983,-2.7322598711317454,-6.657254721534986
730,-0.8824055212337435,0.18956692463247166,0.2825708175823081,-12.573476718981885,-2.241736573830935,-5.225778670636018
740,-0.8964717458785852,0.17467484897208868,0.2836484288805693,-8.875447003427308,-1.4614841811380117,-5.413215883858034
750,-0.8574891852455805,0.1928021929958968,0.303164631674292,-7.07388638515859,-0.5050333200778017,-2.4516650358972805
760,-0.878037412937528,0.14979817555661157,0.2692136261398377,1.923624746821143,1.9733808276731806,4.24955982298993
770,-0.8971360009013138,0.15072467330948852,0.26289227402062815,7.581978705036814,3.1496765388227623,7.663240213883974
780,-0.905806030126379,0.15037560060713942,0.2575276916384826,11.641513080821351,5.349841732897104,11.143688382863909
790,-0.8617109267889431,0.19637997183104042,0.2817023975074594,4.5103358131273925,-0.7692780406327477,4.731880684905694
800,-0.8856269854789788,0.1839710795916957,0.26252661251877885,4.256160778984834,2.2660461039723256,2.471210230129773
810,-0.9057097174568168,0.15955169942309572,0.25079905894201837,1.7026190115885784,-0.7401661017464598,-1.8587979789227975
820,-0.8759447919828073,0.18901121463435447,0.2782354539200238,3.227703792964908,0.1732980828614762,-0.3540787401530108
830,-0.8834359133229521,0.16978817357081516,0.2575210725712097,3.903465899031201,-0.7548847709976881,0.7028800415773201
840,-0.8772171535281547,0.17626069432878078,0.27737032758204155,2.236020718700049,-3.9464917038113434,-0.27700458387010474
850,-0.8992671914668204,0.17229207043549002,0.26631680041158134,5.359321289246388,-0.8552732167217935,3.738753129208094
860,-0.8619180687370659,0.19921911437142611,0.29222246539058616,-2.2005054286267907,-1.645345949467691,0.19031275429918665
870,-0.8674830907034572,0.19547721216580055,0.28297007251734213,-1.9202907708435735,0.11852119429398023,-0.09244910940982343
880,-0.8978249819191989,0.16297289842568405,0.2582041725077252,-3.8501658931932607,-1.2654363238257942,-1.4675950449539505
890,-0.8459760468629188,0.2015807028258389,0.30704493724393545,-2.0820928792140014,-1.1284735639952794,-0.31227643441226666
900,-0.8740990181816499,0.17799965526623854,0.2831529576662767,0.8494645644321874,-0.8158927778770295,1.4937247479428397
910,-0.8768767880549564,0.1908604906221733,0.2743052481496329,1.5483657681610463,-0.36094430515058057,1.0377206381534947
920,-0.8766072798138528,0.17717452659212243,0.2742170409747602,-1.3191179624512883,-0.8625599622419879,-3.8371343943658323
930,-0.8813731478630416,0.16684063265677493,0.2713351591923028,0.17405182495288163,-0.6770317848825376,-2.3358840624180917
940,-0.8911688898823678,0.16061859058259603,0.26373406424675083,1.1245695807509608,-0.8906862797244012,-0.17402399353720333
950,-0.8972669499029102,0.16287568243233136,0.25869308474894775,3.0783778869314333,-0.36598622050287366,2.5287932318615365
960,-0.9030574387478175,0.1588033322584131,0.25580340109979305,3.893910201340498,-0.8107363909218537,3.249729437773147
970,-0.9000811300091158,0.16597524798685162,0.2626400218909971,0.362932026869045,-2.514936537801554,-0.32124622446130946
980,-0.8826970204254442,0.18442977438248362,0.27389061383219426,-4.326581713473292,-1.0882435479483106,-4.513596535114938
990,-0.8761904645245364,0.18643099379337186,0.2880115343564729,-4.751077757877034,-1.3645981167822134,-5.0390535688182965
1000,-0.8749991582562324,0.19000008553714137,0.2917899967265967,-1.0068352296343563,0.47492002096501695,-2.057221144270408
1010,-0.8843882167351323,0.17004229912425217,0.2736433090502633,-0.5931869134892434,-0.04968395395051689,-1.0493262980608975
1020,-0.8591060758965952,0.19391492141870967,0.29823555188679846,-0.027200165849459723,-0.9869753331408866,0.2817197711650298
1030,-0.9075490518725225,0.15923427488608682,0.24905592835933255,3.656097888944897,2.6425718961235463,4.482327712679828
1040,-0.8871474466545481,0.1776469884913588,0.274452880335231,-0.7586037855139713,0.21210070355453364,-0.09982046794014598
1050,-0.8865801533717936,0.1668911614439783,0.26895560000384794,-3.5979486917925136,-1.999015857824129,-2.594013596077631
1060,-0.8747548142268231,0.1761098559053325,0.2845472713646085,0.735857623324389,1.2532452843510864,1.2357739073488851
1070,-0.9054162394529011,0.15186851075875776,0.25560697927063664,0.9891788913485077,1.623762775554072,1.935595365444338
1080,-0.8788887750998097,0.17778091725474096,0.2798476374225361,0.3193598758145262,2.1201807025995034,2.3482940863673663
1090,-0.884992219893957,0.1831097868548052,0.275218063701352,0.8753311662992664,2.1004198238006637,1.6485753038476911
1100,-0.8720328236650063,0.18759024731971422,0.29030286584541803,-3.8415119559919733,-1.6253149072792885,-2.7850911235570392
1110,-0.8846202650952172,0.16573855991297642,0.2768112836224121,-1.2516250452970903,-0.003304688974659853,0.004375300334574117
1120,-0.8898935166875509,0.1674681634127982,0.2702721519075599,-0.4901853347919236,0.06197965357128865,0.996008656678959
1130,-0.8867414036643073,0.17557793782112677,0.2736214801638296,2.656723223559325,2.4046143163141274,3.7901139777714117
1140,-0.8846079316472951,0.17684191169223487,0.27447281957860864,1.5006122637388422,1.641336162465786,2.5014834483755983
1150,-0.8786671340761557,0.17977123608207465,0.28492315881901387,-4.334283528438986,-2.9352644667491945,-3.4492360553876185
1160,-0.8677423559403515,0.19200998691153484,0.2972160214231985,-3.2994199938877715,-1.5782501479461029,-3.0447819107938834
1170,-0.8840919563310835,0.16667815988257006,0.27558317219379014,-1.1581586395821897,-1.2485522901839299,-1.6215418569937325
1180,-0.8852160319212823,0.16034169306383925,0.2739065060434839,2.9468511380712332,1.8877017703724246,2.8338678690217205
1190,-0.8777608095759192,0.1678620936967496,0.2851180926164938,2.4539931402041284,1.1260140440929916,3.102024186994367
1200,-0.8912865505308443,0.1706846420169622,0.2748163182127186,2.974006872772991,0.9000141479028674,3.09911443641648
1210,-0.8912600765651987,0.17209116038498012,0.26753783383856883,1.655438959651416,0.783936052006465,1.0829842415374131
1220,-0.8768968333777102,0.1805127081037103,0.279397948919769,-2.2328842910807394,-0.9724517322633064,-2.3018019055806103
1230,-0.8872451845275289,0.16773812208548483,0.2706176420710017,-0.9254437964543296,-0.32524778125523357,-0.7323875306114738
1240,-0.863096660197447,0.19637010071353883,0.29813835420486046,-1.4780947190602052,-1.4220309401478068,-1.0990820391855236
1250,-0.8737843720084426,0.1834062087236588,0.2841123538158221,3.437504808537392,2.8097567982616756,3.655793797272814
1260,-0.8843630674785343,0.17136087583108578,0.26912875062667674,1.3479823640539468,0.01897756030323583,1.6417738850871535
1270,-0.8805375847015559,0.18568132959979838,0.2778562326647125,3.5607683633262357,3.243939024680586,3.984022957921124
1280,-0.8852877378719669,0.18498217705167477,0.276243675171116,-0.003217379401539988,1.2298081042493803,0.17075235338861283
1290,-0.8959597903012189,0.17121768607514237,0.2713291246648562,0.7406558418208173,1.7551253838865022,0.3154641366583697
1300,-0.8850858081737377,0.16973676027866497,0.2746482593840266,-0.7328038126456675,-0.643262558251859,-1.3607240925069148
1310,-0.8751218094505724,0.17844188941364272,0.286908931347489,0.19328397917379703,-1.0501280478782338,-0.6236714059477473
1320,-0.8885371474670132,0.1678142231302487,0.2790055828164688,5.080324948991546,2.5804736193305295,4.5085496323330085
1330,-0.8822844213443146,0.17778520109074888,0.2784559371944302,1.4149163709570551,0.004453125567015825,1.2901111526028486
1340,-0.8793485288957775,0.18586639589394338,0.27270645110872277,1.3776786375530712,2.1299350144960303,1.3369994728881354
1350,-0.8665145701267906,0.1958845940465911,0.286364360411821,-0.4350070171211175,0.5183902745326594,-0.691311526858773
1360,-0.8870305386524954,0.16860395379031198,0.26559616272870556,0.35833506660977854,0.4037105859473891,0.18147927689983212
1370,-0.8689491176275995,0.19359330630329477,0.2858666657584963,-0.3212745256660887,-1.4422534227742698,-0.6054013378216188
1380,-0.8541889210248104,0.2106282035089324,0.30512719740610844,0.3082343637429108,-0.8258099131156081,0.07570901298244403
1390,-0.8947860128424269,0.17046818729440133,0.2667520156826441,-0.9774458233696639,-0.9273935815373671,-1.427635672798124
1400,-0.8867578695024007,0.17806717998470567,0.27364786434048705,0.3188985103360508,0.6776979971016516,-0.22231413370730532
1410,-0.9020219257982307,0.16191627268227338,0.252898473893431,-0.20429172940145796,0.3996264220815749,-0.006810026681124709
1420,-0.839198108140948,0.22413601283336676,0.3201948504751093,1.9686857105591506,2.3013833212276076,2.6551897548313166
1430,-0.8888722502225862,0.1782153390094156,0.2769505269433779,-0.15344198723445346,-0.1802882708569191,0.7844188211026679
1440,-0.8847046033778786,0.1803707174972674,0.2764300924699816,1.147588321702336,1.4329798242804848,2.2650764443183506
1450,-0.8961399245271868,0.16345933918873068,0.2613332878844382,0.5052594176971426,1.0529942312465788,0.2841748411799179
1460,-0.8902265955807971,0.17765476127155033,0.26680217726056055,0.28284299726168927,0.13580393307847066,-0.48578232787767894
1470,-0.8875278240367008,0.18107022895060493,0.27351808361762847,-0.5575771587545366,-1.1748009362001768,-1.1302015231040596
1480,-0.8847538113769265,0.17350668850128928,0.2723925506177775,3.2290147695729834,1.849039497325517,2.817664599265703
1490,-0.8494626216998342,0.2151983439976088,0.3095460642566949,0.7965390119762292,0.10453070047815616,0.8664064293965352
1500,-0.9105875447586158,0.15919704842359175,0.24886321981894413,0.8108336611300411,0.49148439490394685,0.9455932552016767
1510,-0.8617381341797001,0.20364659697834492,0.29876732817609697,1.293296142636963,0.63990335300227,0.773667397905635
1520,-0.8947090828259151,0.17156747476721976,0.2589092963023267,0.7774009905898056,-0.42012499933644604,-0.2386113001815135
1530,-0.8760920372479465,0.1913593554087679,0.27377141399693566,2.6876785817220297,1.735246040462527,1.772757531813964
1540,-0.8927186668541613,0.1657395969975676,0.25539995828028966,1.522532231908846,1.156075917479056,1.3624626776557751
1550,-0.8792127602987521,0.18780040251054364,0.2775343640202128,1.4988684489815312,0.6981272578190175,0.8891962323409576
1560,-0.8691340444847568,0.20310275061833866,0.2842525945650816,-0.6415080609249285,-1.0055055905178376,-0.6930447164536362
1570,-0.8764210324452895,0.1839864517780467,0.28230509188596664,3.4282938862201693,3.335232136840604,3.028202847179075
1580,-0.8960813714118827,0.1731107119211978,0.2665832131235591,-1.9116337945876294,-2.1355318419588394,-2.1374332786458217
1590,-0.8826546982788314,0.18800489131128184,0.2747154364812636,-0.09666775490096802,-0.6967713149117587,-0.740946776848752
1600,-0.8799186576960943,0.19524327040811762,0.2766028590080461,-0.7491010685014442,-0.9281936698806128,-1.0396933888701434
1610,-0.9053465367515259,0.15926868548067477,0.2475940174081804,0.14805435276056522,0.6322750977456926,0.468089667974484
1620,-0.8998029345328887,0.15855062605809983,0.2558759018952761,-1.734794107570912,-1.962773679394482,-1.6500565303974648
1630,-0.8869745923325522,0.18193828151916458,0.27648923255955005,-1.7783003155817636,-1.620496848174825,-1.4822115555483355
1640,-0.8927471749155291,0.17202936747555558,0.25996223606448793,1.4589347524223473,1.3309912090700189,0.8898090968537237
1650,-0.8631881123072226,0.2083490114209412,0.2950150477291763,-0.6633041733548931,-1.0582302472597074,-1.4452297468437534
1660,-0.8691690119789075,0.1963931368445255,0.2821529403861905,-0.5440276018704956,-0.20858554933502949,-0.8005130481181574
1670,-0.866974906767741,0.1943970673976899,0.2902163354893466,0.739249417732111,1.3312442613547368,0.8341832348011291
1680,-0.88231148246312,0.18564947657613512,0.27937955795151753,2.993180986416053,2.96029102239227,3.4248177952339414
1690,-0.8920445460387522,0.17734021026214852,0.2694408655984146,2.43264339525198,2.7081172557071014,2.21871476497762
1700,-0.896599025858641,0.17793444915141132,0.26312766442764857,0.1909199630040743,0.3059849905811094,-0.20633625166788477
1710,-0.887066160298309,0.1752234796062218,0.2661733279892664,-3.4796007652146264,-3.496085435008337,-3.921802295433658
1720,-0.8918520178761247,0.1778874586222288,0.27370893579031025,1.9812346481058314,0.9513099381822194,0.2560762030671937
