time_ms,ax,ay,az,gx,gy,gz
0,-0.7233502266331259,0.1635114914674487,0.5909681833367093,0.6310236300242424,0.3216002498202012,0.646808869069311
10,-0.7486262816259103,0.1467884980062614,0.5723827315556097,-1.7385563883682353,0.12217770229396352,-1.951194386492271
20,-0.7156370308393398,0.1613891844868959,0.5988683719131942,1.3279317784450315,-0.11675809211438704,0.7026871795632803
30,-0.7289919004234712,0.1479970219902902,0.5851893919360149,4.481341827364835,1.6211403433637595,4.311484424299058
40,-0.7278525265569633,0.16230368640356949,0.5979677509864711,5.9275644329547,2.7728234959922453,5.431686070232526
50,-0.7116229369051031,0.1800344675028019,0.6018480147791884,1.7163284814107944,0.3948455461351343,2.225820555780511
60,-0.7292116911932109,0.16456183345667966,0.5863303337297481,-2.6337384988681554,-0.877491106616066,-1.2482218858087866
70,-0.7175920436564581,0.1757326915423982,0.6032312050856912,-0.7676248815027782,1.6359208242518868,-1.0020062082299825
80,-0.7174687611520945,0.16354678321094926,0.5980292522492767,-1.1332211184782102,-0.8894697337017418,-1.162431693443367
90,-0.7144816088843359,0.16401197222946737,0.5990229490803614,-0.7495422860119134,-2.5935613676996674,0.09315357328380447
100,-0.7138965900017284,0.1721676762156507,0.6023335413686863,1.6036170660588431,-0.0899191901503531,2.239669269300625
110,-0.7231959595519619,0.16870972633848658,0.595050294993847,1.451130292732254,1.3963947913792267,1.966131406935848
120,-0.7520020893605187,0.1437598668375685,0.5683405783453814,-4.906082593140103,-3.61065667763976,-4.3134623765266396
130,-0.7177954483426848,0.1751741745608372,0.6044831657415497,-0.8357989852795866,1.253429862510799,-0.44226415416848974
140,-0.7278286979649282,0.1633189379253523,0.6038122312576081,-1.1746276860489573,-1.6545967278143796,-2.219590507344062
150,-0.7348007727185736,0.16968258330805128,0.6207017244166814,5.339717455289449,-0.7879971208555139,2.2317422527515083
160,-0.7498304406181463,0.14901662790344336,0.6574628715006151,2.0989388919733423,-2.1221068210705214,1.9031999255765242
170,-0.7745761386995103,0.11829949976597412,0.7476083635255416,-4.7506766409089725,-12.251492292111115,-4.106817885351799
180,-0.843743206760587,0.1256775766975377,0.6670672945055444,-2.158132636864012,-22.301439218163033,-8.78279893130387
190,-0.7681614754466195,0.14541178897814283,0.7131505663322882,-2.1275372365097898,-29.70548532327777,-10.958702317904827
200,-0.7275759458305832,0.1197488481989157,0.7209363193069968,-6.0435333353033895,-40.90543628477739,-20.397986556567435
210,-0.5939746587001786,0.10856233871711767,0.5993058810436895,-19.350782545428853,-41.07244672059009,-3.761613076268767
220,-0.5364085074767725,0.24625998758715856,0.5661230630009336,-57.56293624592079,-37.26991046520555,-12.53096501150364
230,-0.48795049396692797,0.22687148858385334,0.6076575155152382,-69.52938779338987,-34.70393626718169,-13.561145625743643
240,-0.5174449513906227,0.22847971405214756,0.5941437860547516,-68.163224629672,-24.467153683582843,-7.174704595711487
250,-0.5712340723770225,0.20402230860371184,0.6026243951512199,-73.29062045068335,-24.61334290471616,-7.8260463489359395
260,-0.614851850191058,0.17020293961153546,0.6231911314087625,-75.11293776293398,-19.196416450088147,-4.863312028892155
270,-0.7056412527255544,0.07798705532557877,0.6084570304277264,-58.83731720913753,0.16647137817366442,4.405702990723907
280,-0.6881503028833025,0.07512739928348534,0.6727961974357951,-57.03228386507903,4.929322109715578,4.062536486684959
290,-0.6741388681724516,0.06294646393045478,0.6963694406677755,-53.07920260304851,5.78055444245082,3.8105607454825723
300,-0.6585332860260705,0.054857215406025436,0.6234827686116008,-50.36697321643839,5.9856444086483975,-0.9347180928477988
310,-0.6064847944381013,0.05973116269513526,0.5842420015070099,-43.75332750830261,11.937024601376883,-0.39211246690645063
320,-0.5912396076887573,0.020027219746976986,0.6019835776128181,-44.164398618025025,19.670703926934973,5.144654794039318
330,-0.6393254676846931,-0.03140793485741086,0.6687234333261799,-42.203535197161614,10.669966726345159,3.1759345513161668
340,-0.7160585136024683,-0.08605491062969632,0.7274454753650558,-20.53941816660505,-9.063872033346044,-6.491329137426966
350,-0.7033165933446325,-0.06900443864034425,0.7083259756193049,-0.22973035559765043,-7.843227829317991,-5.140769487143386
360,-0.6849430567260694,-0.049584261795766124,0.6706953673770435,-3.750249148095848,-17.928447816794353,-8.819319856571427
370,-0.69936319970765,-0.10505341123709111,0.743418540114624,0.30551909525766574,-19.27137691885731,-8.326015920365553
380,-0.8154548761300073,-0.14590305099880901,0.4388108642460264,-16.656132978633163,-14.161153414007622,-21.022834455955522
390,-0.6122129660118145,-0.3869914479917559,0.6474234190021415,-40.50446354082355,-10.640689592874622,-26.65758319903335
400,-0.6137137391507329,-0.2981706401391036,0.7608870619904154,16.750691589637494,-6.860621832084432,-25.44993844642428
410,-0.7779976673394949,0.21742623926265794,0.7007777222085996,54.71269740005827,-4.09238811753064,-7.34501569900768
420,-0.7092340453725466,-0.021030420832907872,0.7305518631209666,21.40373040180778,-7.908826005655271,-18.129213117702687
430,-0.6947616411222433,-0.027634098945289107,0.7599021864563184,15.50840036662855,3.782366043619251,-17.857218386889983
440,-0.8024213750556904,0.1385099323168022,0.588303549659973,17.29601369803754,8.231232822264657,-13.25238407368236
450,-0.7310936280895912,0.18633852760494862,0.6826483268324601,18.530471398916056,6.524510665130702,-8.215258831090384
460,-0.7810555941435248,0.15550726400614084,0.5846888162373729,53.36095443378614,5.96034745724672,6.942795275965774
470,-0.5872077655996345,0.13496201532344737,0.8752503669410614,43.96059848815741,15.173115530778064,10.450613516433304
480,-0.6896069697093651,0.08990726420083713,0.7258939206267638,44.487763759691504,27.063691588753095,33.18649599935435
490,-0.6931086706211086,-0.006509278594677962,0.5632321561917468,68.09924488374273,18.972267261108165,33.79041304286903
500,-0.636815187474431,-0.026684137648795205,0.7053029252373035,59.86154483025633,17.804182399609942,33.7568238691115
510,-0.6911558106938134,0.05684569674074778,0.6827160912961651,33.18728426633743,21.26677509048357,37.20412029537094
520,-0.7059334409936158,0.10427982141834702,0.6020773903704865,16.9773007778242,18.292750243338926,34.171139721531816
530,-0.6324266666966658,0.09150840259733961,0.6881030547734502,10.971045706376266,14.197239617603444,32.873073675718786
540,-0.6190101733978326,-0.14189352543161105,0.8467835809744848,-18.951161833728996,5.5773005636204145,18.47617237332132
550,-0.6531627579957849,-0.29181341185502147,0.9070558035835925,-38.213618827950235,4.104868536051258,5.476962454412805
560,-0.6669030904295473,0.00973543857992359,0.7103968068323252,-1.8857426468468919,0.880300120847249,6.3573423207307265
570,-0.6585091677508776,-0.04252196948650709,0.7006568184680534,20.947049737157954,-1.823652338856386,2.7992603715682
580,-0.6963315153461506,0.013034989546952524,0.6213853280837022,30.39115538475755,-4.122127393280325,3.46208466361442
590,-0.7657939179312593,0.12394285218286757,0.5264300831412687,48.46012977039421,-4.635844491951133,-0.06564478367136939
600,-0.7207880653531071,0.1800989295788943,0.5979514193853085,63.378211558523795,-7.821496954794307,-7.651898688162213
610,-0.7533619194602054,0.20058323949120757,0.4691041392183654,55.79292151195622,-3.901465769903361,-8.726836550328269
620,-0.7117893798203155,-0.034070785545951186,0.54206541411055,25.489023329784548,0.16821962169153426,-13.171645527035162
630,-0.6944494567820206,-0.22125090334616673,0.6875995665167762,4.285275542116868,-2.1743876500793538,-33.008539188739036
640,-0.6308421082318244,-0.013084975588164812,0.6396131081854679,-6.184338622744679,-0.5300331399199119,-42.185677939602414
650,-0.6698758497262177,0.18997912406222156,0.6774059874866267,18.05380658664164,10.256989363260205,-16.201863258799442
660,-0.7092726714455985,-0.07515487554014218,0.5326987197695335,13.431517244522551,18.85490984842473,-21.16099123195191
670,-0.703845713607371,-0.028557460030394253,0.5718851378258244,22.80600939304883,22.186401380669174,-22.22130698481359
680,-0.9726859850656603,0.2130885840627367,0.19484458425519854,22.21663724969547,29.52315596319089,-3.619193207446581
690,-0.8999635629632113,0.44204646886303817,0.24575393670964057,53.154190954368886,40.48022503947758,16.457354808542178
700,-0.7954910090292244,0.49316734066467544,0.2191829664439235,62.16122306225891,48.2993982441427,25.437715160105114
710,-0.7009550535376144,0.5496161283163372,0.18663250160016057,22.872725787145285,49.58624116355042,26.789049086733378
720,-0.6841389368738975,0.7390218827182388,0.12130157041712496,-8.281750565345053,44.49877091050027,33.286663827823844
730,-0.7192981360614137,0.7387551561582055,0.17898735593116935,-11.433416164884681,28.912836967265893,29.129294522971424
740,-0.6576049041713409,0.4239544485797403,0.5266355804090307,-20.40988488220661,13.602048108514923,19.709082433423497
750,-0.6317400951948536,0.043209848470427185,0.7277066910489398,-25.06515420015563,6.373767016676966,13.954658768790281
760,-0.6000613884939735,-0.03272521052952346,0.7653706636427189,-21.872686927400977,-3.0459401967454194,1.577069344986517
770,-0.5789406458541839,0.10588297161566253,0.7828081995537762,-26.425497124762213,-7.378879188515981,5.83814282595937
780,-0.815105019635713,-0.025544290573319493,0.49731973539149404,0.1470550036405811,-12.648138849623454,-0.5011662109993522
790,-0.7895626118732225,0.06014665024131895,0.5591666326179032,-5.435431607470252,0.9459405120404443,-5.651951770455673
800,-0.763414347469291,0.09047703547757308,0.565984144787154,4.984718065775713,0.20842159245325964,-2.1767183099895258
810,-0.76668506890977,0.0773773799656215,0.5490773740880606,9.571253882611622,1.1593632727276524,2.8205687612789916
820,-0.7472728221654379,0.12497342527460155,0.5943342309979633,7.626108847773771,-0.3395678950910578,3.5298156050707674
830,-0.735597203770237,0.1316846398706584,0.5960172741344815,3.3125860249407753,-2.643075619356084,-0.13335351762017877
840,-0.7240187466269213,0.12009638100647697,0.5964546375356862,8.388593805421644,-1.5280449707416848,2.2853264067509533
850,-0.7168899217615371,0.11475850973923639,0.5972938343918456,7.374559929767167,-3.6623938693962637,1.0594456700781394
860,-0.7270673958420347,0.11211904119054217,0.5871507208437793,9.990424553494506,0.05561237216947168,3.9039895611445186
870,-0.7027038491128174,0.13766690934529388,0.6174943035221907,7.838480577682667,0.0839033005093075,3.3565569760887533
880,-0.7214172860344321,0.11700152008101779,0.5982810798219154,4.579233278990611,-2.2961297542817514,0.5423579384268452
890,-0.7450622212700463,0.09927229402187145,0.5803259567829082,3.967912851785179,-2.2520374142362902,-0.08899995133961291
900,-0.737031754534779,0.10394050537628613,0.583341839107817,3.14118673710831,-1.7718976935276363,2.8247695028495365
910,-0.7274818020694362,0.10163773575815153,0.5794748981489626,4.82248686986879,-1.5240634186280193,5.235603668307917
920,-0.7333184523971283,0.08744135450450269,0.5621814814008537,6.6974427042177505,-1.0684950919002898,6.083309104876166
930,-0.7284777350326126,0.09626736735862677,0.5588938695065485,5.793534020211184,-1.1749389066688565,4.89583774057815
940,-0.6810148977145238,0.1519587499002606,0.6032167429004617,3.774255237699012,0.2887014478731014,4.21876385471209
950,-0.7199141837502335,0.1220173760251409,0.5850053108360695,0.13283854954865082,1.3170190720772603,2.6899860155441058
960,-0.7397923202540453,0.11447460202540927,0.5960624321830228,-0.24608821509981205,1.006462007364033,2.998410826573135
970,-0.7326524637279179,0.1263276557401351,0.6049304358000857,0.8347241627873145,-2.9538345726663273,3.1446668306317385
980,-0.7389155155884226,0.11595218796251418,0.5879864835951305,6.381591583548422,-0.3994650759087146,6.2074815461690775
990,-0.705272807252557,0.14395143918371428,0.6080166349381985,5.633034318585099,-1.7263466664798452,3.578385727322395
1000,-0.6914687543449647,0.14227699159249352,0.598537950990011,1.0427326148288736,-2.706399550426936,-0.7070210874495193
1010,-0.6765609123345616,0.16312242363367166,0.6196583189393804,-5.165073799781975,-2.3164798890720775,-3.783422671260464
1020,-0.7158033721940742,0.1315725641276222,0.6002333045720224,-5.671998760898488,-0.14838238982914898,-3.3736015605980416
1030,-0.7302126908253607,0.1259169779371599,0.6072515346400402,3.191998794153865,1.0745710420873895,3.8986496201726037
1040,-0.7233720425161564,0.1483044312395709,0.6193696457958812,3.332975689515399,-0.9957979184568655,4.37052963287494
1050,-0.7298377558900905,0.13346264827585352,0.5870210821273133,0.35332402108839056,-2.356576228443919,1.7193409890429718
1060,-0.7326067072615566,0.12449951294996855,0.5668809016929369,-0.10119372284443351,-0.5151289967202943,2.3946548073847898
1070,-0.7400122356232524,0.10821173368581072,0.5635347959494437,-4.679729197638904,-1.883334089387155,-0.9536710657843128
1080,-0.724680862508352,0.12133268947746544,0.5855971960573004,-5.2855518860155835,-2.087391110788018,-2.452841752088508
1090,-0.7051409460205454,0.15425151966715803,0.6189553086086936,-2.583548037138443,0.522389680404823,0.08049255419880066
1100,-0.7358044848184339,0.12497288527322743,0.5995469998034306,-3.2269487946079414,-0.23541803087372504,-0.7145468550613407
1110,-0.7553605923712581,0.10471114109004423,0.5754359122818256,-0.6256290875646302,1.3267218918660322,1.6288949135405684
1120,-0.7299499298012663,0.12435416728514664,0.5886149365738365,0.16473201735362997,2.3787901579487705,3.7905874865037763
1130,-0.6857220166288354,0.1589544866956774,0.6272407235361235,-4.6896724790789905,-2.715102257763181,-0.6092446554716235
1140,-0.7238196578920001,0.109579313132092,0.5871689966088498,-1.5954518303620742,-1.5867662106974094,0.840599908573993
1150,-0.7061753703553546,0.14022652786605344,0.6140051411018833,2.876853366567628,2.037412036485107,2.6207944567274843
1160,-0.7471558895886345,0.12087344868079704,0.5845389207829581,-0.4765496952766316,0.7656301207758254,-1.9080715101827344
1170,-0.740472845716289,0.12078591220596699,0.5843066660157018,-4.582219738790683,-0.22775148318229954,-4.623945167191772
1180,-0.7403296746885093,0.10777799423844674,0.5762909854331401,-6.1173880696406595,-0.7958470117887207,-5.269197904986158
1190,-0.7407996011511312,0.09563845586434438,0.5755356644813244,-3.5449270286610632,-0.5880947233380605,-3.0348763145811493
1200,-0.7133049079876748,0.12360469341811098,0.6027611826701363,1.1506301158586345,0.6336157106793684,0.5663209620020906
1210,-0.7248531288353786,0.11582911179467005,0.6010313007755801,2.1515374651019856,-0.4670113264044397,-0.06746187698150152
1220,-0.7295193439858495,0.1209496862364433,0.5953661328324982,-2.0371951454610926,0.3459346807762617,-2.068560588603086
1230,-0.7213623436778158,0.13505330182163738,0.6093404841289128,-3.7492805320586133,0.12145685238716553,-2.3657016818938317
1240,-0.7315007972102756,0.10646485326908707,0.5970379586025206,-3.090326813419585,-0.6466441206520535,-2.796262191388702
1250,-0.754942884190748,0.08884278209193226,0.5631679016249509,0.5573919022691951,1.2683398134353219,0.05102357453133588
1260,-0.7419165810352097,0.10602074667103564,0.5813545062392269,-0.6378102023521963,0.24518058676989363,0.045095117097519066
1270,-0.7434632740543021,0.10151276792150576,0.578412195608111,-0.34830047551139454,-0.3942553042770107,-0.1084717744574265
1280,-0.7384599317507672,0.10750351594103505,0.5830218484472128,-2.6245214820884044,-3.190621907380621,-2.685425897173705
1290,-0.725277312981697,0.12433482707284935,0.5950095192347998,-2.42465053707327,-1.7368003966014511,-1.9361965226046913
1300,-0.7124590493099341,0.1332178396695116,0.6083680024629011,-1.1930769630296976,0.17225192671024558,-0.7535389450681453
1310,-0.7328671141369469,0.114712147431217,0.5904965473845243,0.1904327659691507,0.40919870598624375,-0.2498627678848987
1320,-0.7291904348451942,0.11580682259549471,0.5917329008870128,2.036854019353334,0.3637401396231793,-0.2617661977758371
1330,-0.7283585014983847,0.11793528990722212,0.5929318671465861,0.5140718762473688,-2.3498534755988922,-2.737218787593494
1340,-0.7179929350141483,0.12667142912293172,0.6006619290378102,2.844074152877185,2.343658147315371,2.4981437485750506
1350,-0.7175760777278396,0.12828241371655286,0.6041710811099842,-0.3886319577430487,0.4702912194349061,1.3708166745580754
1360,-0.708102358694901,0.14392080654121525,0.6191846409686936,1.0653387533250778,-0.22583591734185166,1.250905725294221
1370,-0.7530060525195558,0.09977725435592164,0.5713515848229933,2.3956810873518473,0.17635198298874896,1.453943712365931
1380,-0.70196980937947,0.14979271873845318,0.620365387120586,1.6705335130256171,0.6945908684161702,1.345120845649221
1390,-0.72595024879997,0.12522583805127324,0.5969378622175219,-0.1287894622136666,-0.33255618627823325,0.08721411785860445
1400,-0.7389902661107912,0.10807714383179304,0.5833481436221228,1.2986566437727562,1.858990414464596,2.5392246139101347
1410,-0.7290904898284087,0.11315237072254881,0.5871017690124941,-0.6334816363857063,0.8146411898220625,1.6960258238423331
1420,-0.7425915563915159,0.09987065420416909,0.5742127445682405,-1.8345651568670263,-1.6389518939138683,-0.3605077257367406
1430,-0.7458128760609959,0.10631828868349996,0.5791046623487495,0.2939255580746738,-0.16556943123207857,0.9211532189130347
1440,-0.7254539407639957,0.11645380344554888,0.5930983499101541,0.32492940812802784,-0.6755680979126804,0.31253683415700495
1450,-0.7238295115523824,0.12473003573330407,0.6004923109631776,-0.5965115178101186,0.36832126300832924,0.22101533278146868
1460,-0.7150969798448883,0.1370399249372186,0.6133478698160361,1.3866598422050802,2.6884627451147023,2.003566907403005
1470,-0.7324994050495633,0.10497262673658275,0.5894309795322428,4.045794547073415,1.962884135024411,3.5656112885513918
1480,-0.7391199420299496,0.11092520428038258,0.5820132638655828,2.834624235521189,0.6934523298278897,2.9110875468681003
1490,-0.710208244553875,0.15010765054276068,0.6143387619137519,-0.9797904531885469,-2.0642708978452737,-0.8969898415989854
1500,-0.7229265213108046,0.13638162291588868,0.6014636236904944,0.11008945354785094,1.5979375384652585,1.3409095632740207
1510,-0.7135091475014459,0.13967256878354614,0.6138796828095705,-6.245962619082329,-3.0709235955866157,-4.093013798364529
1520,-0.7493509976292085,0.10172289420322234,0.5795632593539319,-1.7410269417317088,1.2907573525481646,0.36599215034165744
1530,-0.7210927614994667,0.12719973880510174,0.6040780395076252,2.6149397162858374,1.734293306963361,1.9035275549020847
1540,-0.7285960999186284,0.12031779050935627,0.5968180099484212,2.876751854676721,1.5605964698608776,1.3788356748093658
1550,-0.6902583529227053,0.16112710285395693,0.6334509025338373,-3.3790545420144085,-2.0695596186404264,-3.354147396332056
1560,-0.7193093372356364,0.13105085099923536,0.6038910269396844,-4.175066050711159,-0.860198829145934,-2.470849255662385
1570,-0.7307057850105741,0.11736498542300337,0.595067900052074,-3.355305201710976,0.8311366358805186,-0.149470960360494
1580,-0.7431383237360617,0.1022272021774292,0.5812539203898259,-4.04478221827857,-0.871474286761008,-0.8835403123050668
1590,-0.7422795751091019,0.10346642547287507,0.5845123860715699,-1.9332205048528521,-1.2006393354515807,-1.0598812886770752
1600,-0.7318337738985999,0.12011695776198238,0.6002612480220114,2.8306180760008743,1.8468520222969123,1.435581000138253
1610,-0.722210215450494,0.12580241219175925,0.6020202781067501,2.2050851638579454,1.441481925822624,0.5356743793759098
1620,-0.7170020419786992,0.13103589140976415,0.6053205150038169,2.1623055543271548,2.948333675594732,1.868561027934927
1630,-0.7403271620807128,0.11429560014010257,0.5930206928523012,1.2451439259269905,2.113860249921614,1.3335454013377745
1640,-0.7161468397813303,0.1331323539761422,0.614183206114631,-4.948781502735162,-3.481445380093035,-3.621131936020652
1650,-0.7155943210304845,0.1317021185269492,0.6100398282333257,-3.985398776425239,-1.5683035681372093,-0.9951480428356143
1660,-0.735747442051411,0.108529398994176,0.5876857671632071,-0.10475640990214094,0.34230192661641917,0.20182461071421637
