time_ms,ax,ay,az,gx,gy,gz
0,-0.7507474998699903,0.09763606600727576,0.6626719785960712,0.9634021124434214,-0.0690369748590983,0.4340563940347853
10,-0.7562625551449539,0.09281722224529969,0.6572707856337895,2.386392669790705,1.712921047934644,2.413619943554002
20,-0.7735488137029718,0.0739958143478359,0.6415215156288113,1.7192938061118688,1.1222164319223173,1.8632786870119968
30,-0.7829189615871384,0.06750601685484192,0.6312086826446197,-0.010660409807005555,-0.10753205734929216,0.7927686709834326
40,-0.7722727997778868,0.0753699011101379,0.6398004747860039,1.2573825709295656,0.6423978300011967,1.5524834927524414
50,-0.7599247847727778,0.08775311835449459,0.6570506610485822,1.273784176010249,-0.13641338093723318,0.8466885578104394
60,-0.8022333702706266,0.04870948692021945,0.6158531886714144,2.097686002414473,0.6984646044434957,1.5945774532192367
70,-0.7599280535143875,0.09026983723926034,0.6479295078463504,-0.6107292778842055,-1.2766037667956718,-0.7564141006661489
80,-0.7551385085690787,0.09838394287545675,0.6579389445726881,-2.355015750191737,-2.316794675065797,-1.5620354007194577
90,-0.7648271497285606,0.08079439220568871,0.6396351911409716,0.713312283998031,-0.09252094502322805,0.08536549739517496
100,-0.7869369370766343,0.059745892062867775,0.6207466383521654,-1.1907733753471457,-2.0552559041148375,-1.516059816179808
110,-0.7891116334579977,0.06736608061723869,0.624613124314677,0.6621366555166047,-0.09790474246234732,0.6962151806812008
120,-0.7847587244725389,0.07735218443590205,0.6343101930005434,-1.5478736655866543,-2.4703316705626586,-1.8958307097786642
130,-0.7520422024565864,0.10257230390671654,0.6599629123764905,1.3335526734106442,0.13893850888696124,0.3184705083003361
140,-0.7518029896907608,0.10203631623219894,0.6526763066638633,3.60614999681038,2.5596053282988778,2.6436462872243682
150,-0.7774553527139174,0.08246297357149304,0.6332805073560545,2.8599636927239667,2.249300081563428,2.246104934749229
160,-0.7582675573119444,0.0987529626511818,0.6622034011680368,-0.1965722279898574,-0.8146895222836209,-1.0263828751106139
170,-0.7540182724550077,0.09932849096313139,0.6556742636971675,1.7950439641288995,0.5011955212017094,0.9428191526669234
180,-0.7730165211906525,0.07643209663687354,0.6445155615028367,2.1788515158727315,0.413134705236103,1.251454426757511
190,-0.7829509917001384,0.07482865869024649,0.6366617392557995,4.886862829140462,1.0410970000973299,3.440358115347001
200,-0.7940962911098705,0.06323192866909955,0.6334150676516317,6.812868273841371,-1.0977704795147456,3.638298681818636
210,-0.779946792973309,0.08715191321638868,0.6411120928320164,10.102185760066789,0.14902570843097385,7.96285018122888
220,-0.7841687459505569,0.07860020791782527,0.6488869931959436,15.568402410473059,-1.5425693636244686,10.426712699597605
230,-0.7749514937242586,0.06687031530644208,0.7045851490243528,20.774977574972123,-1.9103001867069789,13.22839255217507
240,-0.8068581592251479,-0.023766660825919095,0.7223817025339507,20.04654816017847,-9.258053211928676,-2.260885031086715
250,-0.8400021840070647,-0.10092915622343025,0.6822626243703808,13.25643950584765,-27.15898138961173,-38.98562419390225
260,-0.7693469037123113,0.06513453802139833,0.6656815386287293,13.11716336130607,-30.296552107592504,-47.95324991963227
270,-0.7166403339744525,0.09913788099739385,0.6434456846765126,23.50427630278851,-27.850871510821616,-40.41360949142299
280,-0.7128949061187585,0.09716657983299615,0.5838859347257279,34.21756340571618,-27.719747014575574,-32.1454746443907
290,-0.6094444648258145,0.05737255787045645,0.6063325692396208,39.81798528018086,-20.20828086741551,-24.328556777132498
300,-0.6419419334383584,0.02185341585833359,0.5640143651525497,36.64180274385619,-15.55124154722622,-29.82199223448419
310,-0.6567558044232786,0.12261507952797318,0.5790717301894954,23.45308134042032,-2.856881332083229,-15.894331110986892
320,-0.6533254426874829,0.21159318167706792,0.6009084325473715,10.603491753204194,8.081543915928563,-4.007046636193274
330,-0.668983362088746,0.22516068361647196,0.5953046682108778,2.4610228873722857,12.761564479857679,-3.909876267420126
340,-0.6760773381860998,0.22390889881784248,0.6004415538624787,-2.882877200669469,18.980883942753977,0.9314022924019123
350,-0.6371652080521493,0.1994675624468574,0.6275148874059692,-13.638538419518882,21.990517768250108,5.752330792343274
360,-0.6538142089096233,0.13852631394819795,0.6482811357766908,-22.694867952507597,24.938598128001047,5.675343178648229
370,-0.8019072279532129,0.05155217073911187,0.8093924601999722,-34.04805133285721,16.64213093635954,-3.303202762580877
380,-0.7157109671208051,0.030991694695940042,0.792792203477701,-12.641830395249778,-11.007844689902536,-12.475832256950486
390,-0.761224298849511,0.062137499161306585,0.7013950900587046,2.8954423473566138,-16.484500919056803,-10.730868990820506
400,-0.7592990290225982,0.02502836851099559,0.6987472415358483,9.439561490921403,-14.0962218051077,-3.2938295305164442
410,-0.7771889061948779,0.055814257361325406,0.7059254613759639,8.194535679002843,-10.169657098809191,1.3684904578218307
420,-0.7376850930831491,0.03247013911543717,0.7140633308281938,11.539141377645283,-10.857442622015363,-6.296507769010567
430,-0.6768658484645017,-0.009383884787165796,0.6711712719378163,16.33808262640476,-17.882935069953994,-20.029206956165602
440,-0.8626920558767571,0.2955747575023572,0.47247062938963247,17.980680515250214,-5.822350293839776,-6.288444251224792
450,-0.7383701834218048,0.2302575931445017,0.6627686418401267,25.010311224558606,-4.083152810517909,-21.18717228540354
460,-0.7127735483120945,-0.02697602321162331,0.4660164093747582,8.296334930606204,-0.544081588549091,-24.62253467108574
470,-0.7928474067537834,-0.04029414855941561,0.6028357814602185,-19.08636716301492,3.113233691131204,-12.761789458874254
480,-0.7731339829382389,0.10806809338541834,0.707669788980745,-7.570341006868565,1.546625540311033,-8.135334672454661
490,-0.7388892246209524,0.11670070806745977,0.6961663698273418,-3.1690488980228557,1.423170564250794,-7.859665843633502
500,-0.7965171280864551,0.0572845447275704,0.5954316664881883,-12.244488477572224,3.5701263632842917,-7.612829574656429
510,-0.835352820619772,0.11676590092768695,0.5048600614145793,-10.930562560719157,15.933576335817378,5.310384463629694
520,-0.8773367568799185,0.07644102911824512,0.4587198749043929,-8.867110361254607,19.717860473677334,15.116600536832438
530,-0.7425987306374584,-0.026467608474423844,0.7760716544456533,-9.813748332532416,15.073446791592307,18.695058829793517
540,-0.6487684525807357,-0.002799668938083342,0.8109084878137613,-2.7730440938642733,16.546935836251855,15.820732272212048
550,-0.6693012572827508,0.04820209143110042,0.7723724091166785,-4.430286200261579,-1.9264238619333307,3.132270537147566
560,-0.7122764568589175,0.14848609836961446,0.7177437060051723,-11.992239743141726,19.047085200408134,27.304005470642895
570,-0.769012567514171,0.24052270628653516,0.5891350881635384,-9.210100125946449,14.570622359405025,31.163430945497225
580,-0.7405637724632246,0.26379186438203883,0.5510668464054117,15.569376209984856,8.580160922994297,27.4484115719682
590,-0.7497865361341373,0.02508969861990478,0.6290304093253825,11.09349231295128,3.6627593719691838,18.426990084698534
600,-0.792040725453876,-0.18754193891046117,0.7017822040196747,-4.134949124255024,-0.9617049053813084,5.335246208402982
610,-0.773159335628121,-0.08450993967542832,0.6965640510015596,1.7505647074943527,0.14460171775207242,-2.9778337684750147
620,-0.7457963681301986,0.05764864111277251,0.6506131409215065,-0.38561711865934045,4.170520234990339,-2.559233122515928
630,-0.7185617756330626,0.07411141836396791,0.6935751386138963,5.533336190523577,0.8007857845304098,0.2539499889337157
640,-0.7541427844803972,0.022475533867968328,0.7098232015450137,10.650493153621863,-7.3092002490376675,-5.852453665971811
650,-0.7766549042933377,0.11093946000747502,0.6113892319992766,6.966753929378515,-3.6347962210566758,-12.639436872876926
660,-0.7629079864434275,-0.22273529612952953,0.5730699314934895,-4.766029630323156,-6.879940822600168,-25.90880494886184
670,-0.7626263288439113,-0.18974130757907573,0.6692739181845258,-4.254710112765027,-6.76295974643493,-30.621453410351933
680,-0.8034171736073588,-0.0019615523985078414,0.6357184419400633,3.0051001894428264,4.331059559370045,-25.467946943430203
690,-0.8242591485392249,0.1070857402136031,0.5570532871309672,8.586167193753518,8.001185944536296,-18.151024230220894
700,-0.7975196083722167,0.1036808494368107,0.5964628686673941,16.47319630526213,4.521556133352796,-8.554164157759873
710,-0.7318923190845197,0.06984363504991067,0.6897504399672172,16.693244413412565,9.142212127622326,-5.2395737521015
720,-0.8243656622927519,0.018105820167849836,0.5706934741844686,3.4857720015536096,20.033430535751577,-8.31969918279807
730,-0.874503963181486,0.026377003436713366,0.5335957810604319,11.82158498864122,17.552455706901156,-4.929240385882952
740,-0.8241480965481496,0.15221966291002428,0.5602017728830825,11.647731513884962,25.820479188899693,1.4616717028052233
750,-0.7095421038047864,0.17098980930620655,0.7572677538011372,11.131371394838194,16.988536485607266,5.024611738854637
760,-0.6590997469616595,0.17984432230681605,0.9364426052105137,-12.843022076688607,19.593669841308643,14.988499931824212
770,-0.7020860365408148,0.297536255563218,0.7219500484853293,-30.560951708657775,20.08268469623667,27.28493901781987
780,-0.7565518682026827,0.15158285379675224,0.582462003566343,-13.399374943944702,11.358297287754764,25.941011817514845
790,-0.8350179217480695,-0.28688235605961204,0.6836395181946647,6.917202302375088,-2.708046126210555,5.075017677598716
800,-0.8480304829596376,-0.22226057880242323,0.6165915213708839,0.340440835591027,0.47364038010448417,2.3559852434493185
810,-0.744932612656032,0.3245841894976584,0.5180048816669894,-11.941637235519131,-7.869569031189547,8.246671982239187
820,-0.6600178049053425,0.3536176884640373,0.603331757281784,4.643511926104651,-5.568762384059291,8.417623721952882
830,-0.8068384476392377,0.008062507829231676,0.6451643180919585,-11.63622450339522,-1.7353875157310552,-3.6773304849710966
840,-0.8137216200653015,0.013266176012528677,0.6356603014207722,-1.7722609989946982,1.8705059715688335,-4.37292900007912
850,-0.8085541355884114,0.04388950024207834,0.6050053675568239,7.067228954021993,0.8207455414028834,2.391330542841504
860,-0.7890219896935213,0.06961489543352395,0.6151677817103476,11.586737692531429,1.21892337117001,7.375739949578955
870,-0.7636712426469616,0.09528289325501862,0.6406848832414058,12.327158286961918,1.1387140719449387,6.624571700725267
880,-0.7827936697466399,0.08058405851854049,0.6228121222890463,11.813037472596776,1.0122445934984705,5.392401411967406
890,-0.7933692366383774,0.07959487296421609,0.6284101536227917,8.70910880667962,-0.4242421024260512,3.005587255275172
900,-0.8101035869630123,0.06263967945682919,0.6145863594702426,13.874760160100799,1.2964263171108703,4.109434988857056
910,-0.7635521942149547,0.10443942355208337,0.6364437194928182,18.51500294214325,2.5279245485735675,4.445544292198641
920,-0.783955730904004,0.0997874826258022,0.6462274604191065,9.191218697251317,5.182254087787404,5.343363296840882
930,-0.7916756555020432,0.08374449490041318,0.6283824793131509,9.399461285519527,6.885169639598246,5.622205066693911
940,-0.7884162425887603,0.09866596316707713,0.6188785210173812,11.003781176895018,10.029485297566728,9.706628071713709
950,-0.7668084331388492,0.1387239358476266,0.6430045348858602,9.429302970129845,8.29556899697882,10.211063876180885
960,-0.7672253687529473,0.13990411958186227,0.6340036657472314,10.795587875679477,9.594687398572528,14.278634161647698
970,-0.7648887339249824,0.13189414177467096,0.6231919770796919,6.532031648266312,7.409009824243057,14.607075656318647
980,-0.7818516066331181,0.11596342108495412,0.6115077834400738,3.3803057172067454,5.070038585481878,13.839450163469069
990,-0.758643453938832,0.1491311173124855,0.6072298498155961,4.8610206872433075,2.153671695184583,12.579155650529877
1000,-0.7662690301146041,0.14502741528282184,0.6384292640446947,2.6898972557483036,2.838463169279767,15.81073288864761
1010,-0.768592046638717,0.11272140168083404,0.6237296688373913,11.679968577781842,2.5282513317269117,20.29596498684177
1020,-0.7994175054725459,0.13645784283614995,0.612249828531656,14.551981013842017,3.0119455370027675,22.798265058642063
1030,-0.7634322958610447,0.2036170757787954,0.6427398826616417,0.3694559913198292,-0.20992069495430943,16.877792065350736
1040,-0.7928034557159239,0.1800305875406285,0.6135340883580289,-18.95312904049734,-2.542982498328709,10.754423333615884
1050,-0.7745249697075274,0.17055494020248887,0.6289969652840782,-16.761471145177932,-8.82330035146976,1.6361262505798329
1060,-0.7800358343719243,0.1369303740472891,0.6243586415688033,0.687772175132412,-13.409070685946288,-3.789093662180469
1070,-0.7749633763566363,0.14688929047407817,0.6446961752903394,-1.3098554330143428,-11.047412150193527,-0.37799179064501565
1080,-0.7741583108106246,0.11820975672487137,0.6169252315251982,-11.426157293485945,-11.735691615796007,-1.195342841885298
1090,-0.7961929138732191,0.11102441556210912,0.6086193019288964,-6.652417185591022,-9.136815477189199,0.3079869470785181
1100,-0.7779712639664137,0.14744342750552916,0.6310525758979687,-5.297090428167056,-7.407632542465595,-0.8757625317814766
1110,-0.7328505521846562,0.17097458275283275,0.6629186174843635,-10.05726685222724,-11.071169354542267,-9.683752193264313
1120,-0.7774754086246666,0.10258698314688425,0.6283222230717866,-3.770468490444131,-1.4686901319276753,-4.443021635667591
1130,-0.7557339487500011,0.11770852093615178,0.6520979058027018,2.20688654435385,2.8393804432028267,-0.3477208966120642
1140,-0.7655712662531439,0.11317934809327175,0.6346941967194044,5.931676211236763,1.367751696659269,0.8934473717187408
1150,-0.7699814405588303,0.11483879663043979,0.6266006828716917,7.72013820829863,-0.9580417229753415,1.894159056738772
1160,-0.7681960354378421,0.12336138822653668,0.632424524375041,8.777679415256568,-1.3362521635972209,4.290541900235977
1170,-0.7871298570130383,0.11872521821345405,0.6235997413086878,7.633786597913732,-1.3590047246960268,5.384435513032366
1180,-0.7657471299307074,0.1396265403022077,0.6541048979315345,2.137538318384738,-3.135772390726931,3.3482365405139753
1190,-0.7653065710592327,0.13489503898986957,0.6431407790081717,-4.520543270904534,1.3555710017682951,1.4755512560506325
1200,-0.7755719598319671,0.12008812813574452,0.6308161610760167,-5.21408571253065,-0.5950121749926782,-2.3918287583440563
1210,-0.7630516997339486,0.1319801080796222,0.6443957102373262,-1.2303990017254098,0.7256005291983901,-0.4070891511163428
1220,-0.775436865387008,0.12461198641508303,0.6320728809660068,-2.7036220565810263,-1.3754544429070867,-1.9529118518802473
1230,-0.7715253715467547,0.129360501693484,0.6401395818372786,-4.578409940298894,-1.8911188825270462,-2.437702317707066
1240,-0.765387418655471,0.12798400358889694,0.644868131535241,-5.239799367151013,-2.421380755015237,-3.231134154388469
1250,-0.76003835501172,0.12789249793242502,0.6437417109377341,-0.29133593541480796,-0.07385936950220329,-1.354699768269941
1260,-0.7818358632890233,0.11425984169824308,0.6411770636566125,0.1406217686739084,-0.2583147989243395,-1.5352002680130457
1270,-0.7597422545775997,0.14055804659360763,0.6427728304530653,-0.3118758659453641,1.6270664816765184,1.2865062609426063
1280,-0.7696220922009409,0.12720969970082346,0.6377299309932924,-0.02797143163764071,0.7525298726513555,0.6956974122613325
1290,-0.7739224044475367,0.12154664504484797,0.6276291687815039,-1.6692462963963712,-1.791748054605417,-0.52248030336714
1300,-0.7587575746164568,0.13656279393442683,0.6408257851580892,-0.7733517210673728,-1.86940597991763,0.42871302404332545
1310,-0.7788969230539741,0.11119973725791678,0.6247831855128733,1.7059269019158556,-0.7454656558548727,2.1544823678999814
1320,-0.7961500938692708,0.0927899940789926,0.6130608835604305,1.3016432686616013,1.0023685803733047,2.3399742158744687
1330,-0.7699035466323253,0.12407567362845556,0.6413544248475067,-3.4938519665475676,-0.0019924920247427202,-0.9403172890533508
1340,-0.7447137535589554,0.15221029462347602,0.6644143934176708,-1.6523994368397137,2.194171676123975,0.8550869743014695
1350,-0.7619207425571952,0.13319023094886523,0.6444835561499043,0.12188396795090073,2.4765711747732424,1.3472671810088763
1360,-0.7893855783527558,0.1014658085227089,0.6163543434138167,-3.9841151236809518,-2.687917353734774,-2.3958569547471207
1370,-0.7502678778750812,0.13257230394919944,0.6518923640598173,-2.1181293831009906,-2.8365004121222874,-2.4276663857882568
1380,-0.778345436649748,0.10939797405494742,0.6334840702757434,2.957989894211477,1.0233011572807096,1.0976800809601905
1390,-0.7552608945434511,0.13445845609962254,0.6542187774509984,3.7825340073774556,2.701587956462622,3.6754559657481494
1400,-0.770886628192163,0.12549658980521403,0.6393593088743421,0.8085152652618661,0.03588311945140937,0.8519410178395255
1410,-0.7553055675346229,0.1418205706700094,0.6601096954985965,0.7769846254633757,-0.02071940124555849,-0.5268541492324872
1420,-0.7551873135922772,0.13619898928405502,0.6587194055362191,-1.2458092993653571,-1.9847678662518389,-4.205687564031456
1430,-0.7350903550380227,0.15237648831487435,0.6698306925213321,-3.3778114804892336,-4.310735198678421,-8.11747469643213
1440,-0.7836212852276094,0.09996938551680855,0.621335435501474,-3.4954696964785983,-4.9034416990544205,-9.840248581050302
1450,-0.7563130286106724,0.12968405307264808,0.6530396283348305,2.8541390108657714,0.04965573864250139,-5.744455842805575
1460,-0.7860393137151445,0.09246498115724337,0.6218071180446703,3.8205006445207212,0.024832997271252225,-1.4973252346263104
1470,-0.7348803922057544,0.14509417053772872,0.6711449810671202,2.935242431504151,-1.9513148842138444,-1.9425982465808453
1480,-0.7517922523977242,0.14134989215435442,0.6631229996173501,2.527165371333457,-2.5945779567764915,-2.714702922334336
1490,-0.7817963115319876,0.11304350882034869,0.6315672960454656,6.027338113054761,2.2546657199363787,1.9056628188899727
1500,-0.7840105239996465,0.10660952647332705,0.6251219406067385,2.2145667341320485,1.3589155529044,1.3069677625127925
1510,-0.7561649914445712,0.13505866329052485,0.6520718997856991,-0.9315861519318878,1.4799591010430908,1.633398409619316
1520,-0.7699750128501764,0.1223263825518429,0.6377237402500686,-4.583789475809841,-0.6180149053291362,-1.2065709753257032
1530,-0.7748929587649016,0.10734492954412608,0.6335367101880092,-4.083849278463292,-1.2681852400086249,-3.031768535100695
1540,-0.7580542803335671,0.11501435273130105,0.6507545539092028,-3.4971083212494323,-1.480050059107259,-2.337096486791015
1550,-0.759524580665191,0.1129935872928909,0.6560637564296115,-1.2030469427348516,-0.4206542025240926,-1.3541367298123324
1560,-0.8045824118304967,0.07372235178366573,0.6064645445009385,0.4905367714493629,1.0556774763006442,0.47570544966203043
1570,-0.7706968084308867,0.10767823431011911,0.6377950062919735,-3.6600824000120085,-3.143047386115094,-3.2264922505713813
1580,-0.7791748761133058,0.10328173053133728,0.6268290753620447,0.8809766608354551,1.452238200086815,1.7802079109723863
1590,-0.7812579779293094,0.09742258477753934,0.6263870723312056,-2.296626369360144,-1.6638105604092874,-1.2303428603505036
1600,-0.7611534900779302,0.11407451108460136,0.6502280183646355,1.5859415177097325,1.890213013370243,2.6579065145870393
1610,-0.7543836952186881,0.12699689286241886,0.6567908743814906,1.7799668041868109,0.8117154401884035,2.619239981853287
1620,-0.784833062179663,0.09639619852971391,0.6229613561579352,3.7101207470875206,1.1246068907671007,3.908491499679032
1630,-0.7812715187014063,0.09817988601738464,0.6285470863955199,1.7962026354098262,0.8075609880855809,2.9508149098732037
1640,-0.7755561334435057,0.11066231941762565,0.644503577440855,1.1121856008079913,1.2101947546211531,1.7356072707620114
1650,-0.7541990199330535,0.13309940800512732,0.6565002951696267,-2.591196328615195,-1.664441832439361,-2.4262692174326768
1660,-0.7556350437652029,0.11902944610355007,0.6520654839965726,-0.7981829435762453,-0.44729451616919935,-1.5481286909287384
1670,-0.7344750046756788,0.14449016046191793,0.6711791205786407,0.29536548350644476,-0.9432939946799996,-1.0161060346600348
1680,-0.7810580747268241,0.09995145163983243,0.6251234138880941,0.5528248537536029,-0.5446614220417391,0.05533235531904068
1690,-0.7654688363250151,0.11248907279066556,0.6492937859006956,1.2468312370522119,0.07533170587040841,0.48653477809774265
1700,-0.7523528726686636,0.1294064267795765,0.6657062104216139,1.3999472971631557,-1.2591638729055137,-1.1435789849182603
1710,-0.7495028483433386,0.13817708423987607,0.6508807320070676,2.8071261142629744,1.3509710161268804,1.3550201228913294
1720,-0.7606089350824162,0.12653180063117886,0.6513987721503762,-2.053769780298646,-0.10795053693176848,-0.3991215641538163
1730,-0.7619303880375077,0.12405841543391877,0.6513473905884286,-0.18016821192082366,0.36766708822502475,0.041819863187192496
1740,-0.7661458297773494,0.11904907176946791,0.6509835211586658,-1.4745759385929853,-0.3822405068513576,-0.4727355709572345
1750,-0.7332603659206348,0.14803584480379656,0.6758968448989551,-2.151600434374429,0.25278109813322724,0.5114860881768267
1760,-0.7811723382528586,0.09693957142286293,0.6237090514201723,-2.1478394992864738,1.8050263134260256,2.0610348793165683
1770,-0.7409621150847606,0.13701273883292686,0.6684837924599744,-5.33260528695166,-0.5639343083981894,0.036653776669911875
1780,-0.7615814661723438,0.11372362250942195,0.6480864023052778,-1.802558645040234,2.087966265191544,3.3249620257761547
1790,-0.7655949465636632,0.10765282936834605,0.6384162589363466,-0.006530241565373629,0.3004005008905287,1.8058907823138017
1800,-0.743769925684085,0.13905646757943038,0.6649570638661434,8.57298297568097,4.2810101866597785,5.347037781359369
1810,-0.7680844624673423,0.1197893114349411,0.6423511918193135,0.7992452686702618,-0.9017908355962502,-1.010040139140146
1820,-0.7683922030078197,0.12360648208713691,0.6344821460233487,0.17944233705223767,0.910724610918975,-0.2185659756551528
1830,-0.7809929263098518,0.10988028209292951,0.6285490002161691,-1.2624339925468822,2.09309844872182,-0.11258643328608953
1840,-0.770589665443592,0.10851021096541053,0.6434479040813424,-3.0397698960285267,-1.1246534308424907,-3.3812813276553304
1850,-0.787917803825621,0.09375993331234578,0.6220210494585635,-1.225262392495883,-1.11052087019001,-2.7094898487434644
1860,-0.7734284028812275,0.11217690814743315,0.6413339267252612,-0.3925287414289753,-0.710534830396255,-1.2325694236689415
1870,-0.7552414319406158,0.1284656570850167,0.6634658593515497,-1.7887224076656647,-0.9851076666736397,-0.46054307052289223
1880,-0.7492489761160571,0.12903960747182974,0.6614493227743087,-1.3592043915205712,0.08661657617893473,0.8807620573437133
1890,-0.7703742641208344,0.10467569709923924,0.6361822789817765,0.23233102730938343,0.09810036510749431,0.10808209002051229
1900,-0.7498024509901016,0.13948844532562907,0.6671229972014141,0.15844181039195498,0.23890572665504517,-0.18028600193582828
1910,-0.7772773625767077,0.10518351552777919,0.628967830602204,-0.7730150368743601,-0.021030486873051424,0.10717012135389958
1920,-0.770968236542204,0.09953321691254945,0.6299278782740131,0.0009442516447173421,-0.23922692034840548,0.1274449401582919
1930,-0.7536612839984238,0.13083401779340556,0.6550794318332889,1.326053683344887,0.6373369526752247,1.1548088845685747
1940,-0.7518649746811615,0.1353541682014518,0.6620882141583448,1.125133782374643,1.2424530770650524,1.4601719481257562
1950,-0.7606339821713478,0.12146723025848849,0.6532318379305472,-1.5734734449850274,-0.44974388991125097,-0.8844012856959257
1960,-0.7525876141743252,0.12908535663450116,0.662262406873149,-3.173378132130263,-1.8907610758352733,-2.9728546889156435
1970,-0.7374967851609646,0.14606632925738497,0.6800697311689088,-2.043129362152528,-1.1136212004959,-2.3661194257605267
1980,-0.7862540567837518,0.09292669362396316,0.6280424057450602,0.11345293900580877,1.3241889837551228,0.6788797969075735
1990,-0.7720806306031179,0.1086262032305092,0.632832651962022,-0.8946043441209627,0.9896219641123041,1.34542676109197
2000,-0.7724476189163505,0.11249315657486002,0.6326772575590742,-0.3921508384564023,1.068892351295657,1.2911111524848946
2010,-0.7390807912647164,0.13844257910813976,0.6640650599402155,-1.0526762425759912,-0.15106782047480274,0.10899245100864312
2020,-0.7625286174525113,0.11278636680497332,0.6453705477822859,0.1129093424952422,0.7893935737550877,0.5788584194587457
2030,-0.7676381324569439,0.10855905084286442,0.644361078943224,-1.8039654376243357,-2.032043401543482,-2.4476567535313247
2040,-0.7608134123594246,0.11764993708740636,0.651371049997288,0.8265097912949623,0.8101855761979418,0.5455145959557484
2050,-0.7723390873284608,0.10790231417759304,0.6350370625372849,0.185541076866367,0.8435311426508604,0.7803417914834747
2060,-0.7730660735342483,0.10746499291311826,0.6336454103044157,-2.4670537933279446,-1.101186716806368,-1.2499168410581813
2070,-0.7843738801173727,0.09570508277403902,0.63178771885893,-3.905443140851306,-1.7077222273703572,-2.146369475982175
2080,-0.7463103572445073,0.13330867334718483,0.6672914374500378,-0.30228988587585714,-0.36188708487221577,-0.6131491776917029
2090,-0.7424314369472744,0.13048005367714527,0.6630546360927352,2.5558608916418644,0.08141577446116421,0.32484974742542216
2100,-0.7852367555385387,0.09636704373372007,0.617507102020889,2.1642231943689048,-0.34702243709744507,0.3234476159577804
2110,-0.7649419865782479,0.129977330596389,0.6467322531669224,-2.9508156465337247,-2.467404679856602,-2.676567311534285
2120,-0.7545750095630528,0.13597576591783275,0.6609290153551676,-3.740195490315342,-1.1686470043205208,-2.717923975006871
2130,-0.749149154048792,0.13221301752178313,0.6663633075519023,-3.711713724879562,-1.7354125279285468,-3.4477651945609007
2140,-0.7573949957339051,0.11975626027796926,0.6565471212072977,-4.115260881837178,-3.9673673103838736,-5.098232972151724
2150,-0.7831369543056736,0.09404618340287144,0.6322210868494743,2.7534869597554925,1.5245953015415044,0.9160091936963979
2160,-0.7521960573660805,0.12515263643325758,0.6664620156585581,1.2477595770992513,-0.6409166155493519,-0.727017703453784
2170,-0.7830916423282452,0.09360504994007324,0.6254283636789137,2.714384609059505,0.9620118239759505,1.24584738410742
2180,-0.768942899227962,0.10854885963987738,0.6458179853263031,-0.7094106463528619,-1.6293627527555048,-1.5936508282359423
2190,-0.7797113157678056,0.10323058724939427,0.6309495854221412,-1.4171298296715489,-0.7352286605738276,-1.060392802657664
2200,-0.756223059130151,0.11654226918850953,0.65244388176564,-0.819476994894353,-0.33186390641703045,-0.970176994338726
2210,-0.7662331109657607,0.10909321745017082,0.6453520108159473,0.06545403480458883,-0.1523389958467684,-0.675581185797901
2220,-0.7655579534544866,0.11119462091688956,0.6504515587923855,0.9578510413607622,0.6461057319651617,0.3540072952020609
2230,-0.758283690704495,0.11896052282354969,0.6600046419878043,1.7582165337652427,2.41995508210723,2.060742562575278
2240,-0.7642372192409386,0.11478764135794566,0.6519276157343294,-1.5061216761008895,0.38392636989315265,-0.14408001767376363
2250,-0.7740234938090659,0.10322749480778304,0.6373247226162307,-0.9461970213281397,1.37877303826988,0.9372096724946334
2260,-0.7948881814847952,0.07988308179217103,0.6167854139823561,-1.9751117555390028,0.294708859654587,-0.21693093413338682
2270,-0.7802987977871311,0.09892250673213619,0.6435872426217688,-1.6039595344643311,-0.32687837757878446,-0.8099665283863753
