time_ms,ax,ay,az,gx,gy,gz
0,-0.9222976900389207,0.1576501783182849,0.4217304446598098,0.2132972129946087,-1.7745305614124536,-1.729529487027886
10,-0.9305044280584778,0.14901942873814236,0.4213595026651267,3.567824302320838,-0.211147339363986,0.10491267541546379
20,-0.9185204906311396,0.17009802766861518,0.42755286390931446,0.9571774570351784,-0.2917488996217521,-2.2138777852781057
30,-0.9448012992718123,0.14961361244617466,0.4118486151816967,-7.580719742241843,-1.5521998129681416,-8.914286291071079
40,-0.9117703170413066,0.15883698555388465,0.4370947872742676,-6.370643330823358,-1.7436610185813028,-8.66127211036731
50,-0.8892143926875813,0.17363252107864047,0.4542607514421076,-5.142530106173175,0.07328119376089226,-5.365476522078487
60,-0.9218489158527066,0.14820619941612478,0.4204349943928015,-6.0017701865303925,-0.9135066272228548,-5.5304967723640175
70,-0.9120017668620385,0.16227471144094915,0.42944120848832995,-8.823660141021278,-1.658724826136008,-6.680602312181799
80,-0.944896406110901,0.13025438444389423,0.40543101102916057,-3.2885211360863673,-2.550233346570097,-3.4068427125297545
90,-0.9012409501241189,0.17201399366729925,0.446344382947632,-3.9104051977760514,-1.613797370137351,-2.847686367943388
100,-0.9161188368947051,0.15639053451020485,0.43038205162873727,-8.942611950438252,-0.8568538633411726,-5.865593358219963
110,-0.9082843370808478,0.1409620440555507,0.4536927234232653,-8.752300378972338,-1.2671328776999586,-6.664272209125582
120,-0.9227888684755051,0.12042776633117405,0.42826124928628573,-2.4781054667521922,-1.2043786152990816,-3.9536800940019257
130,-0.9011221387404422,0.15181745363436674,0.4494594804008436,0.43692984612644237,-1.5658714636573472,-2.4690749591527097
140,-0.9426240711180613,0.11096373548035654,0.4138152922503937,6.365424813677658,2.1090331815829364,2.549191316418592
150,-0.8993545215646365,0.1506060645445238,0.46621541427497587,9.463182505569257,-0.3578648580593471,2.7853818598192657
160,-0.926092487192533,0.15807203365424638,0.4498725944179395,12.862271662072269,0.6861337808958312,7.228712538954376
170,-0.9464637189026548,0.12309599257159276,0.4182840857514006,10.876475390096235,-1.2851488191039238,8.48617882439882
180,-0.9305534084654254,0.15303503764449458,0.444345398870603,14.674340437677124,1.131709196891368,14.709887363458742
190,-0.9379130115395298,0.13181741295652238,0.537974274435533,27.805497978702537,8.101131497678487,29.71949951845628
200,-0.923879865643664,0.06568558786986584,0.37410614255438474,13.71919908356914,4.238056335771076,6.840577458825567
210,-0.8581621564810802,0.07595286143746433,0.3196808296915155,16.3857021466602,17.263655961973672,-4.879828464484541
220,-0.9333675735758566,0.17987428615759193,0.3904205880394978,12.603587816893263,14.60693274267783,-17.176300602239003
230,-0.8952316278736882,0.3339430577135929,0.5010001108919835,16.128279818659493,16.712368678251377,-2.4666597549508653
240,-0.7659725408667623,0.30680532380280096,0.4176205769741985,1.6539268121002093,17.616963541243326,2.3983565844049304
250,-0.793746683353945,0.2145907849274729,0.44525077715973843,-9.56162563806004,20.476502265477627,0.9927541654333689
260,-0.8914275080547428,0.3325902235162467,0.5294603546531673,-22.702160866286327,13.8087982987049,-0.06304592283955435
270,-0.9896868924060606,0.19871573787310312,0.5114823110557024,-33.756332851913314,-6.767602946330481,-3.1784139989054716
280,-1.010921587622281,0.04567829271726399,0.3347238049145321,-38.07318500800888,-14.025816887730361,-3.888604439448706
290,-1.0969237333842434,0.062404300835806316,0.3559662625248374,-7.67868165087434,-32.200205154330376,-8.885875792631117
300,-1.143143184190406,0.23787476089058934,0.11385581317725886,2.223643142761592,-48.44861473991023,-32.05411424885593
310,-0.6382242585748577,0.048220464924294944,0.5945913222207939,-47.080692564808515,-28.527480054512402,-41.72438927022456
320,-0.8236124225727656,-0.08705301860211527,0.45898121431928035,7.682682216078567,-24.69271589693009,-29.402204430810173
330,-0.8445426856274504,0.12735650556901132,0.2043222952272425,31.201755958235655,-7.204686024122796,-17.198354598671983
340,-0.9281600154667257,-0.2714217196940365,0.3879144065940302,29.265505514521536,-16.081938056399636,-39.14694919749994
350,-1.049811616237017,0.31744819587028145,0.29036033311649045,65.43808224001214,20.067214953961237,-5.064131331365006
360,-1.095638874966121,0.2502748140216395,-0.5289201605920458,17.453243059265127,47.69184465248191,-6.042103513229088
370,-0.892701575832024,0.1664047591745916,-0.5113643095394629,29.556290422902887,60.64192093721582,13.929074986811663
380,-0.8362068536049071,0.2076249864220479,0.8256061567502258,-0.5974627059196604,44.19540255823037,23.164413632340082
390,-0.9363789179868438,0.11130429196658424,0.3974948112763676,-13.590976774305197,37.3829739939203,25.242142458246292
400,-0.8535744290922682,0.35180143454462937,0.5261259692665108,-17.40662377543087,20.56497261550252,22.676478594741003
410,-0.7796470880106539,0.6463482549222984,0.4801249524416717,-21.665608106411455,9.42590634999591,34.42162867045227
420,-0.8933744384649871,0.22652510648200103,0.21679738784821342,-35.42198974395494,19.49899818272297,39.585970043713495
430,-0.8889881506995796,0.33551753154252695,0.4043887754601593,-16.428719356374092,-0.12494736711565069,26.472863506067334
440,-0.9888773686786678,-0.1930268827632166,0.4832645896203056,-51.23272193319414,-3.457905263452383,-5.6606271396577705
450,-0.9839248288888727,0.03011872839962306,0.36001353669235114,9.027560939563555,-4.2919488413168345,-1.0127379737611957
460,-0.9683124497396103,0.04873932774348481,0.32106767053819185,14.33686570371298,-6.3931938965962525,-11.502283457567781
470,-0.9619872969089593,0.19033897022466198,0.2520549329712839,28.1163121771733,0.3753037455409478,-16.092051646992513
480,-0.8239947630284233,0.0857826086803965,0.09021647129027517,17.95422826302918,11.027648288083874,-34.332447966291014
490,-0.9096503077852958,0.10520470595412063,-0.14074167371177893,22.203208150766322,21.384510142887972,-41.41544836084388
500,-0.9508164802038156,0.6373427441470215,-0.09254200865254099,71.12794489692534,19.49426235427386,-34.24663722019182
510,-0.885305116689429,0.624944046438007,0.79152255053108,45.74697306799518,30.17430013490499,-8.997936799972209
520,-0.9314757837960347,0.456107042594786,0.14483068998896856,14.59109560035716,28.69110674334354,-16.8861426182137
530,-0.8785631932686576,0.47631484334332175,0.3110557575838157,13.433271858110237,26.103904213290697,-3.669819831055938
540,-0.9302496456436599,0.5706416728334316,0.015007577190135388,-33.6976143278329,9.735533993239297,0.4818277203108217
550,-0.864097669698715,0.5426537275647725,0.5077198529789343,-58.25883774790962,10.622344402628894,17.196895488037228
560,-0.9367720696429158,0.19283778735186574,0.37680546018274336,-37.55072437731409,5.154562746273395,32.80075274525598
570,-0.9260401334203376,0.07949633276346209,0.3617646002958294,-19.330457292555437,-10.907433342466195,18.262937761450118
580,-0.9072655325373512,0.19641246226599007,0.3387396833478072,-10.982907963407154,-7.947092975574992,-5.153675279065252
590,-0.9357422330065269,0.05012859995552331,0.3635370430622418,-12.411046757790302,-1.521451479453383,-9.336029846177503
600,-0.9562181825298557,0.09217567417533036,0.3272419368596434,2.0785583048331793,0.7491198650649735,-3.1924364518535824
610,-0.926092811468019,0.1455057976340178,0.34563103357635516,7.173415750781726,5.292606564865801,8.232936272813454
620,-0.9408701255463627,0.16576901389513204,0.33144124547050646,-0.7743373534415899,1.418666810954183,5.807959050646355
630,-0.9539590400857256,0.1553679755408263,0.33035991327278763,0.15646679988667556,-4.478215229492134,2.529698049586213
640,-0.9491570782948624,0.14465533476198084,0.346073532288039,10.873263941295725,0.11464174661338444,9.405573515586305
650,-0.9172030824215467,0.19698678096441713,0.3639633845779118,15.492856430006784,4.238772915726508,11.905197011549596
660,-0.9865107229674974,0.17690082734892473,0.2999633473862202,11.167613239121406,5.3976259000271085,7.097013367492175
670,-0.9428941134115715,0.18017703770587148,0.34220609405087066,-2.571695101506021,4.844936225915608,-1.4702579330796688
680,-0.9647387153271242,0.13398210151481854,0.3132948028045891,-10.208931529903145,1.6926946167881338,-3.2290896533863602
690,-0.9665524258703787,0.1404580237792591,0.3128275288141394,-6.300397674728359,-4.070664351153451,-2.2569716007059357
700,-0.948208320347822,0.15753668957596448,0.3424765144506773,2.5821897875301447,-3.449118670574517,4.781971577418401
710,-0.9664840117381722,0.1517220384992919,0.3057509752823441,11.545284324278086,-1.2535327037838913,12.974990647979551
720,-0.9479557625958563,0.18650919576810465,0.32547441812505756,8.122467768426674,-4.361614249647447,10.446586997701178
730,-0.9229295175065487,0.2134984259521352,0.3604657062573224,-0.4903271737374677,-4.035150433857757,2.6362109930366953
740,-0.9526349812346627,0.18628890249217137,0.33316749383797445,-0.7534909259625859,-0.5871876926804513,3.3902146834917577
750,-0.9803445622620027,0.1587510313900965,0.31072487845594066,-2.6032174669268993,-2.4291562392230173,0.2352252600742093
760,-0.955206463762206,0.1772096371142502,0.33293864987630817,-3.8136351197779312,-3.6931602224353295,-1.8382014501990547
770,-0.9458337847346118,0.1804289094617237,0.3347644557709004,-4.277637145187227,-3.998583091520464,-1.7295268301201334
780,-0.9317657981713395,0.19815723435262947,0.33396967366393876,3.6504575984658256,-1.9512412931319525,6.491662385597306
790,-0.9409009429583186,0.18721235857235632,0.3390577459935914,4.165736397183175,-3.255103382963992,4.973432210040875
800,-0.9302980659966029,0.2158963461407603,0.37258170923778217,-1.8024057588588291,-5.762699750496806,-1.8294143630395214
810,-0.9410066997020288,0.2036336198309203,0.35359524481173477,-0.3080006311280985,1.4238633859347813,0.6239753563722705
820,-0.9583142680784428,0.17238709889553777,0.33152903666992944,-3.6092091718778176,-0.6493042056633209,-3.074092593883897
830,-0.9543240624549952,0.1681063410386361,0.3323332732856251,-0.18253424778405616,-1.4000373936104222,-0.8109612001816582
840,-0.9286549649486295,0.20872596516539693,0.36335623256487287,2.6497993203176433,-0.2865938487497668,1.6211109637761274
850,-0.9385396770244561,0.20282459818862789,0.3541564231109142,-4.491077322412109,-3.3644911776582305,-3.537752701730976
860,-0.951463118239039,0.18330951552977892,0.34933016904147046,-6.2653849866472555,-3.460817343653879,-4.8970696989618245
870,-0.919341415187643,0.20189649452464045,0.36906615648747637,-4.265374702843529,-1.3873372092744782,-1.7471503846883616
880,-0.9598057985627373,0.16016406872061364,0.3228799600395574,-0.30209997153211177,-0.38241781849931167,1.9143936687365377
890,-0.9513421854822302,0.1959101898452996,0.34531404138360144,3.788419192381395,-0.37316837915774004,1.5371949514563077
900,-0.9379265693502072,0.1960944178565083,0.35067505684915046,0.6091513878315556,-0.5251530060041785,-1.3346229694838239
910,-0.9231970148838152,0.2047593175274343,0.36703466305852167,-0.39340950110751294,0.1950837337125093,-1.4419895565449412
920,-0.9326243584899025,0.19093086265141965,0.3646894247838896,-0.7005715349975103,1.1664926579425479,-0.36917533778454503
930,-0.9140849315700859,0.19983556568954922,0.37724035377053816,2.1904431635370987,2.1364213722134173,1.8198064448568534
940,-0.9128950762377681,0.20814437210765502,0.37330948667011377,0.17797431923883922,-2.014888536486267,-0.15556283141815141
950,-0.9510869134214895,0.18019128564338852,0.3368231482564168,-1.0472893170859416,-3.6049161711021087,-1.6375943880898078
960,-0.929444151870145,0.20483200441071342,0.3588712493987436,0.2437405605642417,-0.8197941046962236,-0.676090346821757
970,-0.9255883726660583,0.20744253704481977,0.35910261642633173,-1.8542862273039105,0.461752344368181,-1.9121669651878554
980,-0.9704228922964984,0.16442483206525615,0.32779190924745855,-7.70921531442823,-2.9309173480559316,-7.042790321614445
990,-0.9491236755406459,0.17455935584990767,0.342686290824929,-0.9521922498894204,-0.0817522880549455,-1.3638108751645501
1000,-0.940023550431693,0.1796070418980892,0.3561333210393673,3.342413531247934,-1.3383972417890204,1.596350053457387
1010,-0.9659643102797387,0.17154079095329283,0.3282740138836227,2.3893190671220554,-0.10726632635708488,1.565051813236523
1020,-0.9278342827074189,0.212248801503921,0.36774468138624866,0.897166381037285,2.9872005807976443,1.603979145062396
1030,-0.9084902452617208,0.22441094039990864,0.39329111923292104,-5.410014269061174,2.5059302122159677,-1.8713242928642608
1040,-0.9189994338673836,0.19081933255774108,0.38031655516547264,-11.37992877231201,-2.151294110162576,-6.603910046640854
1050,-0.9424118558566861,0.19133583579373153,0.339357291608276,-3.820024179166417,-3.798854076157171,-2.2704607231269285
1060,-0.9723108358362025,0.14985751173510478,0.32842144179326055,-5.964046673958539,-3.329394695754194,-3.6161240930314644
1070,-0.9449632681661825,0.1837317222860389,0.34357527903978585,-1.6189107460955263,-3.9375214531693477,-3.8274106934361134
1080,-0.9166256310568562,0.19678913711994092,0.3870993638564492,0.8109084613005384,-4.274478030115636,-0.4977180014588428
1090,-0.9264447005765142,0.183233553460723,0.37281013907756055,0.5693760078930461,-2.0454129140832764,1.9590279302463989
1100,-0.9230916063780671,0.18911868231012408,0.3807518321265957,-3.786304268736524,-2.2232651881267698,-2.2561087330081
1110,-0.9199714332993505,0.1924344408073888,0.38350706836096654,-1.064191119972768,1.4154816539705544,-0.6747543501073041
1120,-0.9410540632080235,0.16711894679428532,0.35727840619019846,1.0964780066582938,0.7087846728196739,0.8721334176876914
1130,-0.9277768508190566,0.1798604365845785,0.365873560097977,2.069157755656368,-1.453786348727029,1.580057170315147
1140,-0.9396373873222604,0.17150675119033504,0.3619977905599472,4.74326606546091,-0.4632027742299101,4.751514464112018
1150,-0.9132107827532814,0.20539538525441156,0.39159015147217335,6.29438132811195,0.3166925832407448,5.168396204473853
1160,-0.9768061326206706,0.1484841238485814,0.33267577456183994,-3.607469012879415,-1.4400623176257734,-3.6322311657278306
1170,-0.9458419173617718,0.16368355651503377,0.3538484440316678,-2.555235946157359,-0.9081195723226401,-3.357782787663472
1180,-0.9419681738259101,0.16456684560586804,0.3613596310681663,0.9888411142079295,-0.14782610828718878,-1.27756062853079
1190,-0.9456011963435642,0.16839492583778068,0.3634107327017698,-1.3041709998417024,-3.6378557527580755,-3.8869157887918377
1200,-0.9251810005693176,0.18562645691574292,0.3750344119557916,0.9963610906903951,0.3653692554872252,0.2430788004519424
1210,-0.929966740245883,0.18173644724388646,0.38389210478203994,2.0500081672730044,-0.007143454330290566,2.1907035147269243
1220,-0.9473801950055323,0.16763243143720644,0.3660674169080953,4.122336214940494,-0.8987730702278818,2.5761737512599563
1230,-0.9245187759425848,0.19329245009283944,0.3830418665504295,7.397904476666804,2.4744686586169924,4.804472955477238
1240,-0.9222476715174397,0.20309806156214422,0.3810066124664254,-1.3607006710515797,-0.45380777771859376,-0.7815751647354476
1250,-0.9426544160271841,0.17635226350655941,0.3677613269995668,-3.3609685725539125,0.9503274344350843,-0.9215397405919395
1260,-0.946099071033505,0.1709861686293017,0.35906872899723663,-3.012012742601002,-0.9640583696598959,-2.0253896075326536
1270,-0.9289116779289666,0.19419807196562908,0.3772887759428624,1.097264633055997,-0.04255747636972873,0.7229264371001023
1280,-0.9485634685545092,0.1796613518001732,0.3603459842682747,-2.3366127308564106,-0.777758949270859,-1.0282474844761118
1290,-0.9264882507438542,0.19560560153275547,0.380704843250921,-6.534431272085676,-2.5997869665616817,-4.077746242471198
1300,-0.9443439549649625,0.16496329377383978,0.3662997402139079,-4.854423065165155,-1.49477316374123,-4.234669870353823
1310,-0.918429093540904,0.188524921154877,0.38248299397845786,-2.4188406730989076,-0.6899619837082398,-2.631445378953158
1320,-0.9222169422436214,0.18326970568055875,0.38190134334742404,-1.961724473120571,-2.1555834374702636,-2.0962986165829083
1330,-0.9526793390738282,0.154991532305119,0.35392643177713395,-0.32997807840804594,0.433771790004857,0.07608682615261697
1340,-0.920476140235747,0.18623804046868386,0.3954247809554414,-0.9011388214988926,-0.80860809604773,-1.1011412880827838
1350,-0.9317347351948957,0.1755954841330805,0.37550110874860276,-2.4532486349648166,-1.7086758281627137,-2.1173746826143933
1360,-0.9226206238755447,0.18723678668478622,0.3817092786158986,-3.0123452662965233,-1.52157335047122,-1.7785820274231163
1370,-0.9817067169261859,0.1225433699320982,0.32510267172184365,-1.7578193655177046,-1.1635683932882714,-1.5977623046212237
1380,-0.9381528763203143,0.1678259898256907,0.3704396691968925,-2.5378018853305218,-0.09098565974205466,-1.3260541720875816
1390,-0.9693272598840452,0.1464044007084374,0.34027052406487873,-4.163285913839434,-1.4719364354365467,-2.661373834713201
1400,-0.9500934014278154,0.15206022260135696,0.3502926825037272,-0.5251249735082348,0.7735814530320073,-0.21499121946301858
1410,-0.9283706792507672,0.18380966530044085,0.3913964694356676,-4.945358518030966,-4.238198004103077,-5.141161617979188
1420,-0.9380338309074903,0.16018070866523662,0.37084205934199727,1.1113511265839908,-0.21693004773565217,0.13230026841756382
1430,-0.9060210555058779,0.20042627941096822,0.4021321115689841,-0.2853612017877366,-1.194451861945188,0.022944128506274586
1440,-0.9243619218729769,0.18446549672501916,0.38533748274316115,-0.46598699211681605,0.56037208976195,0.2613125753926735
1450,-0.938518802352317,0.16362326898781848,0.36573456967840695,-4.181688133859255,-0.8068532247368002,-2.988633258137061
1460,-0.9435205207369309,0.16189407236722125,0.3623016254540692,-5.550685130990474,-2.087265965912248,-4.905936630191847
1470,-0.9275024798685274,0.174404163093366,0.37507799139079173,-1.3568746216447733,0.670106478618376,-1.5810911297981796
1480,-0.9456600094197788,0.14811487143698437,0.3768857832223369,-2.981165772707688,-1.3370040379042618,-2.3073028382689964
1490,-0.9221150580407069,0.17282896527032088,0.38914117528304937,-2.1818060960828563,0.5350142592345872,0.6522940234983787
1500,-0.9824612942123125,0.1199432804767291,0.3258538130270551,-0.25011209032348614,2.1884147515575307,2.4903193706514473
1510,-0.928138505617375,0.16705068888490596,0.3821863482604282,-0.46826068557864814,-0.35417210012241085,0.5754895518769085
1520,-0.9530123697378904,0.1421180121858004,0.35026552795676635,3.259656275630811,1.4634214637961565,3.326293946846717
1530,-0.9304370144423929,0.16934816921913143,0.3780095974198501,-0.12504894435832403,-0.6949083078986128,-0.7404271195162115
1540,-0.9230223834786428,0.1702194985208551,0.3895114307676607,-1.540854027750438,-1.9798797735006473,-2.7043356369477864
1550,-0.9184345244642381,0.17190183809451787,0.3935942536797029,1.8238394092687424,1.2980721026295918,1.077390482294174
1560,-0.9401986761673401,0.1598186163017156,0.36223176958330655,-0.013859078117374857,0.35587757504502116,0.6345844694759382
1570,-0.9257266118869815,0.17699102295386723,0.3929886691336606,-0.5047065455183402,1.788464630511814,0.7659639024053355
1580,-0.9636204401714129,0.133902022335952,0.3562193869010086,-0.8994846078654395,0.19757085234485292,-0.42994569034967384
1590,-0.9484827766447292,0.15655493873116183,0.363975245680288,3.54348842470056,0.8171547999780355,1.6255706594661368
1600,-0.9408843426569199,0.1641099550030481,0.37210523488803193,-0.08278705233186157,0.34540203216689347,-1.287542669025013
1610,-0.949932293629889,0.14493638788558005,0.36770738544153664,-0.23444345426378832,1.6814924449902953,-0.6984084140407703
1620,-0.9320918017694434,0.15809242950136887,0.3816127014565819,-0.0835514617680661,0.9452827441134105,-0.1835008185701763
1630,-0.9184015133822773,0.1841607057411036,0.3984892237096084,-1.1147510846026423,-0.3061263003790986,-0.13596873331782944
1640,-0.934612200704146,0.16270940619618737,0.37769146984985924,-1.4017600410556743,-1.4473819189577644,-1.7973248052382935
1650,-0.9311191791357247,0.16300591708221435,0.37717367552733233,-0.9853046201396534,-0.8000799331943651,-1.183412307612702
1660,-0.9347350437825752,0.1638294962514265,0.3956526741236921,-3.7200132717380345,-0.6522736716348042,-2.5244549649265586
