time_ms,ax,ay,az,gx,gy,gz
0,-0.8084091152610128,0.08200530602139772,0.2826889374213746,2.345795274594008,0.24649990882043088,1.9270766020542482
10,-0.8139130121310468,0.07445104723624095,0.28373801527225784,-0.1239956183320366,-0.5877115884880327,0.16765727368053085
20,-0.8164038638087422,0.0797005631751397,0.2858193853463327,-1.2722017544244804,-1.8179411490682882,-1.5914601477818429
30,-0.8370645637460689,0.06175795277723697,0.2600103805065598,-1.8617844257949632,-1.2153916866644003,-2.029362267882286
40,-0.8294977410483143,0.05972866818645322,0.2613319715418975,-2.5984591702969446,-0.8280677947792023,-1.3453739735665775
50,-0.8407306468498003,0.05037005512327426,0.2596112085153581,1.6895253341547947,3.4763619348012087,3.552013753546731
60,-0.8078500653665812,0.08693251026531246,0.29518800434076214,1.28265370624293,1.186415433587255,2.008669351475103
70,-0.8122825908596946,0.0826980303794484,0.2870152875744522,0.7807783925250276,1.8709076636156627,1.785854252359288
80,-0.8185999709104936,0.07232694641894234,0.27766124669350756,-1.876311524003738,0.35026354846170915,-0.1850840348648251
90,-0.817403285316996,0.07653297779288089,0.2798725352361539,-4.685760911851119,-2.4069104581520993,-3.557776896136742
100,-0.8052841275711429,0.0857719760569111,0.29214172016366646,-2.060237264873339,1.061241168191228,-0.9192251780893617
110,-0.7976472327197033,0.09738296150357854,0.3005716419966903,-2.348012376548951,2.0589264972432595,-0.5905706310219507
120,-0.8222115094212021,0.06856238789450646,0.2674796975679172,-0.8872002056675126,1.6285612094798556,0.035355967610325556
130,-0.8458791222306797,0.0451131195108634,0.24596653544135555,-2.185425932643652,-0.43714330596488093,-1.1917505045750572
140,-0.8343211779874576,0.05821980151883086,0.2755659990044771,2.1111034940360915,1.9954123674394881,2.4533731771808287
150,-0.8069671505523814,0.0884644951677363,0.29125567557700954,-1.3401191890340518,1.8324801599150713,-0.8263105410167861
160,-0.8305153697189933,0.0572765785210109,0.26919052470136623,-3.370326487633792,0.15184076408485223,-2.8385193060688163
170,-0.8177608410848283,0.0645061796080847,0.285170518640817,2.920802375149507,4.634127005454914,4.4795934289893236
180,-0.808812392653609,0.06641978534756858,0.28613499652074503,1.75533665035476,-0.09679658707099267,3.7190234616769797
190,-0.8276686859804687,0.04953308799289655,0.2609395524409409,3.0884430354664234,-2.725981249326502,5.598707825780762
200,-0.8272336670327242,0.06521893521735875,0.28584785093420173,12.352536002063829,0.13247608009998202,11.639931731752991
210,-0.8825950159580002,0.05921117014785999,0.28569229139898816,27.491597659376303,-4.45146237186877,15.260746997925969
220,-0.8706157424549559,0.026436332778315266,0.3235631900370126,26.954009023543748,-9.579739736458949,9.599013180876796
230,-0.8841921383006037,0.025546357672211157,0.31388352505549194,23.418776779112942,-18.1048861811744,-0.19651233655089662
240,-0.872089161466059,-0.04292139265609376,0.34100531324430067,20.614902051613054,-29.006594901451756,-7.633850218050929
250,-0.8300604700640973,-0.19065169105748564,0.31568163761593804,21.4420341996177,-34.43121512999172,-31.111790920222944
260,-0.6541365348706897,0.1377173022097447,0.37277965247952527,12.453930802713813,-38.7995376427846,-26.759478621159783
270,-0.6317817992650193,0.04165417198982707,0.3126820341306595,-5.221780411956567,-40.3891462660629,-27.540509513506354
280,-0.6890516696134757,0.12004839751204535,0.18534372116090073,-14.18765494999453,-25.093285513124314,-30.22329667338154
290,-0.7213037283233125,0.21385704478257092,0.272165029376441,-18.909628754675737,-11.640283208429604,-22.531393816279465
300,-0.8118692613112067,0.15515067430844556,0.3552312283396809,-23.98720420370558,-7.568534095589593,-13.767389152424226
310,-0.8670866505976303,0.09080027668446383,0.34052099986690876,-28.031117093676222,-9.589906687253654,-13.71055533496072
320,-0.7603294362134847,0.05099089032295105,0.29574271427486537,-17.992173548262592,-11.101414335783542,-15.473620279646953
330,-0.7396928512391818,0.07923413903961121,0.3091020818551932,-18.0251097801136,-4.239328537597517,-12.07016665712124
340,-0.7960573531595949,0.04792865050023067,0.32680146589830794,-14.64835291900679,2.1317742061313036,-4.895614868098104
350,-0.8099597146827333,0.05309315606023169,0.3650134847758891,-18.475493654785343,-1.0876589565437331,-4.702924609346911
360,-0.7985774503979766,0.02625577877626491,0.32359691564622123,-14.08093759968877,-0.5046452840810562,-2.45002745632174
370,-0.8370415465915837,-0.06718921993505256,0.31804583921737417,-8.368480584520869,3.9096180321756155,2.711051194115139
380,-0.8550161722918336,-0.08499479389857961,0.3520646365231237,-3.9571208238080375,1.1157883100666068,-1.8724624094755522
390,-0.8449249473093816,-0.03246788890268508,0.30884982131714706,5.563040453974352,4.606300296667256,1.7276885072674961
400,-0.8042825663973002,0.0304520290250787,0.3251676538246856,-0.48386282021674676,0.33533907808006,-2.9474218957175324
410,-0.8205638129062389,0.011092640236871558,0.33271782798807115,-8.658883535354404,3.173819946412798,-4.475472018428709
420,-0.7738450266579854,0.038574620517093455,0.37649104192511,-10.508648619183155,0.8416334391757441,-8.878946606540428
430,-0.7647500891934192,-0.20058302488186217,0.4197523335443905,-55.42959779080753,-10.610532190464422,-32.08225800523351
440,-0.8243529712154184,-0.0472679260827973,0.37619906824204097,0.2053186434628168,-12.671749832736088,-8.568856743910382
450,-0.7912594937526495,-0.10900814441431053,0.4366606350219845,-0.5820257986133095,-16.172275811010465,-24.078363046034447
460,-0.7796259012657532,-0.014309928696269571,0.14079930999191054,15.077214177703663,-12.301193940199681,-16.102744873001008
470,-0.8770176880926195,-0.05053425222531654,0.40154832248774397,11.96696386861613,-4.823320753745104,-10.346649340919594
480,-0.857801639979049,-0.06387281157438239,0.2393242856681578,-13.521267731342153,2.195100619046321,-25.551606942414754
490,-0.7884182211927699,-0.10805407092837027,0.19197788089878812,-12.1083713462019,11.716768684633774,-29.183448586899516
500,-0.8219800427249596,0.0317120196330471,0.2764906330397904,14.309890404208044,8.584423721791824,-11.178472421854469
510,-0.8107608604647732,-0.0021574301497449856,0.3058760258152105,-5.473409299413559,10.961592488865875,-14.382679544462988
520,-0.8288771619648561,0.036740237731654066,0.1950281346805831,-16.745245085759915,21.74151926816536,-11.217201870162958
530,-0.852182481228949,-0.012092548194909543,0.22485357079281543,-1.1111328790407184,18.82483537087897,-7.543486279377103
540,-0.7827501351478402,-0.10859910843765938,0.364095654519616,2.289747577471582,7.59631521621608,6.513487923772684
550,-0.8096458301204643,-0.100548316425488,0.4341572362527273,-7.887042917915214,9.438450869227344,17.648090834613903
560,-0.7983951885090423,0.167357131245469,0.2109516774461222,-3.438883347790587,11.920344712837508,33.25537241262979
570,-0.7833966905676871,-0.02801104188135512,0.4853436313263116,-22.67353838992034,2.6080921062925095,24.422611581201654
580,-0.7559010121794443,-0.05032665353688735,0.3222421703865496,-6.875371786825417,-2.2598330941978255,23.19582683134684
590,-0.7873721431910911,-0.1953435173126173,0.3731021851064602,5.267001387594599,-1.2614844150716458,17.69698945976795
600,-0.817106504498307,-0.08481872669987772,0.31915584810508735,29.24253958158568,-1.8101199690776704,13.636568270520598
610,-0.76847132095048,-0.03801901994813621,0.318407837623258,34.25341866434753,-6.078345479796635,3.851917519084012
620,-0.8158702058395332,-0.15328764559485653,0.17455728556907535,15.847054031729444,-4.082190401582754,-12.966886328599717
630,-0.8446833352638449,-0.29225691111284513,0.2524653885886433,7.269269086215211,2.7468982100884762,-18.18685926074394
640,-0.8435425055830621,0.00776959541095836,0.248694512429927,21.248943620892003,6.560807401653326,-12.322849398561102
650,-0.8423061534933954,0.23671465384095802,0.1313247422060548,9.528594997358395,23.09514115827635,-1.61240575574274
660,-0.8496947312723745,0.06034820823941461,0.38764102145781065,2.729835017400824,24.692485855725305,2.611404249876075
670,-0.7752102928094188,0.006134836456942503,0.6821804963926296,-22.664077678447136,16.6548890827296,3.0990367317601804
680,-0.8077312789794792,0.07216633767351081,0.39998934987164503,-41.32398304656754,14.582041979590208,3.4082595533943527
690,-0.8363768402869907,-0.07728252361477045,0.401664704244658,-26.369582614199928,9.629493665366859,16.510370344698675
700,-0.8072979601030874,0.07134849820970555,0.3901859655648436,-35.962052349316764,0.5621215391669341,20.359512022751947
710,-0.8078256218855946,-0.12354364945695116,0.1631345346810942,4.942701379128309,-10.854787927469076,12.494223745329661
720,-0.8313919964864731,-0.14767368160687458,0.1975700946866537,14.620394041775,-3.605266476369829,1.6575130237042641
730,-0.8335038585322725,-0.0531158013466558,0.28639498131746444,22.94423207499489,-0.5479500085043554,0.8100653680530898
740,-0.7956175938980413,-0.016247319821935852,0.3144039416738606,26.348785770277615,0.7931220383463277,7.664940300420964
750,-0.8121127056123062,-0.019519665303445625,0.28971645280918856,33.55567342759509,2.3766320931061475,13.1455061875639
760,-0.8138512889343195,0.02273491592116267,0.3083540369753153,8.946777652685427,0.21920996052345165,-0.00943256967700501
770,-0.8331132369833851,-0.006013857639467974,0.3031389321126092,-10.34864465288677,10.612756818465648,-3.823089562213947
780,-0.8256194826131784,-0.014254555708262598,0.2957831237362944,-16.508736083262402,9.035150594189494,-3.8608068253785666
790,-0.8185523058454027,-0.0025544239785674668,0.2987735115413629,-9.711002315776728,10.658568367201097,2.679363196142532
800,-0.8061811609181897,0.015765462161194194,0.31064916483141713,-8.651631457655233,8.31795154747554,1.76949545677927
810,-0.8443086792008525,-0.017374790555273096,0.27212353899971997,-12.598506497001067,11.927061176088591,0.3836614250972634
820,-0.8341134355370017,-0.005056506154193605,0.2794947204296364,-5.994596012825534,12.561822766934014,3.267682715241535
830,-0.8354026346733453,0.003407762065816047,0.27824548346798506,-11.065875698930574,11.334235509746028,1.8261890466710058
840,-0.805991112504586,0.04034364821718851,0.3015296651272053,-29.202308824533514,7.712679665992816,-8.534796023565963
850,-0.8263956626585464,-0.008191866181048228,0.2849881973157306,-48.52913261509443,11.139061056866828,-18.926193652605285
860,-0.8126575221837209,-0.007499346399819919,0.2915035963870237,-32.19079374880097,9.353676469011953,-21.438490260881625
870,-0.8122355900970211,-0.01252167509424485,0.28375446271833366,-22.162007669158378,9.072543056895459,-17.42215529163963
880,-0.7845343482954855,-0.0011688316838203983,0.29704191759784865,-4.380082838206894,1.448848629126167,-9.862871120064561
890,-0.8586117704558832,-0.08970647320748104,0.22820285666272655,8.14806183014859,2.822222985432832,-9.989463702658135
900,-0.8186900682373758,-0.025243696201733203,0.29006799482810675,14.061726954724463,3.697063408633578,-9.056043575436414
910,-0.8253618999970956,-0.024117150865500543,0.28028628452745913,15.695344369732283,3.0365852323604425,6.620957913370988
920,-0.8145350301766313,-0.016517397628264815,0.2765191766896993,10.355533586766644,3.1221408365484615,9.376461745356123
930,-0.8093939494630955,-0.01105323794960706,0.28630387783064726,-0.7768334829905883,-2.3211415495387975,0.21470621799663125
940,-0.8245786043812214,-0.026151464961327066,0.279626487039207,-3.629645221732322,-5.20137505030635,-2.334892068878026
950,-0.8051721380214167,-0.01263939788719712,0.2889271438392707,-1.179723070803844,-6.072661489508231,0.7118750542134511
960,-0.801708176868493,-0.01422973053347739,0.29211738583382796,13.961484786625013,-2.557801491773515,11.645994259510921
970,-0.8222986825056476,-0.01477562325734615,0.2797269811412212,13.740051634554867,-5.141216176884359,12.851403064000227
980,-0.820694084271717,-0.015195077908934028,0.28391675694832375,10.771001093035803,-1.7997109377908045,14.29836933666819
990,-0.8052315548639082,0.03320983900336904,0.29828085506139024,8.600334697387439,-0.2641139146246423,8.433762297099316
1000,-0.8340588039554153,-0.007017560992201182,0.2696913559518564,3.271068311571937,0.6901291620212904,1.8079180483306383
1010,-0.8143830157417139,0.009797670493251151,0.2942392045949864,-0.7702596442276448,-1.1808282347097228,-3.402704586105332
1020,-0.8284456426487007,-0.016498813889194597,0.27686959529988703,-5.9435525233621185,-2.6769966642238012,-6.376869319204983
1030,-0.7995223579729571,0.007225187334732331,0.30436162285369917,-5.461419846001256,-3.216937075104055,-4.96765339937515
1040,-0.8099111687182283,0.0014533802516280836,0.2944661773134316,-0.6972007269366678,-0.24247999382105623,0.24543576395313504
1050,-0.8406189905530301,-0.027802732809394715,0.26263433713925577,0.32393143183857764,-1.547289096060591,0.903628326450828
1060,-0.8136209921130523,0.00509532476565927,0.2896672616303365,0.8199101760733958,-3.320702898133238,-0.2756409088806745
1070,-0.822812371435521,-0.005189407753238521,0.2827488314194972,0.14892586939751082,-2.25909718172035,-1.1276817002878115
1080,-0.8191407642084083,0.002766327605512176,0.29266358616740346,-3.454814915779842,-2.2016833990435893,-4.5440618081814
1090,-0.8249238508192842,-0.007975616993194854,0.28307915597704597,-6.226052161512295,-1.9238825700834448,-7.332729197016133
1100,-0.8478824727833563,-0.04962252264900428,0.2590258414436067,-7.749215335420607,-1.6940075773080552,-7.30506420786082
1110,-0.822004360693581,-0.03259114741040115,0.2854716107493927,-1.5631563309616432,-0.9058759380761218,-1.2655110227809678
1120,-0.8297672578062361,-0.03871038619501773,0.27604067565619056,1.047965122862421,-1.9071293775443383,2.379249510679851
1130,-0.8303026005276809,-0.02897483518883357,0.2707385156748044,5.059155764712757,-0.5381290041122939,5.853797722400072
1140,-0.83439537704294,-0.02327281660962465,0.27105031960401355,2.7645355406155785,-0.5709767958058836,3.3054221152323513
1150,-0.8354553646032973,-0.026803196328960513,0.26686023962895916,-0.8686583427598362,-1.656114957972226,-1.5084268699379693
1160,-0.8091451762269916,-0.022524651995789815,0.2899754677430251,-0.18424036952100442,-0.45302710167448246,-1.2366572163021077
1170,-0.8005805557434899,-0.011256991652859306,0.3032814509325147,3.7272040492415144,0.40154379980343546,3.3403253972928493
1180,-0.8055666881826778,-0.009125384705868985,0.30256952226490813,4.752318355511711,0.23726826049077654,5.179493746147617
1190,-0.8348725876128495,-0.031061800522544578,0.27173720873119145,5.294358984917904,0.6241269734080526,5.9122294505083355
1200,-0.8382531289827382,-0.029122636270399297,0.2685239017625614,0.18810451323203067,-1.8887560833636585,0.5836315762823546
1210,-0.8325676306744753,-0.030174109978626126,0.2774259045623198,-5.657361288371831,-3.8769721819392453,-4.426700466430511
1220,-0.826769491035211,-0.031134203888696792,0.2823894938435902,-1.725493662895073,-0.6122811781648237,0.7064469226672112
1230,-0.8082645114003799,-0.01297232507383936,0.2982902942248856,0.650718999305409,-2.2057979832745795,2.8240644036491274
1240,-0.8132940487815242,-0.010548822527377433,0.2888616528680936,4.3024807999210095,-1.8050177359378772,4.871498077775524
1250,-0.8359545591701913,-0.018508563566020104,0.275280095806499,1.8070557580351982,-1.823389111611244,1.1087441014734447
1260,-0.8133813660315936,-0.00316291834102664,0.2963276854784842,-5.266606605393289,-1.732979334752473,-4.0054258072495355
1270,-0.8021522429354422,-0.024991305327573522,0.29621820485937017,0.8352728516705408,-0.8231099374733342,4.177447278746643
1280,-0.8129301725556313,-0.014753501128851071,0.2983730865786023,0.620905263358561,-4.820876934456704,4.767025890861517
1290,-0.8407375711834054,-0.0336923505800554,0.26755574059050924,2.754623680986378,-2.3510115520066956,6.755411344795496
1300,-0.8398528692065912,-0.02437283966181621,0.26481306445769165,-5.013689084858019,-6.705035127688707,-2.1543152568226316
1310,-0.828768042944442,-0.025554420129751926,0.2816998851675679,-1.3998729375973724,-2.0345633993079675,-0.8384884150760481
1320,-0.8346225560746432,-0.04357022025207961,0.27638664170431676,-3.5613001308359387,-4.894656210192512,-1.898733195153775
1330,-0.8278265745750036,-0.04245995545009871,0.2824288700746673,8.386838032593737,-2.359995388985043,7.64897221460275
1340,-0.8058336991267144,-0.0025724268427061592,0.30742437664330075,13.684495932811949,-2.5793541576548646,8.551888996646893
1350,-0.8110674451415539,0.007296218535257892,0.30749918640154206,8.78940971273744,-1.7610396063776017,3.9563451416616098
1360,-0.7845950228337191,0.027322946900814177,0.3352006630271309,1.20383752973135,0.3978767423588015,-0.7419237100721712
1370,-0.810469329554836,-0.004002615875738108,0.3072586852958014,-4.302268657749636,-1.0682417353367906,-5.210859071808205
1380,-0.8033292649773752,-0.004371448616194196,0.31288528459993675,-0.04025072822479103,-1.66630704491648,-1.604860940055905
1390,-0.8268318321317665,-0.03460958950650996,0.28047579550658946,3.886734600576773,0.9333321187667023,2.8897849014003203
1400,-0.7986758587247903,0.005571932247869062,0.31821146142549317,4.852638354933179,-0.4001954665961206,2.3471542128342255
1410,-0.79059992808025,0.01649650519747231,0.32858688019433996,1.9318615804635453,-2.8194374474149257,-1.1137529756020021
1420,-0.8198780073434484,-0.020276143402729697,0.2985239061214857,4.992291946580233,1.4888796625344396,2.230953544919306
1430,-0.800528040295594,0.005300415233705714,0.3184214554735176,2.8080308638568425,1.179726904963284,1.0703613983019287
1440,-0.8144366488781687,-0.0066886486444813,0.3028378276616689,-3.077618001290741,-2.3434727124998442,-1.7827208956195162
1450,-0.8254435435178318,-0.027683257239249876,0.29436373869565574,-1.2345600225339437,-0.5385815786944421,0.3625650689009001
1460,-0.7955815406882868,0.0060676708304393,0.3242114759821234,0.7776777707467012,-0.5713390593417931,1.3129027037437928
1470,-0.7921676028907207,0.015327688393440944,0.33017640800920317,1.0043495204807447,-1.3616639772856478,0.19790328898071752
1480,-0.8220679624319345,-0.0171436048284616,0.2912253810682693,3.0949423506949993,1.4845206945038707,1.6290025144685183
1490,-0.8048902149871816,-0.0005017065639355642,0.30929515362555815,-0.7470448211583045,-1.1003925383180941,-1.7569900462948098
1500,-0.8326231952293135,-0.0244837583324913,0.28644704293900286,-5.115875783525784,-2.2919568568239552,-3.7014970798824742
1510,-0.8290905224327715,-0.0251998571673794,0.2821230773536671,-2.7665251178187797,1.099484288699486,0.22454193821065427
1520,-0.8118246228471337,-0.020927134607461914,0.2967131577207991,-1.8818459849077582,-0.9896974356445518,-0.06439034736422142
1530,-0.8338101570294063,-0.03917208232099653,0.2845410744093007,3.080046075195998,1.113308871988356,4.785578700381461
1540,-0.7980878012373712,-0.00417014250140523,0.31969898629831267,2.8185690861074213,-0.17165173613458867,5.160695892171302
1550,-0.7854250133471973,0.026206089872107645,0.3334873989039326,-4.144132546223716,1.6128455514641198,-0.3704415351947845
1560,-0.8010604533870751,-0.00239509387904748,0.30802288698131675,-4.1217949091920465,-0.816892630625746,-2.1838206953695085
1570,-0.8098165719231737,-0.006111067920679307,0.30689635435124757,-3.0838660663498296,-1.886529255934645,-1.910668167445475
1580,-0.8208064209306517,-0.01929367771790985,0.2979801993103514,0.0976413339472495,0.7790016977007308,2.745516439108025
1590,-0.8364248612324278,-0.03990602728869974,0.27582837870541427,-1.1606345605761808,-2.850831624042182,2.466008081421511
1600,-0.7909790030150785,0.0049822383566948715,0.32482678499983914,0.9481293651415925,-1.622803329769207,4.043165427583697
1610,-0.8093822036244961,0.009956786748359451,0.3106422647670732,0.3151331273578851,0.043606710921365546,0.7171830659650429
1620,-0.8223326653024694,-0.0024399301345551815,0.2989957877107766,-2.900151553786244,-0.8011586622772225,-3.6661392922806133
1630,-0.8234619550787686,-0.014005328977642152,0.29524584186186714,-2.1876613274423273,0.5314992994543899,-2.3432973020784744
1640,-0.8395932167174621,-0.039600221822389106,0.2793731893769969,0.00121656133202519,0.8255980909897634,0.6376045873396705
1650,-0.8153010272743751,-0.015992514181523126,0.30426628279976814,2.943007380160352,0.10681519106546428,3.8631470912363817
1660,-0.811587366016746,-0.0035011550343274868,0.3087085458512978,3.4514145561244027,1.4257017038392323,3.838302509430922
1670,-0.8309430584549506,-0.011593274465598737,0.2876947991964563,1.3136669588350274,1.8094368481042067,1.8333748540489063
1680,-0.7981089522144732,0.01298208939739441,0.32337008638955544,-3.7834997223365407,-1.062452594209964,-1.718035208880734
1690,-0.8345290620161808,-0.02999562608104505,0.27845701568733716,-3.688350492674216,-3.0635562668803877,-2.0827585934989004
1700,-0.8282875454546785,-0.02334007935579014,0.2884774404805916,1.8274975912718272,-1.6381359703392104,2.5067256741255712
1710,-0.7966797392475651,0.017211224489272547,0.31843501492717885,2.9884298921244694,0.5837717596540042,4.262468203299948
1720,-0.8244894987506991,-0.016723873150444164,0.29326616422046653,-4.489864401372975,-1.80475138907299,-3.422351742033272
1730,-0.8093976483858428,0.003358381465682814,0.311403402751073,1.026336987952173,-1.2614735486611957,-0.4827517203699062
1740,-0.793966947249787,0.015910346059204744,0.32052805460743355,3.550783488288708,-1.1908254192758194,1.0073481386848986
1750,-0.7882232046100027,0.03051818048944247,0.333430605425356,4.979347270622944,-2.064299913127697,0.30658404915248627
1760,-0.7922286273777581,0.030456184194059165,0.331014959504721,5.353319490021999,-0.8405737855236002,0.16177746825873268
1770,-0.7950814057815365,0.023669543128840394,0.3266241109579572,0.033668126461669584,-0.08130305128428683,-0.31518259621408573
1780,-0.8227540037734078,-0.007085457832597887,0.2964647818025806,-1.832583183053289,-1.3536564834105538,-0.6396310797144118
1790,-0.8165524983551897,-7.38100787308054e-05,0.29992939564108384,2.9600369608025208,0.41831814732064226,2.318434794748863
1800,-0.7934187259108201,0.02168128692928093,0.3213106460877708,3.2257688255425494,0.011612936251364087,1.977451155500064
1810,-0.8052806002231945,0.01408944850470746,0.3071209862555248,0.017196776755190823,-1.6327620383786832,-0.7404231956022607
1820,-0.8000090608452955,0.015585634378557235,0.3147692323921699,-1.7957371061558915,-2.081740567302422,-3.001123193325808
1830,-0.8070251953622186,0.00817298950655736,0.3101831586295591,-1.0063246005387372,-1.0798256743682515,-1.5348100490553123
1840,-0.8618094242534063,-0.04309816304259828,0.256669777586346,-2.3892221596243948,-2.0533400312551917,-1.5988331173235266
1850,-0.7925048217925011,0.01606019341728978,0.32241986911379655,0.9934074742278514,0.10893393548596918,2.2449913290249603
1860,-0.8146371370253499,-0.014692163357951394,0.29981165398339293,4.712095403839066,-0.3415475340985604,3.3170026503535794
1870,-0.8149973349125708,0.009387369105958412,0.30188332059413553,6.6915291245389,1.7557576918952287,4.170449121525248
1880,-0.81229716825901,0.00705843837961164,0.30192706458236596,2.9339453088228673,1.6720985767252592,0.7007903888455316
1890,-0.817428355854459,-0.011193331508694022,0.29751397111990285,-3.5679212181422675,-3.1735406074437584,-4.664798058739818
1900,-0.8079096096112499,0.001534538788444572,0.31271651360938624,0.8702603357343595,-1.688224958160941,0.25199634039729335
1910,-0.8147712380707658,-0.0005146954091808024,0.3055104731352771,2.9320117304840623,-0.7850232577625366,3.270434889465628
1920,-0.8230105688004232,-0.0035248579220659533,0.2955070118423924,2.025429340313818,-1.7516216686652317,2.589204455152913
1930,-0.8096855938229961,0.018138207394409054,0.31475211130528763,3.544417660207552,1.7143300283303813,3.024006153915453
1940,-0.8420486764247804,-0.025447253232774813,0.2807063297815122,-3.605919852182571,-0.6072422629673969,-3.738325724415378
1950,-0.8320804774578151,-0.025788485674812275,0.28646641035650455,-1.5481345675860714,0.48574719600612315,-1.2709840469695952
1960,-0.8144288803944261,-0.007998921092695762,0.31017299638575485,1.089010948569741,-0.4936171058865571,2.0166867143171148
1970,-0.8367232431339349,-0.020119675733170753,0.2808024757538048,3.281369991503618,-1.0589429021795882,4.559783767074407
1980,-0.8071108246991751,0.007625948627064446,0.3094883687922492,3.095665425162884,0.884695701324112,4.694937800649182
1990,-0.8086047856497245,0.021296525155156044,0.3124427017450231,0.8263695166687004,0.8571016440898561,1.1043537912257348
2000,-0.7921524106773801,0.01805063943242966,0.3208897269163232,-1.4423653020013034,-0.3583927320707581,-1.2632272876979773
2010,-0.8146463451419865,-0.004390977663610779,0.30674278087478996,-0.8745324872932503,-1.2183091075245065,1.1138828383500472
2020,-0.8211327332443947,-0.006850448312965351,0.29984569467341626,-0.015182498080659634,-1.3834564957323816,3.2347018380054173
2030,-0.8158942192528847,0.008609341257361668,0.3057263505949809,1.605403417845647,0.06237384053622852,4.474148955340144
2040,-0.8162356175016015,0.011346074065708828,0.30509865958087506,-1.9730744448572022,-0.20504491467362157,1.2588370931309427
2050,-0.8271540458627921,-0.001359392563465638,0.29094713206853634,-1.3264196214052864,0.8387586699151195,-0.7805705735743335
2060,-0.7936540093150065,0.029299238142519134,0.32740363097722613,-2.208517816745026,-1.1309963646334251,-3.8006733941684314
2070,-0.8166452441486497,0.0016709297830058666,0.3051892436755266,2.462263585555443,1.7961078589234734,0.5908262004181268
2080,-0.7805808054407801,0.03518873303438235,0.3379159210011451,1.5640175759567942,-0.08184271244642433,0.8742167849649389
2090,-0.8050047401032472,0.012934077498530329,0.3197350840927682,1.7264656691909985,0.8712719310075858,3.210732514448436
2100,-0.8022186201078374,0.01483651992797752,0.3194855554997196,-2.461324590247933,-2.6287526527492933,-0.1689869215671429
2110,-0.8113415028990719,0.007805369537358808,0.30631319448823785,0.12425362714138133,1.782645293003882,-1.105528871955139
2120,-0.822009925511168,-0.00666739205345171,0.29199694506793583,-0.7840488408656363,0.04838004549789088,-2.4386466396076854
2130,-0.8424875311183614,-0.022910285289316754,0.28097756674985863,-0.5164232288842638,-0.1371981455773455,-1.0545858181189618
2140,-0.8274673310897657,-0.012735400921589982,0.29021520790944333,2.671636489270185,2.6966938511580536,3.6324854122235997
2150,-0.8317004774416837,-0.018384650741211307,0.28020898896506535,1.8207003920086737,1.07210721832412,3.541818414464392
2160,-0.8195310150205911,2.7860472102362623e-05,0.3022071636747177,2.1418158181465063,0.8167835506560011,2.4471733170033323
2170,-0.8198615222204907,0.011045058669070053,0.30387540536898516,-0.6278748302390639,0.6059187788486443,-1.8097176514165019
2180,-0.8285997638859882,-0.008485005984199483,0.2922929218191295,-1.9575411632928654,-1.8530451881010306,-4.295513813751395
2190,-0.8353885928316711,-0.02023466010407323,0.28294330595601924,-2.5192178960714773,-2.7317669993843046,-3.718837018952931
2200,-0.8299714409141233,-0.013870052120834036,0.29016379222464883,-0.7389422809573505,-1.2452856171651296,-0.14511019080258103
2210,-0.8465626891206982,-0.030477684614889155,0.2756590955132445,-1.786571489763895,-2.1634302445435396,0.011243621616094934
2220,-0.8156599808261839,7.549048540193793e-05,0.3022414355097372,-3.6535322940609958,-1.061420200651579,-2.3667356634740537
2230,-0.8113379886521368,0.005462181193200136,0.3054937977977726,-0.8041239185670785,1.1758416021801752,-1.0705637750837167
2240,-0.8005896741520969,0.011847284656564257,0.31933011684362256,2.9421038259203405,2.446288499840034,1.475307723821277
2250,-0.7970722139386919,0.016463931580451417,0.3215134790832277,2.1555530274022594,-0.3195593673306331,1.0189333084382277
2260,-0.8171061513419221,0.007780964363172685,0.30071716786115665,0.3638663639675803,-2.256970410349332,-0.2628902887707312
2270,-0.7968009960608792,0.025409784972002886,0.3238546291868946,1.163482124377465,1.2903076838715126,1.9570478054263267
2280,-0.8013861519202483,0.019892966455012026,0.3153479915435337,-3.0831808773945655,-2.741335651483654,-2.364363356021093
2290,-0.8311788195510887,-0.0067642696808550284,0.2916755884884915,-2.3801460624997977,-1.942430553214955,-2.9194898634031654
2300,-0.810398418160473,0.009027798682304513,0.3108588043494319,-0.39483567371726447,2.1299129961763383,-0.18803638354729646
2310,-0.82302760715386,-0.0034680204150709546,0.29662371802994625,-4.021747281425506,-1.4444286878620258,-3.3958268674827865
2320,-0.8258888537999683,-0.010563541416581468,0.2939514246444422,-1.9511053179507747,-1.608597442418176,-1.8238048761700307
2330,-0.8238714994924348,-0.0028202416253066322,0.29750614003237486,2.405092384930774,1.3637258234500158,1.8771865312338012
2340,-0.8378328655739127,-0.010533922624791206,0.2809708560180607,2.4311720427142345,3.367188393529979,1.5143410613595318
2350,-0.8125371249828635,0.008258351821792725,0.3047159161549217,-3.1554376240641098,-0.8480323128900145,-4.592631980968525
2360,-0.8133902034587194,0.0019078460531822578,0.3082594707645734,-0.168135477179864,1.1085268610212942,-1.8108387975327305
2370,-0.8310849608717447,-0.010091440739034008,0.2925008846797914,-1.469959806916372,-1.5807202408956593,-1.8551159695105084
2380,-0.8335981519278164,-0.022160789093794323,0.2859893501322242,0.9980300919001874,-2.4887321767713053,0.3915261439804065
2390,-0.812959317100621,0.009806918857326333,0.30874045325046484,-0.6852132339190267,-1.738145537703469,-2.177727397586399
2400,-0.8205913375208093,0.001930796738651059,0.2962479887162512,0.4321242746577054,2.4914521735732196,-1.894491373158837
