time_ms,ax,ay,az,gx,gy,gz
0,-0.6486120266491066,0.06998384553421085,0.42498429275075206,-1.605391999004015,-1.1658588243264654,-2.5808424767052474
10,-0.6376989274817164,0.06687574608330421,0.4336589382419224,-0.6921167828446679,0.8717943767559441,-0.6008659512587029
20,-0.6585104605754494,0.048474425275496016,0.4188485364196794,0.7725052008371536,-1.0230336608568829,0.34275762188172565
30,-0.6527497780354159,0.05509138397929841,0.4203852030296696,-0.09529533884714736,-1.8609293998055376,-0.44018637268869254
40,-0.649485156646963,0.055767062705039595,0.4219010599004365,-0.18776618378436405,-0.40140795904664,-0.275783202906982
50,-0.6630911644455525,0.045679412468736,0.4105208478852282,2.8394816542660664,3.7661602788298847,3.032712350057751
60,-0.6497595214056995,0.06519402786378423,0.425918771990081,-0.7010768734837325,2.962075149097917,1.0607590195068652
70,-0.6794841706249469,0.01908258175650066,0.3945987814776097,-5.7282721145364,-1.5247460486932527,-2.5754967895550775
80,-0.6332514593434384,0.06711160769432885,0.446822631096474,4.275224516262842,2.2168946487337706,4.065105779188368
90,-0.667890320571462,0.03660278256079233,0.4071685499949187,-1.2569645247835006,-3.0721022921890606,-1.614921133622198
100,-0.6494422640864603,0.06083381506015484,0.41900490008563634,-0.35862473550266827,-0.12226963091901077,0.19563035765611347
110,-0.6747803075544293,0.03944944380713214,0.401593492206141,-4.035877848107469,-0.5697012897684095,-0.9502896915375197
120,-0.6568675313484522,0.05557051427238229,0.42157297191437937,-2.2063747273971557,3.0959964431881395,2.8178949514551066
130,-0.6604668824001612,0.05104188350075887,0.44086723112926807,-0.5046003444149444,-0.8004422169996761,5.041738120604932
140,-0.6837735781233395,0.06264857682805339,0.4632219086853434,19.54341739482056,-1.3627903790825102,22.723599779691867
150,-0.7095653741590805,0.04141531840092943,0.46383501450349635,21.97778059233721,-9.25554376255358,27.412954531905527
160,-0.7694991436310492,-0.017689296749924414,0.501642207084819,24.612208576156334,-21.80160994164271,31.186965603379868
170,-0.7186019339345882,-0.08478064682520818,0.5091258218372033,33.26108854400486,-31.60936138572625,29.081128804582654
180,-0.6842648968726208,-0.16700181649442078,0.4872289298231828,34.19066829758489,-42.7481274040677,9.96991231704353
190,-0.6274782824815417,-0.017156559283212157,0.4679070891161737,40.046295199852864,-45.88434901298721,1.3034924011756779
200,-0.5370253401674848,0.1864236576857226,0.4065043387830389,29.326695940990138,-46.58993590845631,4.692336676076362
210,-0.47194203622004194,0.15336843097254088,0.3912488884403005,4.238884011336629,-40.62976286337876,1.2784750757331238
220,-0.45580203211222514,0.1152994801338584,0.3445868953877693,-23.380935879344538,-31.067784909256883,-10.83156623447213
230,-0.42157539900357643,0.18892346762812923,0.3927138423587654,-37.43970171489137,-17.977478048828488,-21.90857197669257
240,-0.5496572634379967,0.18849904289423075,0.4038479057589372,-35.14184980558318,-7.984419317117258,-28.69124355922941
250,-0.6005052390621551,0.19358934086812685,0.48413644735271605,-37.72567126097966,-2.8973902243993668,-19.95755182931337
260,-0.604219361868263,0.11914392623714443,0.4665540794705433,-57.26028580956488,-1.0431203883950033,-11.142562976427067
270,-0.5817192355335034,0.10381944774965395,0.4113991427319939,-64.18582700339293,2.114486474816558,-11.0824757994015
280,-0.5607583436047204,0.11952318439926424,0.39253453948508726,-46.27277371926375,11.801251525938175,-0.9373699254951458
290,-0.6212790332790393,0.07641013548466895,0.39523134258986864,-29.022376329388287,18.71106826225534,9.946093314861686
300,-0.6953503093480274,0.01199507424162232,0.4814230837461089,-26.727124440814055,15.604978270929633,13.094915707125555
310,-0.6266613225686837,0.047993183154590995,0.4750069557963171,-19.104901796387924,9.741150763237917,9.31337733651535
320,-0.5761144580844455,0.08256748178021849,0.40806179562947753,-13.535118890292498,11.323691260075051,9.741774928306919
330,-0.6078586506854039,0.11388324701538727,0.443733262662787,-18.022352345627034,15.609186137085995,14.7249063203358
340,-0.6934286440291558,0.0844892030440069,0.5019337733725882,-24.905402780376463,8.76044365215706,12.590579820286742
350,-0.6802187598237578,0.03665204296911371,0.4993140202115279,-17.14069093981624,3.9640960832629824,11.822268616158551
360,-0.6498137784681883,-0.0444398332917985,0.4320576493573657,-10.654703879937337,6.96991137116645,12.439627743527032
370,-0.59026811215702,-0.0343638795410788,0.5911696786689181,-41.70576414140707,-9.16685462572264,-14.80893707800328
380,-0.5586777076570136,-0.11798627775632041,0.6141345694221119,-54.146897335066555,-22.970918593639254,-32.5344007644793
390,-0.6699300274538399,-0.11057332820135513,0.26967559148303816,-26.97874595047406,-23.41969745150747,-35.29141879119991
400,-0.6597304950210001,-0.32589300670835797,0.4268041605267785,8.874852435672466,-27.35662386416126,-47.06887465412542
410,-0.5165267978919845,-0.35663010102154347,0.519204893567251,48.07945194111021,-25.32895033821135,-51.22226701395114
420,-0.5941934352462123,-0.2567100645744249,0.3364982618198037,48.85955331487535,-15.275153561735555,-63.049359460993706
430,-0.549876359869191,-0.22785339258480491,0.30001928951703594,61.09722342331684,14.751174720914378,-67.07015914188077
440,-0.6993625284614455,0.4891520643606464,0.4472723935237492,96.57025290633182,20.653562880672574,-55.23226143990112
450,-0.7645345143639494,0.4763960232285636,-0.12658439524057882,55.02608877579125,31.32965882597344,-55.227864020914524
460,-0.61622083771728,0.1701035763247329,0.5593349730962882,39.13467931547903,32.350917050068354,-39.41936682221162
470,-0.5796074433951097,0.018542733344131496,0.9835887146370847,49.41819671595942,25.128754686592586,-19.56668405167617
480,-0.5769696983358422,0.30305339976232964,1.02731483948922,96.40912009350969,25.70407638603073,-1.1531976464558373
490,-0.45604028361698595,0.39681167790289734,0.7661871205625115,24.088114476708537,35.30892338209363,36.471955999266534
500,-0.596359243476348,0.43925363024710534,0.13769163432119944,-27.55278383335256,35.015908332390005,55.76883293888411
510,-0.5700683785825255,0.09422088027665346,0.4476457344778166,30.103419425826214,18.772099994536653,69.51241324732628
520,-0.6564105104831598,0.4008171052477998,0.34077672483986277,-22.401216524600763,6.162977145540886,64.15043402927535
530,-0.6373928660431468,0.15267938638805312,0.30182116961791444,-15.24600783495593,-6.902348526095573,48.74581653318118
540,-0.6809846310108282,-0.18922411433656566,0.3431588867112599,-20.833394824160127,1.5044574254634204,43.138860436261716
550,-0.7166804827901846,-0.361085994026134,0.38839798074485565,-28.05370380292321,-0.07603062377060726,-14.66270758900418
560,-0.6715584219505032,-0.10751183733910008,0.38552296248019313,8.461979854765248,1.7635554469442551,-11.6616744679966
570,-0.6554273609048946,-0.049372974171148165,0.4179954409648135,43.353533527705444,3.680394191397296,0.6073403458738571
580,-0.6447756044929137,-0.1907404915879682,0.421209526407087,52.62289561336543,0.7147313212434756,-7.726812615329359
590,-0.6945198837122261,-0.26695833899723875,0.35809320404173856,29.258961590883143,1.1773089484632102,-38.74141778601114
600,-0.8041523326942087,0.17599837811882907,0.2904421902874854,74.16033323276258,12.419803663813816,-35.586059725585905
610,-0.7124129323302019,0.2468590223979374,-0.09506742869418804,42.82392877206699,47.18431332081746,-22.354494839445085
620,-0.7047832018528133,0.300210178985247,0.025817513618661893,31.880661662612354,69.96122408816304,-6.058120273228554
630,-0.7195604897136357,0.26413859606750084,0.04749569126673373,43.48494059197089,65.81702387610888,7.322385739136687
640,-0.6527985677310755,0.1914649256725279,0.5878192569319988,31.59526305476261,61.60300092222465,9.028011674378652
650,-0.5982091466794763,0.24377995049484044,0.33354723475298453,15.312934090885731,43.475751787611124,5.388952736314675
660,-0.5994673848410297,0.32663541425618375,0.4320147820429997,-7.059172555173582,36.916793532818524,22.188114464869415
670,-0.5763722735074492,-0.15662603362214325,0.7482016214948694,-52.20788915777687,11.517375320402483,20.340535107798615
680,-0.5052161885434228,0.12625991101255013,0.6197612352539735,-38.074121572909945,-3.0483840743264814,28.385212818979475
690,-0.6627385793937284,0.0610958198248505,0.5442098818856516,-127.21209625180512,-5.394663131567879,33.16202775784041
700,-0.7717205168215273,0.10290847318913207,0.12293145141586506,-121.36016424059278,-10.867766657875007,36.39313899198405
710,-0.6251216319364703,0.09830952477597388,0.3734384373956652,-81.28768198021567,-36.79124785171153,25.98003685958927
720,-0.7366844323021319,-0.1439177350939536,0.3649777364484769,-65.15559387071312,-32.010307871225244,-1.8076372756395875
730,-0.7665174277484722,-0.16047601273874443,0.31371952602533304,-39.25694450133551,-10.256742911059115,-32.95925034052858
740,-0.6802866769237282,-0.03740671200589646,0.31443263671284927,-10.915113414732648,-11.942330748774678,-12.003917821566954
750,-0.6857302384970243,-0.0683201339678518,0.2793319306530727,-14.837859050447031,-8.29980203083538,-7.390574362137482
760,-0.6804419701400258,-0.018428474435329995,0.3736679809460991,-2.0960809857780554,-3.2806592331808107,3.1905689816111544
770,-0.6660162513069514,0.011002951397009176,0.39962779836396095,9.053443122647801,0.36311248216807934,14.685523153414996
780,-0.655239539712849,0.038330622670030165,0.41192816767857243,6.852800855788383,-1.9798829073568949,7.2625520925461675
790,-0.6763315284458176,0.051109068131291416,0.393751508856988,4.901413892772646,0.05916884026180134,-3.2603500204970253
800,-0.6530951423559329,0.07200226454650863,0.407301293832003,3.714177111399801,-2.274267414555745,-9.033786522680769
810,-0.6633177422949241,0.040274984680041016,0.3898100751559783,4.704714214334388,-1.7841967298658385,-9.449772923554194
820,-0.6738746433979586,0.003590998236507374,0.3903222584318049,1.526218511371677,-1.8143039586185234,-8.971212884031912
830,-0.623740431813776,0.04421633851116453,0.45580196843408577,-0.30688357623555207,-1.5976534305569323,-6.557359998729688
840,-0.6538706674478851,0.04062021433876345,0.4157882027558601,1.2325397878950697,-1.8664766858893982,-0.7680243361205275
850,-0.6385620423316801,0.06323801624312889,0.4329779067179029,3.748754699003845,-0.9784898878501597,3.631831578695323
860,-0.668727319754636,0.02459197755634011,0.39535356633063984,2.9582965185899535,-0.6929553215945745,3.1892618952619487
870,-0.643575100410862,0.05027299458844114,0.4213651542485994,2.5895052369189386,-0.47332006458935705,2.7077094561623074
880,-0.6348343727270316,0.06806149311005573,0.44330643884720405,3.559510290558829,0.8437004968748145,3.48547570593913
890,-0.6717660970381573,0.025240551608900257,0.3967167804039791,-0.03723189106219091,0.44558488138643243,1.8343532192063976
900,-0.6738343962059032,0.018183663438976275,0.38378080744722043,-5.903518567825426,-3.5340345585115513,-2.1215109418862914
910,-0.6685829277055235,0.027606823423830154,0.3998272714651592,-0.20634357286070681,0.8904464197628221,3.41146378594087
920,-0.662325187585308,0.0238877099463475,0.41408286807630884,3.491082074136961,2.25084519071156,4.906132960397859
930,-0.6377978494410813,0.06076964604065384,0.43241157059869023,3.248988793859751,2.293683649512091,3.528109205962334
940,-0.6421042237193193,0.06462100775994264,0.43155584740924186,2.004325245295893,1.7310401427336015,1.326141640165875
950,-0.6652780557330025,0.040251738695535555,0.4091980792952167,-0.9157346217898845,0.5299301519946213,-1.2445291365916276
960,-0.6625350549344257,0.03142461032075092,0.41316581383740825,-1.4458383478884769,1.2048295482425035,-0.4092798965687676
970,-0.647101697514274,0.03768383748075037,0.42108297915188136,-0.7142007976037504,-0.6179560033636708,0.3618715399329224
980,-0.6614001081993819,0.011705814446095034,0.40362317554691923,8.0609311766779,-1.100149556323852,2.9807439330079433
990,-0.6924585206853989,0.003188449822990422,0.37802182339663515,19.488183407684392,1.4883403868707896,7.007591521159365
1000,-0.6597751467343276,0.0454818857829013,0.4178744627562871,18.05512091531223,-0.001223671429983808,5.697525323928092
1010,-0.6632371682184189,0.03905062551962041,0.40547203566029777,14.267436513427667,-0.5385909539734326,5.363353804195146
1020,-0.6508047497791274,0.04528413433926251,0.42083975218020264,1.1959951406061733,-0.6004675264957876,2.845344287689584
1030,-0.6625457354807844,0.04359505515622186,0.4108374038934914,-0.8719432365631414,3.3319562399489975,4.423812575343266
1040,-0.6728355783370955,0.040870595311261505,0.40020201086513907,-1.8477865554609576,3.0480094520602536,2.6671237737117144
1050,-0.6690127987880113,0.04676946848136713,0.39517328096292126,-6.652395663936556,-1.0536954960989817,-1.9780538436897241
1060,-0.6662387792532221,0.049206712364936074,0.41225666796881,-4.763375798708147,3.378516925016494,2.1838170283884546
1070,-0.6439666196933431,0.057704303623975065,0.42508015361104085,-7.258173731338754,0.46953289884130306,0.4617320462918303
1080,-0.6402265585547642,0.06159002998907162,0.4309087878321317,0.08309972409859423,0.18730806947830048,3.0978988484041086
1090,-0.6196314906344195,0.08466661410182258,0.45101871738325733,3.645296557628634,4.448395513002674,6.647656085631575
1100,-0.640798648351139,0.06553243764035274,0.429284345816351,-2.5078559134878433,-0.077193846602503,1.6089034483244813
1110,-0.65466858449505,0.05684925532277618,0.41907284270747736,-1.8066015656386614,2.0444605581638498,3.7120766380446946
1120,-0.6390745919943789,0.07295545215402684,0.43429519700166225,-5.374645734006039,-1.5722666443068565,0.16780997838286638
1130,-0.6504460289048647,0.058559247489819555,0.4244488395560275,-5.298589598747972,-2.4926199181031277,-1.08170529661247
1140,-0.6654395643137706,0.0374170801226314,0.40754212977648774,-0.8391400935285691,0.6181005782802222,0.6212411351063758
1150,-0.6562372197773108,0.05015691324018251,0.4150317305598441,-1.3627752037823386,0.7700717979803099,1.4598009782393722
1160,-0.6709484244898557,0.0346088389442719,0.40063005387732364,2.087734735082278,1.5547574126742927,2.462972765532678
1170,-0.6567026904542445,0.04765155765393959,0.4139942329681513,2.4944408662945357,-1.0696409799680862,0.35494917567094286
1180,-0.6705488781124641,0.03162442802104469,0.40044953016012275,5.259222347078815,0.18716916383409443,1.754956518559529
1190,-0.6757599499882669,0.03309847526296411,0.39215688355997086,5.32930644012519,0.3869732741652484,1.8010670757602658
1200,-0.6261705531213196,0.07760103774122526,0.4407527721958163,4.129946386188404,3.684092156192171,4.348733781729184
1210,-0.6522843638600616,0.055153042081091265,0.4155618433218763,2.2427510178099794,1.558522959025961,1.9925209317963366
1220,-0.6599412173991267,0.05586829232501966,0.408842662436996,0.9630586828101457,1.4704885862606192,1.518366122746809
1230,-0.6643691949040047,0.050247760293907054,0.4026586677405061,-4.067221311776463,-0.2545713946793256,-1.1939151711975362
1240,-0.6540956519836296,0.05305257392122982,0.41824030247158817,-6.9191897193223735,-2.359804905379481,-3.4935283868890785
1250,-0.6400257580950415,0.06616977190416036,0.43288994706191014,-0.9379220037880456,0.829863237498584,1.7795117384521009
1260,-0.6834871650673305,0.02168787563094845,0.3900963248988921,0.01329564138427286,-1.212831245499184,2.159196034429589
1270,-0.6503805703735308,0.05086952014509067,0.4182426941412483,1.3693942222235629,1.4823161993411578,4.332360160928188
1280,-0.6611294479196135,0.04268333717741059,0.40813186349321673,3.9903489413215616,4.535196777877401,5.96192754493367
1290,-0.649573448787017,0.06327195787328438,0.4238429110717103,0.6074864720389169,0.9031585578731449,0.8598319971695099
1300,-0.6681264649794043,0.043592056153824145,0.39961640339073823,0.19933091921346635,1.4816253106819075,1.1661757633795853
1310,-0.656601461313881,0.05458378233064892,0.4094709922455651,-0.05739138633601559,2.409388346251704,3.1772929437392454
1320,-0.6742427952406392,0.038717213545770006,0.39660093937932783,-4.353434987711405,-0.1679076307521471,1.1128045113798972
1330,-0.6705067142104016,0.04183441042776194,0.4033821161213857,-3.3916954080331316,1.0709941398008114,2.0741803098979124
1340,-0.6453265620561606,0.0640085797720725,0.42704232874323317,-3.4888424149619874,-1.0498633961706267,-0.4117529970063527
1350,-0.6739128071034932,0.037838395247291656,0.40109343609861453,-1.969236728929723,-1.2354405572506537,-1.5543439219649662
1360,-0.6609083371459729,0.049955523001197454,0.41424375174755795,-2.247115686385723,-1.70629155921067,-2.7276213343080267
1370,-0.664203466318291,0.046076779998582354,0.40903544589896407,2.319477011413437,2.4736607250495917,2.4343556562247795
1380,-0.6650682929432271,0.04679045789316626,0.4057372559978599,1.4800238282974685,1.5015839439739842,2.1851863329551273
1390,-0.673865439545055,0.03635655761882034,0.39571463966061887,1.2493721984645263,-0.15435735711667875,0.18808289429946493
1400,-0.6369893296326425,0.07353323338204948,0.43386727056611396,-0.1180682272047302,-3.190728647404981,-3.1150032452070624
1410,-0.6486199477348804,0.06218394747657684,0.4217788288695036,2.465252858428429,-0.6697426253597949,-0.9454254346894355
1420,-0.6405491939514667,0.07103691459487368,0.4295900306000997,2.532215099111916,0.5290939967760832,-0.06194215333528552
1430,-0.6499637916452008,0.055389616219599536,0.418257152108317,1.3833263206265887,2.2217201886111018,2.3048272427065566
1440,-0.626689176537891,0.0770058340650282,0.43974453351012344,0.6478105587296521,1.821229339941183,2.601313349447566
1450,-0.6633228885926257,0.04607571872052013,0.41121713103164637,-0.09187589029648224,0.7787448695454755,1.6724252562015605
1460,-0.6585390479632199,0.05230902126903258,0.41152486730951676,-2.308953253882806,-0.5432443980997305,-0.496699865324821
1470,-0.6765865666933172,0.04165559048827132,0.39366833431407317,-0.3767366984224522,0.8340235635756943,-0.7455960038631775
1480,-0.6545247713512603,0.05698313710149252,0.41627155173507596,-2.615414629837049,-0.07782588438304999,-2.925582091142906
1490,-0.6654982236756444,0.038817401764099355,0.4051615592275361,1.9261151471018936,2.7713625784720097,3.125537185026246
1500,-0.640553649039412,0.0630223192507613,0.4298392120746987,0.28546158149157214,0.031430778440317046,1.7994611689679803
1510,-0.6664791588177932,0.043725570919557595,0.40183368508245765,-2.0609482666859646,-2.1985622665413294,-1.395254913129227
1520,-0.6759630850671062,0.03415127780484911,0.3877674494957985,-1.354307495445109,-0.08311502686967293,-0.4469620489211922
1530,-0.645429420810151,0.06543479039464017,0.42356363717042844,-0.9099904492362738,-1.0049276609643827,-2.092733934863647
1540,-0.6685915113389519,0.045945851567749774,0.404505824996532,-2.592259210052892,-1.9819730358164165,-3.022128440283546
1550,-0.6396869057594021,0.06767296412527792,0.43192477405433544,2.799133177761653,1.7593972685418044,2.3589314135249784
1560,-0.6532918532813439,0.05685085472352451,0.4164582141360939,-0.11349702559090347,-0.3053493907653304,0.3223315012834293
1570,-0.6493503833432487,0.05271875748211604,0.4164278578239213,-2.7536470369002655,-2.46548847273709,-1.6534896643497252
1580,-0.6671339410869007,0.033992352660013936,0.4078285817719076,0.42284467611651233,-0.8807781073755208,-0.4018720676276517
1590,-0.6563239741833712,0.050090767337156984,0.41783915180211806,0.7091453183439498,-0.6827035955279135,-0.742927437423142
1600,-0.679495547603974,0.03062995174664565,0.3909335374236041,0.731606933324871,0.2357796920239806,0.06246199589874532
1610,-0.6670783043424805,0.04502686489884755,0.40298025453654596,0.5042521544860685,-2.4386997551451444,-2.9218926798810987
1620,-0.671637572485496,0.03902220223953095,0.40760975141811284,1.8775719053337547,1.311887733223581,1.6525418223814872
1630,-0.6489276552800604,0.06491684270232999,0.4203135378058377,-1.296259636111115,-1.208490870525296,-0.6996090725357471
