time_ms,ax,ay,az,gx,gy,gz
0,-0.6236188598176763,0.09059017193742286,0.46284622091199074,-2.2238784844656543,-1.229226642658387,-2.021222360489217
10,-0.5665546400315479,0.13607392218642494,0.5075413189287367,-2.699092093121681,-1.7964911906554228,-2.6573742744388618
20,-0.6126698222312515,0.09553099332032314,0.46453138510864156,1.997595271108378,2.8101251525421302,2.5544997863134182
30,-0.6075171960590469,0.10405230273791108,0.48538098522722833,0.32492824276759447,1.2095466715408723,0.6689248799674541
40,-0.6038916585340262,0.10280154781188212,0.48467710910641865,2.34316832509567,0.6893554879209318,1.506358087722903
50,-0.6064342759271673,0.10114197855699389,0.4776298102829454,2.747892832583321,1.1383738118407583,2.312819482932463
60,-0.5672216262388432,0.14463273614699468,0.5126573818658691,2.037291748043056,1.1000392090301627,2.1083107665332363
70,-0.6076588306888123,0.10223020704098333,0.4740216633298113,-1.1214722962244696,-1.16338748032689,-1.0489519065925532
80,-0.6286725044404694,0.08179615757100296,0.45780638836994686,-4.391166038078211,-2.907678620696416,-4.340007346697294
90,-0.6002594211521731,0.10746312509307254,0.48229964037142137,-1.6663030645101506,0.6089267514765102,-1.2247494476695988
100,-0.5861739167659512,0.12166521829667924,0.4964587509023163,-2.3328994687013003,-0.9166972790828056,-1.8515536291831665
110,-0.5992807212884304,0.11220978981214917,0.48461544256017725,-0.7719844339927704,0.25590217857361475,-0.22415100367656238
120,-0.6071685847907571,0.10020733465969595,0.47478467414584496,-2.082956658776248,-0.8463781470450729,-1.7883343576969022
130,-0.5779636119274267,0.12500041906482423,0.5070380370492876,-0.6802215954096458,-0.028611288060888973,-1.1562960037532308
140,-0.5998992477373778,0.10705668012550448,0.48538314473964794,1.2915366714697818,1.8132010173102644,1.333828627846024
150,-0.6044692521530413,0.10220834719260234,0.48075694139694086,-1.4994784921051636,-1.4020538475345323,-1.1697383855507097
160,-0.6025164502766814,0.10040981414207831,0.4802735776821052,1.9080853198250316,1.6466866573177315,1.6115260221779955
170,-0.5875665455727932,0.11906847478895176,0.49784365764066074,-0.7578951434776589,1.4445256494828969,0.016703322838809154
180,-0.595095102493667,0.10669609611334684,0.49009469586662435,-4.204579800198137,-2.9304231168833397,-3.821943529857582
190,-0.6008281264510206,0.10231476155351515,0.48865701199974815,-0.09325434538799099,-1.0437151338875137,-0.03068398255939786
200,-0.5784504385218984,0.1264553376302076,0.5064859660828754,3.2929436794566174,-0.38195274935088575,2.5607485182715526
210,-0.5938359165043567,0.11098545076660948,0.4924129716080668,4.260950784448504,-0.5429152249986133,3.3502505464341605
220,-0.6291341274261032,0.08561967222509172,0.46341410011018647,3.680711520300467,0.03201880741502319,3.7285612805060944
230,-0.627542017928922,0.11008034557148601,0.5533878710770397,-2.615928956870116,-9.242378057634722,-4.109702395873283
240,-0.6450568425985123,0.17812122573110245,0.5916291354813499,-2.0667765429759513,-24.658165253084604,2.5538420449072237
250,-0.6185671425830012,0.054978734646234734,0.5175917670742098,1.763916082266036,-27.875418756879405,6.984132409376139
260,-0.5497029522413495,0.031574389732739815,0.48671042052465135,7.346249394616017,-25.87059627797298,1.910951607834607
270,-0.5330802163176357,0.017303607249652433,0.44998184633176724,4.873983937390985,-25.51107728953796,-7.4319873861327475
280,-0.5226751014719943,0.05444746278262584,0.4513651011868818,4.31291476257984,-18.897413564895395,-11.210257145182354
290,-0.5815969549497856,0.07758557626656533,0.4737953948017735,-13.05728376402142,-13.155461567101025,-9.091404178099994
300,-0.5743311631822012,0.10014024601476755,0.5363352006033709,-29.402550413700492,-13.41501904532021,-10.135082264554557
310,-0.5739084345682591,0.0736192934490384,0.5417994165831758,-39.40322236666908,-15.304811783062943,-13.088257736187364
320,-0.5352015309236069,0.09678991080564442,0.5888294921349786,-51.43385427350079,-18.615406451689708,-15.921510145998386
330,-0.5662820167266409,0.04935689948733431,0.5341741769597333,-68.73924730077374,-27.609728174691096,-25.685663158209646
340,-0.5485882354077841,0.07234892088153186,0.49985059800493836,-80.5887553092426,-27.90963231270144,-28.919945712783036
350,-0.563493414605788,0.055819489729217235,0.4695693894271206,-65.6351041941982,-20.579023992239872,-19.30606342697498
360,-0.5676627527317284,0.0888394739206522,0.5260159502807947,-38.35408762630386,-9.288963636929356,4.6228028835288875
370,-0.6193434800161051,0.0059014218817268725,0.4990707773569973,-31.778982323438832,-11.715093861664993,3.0591863757036353
380,-0.5860535348650504,-0.0030403658069895405,0.5401228127960208,-28.78575218991804,-9.467212943528907,2.4401536760174527
390,-0.5871318009263835,0.004300966822222429,0.5098716028342507,-30.331754565294663,-8.341641793934636,-2.7226726838378563
400,-0.5813360477244114,0.03903438389415505,0.4718532987311573,-24.97846281563024,0.8693304104929376,4.193160603494463
410,-0.5455506207809905,0.03580983424442029,0.4621118151704213,-19.581313898916733,2.328491937362871,0.0006064769808946657
420,-0.5609983134725436,0.034275599353571384,0.5361786352579032,3.8449803755781127,11.338608621348369,10.859912881028006
430,-0.5484104189768093,0.015218679627546286,0.5846010361423143,8.441360509774205,11.698449076294736,10.651130678262685
440,-0.5698729781293976,-0.024650772623792557,0.5640538843702921,-0.6914239702947602,9.28194149932681,6.353307172702749
450,-0.6172896427401849,0.015993695672715687,0.5974678974091658,-2.335974176640706,-1.816183881674013,0.6125389970492738
460,-0.6028706019445221,-0.00440203944675185,0.5286793807777633,4.073996913695869,-0.5714940485405772,1.502102593815271
470,-0.58429576790906,0.008017845377913672,0.4991264023882646,9.937760487901915,3.4559131713879276,4.6082810349098775
480,-0.5902302574291053,0.009131061076735714,0.5042882627521083,4.586560703755497,-2.1106785523824136,-0.4328141762422917
490,-0.5989792800183348,0.0012584618616192887,0.5137361690546574,10.346179208682122,-0.7906497855637431,1.5674450535102413
500,-0.5692785692746816,0.004624985312256555,0.5463235301269462,13.475425185061457,-5.004893965350206,-2.2791520886477286
510,-0.5601209204376084,-0.015634266750287458,0.5408931476981866,26.689529217560654,-4.526012049243722,-2.4415157456120893
520,-0.542054719007878,0.025161369649554403,0.5620054350232245,34.38616472235807,-6.679954628530849,-6.250772676371608
530,-0.5705595362265423,0.061934564369096765,0.5342766736399356,42.90943935224237,-7.020068334883732,-4.74086377845648
540,-0.5438251939497257,0.12624136534250543,0.5459338297282061,40.61991939977196,-8.537799969762338,-5.360670428294267
550,-0.5995247019930202,0.030631762691778898,0.5281215736040907,16.607086752584102,-4.32710551296851,-8.667245751966833
560,-0.5757060819276211,-0.015509623354061048,0.5556688289307844,21.406109445951085,-5.285718365248115,-10.011467290298054
570,-0.5556819453637453,-0.0014608421608414014,0.528362431101333,20.93526477931387,-7.128405518317853,-16.770174956233618
580,-0.5857535749383054,0.020101519432148385,0.4715469545807026,22.114415725614972,-5.060270678649347,-24.50941923587832
590,-0.5393993967838758,-0.04712918298186878,0.5018393264716163,16.91719360055879,-2.426640225825033,-26.188068426417708
600,-0.5697665988991616,0.06619083453915128,0.5768987598549051,21.421001875630655,-1.0204100350641732,-6.741089059650695
610,-0.5634181851870556,0.07891040982856407,0.5451351184924675,13.292200546326683,-2.1308337033778724,-12.379289489763273
620,-0.6002372693757322,0.07395448105265205,0.5228798681563661,2.4782485318090286,0.2273050963311731,-9.60894389554867
630,-0.5500408154857651,0.2465828591563877,0.5991078886700254,25.974081414620443,-0.7525867701520005,-5.76497842523679
640,-0.5353948176473573,-0.04152213436381337,0.5420668453523363,3.090816288673622,5.947018312459066,-12.008259208546388
650,-0.5886711739693014,-0.030840753953478506,0.49336202108798943,-10.42363614127457,9.031657521355026,-11.794639011969041
660,-0.5786436712602503,0.04532489483829827,0.5336430305175589,-19.7328805844644,8.400966800748618,-7.349526994991981
670,-0.5652923626184395,0.03668720942632381,0.5313512759050462,-10.389355000881881,7.1081204645301215,-3.4230093946449855
680,-0.6195788696187476,0.07011435758834637,0.4589452736985438,-6.635517382706404,10.606873586271876,2.7420078291255785
690,-0.5988990240478994,0.1506597912555335,0.48071061575988644,4.453966901282755,13.50244909791812,8.222914600583497
700,-0.5264382000663981,0.138499465048034,0.5543098346364407,23.325237881099206,13.099615565883422,15.335898938026137
710,-0.5326816745622082,0.10735531359925217,0.5088577589786998,28.15687958028006,13.253810387954333,18.350667126631915
720,-0.5133176667050874,0.05124208868460435,0.633533367545194,15.478699118831996,15.688404540416261,19.26673685178477
730,-0.47158740227208085,0.016824371938820727,0.7477592836422643,-4.113579979969138,11.384852194723408,17.36537922982056
740,-0.5823363092196369,0.07915255862964848,0.47488179471992664,-14.992215216001119,8.82160633143662,14.4405978358206
750,-0.6088793819959167,0.17804827536051782,0.4950432851015661,-16.74098074321749,4.7407795964016834,10.148430740015842
760,-0.5682654568172971,0.1891232348182745,0.6096317601013768,8.924188476794672,15.551316611733982,31.05059932668658
770,-0.5477738637450258,-0.074990320191891,0.5240893846208422,-15.137776994156761,11.243766361551303,27.0255738714596
780,-0.5347821350447757,-0.03475508623474871,0.5080929072135346,-6.6261417721432485,-0.8287026955814467,14.87221918330122
790,-0.56958976236184,-0.08032743109334034,0.6100062041827357,-17.889594467543652,1.9786130970402187,5.597858195190674
800,-0.6026104740418842,0.03349729318957519,0.5057732676965604,-3.6021644678282336,-0.46674065409169585,-3.577064835268165
810,-0.5642914280217538,0.07275114208147669,0.5113404450291721,-0.6543325152277686,2.5159621852275404,4.125460890899181
820,-0.5850257907639328,0.03741129824770108,0.5121811150835073,3.3828169307255664,0.9335231288886299,6.81235475622821
830,-0.5876784534078227,0.03830286939293323,0.5085799005185033,12.152995640548218,1.6275850306420494,10.145972924056162
840,-0.5859540027126741,0.03796444628530254,0.5187439037027767,16.34440731204317,2.529498447998037,10.369038059012723
850,-0.5685160111286423,0.07397125128989351,0.5276055927572681,10.059752021273225,0.1631003030689811,4.475589818847585
860,-0.5351396501116962,-0.01966935672263845,0.6216006613875925,20.65436924585977,-6.998926700334427,-15.706423716464663
870,-0.5902952219844438,0.06853673294889517,0.5763388913669135,22.796351196787946,-5.158188516786607,-16.293149438752643
880,-0.5818413087123828,0.058452448866319125,0.5663751350570354,18.922816362515583,-3.1820522851144153,-15.529571254003434
890,-0.619722878778509,0.0007129431099770697,0.5162010871693552,18.76468259660768,-3.243072344907012,-19.22180913566052
900,-0.6006107764827473,0.1380422379785577,0.4977878133767849,33.477344302413634,0.8200030949649548,-17.540341547852204
910,-0.6447113519267746,0.1084776011350693,0.47920287155277436,22.61269884490532,0.5593096504946913,-15.670326240253845
920,-0.6111198075798492,0.06326823701991617,0.505860585271982,7.170794642254502,3.3651736423885716,-11.452719450179824
930,-0.5792244785332641,0.09128055734953634,0.48841564702833357,6.7921418003247656,2.9990968264020794,-15.845900282724614
940,-0.6035614264519357,0.12495135285194424,0.47258886082437457,12.128728539049453,8.37692639702372,-10.792881418193991
950,-0.6425249547405475,0.1611315247635749,0.37706370682687523,10.123957912095005,10.468469551711554,-3.4673923274998435
960,-0.6382184244086325,0.13115752225797148,0.3865362485044291,15.030654512111779,15.456120117234866,-0.8128774064285724
970,-0.5441571689241318,0.05223015993998604,0.6179466499456248,30.32094386686187,21.321487784665266,5.739570312254227
980,-0.6073008614125732,0.04566617788675893,0.5381663749180634,12.97494280023878,32.281158147761126,20.52650433454334
990,-0.6483772026012161,0.14446835789322324,0.3779977804335653,-1.2872731444408145,23.693595232549196,16.368353749675045
1000,-0.5805181474301464,0.15476864011209876,0.5380665918343015,-18.631658280485667,24.67758623192968,14.183283700927023
1010,-0.6302721081387703,0.07283501975200175,0.37353300778870785,-5.003168839599452,25.572759156622134,19.687221869770163
1020,-0.588258230146895,0.12780577519597788,0.5162913731202016,-10.41575212493687,14.939198144496098,15.14372519882527
1030,-0.5376758710319186,0.11303189357479303,0.5523445302495934,3.5552286901629984,15.030143553863754,17.158804440694674
1040,-0.5334088221389187,0.08136856279272978,0.6047672066096339,-49.75526183419053,11.206158979929462,20.819201732149217
1050,-0.4360287807251726,0.3400911093112603,0.5389811133426026,-21.18052779713034,-9.014023884582844,31.500968862866163
1060,-0.5811898542735859,0.18902634878474026,0.33272445887134006,-33.16780961660104,-9.206365625613023,27.478828227109243
1070,-0.6758898036702293,-0.1360675115219827,0.5058505845269274,-24.60512702142341,-6.709681469855526,12.527570180338861
1080,-0.7050637901294194,-0.11317944881344547,0.4694954039309217,-13.553998876497179,-0.17531911170015047,5.971064899570039
1090,-0.6457496149879867,0.00917497529521984,0.43703999198033266,-11.825884406807063,-4.897470380114632,-4.64844131200792
1100,-0.6044127768221716,0.05397917914002484,0.4700895347601534,-2.6462480046997556,-2.6380685456939252,-2.8159263707971256
1110,-0.6027153919927342,0.07634305859841685,0.48247571097514735,-0.8359427845722602,-2.3298152286132705,0.1599625475403481
1120,-0.6134562848351828,0.08251972836607756,0.4784372431306852,-1.1426402848999981,-2.910183122454449,0.9744509987117049
1130,-0.6265936926876268,0.06860441149813627,0.4684731652485545,2.020714577711701,-1.3588528674073561,1.1595416533898553
1140,-0.6167725112654584,0.07349004380816913,0.47334977228738057,3.4853547264292084,-1.2258364671395592,-0.8723368798946498
1150,-0.5884230772719965,0.10421671993028926,0.4991352635406815,1.5341550408209295,-2.3218549513541156,-4.567569717507007
1160,-0.5906085116822561,0.10305702081112651,0.49511084689977986,0.9452503879424379,0.15544542025000319,-4.294018175627815
1170,-0.5977581763046748,0.08822857590865686,0.4940178187999711,0.871800607287199,-0.5770356812644402,-3.9393269239570508
1180,-0.6008945002023538,0.07937669972563467,0.4909183156334286,3.8123274640195595,-2.557656027670881,-0.46398369975221865
1190,-0.5965797962227726,0.09303755510382215,0.48728800698503816,7.785276649045421,1.4586348192495926,4.980139660701752
1200,-0.5986128024823227,0.09340619044718351,0.4894400712332741,5.5728442201069335,0.5646662580278596,3.0946794032966762
1210,-0.601816916821441,0.09510714005931176,0.4818689874671274,1.9052824273070499,-1.2960334763931043,-0.8361614284665388
1220,-0.6014959227220331,0.09289838693918959,0.48451082711951965,1.0087439921078991,1.2617871235000695,-0.2801896197026319
1230,-0.5994242208696684,0.09302057834712821,0.4852328736632922,-3.3559183546354,-1.2082846039974864,-3.765124322151057
1240,-0.6140547039848532,0.07334953513425077,0.4741237354107227,0.3553357477284543,-0.4478956702593881,1.2093487674290888
1250,-0.6213401495574484,0.06931425321253072,0.46337002275127936,0.6080760466140592,-0.3587220770487769,1.4107083899975654
1260,-0.5903329035446205,0.10204687205389401,0.4959891364731318,2.9660620280614305,2.464060676810328,2.6360648029509424
1270,-0.5997931274487203,0.09205328115805482,0.4892626716573415,0.3956217594770287,0.9620965760305036,-0.21834381475602216
1280,-0.6084479367232091,0.07969829245514644,0.47450246484395864,0.39768771051819873,1.9626545091891974,0.6146453789753694
1290,-0.5939451885359774,0.09261169883369773,0.4898887171027336,-0.07788161984456377,1.9405264461206453,1.1992611351466271
1300,-0.6031936647552822,0.08907858995033192,0.48038354769607655,-0.7649369639067638,-0.8070528056753149,1.3201540787057082
1310,-0.5851247705620782,0.11386445612065792,0.5020109244012068,2.3705635315405535,1.1741732085927592,2.8454207686673763
1320,-0.5923286676779483,0.10718860639040415,0.49457089398568316,2.181905665086624,2.397091971367878,1.0793512582235443
1330,-0.6003330138788813,0.09592748888087531,0.48227459201625567,-0.40790972947790216,2.402631942811615,-0.1385821468530679
1340,-0.597440446254873,0.09633016585785599,0.48863512917908536,-3.6951962922222776,0.39702444090002426,-2.374150195070501
1350,-0.5925664364665584,0.0977839719571064,0.49807025740833477,-1.6608141290871912,0.6855855685334378,-1.6196287136767864
1360,-0.5939723022018542,0.09382922857670252,0.49772115471321277,-0.47420454003727847,-0.4709072987630484,-0.8078208732471456
1370,-0.606468641751617,0.0869324547696747,0.47973144622811537,3.033937393674771,1.0527469595071117,3.3591429183636135
1380,-0.588706406762105,0.10796982089372019,0.4960326687396075,0.8759082591757952,0.39821309223214907,1.4961159413120615
1390,-0.6218098008359372,0.08120075720963077,0.46512188627282397,-4.565640690473472,-2.2799666058689656,-2.92289456071276
1400,-0.6146438503072714,0.08139004674384517,0.4752161464863393,-3.291906640376043,-2.211063801246544,-3.391807285739227
1410,-0.5994769666287847,0.08586873576260058,0.4834798553334382,-0.806587616137493,-1.0061731237489322,-2.212357573460396
1420,-0.6064463147823971,0.08355335681102814,0.48528424484049254,-0.3038863071534873,0.46556284127270253,0.9051706801309303
1430,-0.612300452610914,0.08426161610993989,0.47105585196524624,-0.8464541697894524,-1.232323143501417,-0.40279171393024926
1440,-0.5890967581766992,0.10809352108202835,0.4999978864614556,2.8166918998661363,1.5671658642421993,1.055521977644367
1450,-0.588782985859642,0.10340636787659224,0.493234721279446,1.1021136604209385,-0.4329280229987842,-1.0327024318136357
1460,-0.5859756841422684,0.09924254776425427,0.4901273757444773,-0.10469527211634111,-0.9831842984511913,-1.1317576133291691
1470,-0.6217518923704982,0.06457455127370479,0.4605951056493938,-3.7365497170034097,-0.778015260612066,-0.9798059801534323
1480,-0.613108885088275,0.0782911002929613,0.4780280551682606,-1.779110571338832,0.476589058933663,0.018374151693244523
1490,-0.5807397052120578,0.1096601451013462,0.5086559082935549,1.1315857423104165,0.733470559179387,1.090988098067317
1500,-0.5879190996150134,0.10148395714591783,0.4999528440271984,-1.2993756591416323,-2.5049532570033315,-1.6813897437366303
1510,-0.6109012185550151,0.07825701259089987,0.4758616844275737,0.7182625994960656,-0.1145231264756022,0.7554200566141287
1520,-0.5784469183535269,0.1139678357490799,0.5067833472903106,0.5307939398803885,-0.08906600009269047,0.983004087877891
1530,-0.6040712724214676,0.09148736838032424,0.4833001067549586,1.6937020304118187,1.6068125497358299,2.341656809988736
1540,-0.6076474967585415,0.0856872290492939,0.47986243459661465,-0.4066635234238348,0.8703660444992986,0.889928162170847
1550,-0.5934481210297218,0.09738365444198412,0.4916236232431329,-0.9364092682153744,0.10687919708328825,0.3119027117521616
1560,-0.596132674595177,0.09608666194056893,0.4894894964748431,2.627252826928263,1.3825471356737653,2.5355777287333665
1570,-0.6150116021825701,0.07997470152826405,0.46748087229821106,2.912396395211503,1.814679073582669,3.330486896529163
1580,-0.597119819571773,0.09052258472261103,0.4924022859205741,-0.6779088190454017,-2.7365607644853687,-2.1361336384028
1590,-0.5831788153459028,0.11078421055983156,0.5042043397138948,1.2851343095920726,-0.7286637668225744,-0.5093237838287495
1600,-0.6076639999635356,0.08397570251583342,0.46948949648532806,0.23434954764786053,-0.18254373597653373,-0.6311811892527572
1610,-0.5882241118524498,0.10770430568359433,0.49931146527636944,-2.6222900961554796,-0.8914088301775378,-1.8726201594952867
1620,-0.5792150001599863,0.11049122755876188,0.5082023429082798,-4.099929127525405,-3.7303445440063805,-3.4443972832258143
