time_ms,ax,ay,az,gx,gy,gz
0,-0.5812346566023686,0.0991869300404366,0.5050297174636508,0.28600825281081127,0.14109198063751144,0.4810959496948201
10,-0.6000830624230775,0.08308675515762172,0.4781196565809169,-0.8136163407861099,-0.0570871992299669,-0.11669404043027318
20,-0.5698906725492058,0.11077167667067601,0.511866960352852,-1.461498789475927,-0.2810657392923511,-1.2277381162324972
30,-0.5701905606951784,0.11047206688821636,0.5154410472216483,-1.343085722737734,-0.750349870202812,-1.9393469792437146
40,-0.5637877784962537,0.11899670343963942,0.5230446784124058,0.9750805435918375,1.151991923246654,0.5909721211571751
50,-0.5824336261672639,0.10191165949276756,0.5050628757236171,-0.25201407492220707,0.5886466018594064,0.9603705336262011
60,-0.5583315474649336,0.12689482305468505,0.5332152189633695,-2.094607025800685,-0.5402867823457467,-0.10102744429895583
70,-0.6094289982560455,0.06719591362236137,0.4815974589455016,-2.2156859847691965,-1.1937228503356874,-1.769558907769446
80,-0.5778202494030957,0.100725837791026,0.509167587535803,-0.5679470914277207,0.6664579856814496,-0.2908096200308055
90,-0.5779229171725877,0.10250577917901531,0.5059042700778008,1.4601151169747473,2.3295224707932958,1.612409272959426
100,-0.5924223619260273,0.09014522918161605,0.4914494567074186,0.24552581848604654,0.44566288132141735,0.05294409962040045
110,-0.6138001228768335,0.06997263941299504,0.47038031476729003,-0.26269901260895867,-0.14108453461083442,-0.346924268820369
120,-0.5761618754309376,0.09937899205811293,0.5006035134822632,-0.22135140241883233,1.0764766657484064,1.4235040540699595
130,-0.5686964582817322,0.09438103006694666,0.5138928967296775,-2.5618241161862962,-2.3203981974886676,-1.7273512509890392
140,-0.5845956985336263,0.0892522899436974,0.5007177279987638,0.3069389184391865,-0.025451453447629835,0.787873344885662
150,-0.5778628803784546,0.0983126979339662,0.509021804906404,2.4599267151538937,1.6379197853817877,2.319457643062742
160,-0.5652156012626952,0.1133059781311992,0.5194071645675907,0.9682084660413977,0.056922499329634335,0.33585437820005054
170,-0.5692765051750348,0.11797075480578909,0.5122025755302498,1.2100382437745987,0.9456652810812326,0.6881721009014133
180,-0.5850333902418765,0.10608986487984974,0.5019362010893831,-0.7349174781334703,0.37808596018658247,-0.4435919306367979
190,-0.5999959262314759,0.08165023446837304,0.4870864050106677,-2.707825449253357,-0.3274060930111331,-0.9409936897882303
200,-0.6064380609101802,0.07084891973031299,0.47724395661166596,3.3062007873370294,3.7762996746243687,3.2285990814827565
210,-0.5918885470949026,0.08331492378412678,0.4905136842494576,3.3046607337897442,2.6233334769812857,2.538678728961095
220,-0.587570847511142,0.09165047001525897,0.4970618783315448,1.4957846885395052,0.7927147378223265,1.185128638101912
230,-0.5661155980260736,0.12102306043645104,0.5222525350849481,1.1341940640183226,1.3944232959063076,1.7893454291284314
240,-0.5987297611455031,0.09083056511386364,0.49132734078469287,-3.211939353575934,-1.2391001651846867,-1.5081946601996221
250,-0.5677210670920696,0.11547412309108111,0.5263306858340007,0.7847442724084313,2.2105181609049214,1.4834707279597859
260,-0.601881557933816,0.0747782556889392,0.4840997327571567,-0.7266419233711715,-1.0394931031632264,-1.6008031807219951
270,-0.6169184886809423,0.06093385576787617,0.470661450168032,4.720366689978124,1.9084242348147071,2.3081986788770856
280,-0.5803026326946453,0.09932851177165965,0.5176979032043402,3.9416739471854507,-2.350137365939169,1.1389884847526908
290,-0.586804010765594,0.08963827398437298,0.5222842755041804,6.449590061207774,-4.658006199100074,3.2899381121316855
300,-0.5885039124128165,0.08353471888702839,0.5257522951636566,11.539522646880231,-5.48741092728801,5.870432073438883
310,-0.6044082215188574,0.09345804434317809,0.5267010485539225,16.819992153491487,-3.72512161538213,9.966271789235
320,-0.6096566943678694,0.05733252253573731,0.5600788177736459,11.803516866651824,-9.496594744504364,1.6443652205266024
330,-0.6234312330630528,0.060351839463160646,0.5687102846704701,14.122583172901237,-11.96989605410876,7.214099179632234
340,-0.6421714755899554,0.02792362002383464,0.5632776340963983,8.09329519425262,-21.74612404680375,1.086704264786574
350,-0.646272153618572,-0.02119998188727786,0.5770577825163806,7.303961949177765,-26.560721200159435,-7.543705383619477
360,-0.6466037391715135,-0.020211939469066714,0.6081444753320095,9.154016034759785,-34.85583973800159,-17.724010920898863
370,-0.6852457089954622,0.060797400693146424,0.6039259395339498,20.314850936227,-38.80111487172869,-13.912863596994622
380,-0.6463615524604289,0.0830400045487341,0.613116573620097,31.679099114935454,-44.61777037624763,-8.057601208966465
390,-0.6348275978195276,0.09222759023259873,0.5043167012353188,37.98517743970681,-42.4353443419493,-6.1687848411834985
400,-0.5503413965348841,0.20544161554578627,0.40392564998573,39.80956290117077,-25.9531856557914,8.073864580283722
410,-0.4408449435189583,0.25628392389283655,0.3532873162114751,32.85952535502334,-10.23012642608106,20.362963207939735
420,-0.34525689297943796,0.13286554697484065,0.34441669384110973,26.055310534508973,-0.03193143735592774,18.867485629396718
430,-0.2461242485231584,0.17921261425080268,0.12703893532541996,22.088632338605883,17.524332378613003,9.633145757109443
440,-0.37212740261893523,0.2508893814560381,0.16988219908113109,24.458354431326796,41.75633276719696,17.761271257942497
450,-0.5038933665461335,0.340723259230937,0.43683163931339575,20.057001845784427,39.567956147591396,25.424888923872498
460,-0.5538648528600505,0.2577355139323061,0.5474395332367649,20.631190195584274,30.89842615016078,32.18025067935816
470,-0.5149969531698828,0.16714062394302345,0.5174228097970562,15.622735336999382,18.97665264711873,23.552811254377957
480,-0.47636022427100516,0.22921678827113615,0.5022232183343519,0.5300165684772628,10.782721359943134,2.0997366411978167
490,-0.4682088129247606,0.24746862170841896,0.5690280283114407,-18.365002337803087,13.1312992481092,-5.258123136309315
500,-0.5596995114407947,0.21311319640339665,0.6309076799682736,-35.79159342237839,12.23517463977203,-16.11340235454573
510,-0.671709015172255,0.18632617060510362,0.7329900762085466,-54.094644333325455,5.65839321056187,-22.975200217939562
520,-0.7582447468406959,0.17307444868713381,0.828194722377306,-62.56388770630529,-4.115486882216577,-24.942752311740726
530,-0.7789651365379346,0.1552721775488454,0.823407237638437,-58.37808784918904,-14.423392623372935,-22.721272324819772
540,-0.6737391589803935,0.13002697349689335,0.6596567677884536,-41.81862442437886,-12.063951834488291,-11.177654300054797
550,-0.4137803579426063,0.07923524872679981,0.3261149574816851,-37.013073434758844,9.573712552668741,1.2248706463955685
560,-0.3964106441101539,0.09547320283818983,0.347656155589356,-46.36893128565235,16.52345712387419,-4.227279347280609
570,-0.42992252517676904,0.10610987806621029,0.3136010350714275,-54.00459460708238,21.359340119789696,-11.47036280810214
580,-0.48351442248823095,0.0643227236993463,0.4127521123286785,-58.59654610485939,27.395526933796795,-15.686301200220168
590,-0.7304569630786358,-0.03846761789913525,0.6002859274063457,-55.877338125431834,16.88255257698127,-20.951383248958276
600,-0.928904132958251,0.001265070149242778,0.8581282291164393,-38.021730031969376,-9.50285649625226,-25.949261472469075
610,-0.7835762291886144,-0.012798520635875738,0.6907990497019387,3.059076983650607,-9.748752399715444,-17.537373006367954
620,-0.7216968819480588,0.009690894774482161,0.618827794174537,15.923798518519627,3.4282882087450606,-37.17607722345352
630,-0.6868721572573817,0.11634558734131381,0.317246110360332,29.125856665532353,11.017531153697812,-36.684598616557004
640,-0.5597716659164317,0.03859845755667853,0.30341469955353195,24.262862516190392,8.164574323716678,-37.03969576385846
650,-0.5223560523392228,0.035016726206690274,0.4307190680528939,32.97207339362362,1.2587155881239003,-36.853381115813356
660,-0.5713793875723634,0.1651313225363724,0.4796546600659258,51.31582466089199,-2.7825048667424923,-34.19157033790604
670,-0.4551207981322382,-0.040761475966821156,0.391866008578122,13.286516617642107,-5.9251892229963925,-38.33409186248576
680,-0.5414522206205264,0.2726062743258559,0.7872239338466295,49.23849417771857,-8.063863738627367,-28.908823802842342
690,-0.5185396523097899,0.3084478171707058,0.6242986507542065,7.5625700703133525,0.8814645140889574,-11.36197197514223
700,-0.5671296973945239,0.1811501256275621,0.517287570245008,-9.574535914894465,5.060965460909445,-5.181617056396436
710,-0.6115405739186486,0.07710239486999998,0.5040460577034561,-11.93977532100186,1.7069897667299254,-7.588028602457102
720,-0.5972025732629874,0.08602516319921161,0.5090246217702532,-12.335105623116727,-1.3307008707496069,-6.972503973555641
730,-0.5868002472868242,0.15916064471812422,0.4764592361650913,-13.631033835537746,-7.788945656495299,-8.246344588681769
740,-0.651486295251297,0.45202054210048637,0.27428578508228835,-2.0758541870820593,0.6966987643068341,9.408862745049198
750,-0.6617740615793176,0.13139583542601815,0.3852800967348199,-4.46434208160708,3.00269668633634,8.495958585375174
760,-0.6459023941326171,-0.111935515829126,0.6072279790172677,-10.382711392648124,8.631581003521626,14.274958512867904
770,-0.6050652020825433,-0.2433077632677954,0.7353843672655164,-35.59708829842876,13.827765879634144,22.03552285094908
780,-0.572498877316559,-0.27562627570509546,0.7007094668436227,-60.02220764352443,14.951080761845565,22.925097554365223
790,-0.5556359259575758,-0.12985195647193995,0.6232117102381508,-37.8351992634076,16.434421135012443,17.637426971083833
800,-0.6340929593672016,-0.06295777460866668,0.4079447324164861,-53.10795324578685,16.2231042414765,14.51838961964063
810,-0.5648653752351201,-0.3955291444320747,0.6903138580409749,-50.151469553115476,1.7696326081218594,-5.214747079192821
820,-0.524095676745075,-0.23020310282336745,0.6705507062712316,-46.64805802575653,-1.340836882703976,-2.7462577141599445
830,-0.5827310345416823,-0.06277014680025864,0.5015156164801129,-23.46881419410509,-0.07022821725110928,6.033289546223337
840,-0.5615424246527925,0.035475920025899256,0.49869746484522964,6.227202054809668,0.27208881675034613,9.986476481607953
850,-0.5766117583466167,0.03691520765816688,0.503278364743048,10.023453119622873,0.5509401894081247,10.377023597039932
860,-0.5744916193347807,-0.0015645483869777457,0.5849690725839954,10.37431982268601,-0.7127227230001861,7.212825117877619
870,-0.6115314013618184,0.06812589715339475,0.5138058054768161,18.878510178609957,1.6515898896917067,5.963471856952389
880,-0.5877800868346333,-0.03739987255690437,0.3639361428929625,19.48745404518787,-12.598958340532166,-24.43181730475922
890,-0.6521981459191957,0.06156970856276492,0.2730407695326422,18.462536235615566,-19.007218877189956,-43.60228345193203
900,-0.6903036775312195,0.27497365505607146,0.30943691601512474,24.331836708994253,-8.280801025446959,-46.40276599910616
910,-0.618829876175049,0.17336532932571408,0.32141859049207705,40.4778771878858,19.53044317685053,-41.05701296636472
920,-0.8339346054358409,-0.07415444772820108,-0.02005793241596139,-2.830914129076975,30.84480513848257,-22.652320066691814
930,-0.818698832891932,0.10057703043137989,0.12523388135340743,-3.0287379600880397,25.2069630627762,-15.756303186790802
940,-0.6905127860216607,0.18684166701020294,0.45902821761911494,16.913796712976826,19.69710990774686,-14.000761847780002
950,-0.6454092707124791,0.24466524165930734,0.4539880779243447,9.531372258446474,21.69839466900782,-12.742689703723766
960,-0.6614520599825611,0.26374424809655267,0.29122710703508436,-11.19629212815952,29.871385410784637,-6.582356421042104
970,-0.5452976770822503,0.23972174002800087,0.49987228829269764,-25.99744588296407,20.539671583408385,-5.496046182920265
980,-0.512850894703659,-0.11580706383941367,0.8048168170509344,-31.94176912097319,4.306944882190736,18.849836035929787
990,-0.5486510817951764,-0.1567610121693178,0.9526273501815172,-78.30227490487286,2.0963963752723798,49.30352853250259
1000,-0.5490172325059561,0.2657681515173222,0.6454803632662502,-73.26863262937208,-11.561945443061187,50.29156730326716
1010,-0.5580488339768142,0.3261902552718955,0.49771849872975926,-96.75259531757617,-20.314204516038178,37.71245817710072
1020,-0.5401776476262736,0.059410847980372404,0.5707128990070583,-87.32405919038197,-22.573661703443776,10.256442932854718
1030,-0.5495978979280145,-0.15082965351603542,0.5786231661801959,-11.09147711323643,-35.597187241371934,-36.94821234998409
1040,-0.5440525159225876,0.14008350282120263,0.5811801357767662,1.3793790096759304,-29.586039657449106,-26.072947471786392
1050,-0.663439428773492,-0.07862791525511699,0.35006850055914096,-21.798363846189684,-1.871895681764168,17.098864845010578
1060,-0.6217151920559746,-0.07122850047513785,0.41283946759810586,-10.023896641519435,-0.04381924457698316,14.552088192830078
1070,-0.6141810164876329,-0.06100066346386379,0.43864721830680925,-3.910891058573959,-2.5713615902550364,10.47874818638328
1080,-0.614569918380953,-0.03979772033409945,0.44976786398246177,-2.7254936982184126,-1.2295827788793317,12.835482118201218
1090,-0.5982654631224452,0.0029533273284945098,0.4938649205155155,0.5075513692616025,-0.5873736723897252,11.370312642510017
1100,-0.5964746470577855,0.02158706641487361,0.5019858369634452,4.4953204572690115,-1.247117085163897,9.294722871111977
1110,-0.5972660757749219,0.02817515859134962,0.5017317196040628,8.978298836021747,1.708665486295233,10.07375767132094
1120,-0.5956395226773634,0.021631377913198954,0.49733940952659433,-5.290378348288465,-2.1495223382852946,-1.9006657382632246
1130,-0.6034896140887511,-0.0005765598207146498,0.48127040700699497,-7.665433557955135,-1.9690868297662698,-3.7998587891601856
1140,-0.5510200501818844,0.03742908498520559,0.5319325824576525,-3.585009291952887,-2.801714369868174,-1.34571820222739
1150,-0.5422129888641865,0.03904893340635867,0.5473173461256642,0.7662251318932536,-5.3582301611738,0.7184575484968239
1160,-0.5502269300308131,0.04048959013560965,0.5433365206085065,7.621968133744794,-5.537276407070993,4.6647209449428
1170,-0.5951259171102525,0.011130491150489707,0.48281447322746374,14.900498743764173,0.1045324117670452,12.54336060713347
1180,-0.5804549437563737,0.034045152828212036,0.507020574671225,14.105529489782278,2.005624486372207,13.284979183558416
1190,-0.5558039473112681,0.06711101106159609,0.5233022088206373,2.5325059623561343,-0.8950053442088794,5.085647766340794
1200,-0.5761953843270975,0.053949152714404015,0.5026741772921177,-2.194734692480768,1.06929572204203,2.3201956496839893
1210,-0.6025552518744574,0.02960933280396398,0.4914657339305352,-4.645035816912001,-0.9267850322563893,-1.42602516515263
1220,-0.5829471071145828,0.04302204758947038,0.5048076564756933,-4.00197689352176,-1.7129565898741808,-3.6431813920757277
1230,-0.5744200904451376,0.044071100419618,0.5174648051250194,-4.974715154578514,-3.8224579425499856,-7.393890222968048
1240,-0.6054057938637875,0.004113361194888233,0.4836493768335088,-3.0717846966361484,-3.1373823571886446,-6.074931427508243
1250,-0.5699336968916732,0.03897033113156625,0.5201267963345164,0.31536874200333337,0.023522786329162715,-1.8871904949413192
1260,-0.6069890937216763,0.007868828797546846,0.48933355104811777,2.7401898113477396,1.9834179281741062,2.9108643768524978
1270,-0.5841576124381752,0.034574285035136945,0.5144636335392522,-0.25304831181800713,-2.5513204483821315,1.8177246466450168
1280,-0.5901757937769144,0.021862462080512006,0.4952281235682525,7.103866765392025,2.5943101968509827,7.192140774809582
1290,-0.559763609708537,0.05777186459136355,0.533905827811152,6.600994222851327,0.874431092205932,5.931376594274599
1300,-0.5717306949723744,0.05312663334074776,0.520038842442818,3.7325509156252483,-1.2261733080491166,3.1804075772427565
1310,-0.5756599463635632,0.05386361205346016,0.5091899786411792,3.988756885468494,1.599495622964774,5.590496794982883
1320,-0.591304123292798,0.03654660587420359,0.49601880781237073,-0.6672732115492515,-0.7802087013290466,2.195443349636267
1330,-0.5641496424202151,0.05958040900672374,0.5312918926027684,-4.890163288243493,-4.028392417736204,-3.302517475559009
1340,-0.5762787906943255,0.04890223139103024,0.5153280403161076,-4.487366840666079,-3.474428661735501,-5.730291314654879
1350,-0.5772449594268241,0.04859953406196064,0.5063676351953441,-1.6818450129661224,-0.6974791009164809,-3.0640892491504426
1360,-0.5914076398415978,0.03325232050738023,0.5020920731727853,-1.9190829086347514,-0.8842524605937478,-2.0918213723495613
1370,-0.5632489731675615,0.052757560623622274,0.5265211103193979,-2.6564787332066357,-2.352321591713226,-1.8719840939420211
1380,-0.5646065196755331,0.049981223019807966,0.5239134640835439,1.1485612684695967,-0.27432567378102435,1.7753325617448648
1390,-0.5802264166683675,0.03775349892244519,0.5099912271704544,3.3475923365458877,0.27506350540872815,3.416515400163496
1400,-0.5987281814166114,0.017192968922254703,0.48622512148240704,2.660246357819067,-0.1587523510107589,3.309956945456773
1410,-0.5992136663407107,0.032060547196473686,0.4921753589031296,-0.12931791257694633,0.476381857569259,2.3687906096075406
1420,-0.6021891593770007,0.03257336748281625,0.49093302527817156,-2.3683888377185567,-0.9653439265723258,0.23305219738678606
1430,-0.5735093212836917,0.05488329918741425,0.5142486338636599,-2.0790365317920343,0.15797447017436408,0.9135910029600517
1440,-0.5837744779274989,0.04021788044902254,0.4995631339773521,0.983267197049086,3.6803237043569594,4.123373088554213
1450,-0.611299948493047,0.010103271454964799,0.47337294658976586,-1.222837674993899,0.9292980333318621,1.4422834687377768
1460,-0.5609035271912469,0.05532358929664782,0.5293187520229377,-1.0457426771899598,-0.47452550444928154,0.6964208284061602
1470,-0.5762106113209315,0.04302771639399332,0.5121858390053393,3.604066114712326,3.286970766748653,5.064199091371847
1480,-0.5926376781961507,0.03850857460572991,0.49311339185896874,1.576882653502963,1.166476452639151,1.671642883042427
1490,-0.5721462164503541,0.06023999267184093,0.5157497719602331,-0.973489143375039,-1.6476338215667823,-2.0591670580976387
1500,-0.5869844299361529,0.044111486700123166,0.502960094836643,0.7703821316008741,0.37919315531105474,-0.028249156114384777
1510,-0.5849568936644208,0.04447131318487644,0.5053896464403038,-0.8535950048981075,-0.5265026998756978,-0.6864038931304318
1520,-0.5697490939710871,0.058409779792222755,0.5207639192941758,-2.4215109903779606,-1.6046609361261392,-1.9017111637110078
1530,-0.5906862143711354,0.044736731566724,0.502655541063759,1.0871903348329697,1.475187792529166,1.8363257076475443
1540,-0.6198251348105888,0.00989373093039065,0.46664289045100155,1.034711575691015,0.5838109484297461,1.1450031938819316
1550,-0.6199634827815163,0.004719223818644529,0.4672629319432632,-0.5891531131110916,-0.13185020576188522,-0.3174005166806356
1560,-0.589729216556117,0.030301793286189538,0.496664894049709,-1.0421472392380902,-0.8395622978687542,-0.8736768466506697
1570,-0.5663348809895665,0.052485765321816785,0.5210053562084482,2.23646918002996,0.9451727654349471,2.1455523717546194
1580,-0.5995820799275365,0.022956220184124857,0.492718099682657,5.249534361225181,2.476305348091868,5.209874230969426
1590,-0.5502059139849264,0.07608312870559217,0.5385753035237577,6.662713174059888,3.302324641424196,6.927498783577494
1600,-0.5677910592985517,0.06968848496673805,0.526585962817761,3.9464749849152962,0.11711730591958058,4.393681434365887
1610,-0.594890607569135,0.043018956204052744,0.4957646933366864,6.3814027339389,3.8148937242341896,7.433986147401577
1620,-0.5816636994613116,0.05490700429067329,0.5038326358450123,-1.762530249470836,-3.454152146831876,-0.9988721908601232
1630,-0.5849055913822627,0.05112116720366593,0.5001553345872193,1.3947420096981564,0.267677271806684,1.484683245784018
1640,-0.5451186896442363,0.09182851981669266,0.5443891101989059,4.321409335358993,4.0829132303938405,4.167904769403673
1650,-0.5894286589602429,0.05109002627763125,0.5011443738698571,0.01322712296520645,0.9737095768006293,0.08293249360495722
1660,-0.5973112263409064,0.03359135505631008,0.48910828979970306,-2.4194369361349315,-1.0135524746720914,-1.5363798380928069
1670,-0.6142213342777839,0.014909480541102846,0.470752720285354,0.09290496761432754,0.7947823384871867,1.1802716705301344
1680,-0.5946461576066767,0.035600180562640825,0.4929213817771746,1.3231629550092023,0.9564550773963549,2.161469254120065
1690,-0.5865594699690768,0.04741390679104244,0.5050109986439446,0.09679124485271484,-0.796293457252197,0.6321332142340725
1700,-0.5847189096515999,0.05398391135536704,0.5078999568571482,1.7438806205193242,1.0743581401175066,2.052922193298994
1710,-0.5813968746968795,0.05818210089029891,0.5059747331976063,-0.8164798335951947,-1.3200448297305725,-0.9736630200755324
1720,-0.5781140219391534,0.06066377621348959,0.5117838826546462,-1.2231275789948186,-1.74946095431117,-1.5995497027028729
1730,-0.5826644783454566,0.05819571246106415,0.5076871619797588,-1.589602980152424,-2.404425788622453,-2.319547789695565
1740,-0.5816302654472725,0.0567989958317861,0.5085539813006408,2.8173062764240298,1.643414650613867,1.8793595970457233
1750,-0.574128314852197,0.062020151910971245,0.5119615427309889,1.4061693224208316,0.1362318088786037,0.8063769199227827
1760,-0.5858082560716904,0.050867191097177265,0.4954644214560553,0.9718903690778966,-0.21493554155105915,1.048737525066901
1770,-0.5933597016808527,0.04354692067008563,0.4917045206661945,-0.13414907533013598,-1.54725673137686,0.08522576542646165
1780,-0.5924206580542427,0.04587703531008079,0.4891997405712609,2.4711642009402586,1.2463898452666717,2.1465968122937786
1790,-0.5879914380438283,0.04717643017410014,0.5006161285259467,0.12222229627566025,-0.1154951187863657,0.4931492832907662
1800,-0.5696076418131866,0.06804129108873205,0.5251514040813057,0.5558940609597799,0.8492458058676814,1.0339261258302979
1810,-0.5986059624149933,0.03748791515535869,0.4935503155744137,0.8174453743172868,0.584226879685175,0.8551747177190625
1820,-0.573907232764825,0.05866574751804818,0.5115285040892346,1.639418160709222,0.4450224789536539,1.2496578847790594
1830,-0.5588470040675068,0.08132538962929196,0.5282141291917006,3.9602004931177,2.919818496688621,3.801877896571415
1840,-0.5704459535666011,0.07166691634146952,0.5126653672064909,-1.3759777694114568,-0.5252854586134367,-0.2261146386145122
1850,-0.5873102426862247,0.05804934000204031,0.5001613061968598,-0.8574187399219462,0.1110336096207375,-0.0613646830255834
1860,-0.5997311357108991,0.04829711856910713,0.4898825795198433,-3.0002776319036437,-2.001771550911947,-2.0713771172054254
1870,-0.5515680338825483,0.08942639970563657,0.5390799819669859,0.9636107470535703,1.5214940509793902,1.7160379812137396
1880,-0.5815083884106864,0.050506684693497485,0.5086350121949132,0.374869635707026,0.2455282149306396,0.6439044708402303
1890,-0.5760141267156768,0.06172438279489712,0.5108287063341588,0.6362494840415737,0.32582383933476333,0.9335743526201611
1900,-0.6007325311948049,0.04469193554351953,0.48760633162123046,2.930321745074722,2.6270740824497367,3.467953631959574
1910,-0.5741497115831858,0.06972197969638194,0.5131816568097022,-0.41408759447968424,-0.37965404024680593,0.7458108765564483
1920,-0.6087498439880528,0.033598496589971716,0.47725183154183987,-1.1869424995120448,-0.9895078310568868,0.2688108862630145
1930,-0.6060075960891689,0.03420361984921001,0.47777096739521185,-0.750639897249084,-0.23231624953312024,0.8691776768645795
1940,-0.5401269980082601,0.09811348348480864,0.5427528457159628,1.3762835419343977,1.967384274272532,2.769706461516355
1950,-0.5659982142502162,0.07284340187178959,0.5199414017502895,-0.8129851799530698,-1.130476313557573,-0.4807284911374077
1960,-0.5824427409119055,0.06182967788027666,0.5069946015673276,2.811940451862017,0.7951276749816971,1.5144656426638545
1970,-0.5797006805957117,0.06262023999165793,0.5034996064159455,-0.017936332864154858,-1.580265713369442,-1.034127633802946
1980,-0.553921468181777,0.08642452239182769,0.5289521785867639,2.9541179223477956,3.1597545071221393,3.6943555085175483
1990,-0.5671808128979746,0.07371108112234451,0.5191706224629282,0.6519541639907828,1.0954657893401765,1.5479327559110498
2000,-0.5949731644781736,0.04928648855572489,0.49302899515273163,-0.4591342429241052,-1.0123321086233,-0.7292286857789559
2010,-0.6120151893456901,0.035564736862829655,0.4723704783124861,0.24907298613691753,-0.6116180289847654,-0.5899554239180799
2020,-0.5857877591818735,0.05705583653483785,0.4961256754432942,0.23447452597864532,0.30781940595457696,-0.45888134461170804
2030,-0.5721399021765008,0.06926512748336405,0.5169577643923053,1.0757047944769194,1.9651040792405896,1.3692237260732156
2040,-0.5802262932480045,0.055794912503649714,0.5120968912792151,0.007709210176473746,0.4576423808734938,0.029112386059203244
2050,-0.5896453707026522,0.05075222102395243,0.5045328587735339,2.2705652539641936,2.4996242570711233,2.545361257378716
2060,-0.5739207234284835,0.0740267893217238,0.518872856241862,-2.845066047029491,-2.3725748491712326,-1.9704737166200625
2070,-0.591160921211366,0.055063549544687763,0.496096985665809,-1.7722223233460512,-1.1711574552113275,-0.9290265705853845
2080,-0.6039789754781775,0.03128446438869347,0.4805352536706101,-0.14098626449378174,-0.28819082054463746,-0.15177780195378865
