time_ms,ax,ay,az,gx,gy,gz
0,-0.9410166651864704,0.059409317410535,0.4275938049745118,0.4973357661504527,-0.8696152317421861,-1.79518869987315
10,-0.9494653442196905,0.03564631104519109,0.3958743892366022,0.48579410186020766,-0.6588291741266218,-1.3101789102322767
20,-0.9220486009347186,0.0658443559848269,0.4250163725279433,1.5078870672643911,0.4866828405119342,-0.039019547451868
30,-0.8997648944705923,0.08781464003385653,0.4493717667137004,5.135005908662251,3.8498947960793077,3.8535736833087744
40,-0.9123139733356884,0.07832283958969741,0.43989839226752064,-0.8811272145536844,0.6056207881162059,0.4746993636963402
50,-0.9171780372834286,0.07612583642680258,0.43337716276223287,-1.3313087543266766,1.1186924546193069,0.9851239632807169
60,-0.9201934749068453,0.07400438439403843,0.43608891753846313,-0.6423156499898177,1.2825206731644416,1.3477088059382127
70,-0.9059865586344898,0.08744655315242361,0.4511758082821036,-0.9935513521114081,-0.5760680150286333,-0.29882568681513094
80,-0.9031258329558152,0.0896755091385207,0.4506449582833124,-0.8767745036303518,-1.848726203722099,-1.3543887743666843
90,-0.8816439974933759,0.11434381711751956,0.47396442218719814,1.4448795268346786,0.5426239286840129,1.1144453390881126
100,-0.9216168380130026,0.0766113049545894,0.4348865398793528,1.1147382870383085,1.591859623871841,2.0445708426936724
110,-0.919948366364726,0.07778526796689886,0.43558395722342436,-3.738113742766681,-2.1484897913409142,-1.9022329182278663
120,-0.9361406968404428,0.07025159439419003,0.42738921899420557,1.4611438006641642,2.448962903324969,2.389826282815844
130,-0.9459746729983437,0.055935400619201395,0.41594287596269625,-2.336350040111356,-2.3009959653910586,-2.050816476054672
140,-0.9204011238677183,0.07564797021098114,0.43961671231103966,-0.34370556315909817,-1.8856491571701912,-0.8741070579257705
150,-0.9110917233148769,0.08312410007846775,0.44910825833391615,4.392817695894147,0.16304336756921844,2.758580946297073
160,-0.9133221028267984,0.07578526674144348,0.44282983595657965,6.659372129843628,-0.5712584439689631,5.674121203622997
170,-0.9698053467891142,0.06637769449595217,0.4500487053788594,6.339931627805643,-2.52082332566705,9.349399083918676
180,-0.9659608648731918,0.04055009247391256,0.4678908850512567,7.5489895892178644,-1.048823760996894,10.9396953303484
190,-0.9818197410997427,0.0447212656144162,0.5173846711718355,11.181279270251677,-9.259634996896244,4.519925800212579
200,-0.9594174583017,0.057579871398127806,0.5230734303123123,11.94364291091328,-17.147832428094162,-0.40821591431919246
210,-0.9299816452870858,0.09007739418126079,0.5509332764899898,9.967561756723839,-25.48611019541519,-2.5741944868446103
220,-0.9005597774341241,0.11576022022632194,0.491610250679869,11.982458103697468,-27.91207493435033,-0.9438102094550951
230,-0.8691286506613464,0.1024158819556241,0.3962015841873679,11.575662861820021,-22.803359230406944,-2.436223899964685
240,-0.8191410556038106,0.12848412250610222,0.40146145048328113,6.362342700779843,-16.686709383440014,-5.59582544755112
250,-0.8370777056772237,0.15008930093861642,0.4223349935172172,3.3708074818586296,-10.870725546246973,-2.969104922535452
260,-0.8440681529495095,0.1879337658170376,0.4758173222182233,-3.18506966914518,-9.635738728724002,-3.509485124220737
270,-0.8740844775899146,0.17642380247680958,0.4661001977450749,-9.303730937281054,-9.633457442180312,-4.071089954419175
280,-0.8941493374359213,0.15735522301381127,0.4835654105378864,-12.972788611071602,-7.102616971539387,-3.0364179532665094
290,-0.8971368710742349,0.13665391106011843,0.49742621891780436,-13.168641921737954,-5.528978313092759,0.02604202373842357
300,-0.8962443296626253,0.05256258603943957,0.4600274006813607,-15.774556933227736,-3.137683484470129,-2.7780232084151057
310,-0.8751587004247384,0.04840391696719827,0.44253301958962005,-16.952856710658644,-4.408868402856595,-5.800165902950534
320,-0.8825406693064078,0.029017981308029454,0.46436556896595965,-12.48637147507175,0.7266989263979129,-3.2868391765059335
330,-0.9174776405168614,0.02011279322439069,0.4821778565756616,-1.9476736895924323,3.279964007306691,-0.8882128219574741
340,-0.9169254712842204,0.0605582868122822,0.5117479619200549,-2.176278995483351,1.1480789599834273,-1.9850359707582375
350,-0.919069254192347,0.05242727710420865,0.5124383925916541,-6.3361210036380635,-3.296568133630144,-5.968182667815473
360,-0.8953034494587184,0.07205855551500788,0.5129898967050192,-4.734962151693687,-1.5297763032020035,-4.888788246311018
370,-0.915877808192866,0.06349631015722278,0.5108618527739068,-2.725499977424348,-3.6762174755042434,-5.197534841849319
380,-0.9315391484290972,0.047608050572113786,0.5083286970837557,0.8901713802213806,-0.914544989768135,-2.4075800180685887
390,-0.8942979797855773,0.08224485587726366,0.539203823029417,1.222182194434286,-2.827159521908832,-3.1271528977347915
400,-0.90880360040525,0.05611073768884489,0.4901753132022503,0.507237928647748,-8.455866743628539,-5.868882302630428
410,-0.8846944220538904,0.03750933974356559,0.47625334500300764,1.0681691436782252,-3.9416372038441425,-3.5631010261140164
420,-0.8779522834595613,0.01574336819370538,0.5621954167201396,0.031823242818079356,-4.54682225222915,-6.639203511242863
430,-0.8645332075503197,0.04027440696198507,0.6280129845513002,9.132550310331045,-9.72026793497388,-11.547573585527868
440,-0.9326725327417679,0.016319242270265523,0.5451178521212621,4.36702685616333,-8.580617547011054,-5.976273058221349
450,-0.8579222990185541,-0.15340314785923237,0.5671618792161309,-2.8381521108672816,-15.629595985510061,-18.97509432906699
460,-0.8477664149837392,0.14958986532887183,0.570587464003904,10.791808800579185,-14.832874671395816,-18.455118828664034
470,-0.8304203921104432,-0.11151021282101305,0.5486179511333629,14.619588553187572,-12.312252211313378,-18.901783133443143
480,-0.7891707106230802,-0.11141746206207659,0.6461998460690478,0.5058905054527978,-10.246985465572084,-20.087753247543674
490,-0.8319790130375274,-0.1456187014508652,0.5350629613933792,16.885481853911383,-4.195311242875421,-21.763048210874036
500,-0.8882432384642238,0.10989020954791309,0.41880578077315755,6.362226404371529,-1.3184317180274563,-12.408877501037558
510,-0.894364110240821,0.2623945549750979,0.4567426223154759,2.3603496224741547,-0.6093900360609783,-6.4603188589713945
520,-0.871200125077571,0.15608683102975984,0.5147677089837343,0.2875011418034465,3.181629404100635,-3.65962727160309
530,-0.8894478719160601,0.014715870307994792,0.4967931103378014,-1.739466605154902,5.755582757287269,-2.28092546083989
540,-0.8915298284042031,-0.020150552214836075,0.49340512053026436,-4.732364346632752,2.6639766006341588,-6.591894502284956
550,-0.9063749790567811,0.12499011596864486,0.5683282602862998,10.523033553947874,2.185287001394782,-9.047805546355082
560,-0.9081857206422143,0.32768020259049235,0.6420555174058419,31.157860359341235,5.510186551240664,-3.5353786275766375
570,-0.8788909762993081,0.15500908752134415,0.5747163586919497,14.988020379203391,5.673405156388294,1.9881446815328594
580,-0.8521006446195801,0.07026165544035434,0.6675535563619598,13.497617054401363,6.534513498184485,2.1101047923203455
590,-0.8969561647072842,0.03323597141042203,0.4490684755613746,5.8844634844078,7.590191869776316,1.7413023583726257
600,-0.8947446448479502,0.09860055878171507,0.5388501376313429,7.398867595987216,7.126784272179458,4.507108549456694
610,-0.8685499654105355,0.12420245800661558,0.5104355298805672,-2.017705692907217,3.1905958801751626,1.218728561873995
620,-0.9418345883594279,0.008004490179504971,0.44910582208756106,-2.2600998505572742,11.367256096918137,6.886245435641797
630,-0.8533193927625216,0.0010157896114856776,0.5074636132620111,-1.596290771029571,14.996959524732189,5.991452326466127
640,-0.8464169454645224,0.03384795469526179,0.5621450932752474,1.6552849781091659,9.882096436617898,7.20055577396536
650,-0.854251266115898,0.05869361029214269,0.5417217160743037,2.203038782226739,10.223661120598727,8.692986217728517
660,-0.882190226426782,0.13953047226606172,0.47506752668446933,-5.206264498214047,9.877832655519548,6.311639075705206
670,-0.9022941966567966,0.1293056363879994,0.4516731078683333,-3.797917112136977,11.457251310950618,9.079062592560106
680,-0.9156120889610151,0.08218176585687301,0.5028220944860861,-5.562793485920377,11.41906920635867,10.542433363449055
690,-0.9008303186290126,0.09850952333328723,0.5638403068499894,-4.646283803308375,13.954151089985563,15.57667781204179
700,-0.8969425637992279,0.07416287995179599,0.47961173710037247,-5.562616034150931,11.206896463453694,15.611032993830191
710,-0.8809474002970613,-0.030812938924534253,0.44794376051911605,-11.300052582674832,5.531526716484613,6.427553263027319
720,-0.9178010827340946,-0.2017516644233039,0.5530349412061834,-10.658641231128465,2.9439045496912817,-2.5575665980466735
730,-0.8737191247038677,-0.11802057550475072,0.5617002023522414,-6.509160554552791,-2.284868421457896,-6.55352642614695
740,-0.901207767926376,0.029317686149816276,0.4989375957133031,-5.065186662731429,0.17025433592974454,-5.223349620366328
750,-0.8949733355160088,-0.06015896084704423,0.5864734586852232,-15.122633560970769,2.975190687286516,3.971535982644475
760,-0.8883061116391846,-0.09205890637669109,0.658054032580481,-11.670924091741378,2.8516802682133107,11.641678704696869
770,-0.9353058841282386,-0.059367690028374824,0.39702979720117915,-8.045253672676607,6.418169183824812,8.22400908613199
780,-0.8928209183351896,0.08567880128161796,0.4251533630364571,-10.091572887720618,2.332725540685787,4.475171369423068
790,-0.8954400109211184,0.10534116106170681,0.40580960173868796,-3.589454097004536,2.0273379431960366,9.065636727368231
800,-0.8856810810828881,0.042290728057782896,0.4452927475519408,-4.180970824310575,1.9306684788627217,4.79694720170804
810,-0.8860049375071748,0.03822089691351665,0.47995950951663463,-5.678383343999776,-0.47901343528562257,-1.969985171563283
820,-0.9002735353400446,0.02168979791661747,0.4746810618857344,3.439118340213894,3.94380704726931,4.232160777778494
830,-0.8961566754217962,0.03860770028777094,0.4793912131357083,3.700087180276497,1.2766234340292373,4.426305696584393
840,-0.88448085832679,0.06923269424621405,0.49239647084526833,3.6141901281933744,1.7859840413837231,4.667512485649919
850,-0.8796103903266609,0.07472289687798436,0.49658886803130226,1.3790994015254967,0.6495270510936502,1.6742365374931563
860,-0.8812475937393704,0.0711829173206566,0.49463978927651114,1.0608957465208175,0.5711350315611532,0.162921926851687
870,-0.8907795307175683,0.05806010697677639,0.48645124860057065,0.9008604162049364,0.33633876838153076,-0.7414440156899808
880,-0.8830239564881849,0.054232082474486666,0.49375346878991094,2.6273447287914196,0.6993876939639729,0.2837433224060836
890,-0.8819849861336972,0.054711901576387195,0.4885198882977103,3.7581521277075165,0.03110498925981986,0.467084107645498
900,-0.9257878541673863,0.013265487650711772,0.4537854305685956,4.5313021063370185,0.21047544195213758,0.8902933676739768
910,-0.8745917394375091,0.05548920456739821,0.5071557682061006,8.699369447265484,3.047379577271051,3.388428323711418
920,-0.8733732856670705,-0.08694642274086711,0.5691388240854958,5.70873338166409,-6.491061782419494,-8.646661178287982
930,-0.9111081395695554,0.06348936599930231,0.49462010696291986,9.932064409924832,-3.9552628535131573,-5.990324806591483
940,-0.8836803096864609,0.0526000162740003,0.5101214514818786,6.871225807118453,-0.48362379248049125,-2.8364503900854117
950,-0.8980932922223028,-0.0828032399885186,0.48877133899611175,8.420081084818687,-2.780280155527863,-9.048001808980947
960,-0.8501810250203183,-0.2101106310624091,0.5390424139066128,-0.3622508162199325,-5.245911607922817,-17.341322769521245
970,-0.9256606307003572,0.011780162518666315,0.46415850558514415,7.68609678344963,1.7468879745512376,-7.591450828101151
980,-0.9733228451653493,0.23320040630689945,0.46063198314848997,11.989187639391279,1.6175162709756097,-1.1296601017295456
990,-0.9419644531853771,0.33240221717861446,0.4810609110332177,12.704725699585744,3.34522421099419,4.779921156195912
1000,-0.8990342535861616,0.28597173165804923,0.4744226558382732,5.968906846647929,1.8113342951975793,3.3563769948693545
1010,-0.9051212798865388,0.09543118997233714,0.4688624837671168,4.104616363182741,2.50873455422808,2.064693521211211
1020,-0.9306287187875725,0.0011871725130129084,0.45391119679495523,2.185824643451737,-0.7067644532204407,-2.5364292224245313
1030,-0.9221082197929248,0.0056527896754097395,0.464653536306607,4.437621814397166,2.4868362461906273,-1.2148630198096935
1040,-0.9226985452465959,0.009848679099262478,0.4616286409123716,4.4317932670928055,2.3185419721108183,-4.27206640604764
1050,-0.921707143056087,0.034177867082001996,0.41453845250957927,3.04432364808278,7.8264501205020585,-3.376270508821194
1060,-0.9417468144727398,-0.02733478977810461,0.3132119720565004,-5.551474506967486,11.861090240309686,-1.5132245684054504
1070,-0.9585175167762836,0.0670066785639109,0.3774978959214299,5.787306429722319,6.712858244080946,3.4182067122677577
1080,-0.9005198378072954,0.029770333537424424,0.598050281576695,5.7557439202321605,6.727511589957632,0.5076504423659235
1090,-0.8870984804083072,0.0695099285381032,0.4572887710972718,1.1934964554040908,7.032250595786762,-0.6100859043788829
1100,-0.9067924511493825,0.10414743860526711,0.4336235447661735,3.36663075673615,8.303761616013714,1.3221756611347677
1110,-0.9093856198261192,0.04667851851868898,0.4823658618575771,5.176468830634191,10.443083542072316,4.613211718900944
1120,-0.8940585322677465,0.08996481739597077,0.40543770400403645,1.1336466036438104,17.092405969126904,9.239587295637806
1130,-0.9416074277621213,0.08043457718823796,0.32526573600131575,-2.233048444512676,10.192126542376533,5.934537625882442
1140,-0.9527867762291052,0.06998839908434215,0.36522891829303794,3.7384881547330098,14.430603642262286,11.863528097477051
1150,-0.9154545378226612,0.07955208151827173,0.4618692506212688,1.9176900777338124,12.054180030713237,8.354975646247425
1160,-0.8829956923223495,0.07069322292319086,0.5160381698861652,6.138413241306871,10.135631801876691,7.323974944461259
1170,-0.8944816304480225,0.05933197891483393,0.47193387430504236,-1.8642793895180025,7.350140448413963,4.074133614247334
1180,-0.918381835143248,0.07733731476160634,0.42358996043012226,-6.148217796478546,9.696016397755228,5.884268049628018
1190,-0.9310787222180894,0.032606271823214544,0.4147794310743227,-0.4446541324045419,7.60132159520108,6.655886983060093
1200,-0.9262587801000498,-0.030262496891044523,0.4844641622173217,-15.166868095261828,7.6511226386567035,7.541606818591321
1210,-0.8698048759817325,0.3188553721404081,0.3842158242851161,-0.1356043489278706,12.748321867600774,17.622056603647437
1220,-0.9091701069700822,0.09129171918142925,0.41809352056072085,-5.556776688337252,5.494279741034461,8.367541959182335
1230,-0.9268813981825984,0.07830252752407724,0.40491969038966585,-0.2913873709377661,3.0922801600883596,4.218867227757444
1240,-0.9347354444416816,0.1526730012922012,0.4156088955092844,-1.362562434364541,3.0912267047437547,8.775275983193096
1250,-0.8992403056921136,0.19683440946451347,0.4147887961868909,-5.9305952183753385,5.581813897043757,15.4922868152508
1260,-0.9299187542888263,0.030508148937734153,0.4592128592010818,-15.27445800615952,-1.2238974601973962,11.08211380336695
1270,-0.9278367631488361,0.06095409106399162,0.3611017652153239,-29.303966664067147,-4.999860676296607,11.346848905315113
1280,-0.900472390073356,0.17385278105975224,0.4022234307072055,-34.14793589429566,-4.715372719612772,12.681416497583031
1290,-0.9522023262859152,0.014258313891044809,0.4028266300354974,-39.71879274128112,-11.034005722761268,0.8044244953580151
1300,-1.0007492021811761,-0.14352512428393302,0.25571998192046314,-36.06844813149172,-9.778302270074315,-5.738126111787999
1310,-0.9802157565964653,-0.06453908713861617,0.2685703233613368,-25.834366920963035,-7.130900016605056,-9.07813030497622
1320,-0.9314642478957541,0.057575916041517246,0.45163753898424186,-9.192787031967443,-3.6236556960560806,-4.389979180758434
1330,-0.9057287400730079,0.10354758736663829,0.4421854526526989,2.1823306798898896,-1.6656954672251232,6.1741359176033725
1340,-0.8981455058957643,0.11968611318426282,0.4663606951475353,3.7395225841254844,0.2206588073549942,6.497883727698879
1350,-0.9088548698825634,0.11105359440939862,0.45088330801640775,0.2715226484515054,-1.0829502537624456,1.6453982664974236
1360,-0.9120856393492588,0.10066689154385565,0.44256073941917473,1.6376325315396674,1.8937698100706668,1.0381720214069794
1370,-0.9026005528461676,0.10089550722975019,0.4564871935304643,-0.40075630387451766,0.5461850508659595,-2.9679348349667354
1380,-0.9134698563491915,0.08660259244971578,0.44344430109840555,1.3930303917776912,1.592576571507543,-2.343498286456627
1390,-0.9150291202811102,0.07593347495665546,0.44651300256273857,2.2560295254410563,-0.9770366809879675,0.23641789286842751
1400,-0.9096493930997567,0.07937299386262585,0.4470946534155546,4.162954802269242,0.4774795294625086,3.851255138760303
1410,-0.9039666822739877,0.09176584586184516,0.442966633504297,2.083494539548578,-1.0118082469803176,2.649826778087556
1420,-0.9158498737164734,0.09406882928459805,0.43223092722007356,1.8835037758112754,-0.1786489498119712,2.3595415208484303
1430,-0.9291640600799256,0.08898110570884696,0.4280120537542231,1.4507762232871824,0.397665840315471,0.9119725996647914
1440,-0.9331194609342524,0.07757610118443352,0.4227459546850688,-0.45565626239256557,-0.47331828891647765,-1.7702995642673998
1450,-0.9404315078794749,0.058886572835621695,0.4107917436243284,1.3179313201977154,1.413236026425514,-0.13966607967537925
1460,-0.9201455833181262,0.07608162798370711,0.4315517329992753,-0.8282228845196957,-1.4162547280276008,-2.002009884185708
1470,-0.9418431639378263,0.05966564341185118,0.41369444400549304,-0.1584343598295055,-1.6475054994537424,-1.0711720249726113
1480,-0.9115536753459412,0.09602369883429554,0.4461516058424294,5.245363702430346,2.596858806423695,4.217338167991869
1490,-0.9340985630536729,0.0690758813707524,0.41159739232349823,0.49167704558792025,-2.158158397056237,-0.31774983980642224
1500,-0.9160649110775233,0.08278190633509555,0.4270688051924632,1.1680199637389046,-0.7075145796203182,0.6892129923197892
1510,-0.9122264889690999,0.09444832041260973,0.43221934188537897,-2.0439508659245673,-2.804265388946184,-2.7876957983588975
1520,-0.9298071306330808,0.068059277640558,0.4162466226334702,1.2073616411206531,-0.1975834162168325,-0.3757610012371547
1530,-0.9239058111360584,0.0843754863539943,0.43652705677524545,5.145913306588016,1.6505955005283228,2.4408173239878934
1540,-0.9468756846338225,0.06282788082949714,0.4111727381878664,3.9115638672860897,-0.560772126258702,0.8483838776957455
1550,-0.8967682210756521,0.1090084448911866,0.4533296243011841,2.0032088969930943,-1.8578299332329533,-0.08912251115991143
1560,-0.940338973785906,0.0695513553803631,0.4065177545398955,-0.05680974778645087,-2.1428121874446204,-0.05931934284913476
1570,-0.9276039309250568,0.08215998305464074,0.42435258047111823,-1.2615667092574876,-1.36229069766538,0.18754412499439677
1580,-0.8969267795667997,0.11051118641665145,0.45344508942235695,-1.4658218740498574,-0.9550419967541851,-0.8964957235095025
1590,-0.8918204685780565,0.12371422057557548,0.4631926583492749,1.6140064414493933,2.031197852623381,0.7933042892567038
1600,-0.9044884827271157,0.11409467076708635,0.45581764006064035,0.9706093163089495,1.7208553896569243,0.03306149197647179
1610,-0.9178838145778436,0.0962355130794945,0.4405873575676604,-2.3841041471340065,-1.1685616524587945,-2.5948556929710476
1620,-0.9082889722789602,0.10154835443648469,0.45091660217072604,0.09931545423769095,1.057659640449244,0.507398649188961
1630,-0.9193935825751521,0.08213986705041065,0.44114215807731705,-0.749152632882181,-0.44600504171860444,0.22540773407428016
1640,-0.9614133902359182,0.03957897574589912,0.38975085284965816,0.7862206458636674,0.9974001507507003,1.7304899860543683
1650,-0.9287867632712137,0.08269244188514123,0.4200375011923172,-2.3337370679812297,-1.9408864914331514,-3.376102280945222
1660,-0.9258402838853856,0.08307782468789983,0.4250056258417861,1.001169108488232,2.289899399323674,0.9223593174165796
1670,-0.9307927593357639,0.07515146629358227,0.4171016446727827,-0.4107109004450151,1.4902985625095897,0.7240096633168986
1680,-0.9002952891769755,0.09751629763207977,0.4480613300099388,-2.572817312865885,-1.4483868455663313,-0.9648482765758604
1690,-0.9016661974569382,0.09965723377293587,0.44372389492675735,2.296406597676614,1.2792635814754627,2.913386398954342
1700,-0.9090610387671771,0.09508411569614585,0.4432758904603335,1.6016520764242856,0.13427574345400806,1.6759107615949362
1710,-0.9402989696525719,0.06788621298192364,0.4104464819622221,0.47778037215043323,1.7238977227168342,0.3873302536228542
1720,-0.9038128490792781,0.0993721467116951,0.4424684430086852,-0.5933741787273291,0.6672797152410533,-0.10999085548002452
1730,-0.9460561245786124,0.054061069733198144,0.4019582719094557,-0.6257948585433377,-0.8649269200563848,-0.2795158810525056
1740,-0.9109607417222026,0.09371863042558774,0.4465296526385656,1.719301150174489,0.521369437399499,1.7436533470908135
1750,-0.9298719870775888,0.07966055554763005,0.4299222179360849,4.151545238693946,3.2241198055514158,3.9275836553842747
1760,-0.9048150201373307,0.11003923657325229,0.45132071663106066,2.588662776279697,2.395681522247016,1.9661541877267692
1770,-0.9145383727753157,0.09855821291114539,0.4415906576652527,0.5505715803887081,0.738080209227455,0.06872307756894108
1780,-0.9277210863917452,0.07700524801387101,0.4298842263976781,-2.4740333306482802,-2.2198350288856394,-2.009583943985756
1790,-0.9071815198873749,0.1041339691646181,0.4517977891323614,-0.9101739509549858,-0.5201006437995173,0.2094106798612952
1800,-0.9012310564518446,0.10966682858545278,0.45769697771546464,-1.6752758034862312,-0.7761755878507187,-0.2014430529980853
1810,-0.9336803624861892,0.0733525204963299,0.42256362938635755,0.3365910731632455,0.8375263641731462,1.3216843557900488
1820,-0.8914604969378308,0.11537167118502546,0.45469692480532975,1.547424774916827,1.795359561235014,1.7945199173774373
1830,-0.9031448943358916,0.1101278487479879,0.44223909670272327,-0.8655780893936625,-0.1540891006393641,-0.9318679868440858
1840,-0.9100839567972633,0.1015771397073386,0.4483305380894579,3.2291933236721935,3.239582686000203,3.962801038070044
1850,-0.9322124396823738,0.07649074463407635,0.42186850679726623,1.4046327376577188,0.6826869816406286,1.5417917029552768
1860,-0.8937779080642899,0.11373106207406924,0.46051917166186,0.8878904464645099,-0.14825877857173475,0.549471692366376
1870,-0.9142100834549961,0.09433759256459094,0.4394283733820288,2.16800595682567,1.4598819542927055,1.6001995962510458
1880,-0.9139143452706772,0.09449522965713529,0.43761904750540687,0.4178506597403907,0.7215278227469178,0.30338321218489406
1890,-0.9064244779324067,0.10621768306575935,0.44659471409754625,-1.0136380850073707,-0.013945985750893564,-0.5367412198231446
1900,-0.9340798132773634,0.07926777948458234,0.41904674603952075,1.418006761287741,1.7686855732628115,2.185894022917933
1910,-0.9194616968505273,0.08903893876482774,0.434944506529213,1.6631609619280412,1.0383613151685838,2.127235238204568
1920,-0.9297159745943846,0.07719591833187271,0.42760431916902186,1.0436329082251812,0.2269564050272126,1.0222146577676348
1930,-0.9167603694529542,0.09396384850297139,0.43823808675831916,3.459848425262585,2.9766239722701915,3.1379131998155714
1940,-0.9026777658837235,0.11317541665201686,0.4483733318337252,1.6921563644383735,1.9870325579546628,1.330534218620769
1950,-0.9018291541972676,0.1199912118950193,0.45232645127904475,-2.7256224859402045,-1.2346587299513527,-1.9288613129711103
1960,-0.923357313777287,0.09741794825020895,0.44168673377001,-3.476871989917023,-1.8022808228723568,-2.5584094378427196
1970,-0.9319571088468551,0.07850309597207027,0.42556079159476834,2.8104880912177173,1.3875114152075319,2.5963241361508214
1980,-0.9269179258527037,0.0798118479028759,0.42539791872475635,-0.05931928236971437,0.6569886144570981,0.6711065388712809
