time_ms,ax,ay,az,gx,gy,gz
0,-0.6887729354760099,0.07775031983451652,0.41876423910830646,-3.8382942143577683,-1.7051157438479518,-3.0696304776891923
10,-0.7192461988959846,0.04191280091240174,0.38838143240146483,-1.2857833887468502,0.2685984616852727,-0.25241190871889935
20,-0.6827125454413571,0.0772199173201645,0.4236520103380345,0.22435271249541247,0.3419809681822656,0.839440577236208
30,-0.7166525836867683,0.046820711374653545,0.39082723828165455,1.4562442327006173,0.6144271151015898,0.8966873968553539
40,-0.7108158023755579,0.05333169673328645,0.39717647791345545,0.18437092649043096,-1.0458155286034423,-1.2383331663581418
50,-0.6919389940700953,0.06987318957151813,0.4146533487237548,4.074364956982361,2.8481456799085914,2.575366304654977
60,-0.7177145545784314,0.04669917895980363,0.38749981546970347,3.228752863318521,2.4423085763082306,2.1480052594435772
70,-0.703642350361207,0.06907166882983959,0.39983934145536165,-1.4205292794378237,-1.051039328158876,-1.181420693817323
80,-0.6839173045687966,0.08474346046441078,0.4181539978419938,1.399808048806815,2.2617942459384213,2.4963023682331693
90,-0.6889615408820858,0.07715486333182844,0.4147953383974317,-0.33448015370463247,-0.8565695841615693,-0.48793722582827737
100,-0.7158597681847574,0.048438259240620216,0.388986683082898,0.25384788796355284,-0.7277752341711159,-0.4373933374608616
110,-0.697693135188088,0.06914778712190044,0.4075806836190815,1.0379888881987234,0.3195553954256507,0.4994142356845497
120,-0.6718863348337107,0.09939227436443462,0.43216127399668786,-0.484946792573233,-0.5213912988062251,-0.4808226309260429
130,-0.6846824363518083,0.08495828396607336,0.4159038907867628,-2.6803998691834945,-1.322311617754096,-1.5992289935839101
140,-0.6912383772269858,0.07076169987238684,0.4120182050166106,-4.128240944644618,-1.69136382575683,-2.322263308578639
150,-0.7086319582341996,0.05333647830317423,0.397772373412064,-4.487656678149797,-1.9128349128281799,-1.6489950464869851
160,-0.6986930953805943,0.06754121515998097,0.4136416207288372,3.474572305387815,2.6597351646010194,3.5947885108840754
170,-0.6851514335917932,0.08351453764789912,0.4285117312375948,2.049776191188457,-0.09170599666621132,1.3115872152596197
180,-0.6897440926090304,0.07784600242246667,0.4230702401199341,2.0102696297421803,-0.9911292472943637,1.4840662571776795
190,-0.7134102241763618,0.05205076673409203,0.40657769982437497,4.120298866171384,-0.5403409438375784,5.133269562872905
200,-0.7264824244662267,0.0450557327963057,0.41940129102354123,4.530867527104722,-2.57448637709638,10.075096169274794
210,-0.7535049669201672,0.0565177448390681,0.43458048863016036,13.480362004704034,-3.6123331921413353,20.38374364307989
220,-0.8576340227908632,0.13235600269728134,0.5409122394260694,29.561878084526224,-15.524892222214735,33.85578524984024
230,-0.6333888992404694,-0.0739236801143632,0.5300437238549588,34.168553227420006,-43.92099606541005,-0.837980928606556
240,-0.5222855943930059,-0.11086708264271514,0.5116360841842338,31.719246472694135,-61.04623540126014,-36.41134275025135
250,-0.5556276649392395,-0.0003205419273000186,0.49683867090519424,14.639436713846743,-67.24386655414533,-55.52381763959551
260,-0.5640292505471485,0.18709039769966718,0.46737134567679794,-18.90360143646728,-66.73511069522569,-61.08576147772064
270,-0.49830811065327785,0.3747236774380062,0.36742652947903504,-53.42417619636647,-53.31233251564219,-57.9342513743399
280,-0.543612468822883,0.2679038929839811,0.3223430087668281,-74.509569682242,-33.470996450700184,-47.66423478857645
290,-0.5696490035694359,0.11492516020898623,0.4233385229642401,-64.84060623215439,-22.644370449168367,-46.01830741087763
300,-0.6646076507423998,0.27319663944431377,0.4589908772020463,-67.45879524522307,-9.499810896246583,-50.339846074724214
310,-0.7191042746884564,0.18332989718810805,0.4629889260208235,-60.67400705139825,0.14228487634022136,-36.07632975719245
320,-0.6754002534179808,0.02342385555993573,0.4952837701438609,-57.81056796105621,-3.49281413682042,-26.047640006414195
330,-0.6311663279741493,-0.06345650762770258,0.4696086340509578,-47.04053206540097,-2.411052904308858,-18.71431857870338
340,-0.5738185441684425,-0.061088578205352906,0.4205554904943293,-31.388634811072833,-1.1389675344019743,-17.36055551633538
350,-0.5751296966395255,-0.06376969049817409,0.434780823032307,-21.623400180642644,4.067947884945096,-10.686442492066327
360,-0.5628676580281193,-0.03386927897331231,0.4552154694932171,-12.925376975793137,-0.3407121598239933,-13.101229420667012
370,-0.677638683393429,-0.044576713997707025,0.4257857905224148,-8.56083681567406,-9.284869376977516,-5.578210920686857
380,-0.7060357168377308,-0.055646977990382304,0.3791280190279345,-26.532762276177284,-12.876971995519408,-8.503265671566085
390,-0.6566336114579727,-0.13041927946147217,0.4988489411828227,-24.197698854463514,-9.945016652816133,-10.343262510721981
400,-0.6668108244637678,-0.24285330347360057,0.5850468493643063,2.6619528948962943,-13.25491864510404,-13.77508338468193
410,-0.6710379995746655,-0.13721316949487816,0.3883367970083355,27.942482583852534,-12.599699676051477,-14.814564464355591
420,-0.6020481483671231,-0.23238447587327268,0.5777348131658316,44.53104464336848,-13.324254707570988,-8.174434243065239
430,-0.7240583411133977,-0.046319072427670416,0.37760899216931865,39.14513360033863,-5.282253818896063,-4.373158987937482
440,-0.6606496384362517,-0.14479273583829513,0.4757295359723752,29.269826034757607,-6.501628724513398,-15.936949867258237
450,-0.6315917818956489,-0.12427431814983218,0.5391900264817643,29.050922719619066,0.6162473797770331,-17.2007609045481
460,-0.6664084493364355,0.008181364079052365,0.535136342801508,37.835329485323115,2.5337852904812,-15.846706368125428
470,-0.7281947596026538,0.04370811742197966,0.4077002073043324,33.6152447861928,6.730082235655594,-11.606081033759374
480,-0.7243334402156107,-0.0499915523447938,0.15368825996184352,-24.441932432849217,15.38603275181539,-15.409021296496913
490,-0.6594544334037504,0.047874580480709215,0.3996222932342545,5.991495754961001,14.797755480333707,-17.698614616474433
500,-0.6045546969455153,0.044172505554382575,0.6323923518727205,6.726059953715548,14.432525421112928,-15.366845971292275
510,-0.7087659052810455,0.18145766371818825,0.37062022979581255,8.220708891243175,23.772101124005296,9.584443669699034
520,-0.7845917525515591,0.25254646000539427,0.22236103876324662,17.495733610979354,28.97305535951373,30.11707100249761
530,-0.7501143116517272,0.01959178267657678,0.3469850172592554,27.728402202109834,29.740716317644388,44.66166293182437
540,-0.6269645689822955,-0.24218193496263915,0.5181446410549702,34.471055470656104,31.444554095015345,55.971252002645905
550,-0.6092351110551665,-0.07154855253263087,0.4013910095090161,30.792067904378584,30.467633517587576,52.88579025942108
560,-0.6084573473089093,-0.2567094715039067,0.8938196515389282,-8.727402821746562,26.47507711111989,44.144590928101216
570,-0.5604152763121532,-0.38225206731969086,0.8987019460919793,-31.93727129069089,9.145678923833005,25.920980685008267
580,-0.5817536957617485,-0.34906455529001934,0.6877442388571613,-22.159470355368377,-1.1094119612432447,18.26005324537236
590,-0.6470054787594861,-0.2608500267890738,0.5041340594217137,-5.9203451818326585,-5.228450153050272,12.073715686716998
600,-0.716667052445171,-0.1921742773669927,0.4020396497185737,8.251125031647826,-4.7168920333876265,6.396680120557583
610,-0.6827719646280742,-0.08726292693378264,0.43677589242779347,24.734967518825716,-0.22107504261277333,6.458579085313052
620,-0.6165613315900094,-0.01191455434439289,0.5107320886830907,40.00734892597879,-0.5449503202374958,7.3848822170062025
630,-0.650295890368726,-0.104831188438062,0.4457433987732833,42.788157222507394,-5.672838120837868,-3.201482138868439
640,-0.6979789340018285,0.0493384277774184,0.2873028466908409,49.8687853904382,-5.037155058084068,-14.92615683252943
650,-0.7013419261828314,-0.00339084470350896,0.3512198382011962,35.51975646614417,6.148807866766296,-24.935741692238523
660,-0.7359238206840114,-0.022040130846006922,0.26444506327179107,14.345837870651245,12.68125242339887,-29.753655320558604
670,-0.7534820784896846,0.07593602280242916,0.09434835752662181,8.19867145575909,22.382325481321843,-26.601324312697077
680,-0.7715812007455025,0.12727530510699814,0.06761144900773648,22.650987729892286,35.42240261809193,-22.480977018209515
690,-0.7748980353508377,0.03802581995567117,0.31672824075924344,36.9918563009076,38.40967323849808,-27.075082638038854
700,-0.6937244645820931,0.10399885838568207,-0.0291530206556867,2.9229800059264535,61.96501095500646,-15.701892424009873
710,-0.6996712539090872,0.31630456388839623,0.3479668182029258,65.796462188432,50.906202952715134,5.379928288802867
720,-0.722608429708383,0.19786885441094915,0.12113308613831288,21.650748300138787,43.68558193704373,28.295728433294414
730,-0.6692679251700583,0.2128152098916428,0.17617440883700694,-14.57391486899569,28.535176514384265,31.911817628846862
740,-0.6759792917575722,0.11598896176255308,0.4052928323070056,-23.2016749372684,13.290466872267752,25.965241131674787
750,-0.7218149115213613,-0.11160644018463284,0.5247658817053634,-34.73843969344179,-0.24141324642869844,19.775043084926654
760,-0.6340388035615574,-0.003549292137362055,0.587071023912638,-32.319902710174084,0.12981265649147034,30.65928119403568
770,-0.6452921847181253,-0.11961362867881878,0.40263751805354897,-4.231954890690823,-4.725036876800234,23.47378169753475
780,-0.6878400781733155,-0.05181008302588877,0.4471676254620822,-24.966968346398353,-6.673016966163963,8.733694647368727
790,-0.7309036140656996,-0.08855817423766552,0.3972122309989612,-11.227651532020767,-3.4279719110759865,0.7723522629584466
800,-0.7107810158201051,-0.006043979524686919,0.3990504643038902,8.553561725170894,-1.3866445308264268,-1.3884446326634476
810,-0.6684642985255854,0.0865821162489513,0.4332308072143683,17.654397408957436,1.4504322820661901,2.722895766673936
820,-0.6800582668297918,0.05345935089532794,0.4182967642265075,8.953080375667689,-2.3763867936411462,1.6664331338966085
830,-0.6725214162215601,0.07761734651249907,0.4405157300016984,11.793102279978928,1.429969824775883,7.345447041538259
840,-0.7071801488273713,0.05602871197695193,0.40149554979332025,5.64965320313717,1.2532987310044885,7.591480629449278
850,-0.7293851664297493,0.06974917044098151,0.38653694126300764,-6.847919164342527,0.40679038254075506,4.714024569030399
860,-0.730098195735323,0.04563791384177945,0.3780280551486948,-6.053033406641935,3.477630120231535,7.289294815096074
870,-0.6948626541147248,0.06855438006947276,0.41668976353181175,-11.735120863833856,0.8628158510643675,3.5825370100479317
880,-0.699122658587194,0.0581234364355038,0.4133202889375177,-13.336887589945894,3.0099965222904523,2.807005481422968
890,-0.7002445754234433,0.04915523928679628,0.4061416606260774,-13.620034131111485,4.1969055418390795,0.13907451856626413
900,-0.7145116575419348,0.060305104058561154,0.4076950568019706,-14.714222862705132,3.958502015255095,-2.6147253490192286
910,-0.6865436628123818,0.06356409544033029,0.4195453883327501,-10.243057309800035,6.695264169031615,-2.53066052811158
920,-0.6839208126356396,0.06837833567370963,0.4147539726182312,-12.134885426607138,6.401074037558709,-7.2742577414130825
930,-0.696736610887588,0.02416605815768889,0.40299710976054004,-11.191064368341669,5.718173812044997,-5.644303112155968
940,-0.6890262714480427,0.038168158551807295,0.4124159490214932,-11.597828324845349,5.219633358066848,-5.6045995028772255
950,-0.710954052219006,0.025032298785949,0.39874191369776274,-10.346678090392002,2.8984635931707348,-5.519586949797579
960,-0.7148344921405284,2.4424976863497098e-05,0.39836351125399155,-0.11114372672365094,3.095109367644067,3.7930334823362766
970,-0.6780589112170545,0.040223413888602816,0.40213807882882807,6.925263702805847,1.161254696987776,12.872646348406358
980,-0.7057843918003963,0.01903141582003848,0.38108864532944126,11.21398791680696,-1.7232376571683905,14.904281381170202
990,-0.6888684951503957,0.07934351077934258,0.42262055264449644,-6.071398651259902,-3.38995773586314,12.739570557715203
1000,-0.7107371394582939,0.0618652196138889,0.4002826947016494,-10.017181066961436,-4.501446418555389,6.371631293677197
1010,-0.7074989278905905,0.049051896757036334,0.3930332374269012,-10.45874826567942,-5.162966447312303,2.9383385541498566
1020,-0.6845642001226678,0.06119655453982026,0.4165046403961718,-9.583228200314833,-5.450779159842365,2.7841523120951743
1030,-0.7009262754577936,0.0426153624046613,0.41028610120680714,-3.3245690492863207,-3.7418117929315664,5.438625065348406
1040,-0.7242306084153229,0.004731616366591904,0.37929102498209216,-0.7336091414705277,-8.04795438647044,3.090187690809644
1050,-0.7078659474289368,0.030342878872601453,0.4003573989137822,12.458695011701257,-1.5022596024026516,10.366695640826364
1060,-0.6860418471504016,0.07787333162440717,0.423392945278531,12.385229688281218,0.09705775774366998,10.334872186299531
1070,-0.6983267592441048,0.05546622381554812,0.41482774180070464,-0.9231352126006136,-3.1619783544968048,-0.6227933754263344
1080,-0.7101341298546411,0.023739294432190312,0.4001955963724825,-0.9124219605184243,-3.8885191342783214,-3.1492143737099156
1090,-0.7024489470324805,0.02480035328370693,0.4009368478140208,7.293035940700177,-3.7415765067221707,0.5795955434837176
1100,-0.7119813022707515,0.02761087207864759,0.38978755677831534,12.568055153095123,-2.960006533064633,4.301094482672669
1110,-0.7053657369107689,0.054059317692623406,0.40479216002823404,12.357587424957222,-3.7295773971519726,4.328419226467062
1120,-0.6879046322232644,0.08535619707507737,0.4159420923074269,6.29653792110172,-1.731067132626508,4.579551359872581
1130,-0.7221406279569661,0.04639196364519372,0.3815422009101981,-0.4022650123042798,-1.8211172094124297,1.3177191142984865
1140,-0.6913590472882741,0.06715570839153384,0.4180989533525607,1.9018863454058865,0.955479525655326,1.2777788387198818
1150,-0.683892229531231,0.06996023967460162,0.42655798423403046,-0.6169563219396347,-1.791277708494356,-1.9229111823045453
1160,-0.7049617635900925,0.046105174694742394,0.39956851144144545,-3.031665904812603,-4.949513420647474,-3.7786414800767347
1170,-0.7129869824227384,0.035402156413487484,0.38788511292523165,3.525607989445848,-0.6609001191798567,2.042453981157547
1180,-0.6806013160697763,0.07557545540706648,0.4319004373204063,1.2239062676285946,-3.8870842665805085,0.01014890188314399
1190,-0.6805504925957893,0.06957883378117144,0.4335527396389108,7.2015480156396645,1.861433014079474,4.7470682222903555
1200,-0.7070813980432353,0.040929575419399455,0.40190603264182967,1.3997207309183537,-3.2667881190340604,-0.6374151671610608
1210,-0.7014085553915144,0.05434246599176949,0.40271250504343453,-1.431895438808285,-1.6489574470673753,-0.45066791967701525
1220,-0.7093505410736702,0.05116437741233408,0.39768526012502503,-2.224408678665155,1.0004365857401871,0.1153237805730234
1230,-0.7063091202095095,0.049776388426661135,0.4065602890945062,-4.136842014104408,-0.2536708656910318,-2.7716548935248726
1240,-0.6841538067975103,0.061970131091875304,0.42915954179159127,-3.857281662929995,-1.1483982744863495,-4.029733126456494
1250,-0.711251656985062,0.029511395851527462,0.3974741618352484,-1.9610761830437777,-1.0036902694640404,-2.9323080221481708
1260,-0.709473399364315,0.03670947202014256,0.40309112658666685,-0.5133860125709933,-1.5456841510294335,-1.1409638490218441
1270,-0.6830360236206879,0.06862029905110285,0.42622203105187273,1.051285499465917,-0.9850216532036928,0.3383410642938134
1280,-0.718858515231112,0.04116117073614707,0.393691607953003,-2.2723844642180318,-1.9052657689967982,-2.1025859880442628
1290,-0.7215198168017208,0.033114276766503345,0.389918199116344,-2.7174172808214103,-0.7886924313190073,-2.4215442163253
1300,-0.7023699675652929,0.04374733714164354,0.40598802139572765,-0.8025647626556018,1.4545576735770467,-0.39728901000168815
1310,-0.6966930966264362,0.0520680392219575,0.4138272658272497,-4.628425465397351,-2.102194555314271,-3.2485216620711403
1320,-0.6774284544454605,0.07323263308295411,0.4364771217587292,-1.283606358300885,0.1324526303819551,-0.035918682839175986
1330,-0.6887099364153433,0.05370997745574299,0.414839246743879,0.9188747775335456,-0.9811431228685251,-0.6368596708857903
1340,-0.7095151041873047,0.038768562277552265,0.3981989909165449,0.8481548579823663,-1.1384148077895642,-0.3014544856952732
1350,-0.6878015281313586,0.05752538366993655,0.42059471702148904,0.728963105041579,-1.4548961270634548,-1.2380324834504286
1360,-0.707600132093329,0.03987907145507623,0.4011778365587501,0.6107163909397988,-1.7479020804266188,-1.6516835520613886
1370,-0.6682417913092845,0.08723238474091849,0.44170629742405904,0.924393343228203,-0.47723488795168284,-0.6996625113138442
1380,-0.6875922252039586,0.07205071465440917,0.4228444467770969,-1.8038005603405556,-0.5756455149254714,-2.1877866601688694
1390,-0.6699107277948363,0.0850794270162277,0.44038466860855796,-4.114049564506051,0.23359550808245855,-2.0621548939916186
1400,-0.6861276936452793,0.06608382218215786,0.4255127063707278,-4.968348042237401,0.3294475283995988,-2.1928547529411455
1410,-0.694526014852984,0.044895992242415174,0.4150464430411195,-1.0589677144943537,1.5453765591858417,0.21014067732326858
1420,-0.7049816806723019,0.040868510886477964,0.404421811705598,6.225442839626379,3.3356179175995786,3.518834838258207
1430,-0.7017639829373424,0.049415614212534785,0.40741906368062997,6.0261783151312205,1.2609719463600695,1.9001680878621865
1440,-0.6937939663857973,0.05677185203142559,0.4139957198344921,2.0284613910301945,-1.4981956468160313,-0.9571111840301616
1450,-0.6820510483884441,0.06741786213771978,0.4233117929012675,3.5068481035994856,1.1297356015773277,1.9982085890511454
1460,-0.6967783562974779,0.04744943363281268,0.40584864460633663,-3.811034786743729,-3.8597116955821846,-2.791819750957898
1470,-0.6917071370658969,0.048917639399452,0.41701884688475627,0.40037807873651277,0.73652506733181,1.9956011680380195
1480,-0.6795034074646038,0.06059836443742343,0.4358207743650004,0.09423443953655083,-0.6237000355754833,0.20210926066388588
1490,-0.6871470537211074,0.06013212669373115,0.42103967933310477,-0.4400854901193622,-0.40231504791034056,0.019173118704918723
1500,-0.7275362171089608,0.024699395536971085,0.37923562920268256,-1.9574389559478522,-1.1601313315297248,-1.1035138556719644
1510,-0.7014459744855879,0.050580073452447694,0.40951535476378,-3.570317196438862,-2.790630647633532,-3.1184246477686366
1520,-0.6916551451953792,0.057186498728009814,0.4182579981893175,-3.0673383981248046,-3.2072159399475377,-3.92452094430526
1530,-0.6831115023649249,0.05953418541027885,0.4231750929032999,1.9821117057356248,-1.0739572977416973,-2.011361397218667
1540,-0.6972339875245113,0.04421567621321878,0.40962300517852873,4.362360148274403,-1.674499872764246,-1.6156530650981944
1550,-0.707115879709777,0.03543302080672561,0.3928284604409521,8.157449111588045,-0.30092288625322205,-0.06953732984228639
1560,-0.6674538345507988,0.08127248729720091,0.43832085857553676,11.631059940214117,-0.5840742377547317,-0.34773057379040345
1570,-0.7164484738265054,0.03227626785690975,0.3925680887736797,11.407460244566723,-1.0127371910673149,-0.40795199130302595
1580,-0.6556594120789313,0.09070123593697871,0.45306369519408923,7.978720676438229,-3.4941411192886043,-2.0821632541342545
1590,-0.7090576187080804,0.0422940332308417,0.40271340054385096,12.70842040794644,-0.632748534052374,1.5086565093065483
1600,-0.6953533684911897,0.06384019036926045,0.4161868220364431,11.750031239729353,-1.5799244773140508,0.26085827739063017
1610,-0.6698223035069797,0.08243291491098995,0.43619234923173966,10.860744354918717,0.6906834989390306,1.4057411520355236
1620,-0.6830165142836521,0.06796973574993656,0.42589629371972243,6.858247531444275,-2.555769474473478,-2.7970293026430477
1630,-0.6895089475837143,0.06828529609779319,0.421687523625272,9.849194092082753,-0.8102065054430311,-0.2060021089953158
1640,-0.6823271597699565,0.07581109087879023,0.43076427332404266,12.29515526714866,1.119428096078863,2.5042029520988773
1650,-0.6925649774998263,0.0616805089324939,0.42046115167058995,7.212811704863611,-2.5606937073437717,-1.2045638178592282
1660,-0.6712498308184156,0.0856979382452078,0.43802412602929514,8.237278774031072,1.5619611021545732,2.5032956340245174
1670,-0.6661495583641818,0.09743353574646213,0.4389495373451153,0.5485508099616401,-1.6897701071690945,-1.40387170819475
1680,-0.6934401356923378,0.066870664639259,0.41271670783586617,1.342100056076495,-0.7450605498034841,-0.26631742798467567
1690,-0.6806783338327839,0.08214595937376135,0.4313707900706186,0.7498937070139294,-0.06550910931774812,0.41677076176791894
1700,-0.7023473309383427,0.061656726876750154,0.41275615789747244,-0.21939580497801991,0.6465987894192474,0.7847022803129622
1710,-0.6854362281324345,0.07878617345223467,0.43085807873571597,-1.5629475969180502,0.3917369423818,0.15422478422872446
1720,-0.7033640173542357,0.06164498325624134,0.4122838299692517,-1.6306744129635338,1.4389578275169241,0.6806501707606768
1730,-0.7053239863970822,0.060251037125391455,0.40790155719446375,-5.446653174652695,-0.7578557882705903,-2.1645493963069375
1740,-0.7121086053371992,0.049245204973894015,0.4008232778821932,-3.6405747091824394,0.8394275109687546,-0.30763164946196986
1750,-0.723533711258651,0.03547705649574627,0.38731469531824353,-4.101047865476374,-0.46541743781526834,-1.2062786206971112
1760,-0.7038782944433278,0.060584621422890526,0.4042707906684528,-2.8663243719048137,0.9573123796287367,0.7133678657059547
1770,-0.6875311457076039,0.07167940559514684,0.42276104281913474,-1.2270384288517409,-0.2991164856242892,0.34501172743830893
1780,-0.7063860677255847,0.05176914399096093,0.406102757853106,3.9182852962318098,2.293957541720379,3.5294930309872634
1790,-0.6990415341838256,0.0648333470724523,0.4106920213632112,-0.2064084521052274,-1.5411335701943722,-0.5994983528072888
1800,-0.6716022081968283,0.09551977262813767,0.43221122398166045,-2.9397445238323794,-1.4902139972739545,-1.7166016448365844
1810,-0.6999373448017955,0.06613117291852924,0.4068547145882114,-6.585912439009676,-2.092105198169701,-3.565534651669706
1820,-0.717948865037846,0.038882699122241904,0.3907816430296021,-5.651644811387345,-1.1170067432665909,-2.6891873544996763
1830,-0.696821167864896,0.06030145818354807,0.4195309132513077,-4.674282793517476,-1.4518936938512095,-2.5696342297641857
1840,-0.7049949678401275,0.05739639811267526,0.4078818930686224,-0.368816989991273,0.2024640043360162,0.514936217606179
1850,-0.696496961454163,0.06823244140363471,0.4124428771186134,1.711757968608675,1.9238424300863,2.896840787300934
1860,-0.7095315828331155,0.053700374029549844,0.39932584459378456,-1.4426413184418587,0.48228827980354055,0.8106808823580328
1870,-0.68871652683343,0.07324459814213988,0.4204081306883281,-2.063736967360037,1.1535816510689918,0.3706206954732734
1880,-0.6906847504697915,0.07092069467631625,0.4204775520407297,-3.6680118287794534,1.3739446674235625,-0.21578366532028814
1890,-0.7010058986162471,0.05826781489099478,0.4109107625784657,-7.998961568114003,0.43217557721960476,-1.7834202420543517
1900,-0.6627828782058417,0.0916124168828896,0.447136955227827,-5.9173821895007475,1.4947358209237045,-0.46261624698727655
1910,-0.6976678328798086,0.05422848658159248,0.41075996573409335,-3.285490070546465,-1.8482189497005468,-1.5990335562935134
1920,-0.7100490930772746,0.04577651693077969,0.4006633376977299,-0.9424764278379838,-2.6212145827379127,-0.7152067172105672
1930,-0.6921544224186328,0.06800829302109908,0.421175079033583,-1.3534864327598444,-1.92612113029303,0.009156682329814592
1940,-0.6940740728523791,0.06270630132850678,0.4171246521030098,-0.2384400347287733,0.2707421489132085,1.4885858790340063
1950,-0.6936727031116043,0.05845812450340397,0.41497422507996534,-0.9225846836708447,-0.05495483778022525,0.6652062475569019
1960,-0.6949412724107682,0.06417641122101166,0.4169619462882453,-1.3909502567247727,0.39013022324252233,0.6636663459771718
1970,-0.6974162778050347,0.050121469231254726,0.41222855933638575,1.6245202152972222,3.1019982358656444,3.893320523855006
1980,-0.6933524718623277,0.06021461515808646,0.41414370548841173,-1.7942933556709049,-1.594398625711833,-0.42814208344755655
1990,-0.6770109914457824,0.08009219050148118,0.43377948009487755,0.42864080830245177,-0.7005836253028557,0.6490275693283731
2000,-0.6985394486607179,0.05646213536802787,0.41665746203421145,4.404389334156644,2.8438703453126526,3.9149649447813415
2010,-0.6748119161249753,0.08481028709142739,0.43871809061386907,-0.09795000873614712,-0.9156903851359356,-0.7563231687437706
2020,-0.6868238798716667,0.07035284194023196,0.4247737208872242,-1.088789298772771,-1.012325681393521,-1.3612883684323076
2030,-0.6646406408736115,0.09006389607084114,0.44356897461738126,3.1969221162549033,3.4474890686354036,3.2489966320619197
2040,-0.6901963323607015,0.05967899223586655,0.41687323912705515,0.0936800572810505,-0.2435744243774898,0.029330696671671624
2050,-0.6802401728368489,0.0746090515791593,0.4290768457170287,1.672445859225122,1.1910430743590088,1.7125433601304803
2060,-0.7131615090434296,0.05059997948143921,0.4004444591758555,-2.359537786260576,-1.5521649145462795,-1.7969121563641794
2070,-0.7273697987708081,0.03884692377487622,0.3839788949551759,-0.7956474348824196,1.850144694393479,0.4451032036716176
2080,-0.6966480597795369,0.06132390468807379,0.40422874787229046,-5.604124592337781,-2.3811592042160177,-4.0090692939263
2090,-0.6985827882791062,0.05114109483148095,0.4126575647354896,-3.090149444389624,-0.6335906071618533,-1.7102561531855134
2100,-0.677333756318962,0.07125653284724835,0.4358178835904648,-0.9201650552035846,-0.6009391762590024,0.29478101559535286
2110,-0.6920334518632442,0.05707728951305301,0.4158981399804338,-1.4519792726862213,-2.6415141989319713,-0.8905089635704329
2120,-0.6898921503807892,0.06778542512600048,0.41734833502223884,-1.413633519047168,-1.005760412605554,-0.5578978166603171
2130,-0.7017441513212199,0.05947164335972134,0.4058186827569315,-2.067788313008426,0.03202657799996875,-0.6693143685690979
2140,-0.7206589858260681,0.03597312789775594,0.3851581191870429,1.3581891419741419,3.4931970395288383,2.828176505871217
2150,-0.7155287900914065,0.03691394773759702,0.38985223195770663,0.7352674244824303,1.9204695773472171,1.8277082277002636
2160,-0.6798733697101959,0.0710552156062502,0.4351509581660408,0.4932071426564625,0.1287117671297012,1.3475695322746968
2170,-0.6677950473983386,0.08977993491935464,0.4389040975865063,2.1420625442449195,0.7288971103560907,2.097659465443579
2180,-0.6793464522672821,0.08116370387549687,0.4322468003026819,-1.3524630344234279,-2.1035593304087414,-1.289878757930036
2190,-0.6898784414342827,0.07214042543815224,0.42345043483009837,0.1743965260786675,1.204850444236339,0.4090394985115326
2200,-0.6941857671437419,0.06731882152857198,0.4192537855737917,1.880757640571792,3.5587105159369816,2.199775392927954
2210,-0.7123608035551215,0.04706546416699097,0.3990026826225532,-0.06586594961276848,0.8593543765693772,0.5061008033046945
2220,-0.7000752083871136,0.0575534461714962,0.40562858570514504,0.07367220491302717,0.4317548317958615,1.107880880983058
2230,-0.6946555124684126,0.062267726591712806,0.4162167288188844,-1.8664278536017564,-1.5921717728691709,-1.1573874948980158
2240,-0.6736475532522448,0.08096538767543884,0.43380312206894583,0.5273219013666084,0.8477713811168717,1.3109376889340063
2250,-0.691426192486679,0.06725704420202593,0.41893045887040437,0.7983260946286561,1.418520791642547,1.337020375601527
2260,-0.6696635387562928,0.0876406927786204,0.4453623346869333,-1.569570700163775,-0.5817884186984478,-0.9950096048526116
2270,-0.661201175697216,0.09210351076447332,0.45342979126676924,1.4325153329197406,1.6012522545935683,1.2562699656960765
2280,-0.6747510712301041,0.07826072526906655,0.4361456574121904,-0.1466290702040467,-1.623818347865228,-1.495512277376881
2290,-0.6969735962951812,0.06079616660910476,0.4139257490738381,2.4611130933798897,0.33929128752325366,1.1523226249597456
2300,-0.6606536630835966,0.09680580345364488,0.45092919229300277,1.78442129634631,0.7007611601911147,1.659597326827753
2310,-0.6785826510725296,0.07693042591493572,0.4280678638932816,4.4442754910991145,3.760094232741994,4.502664825190102
2320,-0.6809715823037569,0.07374502796363161,0.43411131756264565,-2.981248629999218,-2.2599940069832605,-1.9531705066542528
2330,-0.6982331959969612,0.060112525591196266,0.41856039125833305,-0.09056076133208528,0.18071561214991097,0.08491732979617875
2340,-0.6937747923063978,0.065531164912936,0.41842088322957316,0.0332885124897927,-0.4093647793858388,-0.6199296117716153
2350,-0.6622226724205983,0.09434074469779767,0.4463553302429937,0.4316486012656132,0.027634955832112604,-0.023683522930300918
2360,-0.6839154009695021,0.07204914551717602,0.4265835077635592,-0.37036396616351785,-0.7061023785865527,-0.6703237896385136
2370,-0.7016607259215011,0.05459167012519599,0.411818245966899,-1.983012389682865,-2.237099367065372,-2.728652828696824
