time_ms,ax,ay,az,gx,gy,gz
0,-0.7282714616508478,0.08846016461043961,0.2320779293079096,2.630418455295697,1.157623655217345,2.157186753751957
10,-0.7196423591810153,0.09791840902118046,0.2484939937034289,-1.002011905108375,0.888993177278227,-0.18232305178251873
20,-0.7065494762758519,0.10533246271619524,0.2585992234954725,1.955390230947037,3.86014624058752,2.9006067007129595
30,-0.7325465197084003,0.07603763467713519,0.22811731169687893,-1.409947553196926,-1.0329907012238801,-0.8763948822003863
40,-0.7472254822630113,0.06336621651658907,0.21215300500865503,0.8567085653982307,0.41744350567484034,1.4644966315814565
50,-0.7241659296152271,0.09284810452014411,0.23531946789627392,-0.1628522094030771,-1.0013528205838327,0.4682475122445915
60,-0.7484221357747761,0.07244968179578946,0.21047449757151818,3.916718174343548,2.99175251404116,4.390094783017414
70,-0.7200746343215768,0.09543169345482633,0.23958277361305136,1.0041212244597177,1.4052276712536245,1.9696116076085473
80,-0.7026919376579582,0.11022189184397424,0.26123921679829953,-1.0845379322784976,-0.2667210509225606,-0.6934314665265049
90,-0.7106473064954589,0.09974708577115313,0.253771071444871,3.5695788649654414,2.6817297427859628,3.0761748903391246
100,-0.7202330965042022,0.08739148751399911,0.23497521745378896,2.474587333629051,0.45259237786419354,1.8740857447840809
110,-0.7047760831999266,0.10396087914253917,0.2535632186191335,0.952418163488882,-0.7395016829345953,0.508788465133664
120,-0.7305109996848439,0.08436019791062095,0.23454267118305125,0.9986679159632458,0.4592977450982946,1.2676632116864885
130,-0.7290333349016497,0.08852449845656057,0.23402999082063639,0.6364737811470014,1.182526095866478,1.3728036356786724
140,-0.7202625905945423,0.09525595588676027,0.23847288560594784,-1.6321395794863114,-0.3192377484010501,-0.8560181995315229
150,-0.7352256250982413,0.07920447439671624,0.22788657797131387,-1.9133672701433353,-0.20704141790952654,-0.9543030138603166
160,-0.7078575591722529,0.10227024289105341,0.2508056924529808,-0.06281515095123691,0.6922351340206565,0.7311305230525601
170,-0.7464846521873353,0.06696827211093109,0.21754948902271218,1.2594194558649014,0.15047639746422908,1.4097249177857833
180,-0.7176301782544527,0.09863510831251462,0.24407996914993327,4.869546599568116,2.829143836146078,4.273777773271099
190,-0.7412096035322043,0.07607438139424068,0.22546559355335394,0.07029189402816449,-2.674349579590019,-0.26006459621093336
200,-0.7460995519156529,0.07529024770420906,0.22889904882394696,2.6950118472854463,-2.1315082797445477,3.158101928913422
210,-0.7571081601328359,0.00632158551113466,0.2872957055594789,1.4256179868609995,-5.634509209519153,1.8784973420982598
220,-0.8041114165207031,-0.09669318251121709,0.34115695218347075,6.192646387921074,-14.156902947861537,-7.967195682834934
230,-0.8477520963332823,-0.06084540596479381,0.34604239127477227,13.595770633674835,-34.41580157468708,-29.47393574605509
240,-0.8391862768904339,0.12764048551038668,0.33820685769116876,24.525552181717508,-41.92709977945078,-26.932489137179388
250,-0.7763985957857501,0.1108584799003505,0.33238991465264883,29.39632174944526,-52.98691595566983,-18.104473720347727
260,-0.7383433341367645,0.05772066156739316,0.3674238198997271,35.17806779399903,-62.0525575752034,-13.265061635315428
270,-0.7333938669759859,-0.02760951153428772,0.3707187152220612,39.15516799076077,-72.53849928926473,-16.78269821443538
280,-0.6059138012563559,-0.05401664277074331,0.27700225280849394,10.92195937207578,-65.6408276727885,-36.11912329850878
290,-0.5424460974890868,-0.03626548053811094,0.1911924718860243,-29.86154224028038,-51.27798708383815,-48.85615302612726
300,-0.5674611627069758,0.03212472503702392,0.1940468308290834,-73.4821191370708,-39.93075580211557,-55.76948099231119
310,-0.6343445606365564,0.09922304480391246,0.2249046830011671,-85.78645195351409,-27.85717156691729,-53.031159133680724
320,-0.6532488655276132,0.13599156398520504,0.2615662913098093,-52.02019736561292,-19.447558047872324,-37.95754444688365
330,-0.6487644322856473,-0.06076210058202215,0.17420897093354634,-118.72557571947326,-8.598605249239723,-44.605535876621815
340,-0.6653261031807894,0.12555095523370796,0.26481176093283343,-118.61559148255817,1.6678452344179044,-32.924186130923395
350,-0.6931008664158272,0.10710524360906724,0.2928873352633609,-74.18172569693012,16.294995591888924,2.3052383356506
360,-0.7018633797798439,0.09303585896914744,0.3265601422763604,-51.94497571522444,23.1792778281965,14.865334150934311
370,-0.7332366998087014,0.042391654713664365,0.29897746995637087,-40.48449568503049,21.78164797068721,13.416353699563327
380,-0.7310064209403015,0.023991250514263696,0.31864853908910895,-26.914393627756407,23.571927750366346,17.98973205429138
390,-0.7866387817266325,-0.04625765052667649,0.28823534914491566,-19.99538547157419,23.64501794076048,22.649966469386055
400,-0.7545492095032625,-0.04248369489591461,0.28852497262177074,-19.595208108209764,20.09706998425273,19.934308111140446
410,-0.7188359034460958,-0.05675638709842561,0.30939192323899944,-16.365990416481583,18.88408869025093,16.477746750437266
420,-0.7199189501423924,-0.08336496401059197,0.33408134864694716,6.003805926299432,-4.654907370284254,13.027044051157091
430,-0.7133113956159831,-0.01650112041975222,0.3375620018708818,4.971647957847144,-10.139688921775875,13.804560361208829
440,-0.6894477752950986,-0.05110188261998591,0.30898155424645785,11.694024170721354,-20.01891750073162,5.21119590236424
450,-0.654918079965558,-0.03381753182147145,0.3732753530491113,39.0317868151684,-28.629765666233023,7.283075798339282
460,-0.6210368485933845,-0.006975469686015335,0.40932108194803213,40.988829181484554,-31.667693189045597,4.853604224946517
470,-0.664842622543319,-0.0926266945685683,0.2945573639839985,35.18602866005174,-30.315162039239365,-5.48100330387328
480,-0.637263696221316,-0.16154264705751345,0.2898132176993703,56.22727869989958,-27.05827734830675,-15.442411121291766
490,-0.6500748266737014,-0.32484942118894694,0.3867939176772829,37.71641488700532,-26.829639282442237,-39.69689544718256
500,-0.7395585020914648,-0.0028128626682046537,0.5064473568032617,50.59811881085472,-27.11310930437497,-38.87924055189959
510,-0.7284596073119384,0.09968324578264169,0.20216856722148924,27.00726042417927,-16.19654781133625,-23.059299055183068
520,-0.7837042866478022,0.21764599696812498,0.23282944073410036,26.752983488128972,-10.028762302687383,-12.198728879942143
530,-0.696256120756567,0.14374519141137554,0.1790764023979502,63.84355595077794,-13.952348830701855,-20.74438094603782
540,-0.6676421991291247,0.2331620052539878,0.1615967924512529,74.43994465379964,-5.822942104990441,-11.58287170635254
550,-0.7126913916039453,0.2667978825653842,0.25669687960961435,64.43302000649278,4.509846358829032,-0.9238151159631378
560,-0.7128225331924459,0.03916133265249429,0.3417995885307663,57.31390634602949,8.503867534107911,-6.720574049700649
570,-0.6790425454520963,0.024713391700686416,0.3211067771285616,18.079510969001458,15.841217073798527,-4.483402119289265
580,-0.6835627185618944,0.07153625204972797,0.38807195824207613,50.74845865827951,21.664782200341104,8.03416045032478
590,-0.7235828281576773,0.06750853150855476,0.11780035226159002,35.591499264878124,32.155731684267,14.544826066512037
600,-0.7172017593187507,0.12375121766655867,0.1737947484376788,30.02704744179837,38.06459444127164,24.511400393932025
610,-0.7269757324997376,-0.05814995950124253,0.5018720025287855,31.353602489810864,40.617288382382874,34.72933384424772
620,-0.6749399170080326,-0.05238780409337985,0.4713974740492388,23.296575240399946,41.33867336072115,40.86738110406149
630,-0.6075488445789405,0.10524668758053884,0.2734738489368483,12.523319753127524,34.61056651769203,38.70329382591402
640,-0.6908890690223128,0.06305650225099714,0.3321769452744795,-0.032390161144555396,27.267994242531437,34.36691515798383
650,-0.7488924748885892,-0.048916819826003564,0.7085629897655384,-29.104768852146524,16.139835582621977,23.541182077230143
660,-0.5659486571841504,0.11621567451566914,0.5869447314562778,17.369355821748634,14.124251736876278,34.032576865882895
670,-0.774861720036004,-0.13697212586250132,0.6624600781240945,-19.064662034156427,10.204837916220336,13.535565734800848
680,-0.7099556195068719,-0.11247395326233561,0.5146059409261994,-36.01754429089935,2.3149362895552312,0.1433121645732075
690,-0.7082410075447236,-0.025919403883367918,0.35957681537307323,-11.153434402040293,0.04079231750653867,5.927345782039983
700,-0.7000916737883195,0.012539518787886375,0.4001182964567789,12.459194959439222,-7.170252845453147,12.794025377040105
710,-0.6484101096498313,-0.13482049894213385,0.5085737527945848,37.1618139083658,-21.89830857575129,4.7727334591616675
720,-0.574794105763445,-0.2709690647025822,0.4295983816040966,43.987471573635084,-33.290931769098385,-19.005395336281275
730,-0.6261188670289966,-0.16564750885075036,0.12929594024600174,37.99327895557353,-20.311821575136833,-28.374793035456154
740,-0.7094227060556002,0.14658651598021727,0.26486492978442944,83.50171483605047,-12.36178666793886,-17.849375001528387
750,-0.6950748233721137,0.11767529958294418,0.15202081579488153,71.31074997195718,-17.003754136891118,-35.294999487187546
760,-0.7003748522310075,-0.012483497211752678,0.05040753238165493,2.5848895882042644,15.0189012604457,-32.308564982230806
770,-0.8066132171749804,-0.06519830611397111,-0.05925780018982639,2.70415584229489,28.97393688718568,-14.194885967035415
780,-0.7794769444267038,0.03872529241371651,-0.022315053181770413,16.91527678759718,35.72727674521665,-7.534774983130494
790,-0.7214150899254911,0.195687989427111,-0.09166424794657109,17.674064921341348,47.78343745812872,-0.7073000909866732
800,-0.6568225129930692,0.34278893705957203,0.1599648370447301,18.41954677015767,48.58842461233088,10.098229221487657
810,-0.7548130356576224,0.22074730313393853,0.5640107734614268,26.511943675700046,40.08340173349502,21.781944451606822
820,-0.7289096837858415,0.16546588158894332,0.3112724489972614,-9.031858314993354,43.337966686416074,21.670242527557694
830,-0.6492601486387142,0.6075714317192256,0.10859940479648983,-35.801044786279284,28.767194063503883,45.760469050778575
840,-0.8492860992756999,0.010438615133361927,0.5311097455094577,-51.21603586946842,15.025485057205767,28.469733053146633
850,-0.8899095748014654,0.15577156478503768,0.381500135112838,-125.04092080445943,12.418028079043868,24.910330561992136
860,-0.6553904739046763,0.22005977137343016,0.00859444597004692,-86.85827426898675,8.024702308031406,30.197534783736153
870,-0.6581712369107839,0.001138599334635719,0.052377699893473864,-59.69761027219272,-0.28421690019546636,15.374459738159501
880,-0.8421469544991761,-0.2456671185911754,0.2832235763130451,-59.30302715357768,-1.0953001029687952,-1.4140262673412427
890,-0.8080879291585913,-0.15626113714793805,0.36964375392603804,-40.04436407413941,0.1834122640067395,-6.484148049508507
900,-0.7348637786247125,0.026091107386502665,0.2440101479297934,-5.156377118926075,-3.3153410347742187,-5.389801242844338
910,-0.7156151990884675,0.0363933627100285,0.24773569899842296,4.838460312174368,-0.6809169119201748,10.517623598331994
920,-0.7361826351532139,0.05727461451275452,0.22634903540513057,9.213017457038328,0.8003830162554257,19.233716855242434
930,-0.7255457545136633,0.07094087615877089,0.23121667038240498,8.126073158621434,-0.5491799707614056,19.928146456166893
940,-0.7165035219504586,0.10804614549196259,0.2543886340815966,9.266925578482562,-0.11137991990879992,18.408405636442218
950,-0.7429966035817391,0.08936542778849471,0.2363156706612831,8.624662748589214,-0.5278370951693454,12.445998952524794
960,-0.714384263351181,0.10988166517507063,0.26007351561768655,8.890229898379836,2.095443637207268,4.970225515884865
970,-0.7324682039542321,0.0830840879320698,0.23591993836034747,1.274947316078114,-3.472740186803505,-8.713592219522564
980,-0.7027686144481401,0.10296644326967225,0.2689199117724734,3.6815362513288,-2.068474894320155,-5.873494629132209
990,-0.7543246641834637,0.04936786123725386,0.21955637334597264,5.51203504144344,-0.2754063925179596,-1.6161673708074735
1000,-0.7395668315580798,0.06233194753486494,0.22845811968352206,4.254448823689694,0.3783548410209023,1.9440925300800007
1010,-0.7148836112056002,0.09604155611292295,0.24905581230446744,7.627800567994562,2.32069514016289,6.997272555167047
1020,-0.7120723910009518,0.0992697784498271,0.25087737884244904,4.470136083789796,-1.6175857608510995,5.4039883898845735
1030,-0.7272412234497851,0.09348979640261468,0.24177556866974217,4.134857924123176,0.7476880318982967,5.066052681622452
1040,-0.74867983035913,0.08078274714394665,0.2254004463048287,-0.1351763947455734,1.1506281865497139,0.9966999265142303
1050,-0.734723550222609,0.09190344225173269,0.23652534373639353,-3.255404211946884,0.14958826458321517,-2.652751608556253
1060,-0.7292416681774622,0.08874559850817462,0.23170369354020903,2.008180406497371,3.2659313439023765,0.18441268243616604
1070,-0.7346507080902027,0.08577895940342337,0.2188332163354967,1.0330456286002643,0.47613881201088193,-1.7837621035252906
1080,-0.7266671453794248,0.10136207803153495,0.25841718523465984,-0.7976525785960649,-2.657432490684356,-4.613881570775131
1090,-0.7176794445110232,0.09549820010079708,0.24656457231360365,-0.31478822351535557,-1.335106826484448,-1.7329112469616694
1100,-0.7226601932551118,0.09109737612831063,0.2460202933412043,2.2653262519321147,2.35856706158518,3.879859456095774
1110,-0.7535306178276805,0.06386649783457155,0.2216512762957062,0.013189570206774776,0.31234385444962903,3.065568321686614
1120,-0.7427007850638953,0.07602695941021796,0.22869176969328783,0.6498821984728977,0.9214906453250555,4.015859582161304
1130,-0.736211008615603,0.082415761229313,0.2290357671717589,2.1807062796607797,1.1531307096801404,4.7142376598250735
1140,-0.7244300410868478,0.09605835185188141,0.23903099728340796,3.9540700908092363,1.004497795368457,4.969436853279123
1150,-0.7278095629201818,0.09731029918428225,0.2335252484938689,1.5188098476477394,-0.5763680476987884,1.9389307986910334
1160,-0.7325536766998799,0.0933131606374909,0.240855383173759,1.4579239228275696,0.7966827852635072,1.6260390174795762
1170,-0.7391650806532828,0.08205101845150477,0.23494199712512473,-1.0863586944624968,-0.14116505653382308,-1.4428752847368151
1180,-0.7338791666865903,0.08243471711126099,0.23324419900703663,1.7005061053802386,-0.41482982660888174,-0.3433090978540702
1190,-0.7057841606636165,0.11078585152880856,0.26059246164184324,2.7858496670803365,-2.2342468267783024,-0.046534897634808114
1200,-0.7336356104695384,0.08637616393001005,0.2329070833575809,7.371314331781039,0.8222939029775891,4.559811980355944
1210,-0.7246503904253255,0.09764260200912868,0.24120264119845136,2.925155261614372,-2.6236059183554747,0.6657551915162407
1220,-0.7180088756048517,0.10520890283408152,0.2507637687509014,3.0295741769472464,0.3385047968035173,1.2279260296497256
1230,-0.7374666646245219,0.0869721556133455,0.2376423930958437,2.533246091765627,2.5849950716247263,0.6140854633153388
1240,-0.7331452152469654,0.08627120336649254,0.23540519376134109,-3.787441249909878,-0.9807416346004723,-5.583634312589235
1250,-0.7309298574482569,0.074687466469377,0.23616293466993601,1.9998060484009095,1.5991548867180916,-1.9555992086950056
1260,-0.7304941193657154,0.0859561195389876,0.23872980780409242,2.7689985556157235,0.9060986098580154,-0.48379735960298387
1270,-0.7251788405754144,0.09972981539935817,0.25077700823200233,3.5088564753431615,0.711126684654763,1.2669722368602578
1280,-0.7168682465961586,0.10297441388056557,0.2535617061465081,1.6999119978356148,-1.209158377214996,0.5549231387979972
1290,-0.7498289929285474,0.06725019085909248,0.21095714765629134,5.477435254133145,3.5483017034888595,6.003020028555586
1300,-0.7170834154692933,0.09903139893858982,0.24057752787786002,-1.3019232518548254,-2.109134010830299,0.0896212403380563
1310,-0.7066949786563971,0.10260748055406517,0.25341787132156673,-1.4128783519160404,-1.410812320449788,-0.8272538921018935
1320,-0.7118495968661235,0.10386823050197036,0.24989868271822785,-0.9668818688930327,1.029172838424531,-0.10044475852033923
1330,-0.7455109414791481,0.07830555896683676,0.22811326969626403,-0.44482290544796577,0.2803788241872611,-0.9860339173420473
1340,-0.7259409985469086,0.09097176911766011,0.23756109676738818,2.3374730194039692,1.6842639245747602,0.5155181712650128
1350,-0.7490883728891871,0.07140370069136039,0.20375520780299672,0.8487814101684709,0.43640616075762784,-0.5592999660738406
1360,-0.7447113220081302,0.07659130923810184,0.21678738736784106,-1.9453990426470105,-0.4433983937654604,-1.9955305557784908
1370,-0.7427329870539092,0.07898514605862121,0.2292084243886093,-2.2148586250042217,-0.7288021893777838,-0.571331365375453
1380,-0.7374136820493937,0.08667689813608119,0.2368984095707845,2.2204447952200916,2.0167719351755773,4.415486792101462
1390,-0.7461487610203957,0.080234702612203,0.2239776891666152,-0.7781740105645896,-2.2271153458925284,0.23768218132852592
1400,-0.7285164433574882,0.09698308365790312,0.23315855727548068,3.055434831404015,0.6456393189837026,2.662357744422657
1410,-0.6983815072526296,0.12112399326514388,0.26616883282858006,2.848113431412254,0.3583689531058697,1.2687879748858464
1420,-0.7229881534759623,0.10029267115126998,0.2465355117465836,2.4480943662961203,1.313876507499427,1.2441559167094356
1430,-0.7284110990824112,0.08754618425511017,0.23347115597185286,-1.495955878798783,-0.937031275124121,-1.4632438244203194
1440,-0.7116356188253741,0.10953855328477227,0.24665519673467706,2.190594902862367,2.413714553785132,1.8645305118508047
1450,-0.7192775140769373,0.1032407032751275,0.24081874740265893,-2.529036298339094,-2.489879022206096,-3.439073284847046
1460,-0.6844075770177804,0.1369437110403272,0.28345121887511304,-0.7066072730466706,-0.5579434720034897,-2.0896221240331885
1470,-0.7400316075285288,0.07923695212409435,0.2326567983745349,-0.9958127808833392,-1.0876374438705312,-2.7699287242464905
1480,-0.7095086668858109,0.10076639588617668,0.2565574573005082,1.3357584704854233,1.1886344634807318,0.013973117388862422
1490,-0.7324349518012377,0.08050359236064894,0.24077216318336828,-2.0383227429169852,-1.3074629022574298,-1.4681868626941665
1500,-0.7224659466782054,0.09687274814930387,0.2539604024147594,-1.2156315383226861,0.1377624502068805,0.5222874862958388
1510,-0.7360854565543512,0.08583697972959968,0.23222686835198147,2.6893575249716313,2.7502647160624756,3.592538046999844
1520,-0.7100816866368346,0.11148061559985778,0.25476866334026804,0.38949917370088705,0.48489854703001256,0.8936373779779178
1530,-0.6748379857310384,0.14482180045248905,0.2870446637667303,-3.7539939539636915,-3.3052887482650046,-3.457585618580797
1540,-0.6978080900005592,0.12381947853606101,0.2714559901016376,-2.161631957924779,-2.863910701189294,-3.237011884827785
1550,-0.7295968536553425,0.0926755552574669,0.24566907714762182,0.7084232010152024,-1.9224379202832607,-1.5778630679523178
1560,-0.6941341150845283,0.12105419652714394,0.2704879969055266,1.1342188767202823,-2.013359782343516,-0.12653841062522253
1570,-0.7301173791323675,0.08424436310649452,0.23612355433787677,0.27697388331124295,-1.890612837532265,0.2209553543256897
1580,-0.7369880715601614,0.08320732518906798,0.2264332190262531,-2.462681505425948,0.012588255015885341,-0.10898272214184512
1590,-0.7366101940111126,0.09443213703876993,0.23794577843664264,-2.475385153885842,0.640233910852668,-0.16017490804659507
1600,-0.7299024227727611,0.09825652741443626,0.24475510477286744,-2.970295818195649,-0.16211304289018758,-1.1958564971404835
1610,-0.7322578126390046,0.08929195792729314,0.22801459283654193,3.263937882288199,4.218863656743363,3.9721553572077912
1620,-0.7304153645727691,0.09155427863775006,0.22910447355955935,-2.2345232243895348,-1.3481856015677538,-1.516256118892504
1630,-0.7458560729625852,0.08164935013989523,0.22690082652271018,-1.9879697050002525,-0.26965043246110787,-0.7016302202462392
1640,-0.7340086143250355,0.09364119671689643,0.24125915867171066,-1.9529756814051242,-1.4715692916309293,-1.0943820836469256
1650,-0.7253029279288296,0.09377397798485582,0.23513591234019598,0.8186600166285158,-0.8856737118193249,0.6057402812512851
1660,-0.7347216669207949,0.08813103906513184,0.23768276397988594,-0.6884389674735314,-2.209013428701048,-1.287695544786665
