time_ms,ax,ay,az,gx,gy,gz
0,-0.8476481663050109,-0.028968924736168803,0.5301638476834973,-2.4260638454210834,-2.014629128093604,-2.9142754684549645
10,-0.8350882738577676,-0.017385814365771697,0.5417474885082217,0.5796809674273091,3.047563561079245,2.2410692355315627
20,-0.8654016760669007,-0.04701048462059189,0.5082666724777132,-1.604272345097892,0.3170745382470811,-0.07959466647807378
30,-0.8465824096464775,-0.03332713369825337,0.5269412894836505,-3.852745105679851,-2.31703644492382,-2.0389085825401208
40,-0.8416860062628162,-0.020689047491739408,0.5331693151842344,-0.028424643567323327,0.9735186431714935,1.9444691643140433
50,-0.8282326201392314,-0.008864002333795404,0.5479320793601747,1.084777839619048,1.1582875214757913,2.273875501810111
60,-0.8480454285626503,-0.028193624472070553,0.53037119400936,3.534379739814151,2.925227953387893,3.462499644241838
70,-0.8488587317588618,-0.02437576312275084,0.5305758102368924,1.282672471465951,1.6482170955258202,1.1623250712491244
80,-0.8346591009366275,-0.016698331737824236,0.5421453500892627,-5.223117255527761,-2.8027611096909766,-3.830693716657297
90,-0.8341621794280571,-0.020740181755897084,0.5407101702934801,-4.090154035668615,-1.4447362848208434,-1.6455872677831824
100,-0.8532542512494126,-0.04698656020827543,0.5234152588832258,-1.2831352464070087,1.076615188801629,1.5890260294250715
110,-0.8560378093640809,-0.04058016855578199,0.524295106598544,-0.07703927996442922,-0.09016064253681294,0.8240844536937614
120,-0.8803523086170134,-0.06484622179782637,0.49976626394858514,1.0511300432965742,1.2129132361643047,1.822831649301273
130,-0.8456074595764373,-0.03244834814799656,0.5292522874183972,0.578654483221158,-0.7908493341192071,-0.2554510206019647
140,-0.8452354883309481,-0.030270849767870724,0.5304342710414328,-2.2207123732518825,-0.5003283457682353,0.10885673344871061
150,-0.8422441329322865,-0.025357130553013273,0.5329762267237901,-7.082307969196766,-1.615694865390634,-0.08075143505009263
160,-0.84547754362632,-0.0378323070453458,0.526560019760381,-4.986208472597897,0.13701330660897398,3.21556703244775
170,-0.8310944923629457,-0.024420771356183736,0.5433160644013587,-3.332072251918735,-2.6273111474983573,2.231077014656076
180,-0.8349888735742231,-0.01767043080951035,0.5439201858726591,2.0228661926496785,-2.2921741234570896,3.9336991420401484
190,-0.8492894525807934,-0.024068548221454,0.5325797745695374,5.092997502378179,0.08262121443575199,6.37581476388011
200,-0.8822476459756157,-0.0509574246882807,0.5083850161035827,-1.0072984496584678,-1.2413219305649064,3.6406062295478083
210,-0.8675672656072209,-0.060170777783859736,0.50865575200296,1.6161904995754846,0.378534162850094,3.5337962123023523
220,-0.8616512024367989,-0.031541858919660826,0.5102844722248391,0.953522155468773,-0.8635077619030864,1.1284373346927565
230,-0.8088385768741876,0.02518390649207762,0.5656653739605045,0.4521762208308884,2.858126524371945,2.301986471121291
240,-0.8299053646360585,0.002052903742169869,0.5496367940065152,1.6978783720986106,3.962584959622605,0.9050599244590096
250,-0.8724386341093747,-0.05264764067317085,0.4995008786493357,-0.6773805023272763,1.967132139058363,-1.684082964151859
260,-0.8554019358738241,-0.04410054313145305,0.5144597937670293,0.1833114575263276,0.914938978586079,-1.5955431472345047
270,-0.8434514605137892,-0.02122009241050484,0.530513130689589,-2.609595276039628,-0.1571427823349255,-1.563106732442058
280,-0.8503702330502574,-0.024486216583328075,0.5263968482496418,-2.720957467405442,1.5220329581785332,1.0301960617919637
290,-0.873691555015879,-0.05648667691460379,0.5030202298512637,-0.9272953209844652,1.4080654734477283,1.9699061856242055
300,-0.8456806935439636,-0.02554749054770477,0.5312105812347462,2.2202906406829515,2.0878863900055418,3.7076928881169526
310,-0.8454135417049825,-0.01848748827245019,0.5324506930432727,-0.5202729466169806,-1.9007107186676313,0.8160005493276694
320,-0.8206121320044407,0.006997906097296221,0.5592975551109334,4.058244456575433,2.9298863377774014,6.061360755565396
330,-0.8639312132109566,-0.031748992615788625,0.5110263079427241,1.5954478981921323,1.1892222366052185,4.340656338825438
340,-0.8706701435057588,-0.030529133440230675,0.5151057574851785,14.197207304073563,-0.7476092279264713,11.886205287466515
350,-0.8689926035836916,-0.011377633893625451,0.526700949022073,12.329490899107125,-3.4705934964188128,10.368599240779256
360,-0.8987753493272447,0.015563475103441332,0.5588895544823937,9.997363396984623,-2.0761382836080973,13.01183321282503
370,-0.9289364425564338,0.013541711765872867,0.6092598157073951,24.450651874395334,-9.23850836542872,20.306498073728896
380,-1.0199054332874815,-0.13445300308126654,0.6987169925531632,32.72368870990786,-21.402523393762692,24.393780309056336
390,-1.030459010445002,-0.27132387635225613,0.6981967767815069,32.50956450396455,-35.17822488786332,14.846525965004664
400,-0.8142123657100321,-0.11246699056326735,0.6031326339473136,29.366195475360428,-37.80032303403885,-4.617380482406673
410,-0.6275579686702033,0.12414089212452606,0.5216654187008146,14.942614832648397,-27.861075355401198,-19.54868145724501
420,-0.6376842740153266,0.11424101229082306,0.6123991716583398,-4.756213217251434,-24.22990896010014,-18.940688584623988
430,-0.6768864879017035,0.1566831193343175,0.5500244869790744,-13.691102772804923,-19.46343406367243,-16.840548491433076
440,-0.7093699180820042,0.11109178107703117,0.5501073851624335,-26.456154583926835,-12.318000389640627,-13.984942277009203
450,-0.7753868809836011,0.09306397848070175,0.601323813776339,-28.09728646481086,-14.92848832444973,-15.650491869275804
460,-0.8441412133654322,0.12077952461276892,0.6241665938100798,-49.13144313340797,-15.309585197205957,-19.141300399672314
470,-0.7777269006238625,-0.03149114078679549,0.5919861498305088,-43.804025616281315,-3.4044957058728365,-7.3348405079519585
480,-0.7936269818390466,-0.07353794453874393,0.5404659945990519,-41.37459103980345,-0.4040854455423841,-9.790428611741444
490,-0.8643160024293226,-0.037149219457209635,0.5699800706731537,-43.786097279292946,5.295043052586275,-7.932949442276065
500,-0.9173546441416758,-0.07810624578534886,0.5842380924894658,-45.62432224440449,2.4613843453476094,-8.52142387920854
510,-0.8382579959391055,-0.08098007684418508,0.623853177174745,-37.80175391813817,-2.1652571487299834,-9.246145038632186
520,-0.8221897904576062,-0.11907646434093785,0.5945370755219732,-32.494069142888904,-1.7851486681091302,-7.772959827892098
530,-0.8200324447738627,-0.2008124570947978,0.6398055978545462,-24.937831484418023,-10.013181309324423,-14.528791060605586
540,-0.7152423357908722,-0.35552384993315617,0.9208231235025169,38.218551999319686,-19.02511328774664,-18.00706154040362
550,-0.8088481583338157,-0.37672755097727545,0.3717018137740638,7.839648910348811,-11.830901276099638,-19.750092082440762
560,-0.8673212958464959,-0.052505267979506415,0.5409263212106167,28.156174482082417,-12.415398177423437,-12.998961272044603
570,-0.8456475434719859,-0.1849432762456543,0.659999650534961,10.308864655815768,-13.095327697560023,-33.7204905602269
580,-0.7488967718998072,-0.24528179248451987,0.30096466161937613,39.73804871886321,-14.567952275196834,-26.299432342620687
590,-0.7000538689863285,-0.3826531245667753,0.3645195883465585,19.870375982561995,-8.529112379473535,-31.69932742266493
600,-0.9519616787862331,-0.01845944997145203,0.6468595977917209,36.72522844778864,7.106025375432239,-19.126366992718637
610,-0.8999687148260742,0.18297847721801408,0.7561289423689196,32.1776896818949,14.47460070861907,-18.809051099619733
620,-0.6782062964213849,0.17587183921670976,0.8041303881399287,18.88027176443992,14.767805044828316,-23.08999986482216
630,-0.8473574639746418,0.39875925344002816,0.9056905287256605,39.56457397673442,14.181418352021435,-8.60367956499023
640,-0.795682326257829,0.12865794697239447,0.8177445440748536,-2.193339043776054,25.302243494268506,-4.169448504772555
650,-0.8581706804299852,-0.005312287357182633,0.6588581431365886,11.175278248838465,28.7914575991161,2.9939469216930754
660,-0.8127054108547292,-0.00927843672990071,0.26216075951800655,-43.91934077433614,39.78481983648477,6.44715754870534
670,-0.643993463861675,-0.33853333642787775,0.8877583155513381,-7.148720912799567,19.962178922890004,16.604016429297587
680,-0.8632313398793363,-0.009260848103097907,0.5321500346813766,-13.32431526920038,13.9759828804944,17.657311805810217
690,-0.7477097546859715,0.19597616859489644,0.4825826465793132,-0.27002971064814485,12.482801606712792,38.36264795400479
700,-0.8299892768458261,-0.012733831354072623,0.6961372013374056,-34.397594138316705,1.7204677410758744,32.29082134753044
710,-0.7694819215688228,0.05678183450616177,0.5232192088464589,-14.787877128519213,-3.554754985971959,35.59643828857046
720,-0.7546027751862127,0.05263041514289643,0.4800856611215406,1.1985859005485404,-7.601636390878649,27.91898097590125
730,-0.8390209986477406,-0.2526173576443957,0.6336542559149724,-9.443717219074117,-5.538113655000975,3.4569700738684475
740,-0.8373687947202939,-0.3909168855979059,0.45075987064458717,11.47130914102862,-0.05986583595601047,-8.71391095748393
750,-0.8288569201075067,-0.1852897145386584,0.5238050272021249,28.443943184157817,-0.7385218383180543,-2.423676778818571
760,-0.8545269502755257,-0.2874511114122614,0.4582744313896492,25.999706443451373,-1.1867428480479583,-6.935005921467819
770,-0.8822345187378854,-0.28349220705046924,0.5137684687455344,40.614336192227285,1.444707865572643,-18.606550318843674
780,-0.8831210245136796,0.11263143389717667,0.577022774469049,45.38364445941,6.851397902255825,-18.050643228459215
790,-0.8403534707476892,0.13164794973205834,0.5698993241679411,40.69811091391536,18.20749735357107,-18.106554140857018
800,-0.8417379434604331,0.26998030139630985,0.31816850099938,4.522369019254209,34.18867701971109,-16.60316965919574
810,-0.9206213125236237,0.3170233890530283,0.5454503767120288,4.946644167378143,38.782191938911254,-3.2122092432608413
820,-0.9908525439363267,0.070158297062876,0.65565206911396,4.344627720769531,36.19182113400518,3.851499691720437
830,-0.9010174634522358,-0.003175561130877501,0.5630249012170275,-1.6559476316671669,47.32704971676006,18.905237598498143
840,-0.797922439614143,-0.026034961226834363,0.6140770751158252,1.0089064431542614,47.84586600434379,30.615257766973286
850,-0.6979762912380637,-0.32650070155047456,1.0244091225799516,12.494088552939465,31.40193736925543,29.66599687721483
860,-0.6914962535319241,-0.5476590091205872,1.157893271921987,-17.517919042459425,10.570794172794324,14.945809277601162
870,-0.7437920743147631,0.1348918343980729,0.49526370992587476,-50.62029386713703,-4.1585914172408405,23.172314219275563
880,-0.5806182027984682,0.4551956263808756,0.5861852218626313,11.251234779801614,-23.718165038532515,25.418485005583253
890,-0.6047156024745832,-0.030504593130919837,0.5082355791011282,5.161078283534788,-19.1607784256466,24.521371725560414
900,-0.9103564717237602,-0.30386176881980315,0.7309230596514483,-35.76042189349758,-16.9715739490761,3.698622277975334
910,-0.8493597749005912,-0.4652568884651712,0.7179430070717304,-20.640056145187483,-13.559168188642495,-6.922277445987159
920,-0.8577380831326993,-0.4725111432965379,0.5127398619732398,0.14709244793988407,-0.720364624532575,-3.0450291840607258
930,-0.8631536483917704,-0.23187563563979038,0.4773720200270562,8.03124546599994,-1.2251000246422745,4.099674968309258
940,-0.8416918986096972,-0.040663903128315804,0.5355460577528217,9.807053245365157,-3.946022375467226,10.407296880949058
950,-0.8404592468155537,-0.028792023769748466,0.5360508448820671,8.648262393107657,-0.009327560910455723,12.976527782375921
960,-0.8389929295494875,-0.02358332735083407,0.5328874961801957,3.256882525491699,-0.14368989263403598,9.244120898590387
970,-0.8645676818868856,-0.04426211034833033,0.5121930040687972,0.02468334568294628,1.6090919954666252,7.188584537803612
980,-0.8335531646305118,-0.018139534179729695,0.5457643221721434,-6.26384894274521,-0.7569179142307514,1.9199122292858175
990,-0.8645909020513317,-0.0703393528617098,0.5065582528763093,-0.33458899919829044,2.8704064437816994,3.55492886844905
1000,-0.8396909536725129,-0.049436643730825146,0.5335323472260214,3.789222359988192,-0.7907682852697865,1.6831307116014376
1010,-0.8562926652896292,-0.06607789785633675,0.5196683972205794,4.950541751256382,-1.0172121508875929,2.3861543636052334
1020,-0.8502311631070418,-0.04675366234539344,0.5215699746030386,3.2720857495926396,-0.39094082402363195,3.381226746132796
1030,-0.8491076806798453,-0.048458760143251914,0.5261120785371409,0.9611444366291624,0.6352228132037461,3.3999441198394798
1040,-0.8422251462516482,-0.04714916715942216,0.5289228272803804,-2.1024591589819597,-0.8935765978210135,1.8221917249740605
1050,-0.8408407582710374,-0.04598089602241333,0.5287124909609071,2.0590091096446184,2.301966734649609,5.522199751407925
1060,-0.8726252342031411,-0.07341174653003671,0.5030282183122039,-0.24893390089153933,-1.3673969624924531,0.8186701311855564
1070,-0.8202965081652339,-0.013101800066439271,0.5580601159570917,2.6179112113652465,1.5991844622612348,1.755944593815163
1080,-0.846804246396606,-0.03657665809827448,0.5318323805108178,2.508048864953639,2.197703009998975,1.8574081538802214
1090,-0.8513704929535066,-0.0500660384732721,0.5171874115833964,0.5366470961716451,1.2021892522705384,0.5427189972664334
1100,-0.8556805856119143,-0.053396520239054994,0.5187670104142461,-1.4557792236409286,-0.116540422771855,-0.5213528674357959
1110,-0.8672362375100349,-0.06677703383297667,0.5077136529088262,-1.45965349615857,0.32944988113316986,0.02333835437547993
1120,-0.8781718455229428,-0.08002559197500644,0.49533460935273443,0.11747002315337685,0.40471934338650206,1.7483947350947162
1130,-0.8349896265663955,-0.03784123901892203,0.5421941867407454,-0.8400775248127907,-1.0080509210119428,0.8973099648989361
1140,-0.8428688711280825,-0.04339588972713047,0.5287601914252867,-0.3179010619105556,0.32333816654025815,1.625716845286069
1150,-0.8487884453055715,-0.046114527785962076,0.5254508592152654,-2.8912063476103382,-1.9212498053649043,-0.8960075778510815
1160,-0.8674145076174987,-0.06188597169998697,0.5108476015280076,-2.3196307861891743,-2.0396229940744597,-0.8370250672955011
1170,-0.839915922782994,-0.035836227626699343,0.5351840080137854,-2.117409983905931,-2.9787110896149556,-1.471600368728926
1180,-0.8748403661066103,-0.07622733668337295,0.4987769170971117,0.46954440923770047,-2.0834689796312453,-0.13847119079118875
1190,-0.842879903214391,-0.04237739952528018,0.531179803404897,3.7772486174346045,0.036005008038208164,1.887085594142543
1200,-0.8552744641089923,-0.047011396524147,0.5108944231566048,1.410485778199384,2.4870330398406706,2.954960676489889
1210,-0.8427371594002965,-0.04392027873745523,0.5293623052491518,-2.4707211691002797,-3.8520995889256793,-2.732918790367962
1220,-0.8347261870427841,-0.03467410437325107,0.5370078744210803,0.11260269894024855,-1.485913705451055,0.3837433372827085
1230,-0.8475369780089554,-0.03695840093196361,0.5222761420423573,-0.5053367793652701,-1.1266346560020608,1.4412153110970447
1240,-0.8634715267986494,-0.05962377144552235,0.509270240130238,-0.746160753068396,-2.0254651017218563,0.8996007643732717
1250,-0.8632112070450245,-0.06319805854332813,0.508042791302328,3.166979156836561,1.2765242899324218,4.690336161652306
1260,-0.8507578039469295,-0.045105492495587374,0.5265405483127786,3.3899694759798753,-0.02158066388112445,2.6810094001927873
1270,-0.8510791834734591,-0.03714386017511706,0.5299330070470908,3.810236572821789,-0.164538212311945,1.6506159735300243
1280,-0.8511091508599329,-0.03614463944756189,0.5233494020664436,0.99037967888971,-1.2976320051986268,-0.12790374860968445
1290,-0.8639399811024902,-0.05373316943892752,0.5055281441981125,1.0493302920859577,1.44291157535373,1.3754007716326062
1300,-0.8491673295697062,-0.03923771183907536,0.5234630820696052,-2.9216534870763597,-0.16115863155542975,-1.1252341561325918
1310,-0.8681192787759381,-0.06575360382859291,0.5067777709615179,-2.9051512607431644,-0.852032318588879,-1.9892109975164458
1320,-0.8186707799815346,-0.016665616199638706,0.5514099151015249,1.1896513013469852,0.9877542466339237,0.06471087948501958
1330,-0.8389081666420097,-0.026035561802682856,0.5452959952134292,5.120261602873809,0.10152106128255123,1.419096271995032
1340,-0.838854757180389,-0.020597515575348786,0.5474720002919878,1.0978705805070113,-0.03389565094884239,-0.3874596573189366
1350,-0.8755919185755927,-0.06047041937534563,0.4982640365703269,-3.142447806097509,-1.1298869627565196,-2.478092189417753
1360,-0.863344190993877,-0.055472963658101226,0.5186479142729126,-2.6139662939665547,0.43430295914576716,-0.9696783045847539
1370,-0.8358217123464862,-0.042892694969915414,0.5371443634872379,1.5500464339308178,1.4797215282012848,0.8629642733046979
1380,-0.8547088276460495,-0.058945120600019225,0.5171770970370481,3.3775204889801667,0.2058914241188068,0.7685874438834874
1390,-0.8484777919385977,-0.033491233878607585,0.536795652674666,3.0485178085617575,0.7414663115253396,1.353364705981503
1400,-0.8471001001419894,-0.029682583453478673,0.5329626230525643,-1.7048608321923429,-1.3281862426210096,-1.8738296893306055
1410,-0.8367880941372104,-0.032190990286582066,0.537285031627834,0.41734397813421276,1.5267542023809393,1.369949291332266
1420,-0.8183087245206548,-0.013692858061639099,0.5564503951164773,-2.0559959636075282,-1.8721305289749828,-0.35056663808136923
1430,-0.8679600963588009,-0.06506110440468818,0.5144197903248794,0.8138674916459413,-0.8919747300691612,1.6969265260217803
1440,-0.8369521379328747,-0.0319588690020555,0.5410935155167675,2.124006105227785,-0.9844584623027542,2.0867905162638305
1450,-0.8260030961848777,-0.021058887080042082,0.5580285110531209,5.071902407611744,0.7604205147765052,3.470737761875704
1460,-0.8362022503821613,-0.02636383222475879,0.5418773926330848,1.8854599267129653,0.6320452977669555,1.308034886633347
1470,-0.8325363461973413,-0.023239356900849724,0.5431501174795803,-1.710585753063279,-1.009140105344342,-0.8576267788388201
1480,-0.853318714123102,-0.0487944073834566,0.5238117250469133,1.7993867339830905,1.1825986661824786,1.8979746367063899
1490,-0.8249601218444459,-0.02325674827693802,0.5505134217877831,1.0950383276226012,-1.65696819436015,-0.183661966283452
1500,-0.8372591738232991,-0.03285104868052795,0.5379222632404262,2.007971579006905,-1.7957691007560594,0.34305541449960986
1510,-0.8320698782712012,-0.017458356604965093,0.5481453540410007,2.886171376910992,-0.7789411095687659,1.3958241485924918
1520,-0.8544373400405113,-0.027487739618658517,0.5261976199801933,1.3627195891012762,0.07471213158226506,1.0852332833077436
1530,-0.8298331490045161,-0.01381479395686138,0.5536109534435023,-2.630458373732991,0.17224550474629557,-0.18670944308321968
1540,-0.8518864498101708,-0.040391908849176886,0.5302372507019065,1.209496148954768,0.5458286347748152,0.5403440815581061
1550,-0.8393429976258002,-0.024512158617851117,0.5352761141245934,3.9236088115046774,1.3153982309844494,2.1145185811248357
1560,-0.8528822755057348,-0.030822512119887093,0.526697449360226,1.917320499048298,-1.649895569486338,-0.6162147899499442
1570,-0.8760336701841757,-0.05178296357995962,0.49540608594641045,5.106694104980616,1.1876696600951464,1.9081825105177734
1580,-0.8366461390749772,-0.017917868007148532,0.5408878224422975,1.9129230033238633,-0.7445753078785238,-0.4265001186574424
1590,-0.8770207327941197,-0.06562641390028708,0.5013602263675664,4.662860425992547,1.0424307607705185,1.970488591110283
1600,-0.8420826084598364,-0.03193101010317047,0.5345141104932079,6.911032782963792,2.288853386789484,3.8949404157853285
1610,-0.8548628217221041,-0.04229192064719979,0.5247756597087487,0.042320587235243234,-3.9705345445189066,-2.352843957453814
1620,-0.8244590696227652,-0.009281683515637,0.5563825965659568,5.134473479336173,1.1924759172904011,2.390440465253465
1630,-0.8477417548126854,-0.02436903352890517,0.5333451146706664,3.7136911478598975,-0.040611724841777774,0.010008684775532295
1640,-0.846313838887459,-0.02049554417962292,0.5333076207630965,0.8545640650566458,-0.8967061549650315,-1.8294119728280833
1650,-0.8381678045401469,-0.01732660779218919,0.5485933806364178,0.4666648018701752,0.18792623307185213,-1.6433872378822172
1660,-0.8408891232613894,-0.027270464162797572,0.5359514016107082,0.3429762110368537,-0.49102731082700934,-0.13070455735472608
1670,-0.8277130949433871,-0.01653390670539418,0.5456167966971384,-0.1874640807682726,-1.3271254645608161,-0.351389611991612
1680,-0.8504844006180353,-0.032728072940512484,0.5297428339817792,3.8024790028154447,3.2993786712740594,4.326629852909438
1690,-0.8424688278014709,-0.016870291931022796,0.5382919995427649,-0.6181840314887505,-0.7199149796182471,0.20609783551272454
1700,-0.8195560097994357,0.0031280248211008263,0.5591680067874745,-0.9056582545021565,-0.37058031548298165,-0.1951437251266846
1710,-0.8407085852761486,-0.020653510421442537,0.5379041775169784,-3.6346034378060468,-2.507646133209203,-3.3858102085740036
1720,-0.8390388744396344,-0.01702086704532706,0.5408949252409468,-1.9189500450108763,-1.3721689195486682,-2.473704349371169
1730,-0.8368878991946311,-0.01699101728482421,0.5432214637930305,-1.0311225986135266,-1.5756492967641629,-2.033839005878934
1740,-0.8638979441625119,-0.04543624175829135,0.5144561357010484,0.013985075067429714,0.08054900742799473,-0.29334948269135497
1750,-0.8417890710958998,-0.021131258720071457,0.5409190910040946,1.9116795910416418,2.46436177173407,1.9326523592833342
1760,-0.8590895977152105,-0.041169560420479756,0.5179563049741746,-0.7823748404895358,0.4539690515110212,0.2698569009922266
1770,-0.8354522311338172,-0.025182269512729928,0.5444575229649263,-2.956400160130672,-2.2973999118064494,-2.0199420897670364
1780,-0.8630434069287896,-0.04198891272795396,0.5203687967284184,0.3858683256882526,1.3114762716031068,1.2938883689247906
1790,-0.8232823877642428,-0.001974228074690266,0.5559765434236293,1.8908648748599743,1.558123614721257,1.5513284194163153
1800,-0.857733174391933,-0.03925991789593532,0.5244743671600812,2.056263709921765,0.5386418119243714,1.2358989025549187
1810,-0.8617417866951022,-0.039367540402513196,0.5208707610456853,0.951101380955711,-0.3795864380441745,0.6560425413397222
1820,-0.8560341310202,-0.03251812327245612,0.5231454451646994,0.07060089838109349,-0.058634558177508955,0.5466565826734322
1830,-0.8765652682365351,-0.05535343631191354,0.5032799128681454,-4.833299037996145,-2.7022217900549435,-2.8995536263843285
1840,-0.8297518678174849,-0.007801978868561921,0.5516334560777848,-4.881691528895382,-1.0756178197510597,-1.8158781399013677
1850,-0.8545413743553669,-0.03679545555668777,0.5196304824485065,-3.512805598295091,-2.2786162824893226,-2.802151610274583
1860,-0.8378749227938967,-0.019322805566574678,0.5373873271375579,1.060162637070064,0.07999914441758804,0.10978023887745658
1870,-0.841565740153206,-0.020921115439622207,0.536977579149768,0.30276159423487453,0.4410722113129977,0.7361433333709725
1880,-0.8578966468805774,-0.04383214717930839,0.5166435008201593,2.6115321615560436,3.7846872972238583,3.615076640106179
1890,-0.8359401077044282,-0.02475708170848156,0.5370800961548189,-0.9584069306031681,-0.022193362316649923,0.1473086584698286
1900,-0.8493190262588483,-0.0328893441698013,0.5286436285466684,0.6791443190103283,0.5093600374045448,0.8329862530903379
1910,-0.8823479460879643,-0.06528112609947379,0.49340237565975886,4.478196213337675,2.9982627747063475,3.641592534059019
1920,-0.830799244095125,-0.01505499581797302,0.5443268295524742,-0.007131849072594787,0.3230453048893187,0.4856296619819671
1930,-0.8440706816440335,-0.032190189767106615,0.5346538943753543,-2.9844708355031644,-1.073431483953258,-1.1547106504193165
1940,-0.8521594465257389,-0.04539522397170555,0.5270275099015933,-2.6039948290509836,-2.2238047798863843,-1.6928143642528326
1950,-0.844525904602691,-0.03527521766037276,0.530962151063493,-0.5350881577623756,-1.782977150588814,-0.8741389484914446
1960,-0.8424023109309997,-0.021809197263724385,0.5341007224526578,1.3719283891690044,0.933057540230897,1.5372855871981523
1970,-0.8631168313712252,-0.04102551603005285,0.5179202471269736,1.8745301282628113,1.8102663901714968,1.8428125199915006
1980,-0.8345213889821768,-0.012869116896182926,0.544042338755671,-0.938272199761254,-0.15161928510811368,-0.5757416455720591
1990,-0.8577647537914077,-0.041692442039150096,0.5161511523033947,-3.6764767018625912,-2.694227481991946,-3.8786369570379184
2000,-0.857641618588116,-0.04679683755461504,0.5179888877277788,-0.08627863507666444,0.845361717175007,0.3571635644145559
2010,-0.8665539758902547,-0.06134004017777956,0.5115028699221356,-3.1798426065500776,-2.403359339816065,-2.0062107963663633
2020,-0.8547354781397831,-0.046479551138620234,0.5215532053526589,0.1693652727749395,0.9937110083172053,1.823212172796354
2030,-0.8328814260615925,-0.018453579257191675,0.5455426782486432,0.6835602417747006,1.1965594261134318,2.242654747662298
2040,-0.8284535311315734,-0.00883252810857663,0.5528802349736964,0.5427626864853422,0.7008767522338015,1.25912425554355
2050,-0.8333298774881299,-0.014277773087067545,0.5474335200916284,-3.5647516944684465,-2.23807450593643,-3.2136171174308648
2060,-0.8413995866527988,-0.029430574624277082,0.5381608961440453,0.0054488771354890275,2.8989370314941856,0.9947547969435588
2070,-0.8522424343004148,-0.045539295112701904,0.5255267520153006,2.7889617329050185,2.5422901545604546,2.1391475597074145
2080,-0.8435396185463996,-0.044538563655690006,0.5312146111120742,5.773795090800045,-1.2154010517928875,-0.9778342805668443
2090,-0.8234802845061255,-0.010734313206577435,0.5623858053681633,2.9877176505947625,0.4751299436749834,1.5738662820521576
2100,-0.8812731818864817,-0.0512269397194797,0.5001757581228683,-0.18825469804083683,-2.182052069497084,-1.607195433567481
2110,-0.8445570746511293,-0.02274524589532869,0.5313516871275843,4.050503561120809,3.6420399342042473,3.3690331987844555
2120,-0.8510804887960787,-0.04291892223094408,0.5299389199819311,0.6893872460205455,1.0661769474658482,0.28297701997511665
2130,-0.8526360275919087,-0.003265991412124614,0.5414338696059884,0.1683761419252623,-0.9151298568823338,-1.725115539286517
2140,-0.8669937755864322,-0.023758707985191068,0.5157291490399046,1.2088409966431288,0.12785296105335697,0.18014363602299588
2150,-0.8401861023247309,-0.018293992257805262,0.5341555293752857,1.4056153677063907,1.6719265774275112,2.254098646627485
2160,-0.844847115292993,-0.017692921411607283,0.536218859800566,0.29894333569402143,1.0234485797284898,1.3302225509542738
2170,-0.8519675580769924,-0.030396911332443786,0.5257989090066061,-0.555042773206863,-0.6736663070722396,-0.5980616474730935
2180,-0.8702556913153572,-0.05871855748745027,0.5022766632017746,3.4289121975771506,2.307045118500319,2.523642436653855
2190,-0.8180035889160461,-0.010019458630281045,0.5563955789881146,-1.1419080875698813,-1.465101614267615,-0.011931892672759625
2200,-0.8457112387440218,-0.027260469882205447,0.5307113402542756,-1.1737528114573041,-2.007150987741671,-0.19791834723310964
2210,-0.8653765472589354,-0.04605434231843826,0.516396322590693,3.1406047671104886,1.3237738468347469,3.8024246604064693
2220,-0.8399489031526721,-0.024093003980267882,0.550784945716706,2.793501458830434,1.0914013606184785,3.410101722389455
2230,-0.8314225677079582,-0.01784439526198368,0.5527716221454813,0.2745111511626819,-2.995237144469206,-0.39812881152539425
2240,-0.8358240402901058,-0.031574502567840085,0.5199998369173418,1.979703669273357,-3.5453523338295128,0.003082937790350293
2250,-0.838390835606808,-0.025288895851578255,0.5256074598797787,2.345208118600794,0.8912526976162172,2.1668165175800067
2260,-0.8322444587132583,-0.013899188415139409,0.5457229391157992,-2.4058712567020315,0.8551938788736098,-0.08880834844720961
2270,-0.8656120839025688,-0.05401315932829334,0.5086991263539615,1.6162478469875319,3.791787808855213,3.51290272566947
2280,-0.8559695569808009,-0.04136295989388465,0.523010295831009,0.5873853840723273,-0.9530748605438334,0.33356937694269484
2290,-0.8629658050273229,-0.04334802684392375,0.5169587655927536,4.493742191919447,0.7796368104037359,3.6870212752945366
2300,-0.8143009395990854,-0.005772278700571211,0.5379707985605366,5.608804218780086,0.11488294184332956,3.5090079426722767
2310,-0.6886435588476941,-0.029014004645809527,0.4503166394268806,10.82113440238755,2.6753899926391904,3.526840511328642
2320,-0.8411961756339951,-0.04730453413404336,0.49480656692523817,-0.8043437446957229,-0.7480163151900218,-1.173600979041542
2330,-0.8515849404307289,-0.028421162314255025,0.5317103830067316,-0.47948801947045167,-0.6291610618608634,-1.0499621142947024
2340,-0.8311476499970843,-0.012521244906946073,0.5478832681556178,4.6086629182485375,2.704061782816827,1.524376863434884
2350,-0.8266302777672386,-0.008791502396958218,0.5438421383255768,3.4978961300919083,2.288420652178463,0.7427477614546691
2360,-0.8437857328663289,-0.025390724153493555,0.5281052372862107,-0.6080709454724216,-1.4112766423033491,-3.4918107924790402
2370,-0.8308737820211539,-0.013644815562141336,0.5457059281399718,1.0755934710513246,1.1551096830747962,-1.5250547922572273
2380,-0.8563654444674406,-0.04191469007319983,0.5229679561974587,-1.911666156756752,-0.9375383279759965,-2.944455543456769
2390,-0.8369356784317917,-0.02514845086682793,0.5421251212144869,0.19852931519843314,-0.2987062075189985,-0.31760949064291716
2400,-0.8386140760512617,-0.022740159015926454,0.5351824940724419,2.10285117379851,-0.16231662654099788,0.9341499128225746
2410,-0.8301068156896599,-0.008150333873424297,0.5485037138262688,3.066642955871818,0.5136843180036245,1.6648114041531226
2420,-0.8410168417279554,-0.02086057541098573,0.5360638669460872,0.8775104886933497,-0.17441219543516095,1.281536954553372
2430,-0.8491497629069956,-0.031584088127217136,0.5346807105939586,-0.6574407820185639,-0.6302637539462355,0.06753034036205963
2440,-0.8394273498959579,-0.01532852662125753,0.5464382410350337,-2.911931705870973,-1.3821273553081896,-1.3713499886499037
2450,-0.829435316872017,-0.003985203101416986,0.5533999674246798,1.6341158022899296,1.2322529536731186,1.1923699132996208
2460,-0.8268424518727058,-0.0028053799089867645,0.5544285425557716,1.152674071480764,0.034309783206070976,0.12075411754654826
2470,-0.8457517440850535,-0.023733092701805764,0.5364602705155463,0.8827496460910991,-0.7117120075287869,-0.892762722732692
2480,-0.8507163266623604,-0.02656462865760107,0.5311051872892321,4.479203397436972,3.1487670296865193,2.867541097043715
2490,-0.8625345486586846,-0.03673579647938073,0.5145731473034661,-1.8641287051200373,-1.8324982269982535,-1.921253481102774
2500,-0.8434327243570723,-0.02026206477664871,0.5304234057621985,-2.4303044503570828,-1.2694591539071136,-1.4633195255354872
2510,-0.8280591615607515,-0.0024696712902988437,0.5514453703692549,1.9643449072041141,3.543264919516572,3.2059616584752124
2520,-0.8321595698934857,-0.010159608044665815,0.5454730621734375,-3.079999896579944,-2.6259236979540086,-2.504109233042465
2530,-0.8200704758007437,-0.005120609874340334,0.5506089769242243,-0.8468579631688892,0.42400192943643933,0.8172637525699765
2540,-0.8440500785396035,-0.020634672172370305,0.5398501969338728,-1.2526778398663985,-1.1080032666449293,-0.38851842504901946
2550,-0.8532451000250902,-0.025857564276470464,0.5267928756527431,-0.26777865243242177,-0.6438262270592593,-0.044954214696643624
2560,-0.7974406634300508,0.025001821360483067,0.580054699464819,0.39089004930405075,0.18089514929036363,0.015496896240249802
2570,-0.8520370684898924,-0.027678804532777268,0.5299083019821859,2.3651522239714686,2.77584652793727,1.4257550748679595
2580,-0.873690240674968,-0.053387620860032264,0.502835252953221,-0.9313757582414844,-1.0937035994284514,-1.9800227330967823
2590,-0.8377033383722,-0.018486640142136093,0.5328727547745697,1.4112515281875622,0.36464386078982647,0.7311946967421927
2600,-0.852291729120877,-0.02911597333390778,0.5193927033428074,0.29442212482845753,-1.0906177624538151,-0.1740621060337897
2610,-0.8273336077000848,-0.006259792090409199,0.5450151143210297,1.8587948243508992,0.5599945353428906,1.3459958796396148
2620,-0.8423462646723889,-0.02000291009818008,0.5322310367743749,0.5243889490522566,0.7125754038785898,0.763366798779055
2630,-0.8402323974111608,-0.010621542256563882,0.5366139373959183,-2.2038380457774296,0.49492791591485885,-0.5284654592963195
2640,-0.8293139922365081,-0.006082715960611645,0.552399972051634,0.3910087204633559,3.12611648476661,2.3054652789389216
2650,-0.8552988539385995,-0.03469770838418397,0.522333946607486,-1.7719683369840387,-1.3682357822789395,-0.7887331688560433
2660,-0.809776962644402,0.008562686537909588,0.5667914536581832,-1.1485529404602155,-1.5312011632790086,-0.9966909237288493
2670,-0.8340708733459307,-0.017951025819409824,0.5486991900168113,-0.39607481453551663,-1.0729910555495004,-1.3408180899612012
2680,-0.8384306949703108,-0.012842299258746982,0.5453170303789048,2.3080027807363876,2.2253692712660103,1.2001603688937474
2690,-0.8529675121987067,-0.025308811930510114,0.5266703622988668,0.6434007901604788,1.6592748392960408,-0.08453765340580599
2700,-0.8668489921068571,-0.04587334810958052,0.5095116251395125,-2.968417887378525,-1.3317956096516117,-3.306959287024001
2710,-0.8660970918777653,-0.053666612525729976,0.5053272947931996,-3.195263730004929,-1.9112635118773231,-2.816848059286284
2720,-0.8371744727333553,-0.027804974259817906,0.5292896377803666,1.2047732992350582,1.4885188719051694,1.8418117248527917
2730,-0.8675323600908764,-0.0458228610467008,0.507725747256128,1.2085052759900803,0.6308087189638503,0.20451690328867111
2740,-0.8513190850228053,-0.026792621531095184,0.5314323712223327,-1.1394381636513429,-1.3491473637127307,-1.6352932733140926
2750,-0.8416202948978737,-0.019819455977004807,0.5305925683151421,1.347643553064171,2.368301156088644,0.9941261929830865
