time_ms,ax,ay,az,gx,gy,gz
0,-0.7883799903312055,0.12575006997657984,0.6393816556943356,-2.594115097994354,0.9127197005077741,-1.4750727379112343
10,-0.7778010591171101,0.13040741639441236,0.644350998537025,-9.950882758066044,-1.20489389547263,-4.973835598925894
20,-0.7627294951148135,0.14628686844101005,0.6627095502258344,-11.383483926666429,-2.3483933653247844,-6.667185764222576
30,-0.7749584481686961,0.1239685908239192,0.653120435481372,-7.218026320500279,-0.19499808121989531,-3.2853930539238085
40,-0.7451167214368166,0.1416769653259855,0.6807766047945158,-3.6953309953101665,0.13786342802285406,-0.6308125243282364
50,-0.7854459872640313,0.09849008870895701,0.6379651924152335,-1.0573173672738723,-0.7745681828796177,0.7921275526893615
60,-0.8089999203755053,0.08276320011015992,0.6170120363785118,4.3803731499074505,1.5201314152666996,4.756035286872991
70,-0.7782107883520856,0.12244975085247542,0.64894269245951,5.027815709042299,-0.0534777081886994,4.02518346069417
80,-0.7853144542351983,0.12492262526062448,0.6375990800768199,3.284155721072805,0.6616161279721784,0.9230873389023484
90,-0.7806747548937945,0.1307117509562706,0.6446720700640726,-1.2215458549663194,-1.3272866529930372,-2.195497927396923
100,-0.7501575844876559,0.1599863515940854,0.6840320083995312,-4.638803585538671,-3.047098166980429,-4.28429837233961
110,-0.7792627480302491,0.12721716525077592,0.6594436415297765,-3.670806451143023,-1.2293240789859203,-2.5226817598073072
120,-0.7675627518109434,0.13278688450439638,0.6672826329017142,0.9633576845868417,3.142604793690268,2.5224505919579236
130,-0.7778649952118899,0.11900774520066366,0.651342716371198,2.0494968994528695,2.96861158174371,3.7188990676529006
140,-0.7812303420942304,0.12493193142940927,0.652061622838233,1.023372891334685,0.7605705429006085,2.2696105492636693
150,-0.7947160685003666,0.12779818411330335,0.6423017595425037,3.330366196605051,2.528848058532847,3.78258938165191
160,-0.7611402663559328,0.14939380611703892,0.669097656057254,-4.530819021014216,-2.1080522690322194,-1.5548861271175398
170,-0.7353747269789139,0.17117946329095185,0.6947011936640732,-4.200934139694737,-0.21210372627627638,-0.5514719757927984
180,-0.778064898493759,0.12622693746669367,0.6525105438282383,-2.9537321359816975,1.4642756106070287,0.628272366098207
190,-0.7493203800444281,0.15069565178478664,0.6803722567777148,-4.247946495881207,-1.6344758632305443,-2.3295266933091203
200,-0.7885398289070948,0.11227922915875335,0.6409931962790548,1.584387897142555,0.8470773095538178,0.769647020975591
210,-0.7646317233213222,0.14913950605506246,0.6723098912696336,2.1610368468035692,-1.6231465819916928,0.68616439429334
220,-0.8032846971065282,0.10472798339404933,0.667891486799429,9.286530918862384,-4.410073720280707,10.11913384820806
230,-0.8444455836670485,0.1353499054311179,0.7855071709467375,17.694169384322155,-6.530155004394395,15.90152069933803
240,-0.9089403043668556,-0.02522298731984095,0.9080546336787543,12.369140681000228,-9.126174023773512,13.874142802191267
250,-1.0324198563626488,-0.07596483653379281,0.8780187822816387,18.622015489972313,-23.84698353478557,10.821471492520496
260,-1.00744178353609,-0.12977733145307918,0.8153562746580716,21.82539278789613,-40.667241585743795,4.334778694055718
270,-0.8610058265022205,-0.23214342579425193,0.7800240628634828,15.998710299424953,-47.565596390292455,-5.242929494353233
280,-0.7087556373024173,-0.13893164499809493,0.7378049771448382,2.8899731764079304,-55.51215792688615,-26.172768421701523
290,-0.4528153506119461,0.27994380975696875,0.5065691054582374,14.552249177339528,-52.5273341438969,-35.319393318050835
300,-0.40422558302593176,0.3350364934977318,0.5035549774507583,-13.417049470456217,-36.38583675330274,-35.43051996245442
310,-0.41615871960659806,0.36344174155884423,0.5088273808041932,-28.06475822264806,-20.514437929767027,-25.137244171220118
320,-0.46426944903132006,0.3666394621612505,0.5607842950778543,-31.34377318277878,-6.18271531821454,-12.66995579775
330,-0.5018380851518445,0.3571537175922719,0.5917899727238838,-30.169348842128045,2.0912690131512517,-6.215953733113707
340,-0.51634629266844,0.40910906484804854,0.6418111360100341,-26.69046638007251,9.973018946696238,2.1441028684823067
350,-0.6544070069552375,0.37273002110654024,0.7191210677471012,-28.83680505267202,15.418195063571378,10.871854964539459
360,-0.9689264980783007,-0.014236381363047307,0.8316061414167452,-41.037361679507214,8.761120136726461,2.368205732746186
370,-0.8065163330623383,0.0091145360193244,0.7889841827620336,-36.5228735885434,0.0024307947698422594,-7.6701086038516415
380,-0.6851995945033211,0.08770407888683654,0.7151718074034957,-22.00626663820316,0.547717100671339,-5.753958466905303
390,-0.7099488269382059,0.04416138898963373,0.7583481749755029,-22.73525983225056,-0.6669044368088188,-1.5509839041642375
400,-0.757508747834193,0.012156977649858614,0.7924898711223589,-25.235845625881222,-9.597952767937523,-4.576285300330806
410,-0.8071221174400813,-0.0402050618882812,0.7350888571379092,-17.316948909538667,-13.784325031838753,-3.3128841937898077
420,-0.7603502678156712,-0.049466628562008244,0.6989400014682577,-16.88565601562228,-13.270981838562268,-1.6639028816711972
430,-0.7779379807191484,-0.09146234110339933,0.5597336325979883,-43.076475024553694,-15.88161766177588,-12.57134935968945
440,-0.9373404236031717,0.051710495455648445,0.32391292447766357,-33.312891658008034,-7.9250374576959155,-4.936045077669371
450,-0.6792031875238072,-0.0400372904790241,0.7593588231770506,-31.18139294757357,-12.60001960108286,-11.119616014304157
460,-0.6147646169907428,0.029679873028302644,0.8836459119070241,-23.47695719157494,-12.081640767212901,-15.095274719268014
470,-0.2704239061847974,0.3158016291240895,0.9599050279604058,-38.55538191851124,-19.092253971579076,-34.23050540144177
480,-0.33793744600586634,0.2315383454709361,0.8908619650457554,-39.17934157694251,-18.299349709249096,-43.357687351667586
490,-0.7124706855430236,-0.036162121661741486,0.8189466030549436,-0.09609012659333493,-3.707415271950529,-33.826960557404554
500,-0.765268047453647,-0.029145049840242264,0.7860544220707527,57.194320322656324,14.540138055710957,-22.524908081777117
510,-0.7365011479683301,-0.1535557418338794,0.6997175575281023,72.65683987169824,23.525774816063908,-18.777575514085502
520,-0.9282064907349955,-0.09665112638453098,0.20383818147418312,40.21639298287665,25.765235810714458,-19.925434208107436
530,-0.662552830937444,0.47009514454811346,1.0554913374196404,36.39432520980129,24.41054936126506,-12.642852773705473
540,-0.5833085110893996,0.6171599806020631,1.1974314409340936,40.908912983203365,23.96617313879981,-4.820336514210514
550,-0.6609428108017654,0.4235469455924226,0.8716346081522185,26.987734400158967,27.06218949614073,4.189067896290069
560,-0.6713164654249969,0.35938996594802824,0.6358626531622733,11.25385008928158,33.07175454198412,26.856093486305888
570,-0.5961002235918723,0.6370331983074369,0.5299194025470412,17.84085877206043,29.08385428722991,50.73026841553691
580,-0.8853467923060555,0.654790695469637,-0.012697333355373316,38.47682203329414,11.069479331117664,33.809332880774676
590,-0.6649176652314758,0.37330219130555303,0.3316019366133151,47.65588724998511,22.54321629175073,46.98692336904246
600,-0.7931566197121137,0.09247779757570491,0.8864968958320547,6.721457219562078,13.788794986480498,37.16166179216684
610,-0.7226676935854267,-0.09966382134355764,0.8995256230116069,-13.823965455477406,6.277433187177356,31.416611642825487
620,-0.737221645312903,-0.32295695549732545,0.8349210067824203,-17.041348435751186,3.860997355405906,22.027827129294284
630,-0.7733614581736296,-0.29119784525788917,0.8048219138488627,9.749687029496997,2.255777360568102,9.685098206387062
640,-0.7715678029318949,-0.04252569962851446,0.6830396478611663,49.37469821703536,-2.814151734002896,1.318914039171256
650,-0.7205122598917986,0.0037119702845844716,0.728742005721001,45.09810026393115,-4.468602161681053,4.691096910617214
660,-0.7101320094327821,-0.07110610766554368,0.742297414333962,31.419340709815142,-9.972644862848991,-3.448180950476842
670,-0.7511409562458515,-0.1507356268715781,0.6106069027160917,8.53974968644319,-9.85363084838797,-12.485864253082113
680,-0.8299464136252734,-0.3436050755116395,0.38421750693114404,1.3543953425202884,-1.2978583471892482,-25.123163481852696
690,-0.8645122685816552,-0.1585686207027846,0.42552250047366785,8.536794131110694,-0.011154558809670423,-33.89719578551492
700,-0.8381083922017447,0.07457975587146667,0.5175335226340235,11.337567665512662,9.25820921323617,-29.948303086259205
710,-0.8554201217836358,0.025157083821608903,0.42263843815720886,2.393180556078048,25.301521838076546,-21.04462156333207
720,-1.0222382590124957,-0.12705125862165045,0.21627121470899943,18.855681526480517,41.80656677218146,-8.402141906072892
730,-1.0120049235589401,0.23898364543237852,0.2527350315235856,82.16870834777119,50.869539581695896,-4.194820964728157
740,-0.8017487065606079,0.06988967723029911,0.7834456470147784,90.4068726601795,54.44870595467397,-3.1545251773211014
750,-0.7740696546459428,0.21070240851676042,0.7255989652238983,46.60626662919446,44.637860308271854,-3.6356178396850365
760,-0.624120590340656,0.33718830107046527,0.9112043813139479,31.499636266811542,35.51397234367506,1.1579990078571756
770,-0.5929533306591573,0.36826031662119735,0.832528388367543,26.71156947498551,19.376161853450036,10.934511532124962
780,-0.7084378800022567,0.2719724177743216,0.6387272826126607,-0.889550773239814,-4.524673318810113,12.771848902279581
790,-0.7373119655930612,0.1365791092023738,0.8130573041632267,-21.406808944324244,-6.969960917770373,19.514778917237404
800,-0.650911350143234,0.24075485416385337,0.6504935497264646,1.4546120868888175,-13.325665621888938,22.573971171187456
810,-0.8657356698561095,0.08813484828328234,0.5658788002870966,-10.024385850997444,-8.659437440309558,23.406021603812842
820,-0.7290627281543558,-0.32259946447339827,0.3969123292133988,-23.634108566475913,-13.402218840151697,13.613994790599401
830,-0.836548131491165,-0.3086561250160853,0.4895746030922712,-44.644721826526705,-14.087882835469632,4.684217648776902
840,-0.8448959150825806,-0.08407114725815594,0.6117545294009259,-22.421319416461042,-2.0551659439510224,3.2502760619689406
850,-0.7927076561172673,0.04912679398395752,0.6226808752887442,1.4337553050110086,-0.5384239590729458,-0.6983071887932245
860,-0.7548837127316476,0.1118929923264628,0.6609778998480236,3.4199825835053104,-2.3141049441316035,6.123059759845584
870,-0.7775219374503932,0.10519485571711376,0.652193472817728,10.04004466665235,0.1644542004568561,13.130920346986406
880,-0.7773471426033707,0.10982504314868141,0.6504899391830556,12.656663443368265,-0.4548453530780965,13.167928944894618
890,-0.7624758536214816,0.15355831842340295,0.6698023872006723,13.238005133361423,0.7950949984009512,12.923001208107301
900,-0.766807529841829,0.1682537285202232,0.6684820862428839,9.6202772463333,2.2615504818257968,9.60870798445422
910,-0.7834182872544526,0.1312626189121848,0.6536103984548852,3.6293310893335766,0.7341746433810481,1.3786773219600164
920,-0.7615974906617559,0.13183816395246006,0.6696286573304387,4.2933494103664165,1.232125027285583,-1.473738209895719
930,-0.7820670871295858,0.11566438072791482,0.6397536516046962,7.087901919893342,0.9203376221697452,-0.5205232445831607
940,-0.7818036145947115,0.12343736924292187,0.6420240649780096,7.971872389796864,1.8771207304985282,1.7479036135449602
950,-0.7772167960199937,0.13305580760557764,0.6559937501604417,3.4139615455312833,0.901442581017105,1.6108944735555648
960,-0.7658692183656426,0.13943806695840238,0.6671140920370088,1.3088107840380934,-1.2670731502276322,0.8386850107747162
970,-0.7607178562603019,0.12961051682379637,0.6708813849574375,2.5273177029750187,-2.0788897758420264,2.563506598795045
980,-0.7666361068421559,0.14092122819591035,0.6605815694119039,7.421185444472195,-0.9182379346600306,4.416047623082266
990,-0.7422151190367973,0.18678048398921357,0.6883033958084891,7.763747138131192,-0.2667524441022678,3.5748152346803987
1000,-0.7793088309420326,0.15815787334773723,0.655925576121218,1.100239443234834,-0.3738953776220589,0.8252187658665135
1010,-0.7769882525378495,0.16030847991316904,0.651908740468584,-8.525692154537584,-1.1083089112086357,-2.445152364459332
1020,-0.7784087838264617,0.13327170375953779,0.651602071342248,-10.12202141294127,2.0526981349131646,-1.0493614916631877
1030,-0.7771185030462756,0.12146964778102379,0.6543948138047877,-13.835145861267192,-0.5328256202007643,-4.107718196493753
1040,-0.7819309529147833,0.11216414476102556,0.6504439536874591,-10.766489997454071,-0.8416890905421051,-3.3605672609550217
1050,-0.7631646765737716,0.14712419540186233,0.6661550543050707,0.6268141222546884,-1.212270375248353,0.7600121521285454
1060,-0.79385333788435,0.114791425727671,0.6314085611580889,6.712579645727956,-1.1486421810539833,3.0077843201581933
1070,-0.7827074751805861,0.1183480133379114,0.6425641372365608,6.304917466334434,0.45381789689104013,3.911487101784242
1080,-0.7709860795161435,0.13977321061403958,0.6583461674724963,1.4042953882337794,-1.1820702536824732,1.486345359349435
1090,-0.7607552351098114,0.150268601442118,0.6678518908308237,-0.6707917245137158,-1.8595202463752203,0.2959105560398214
1100,-0.7619144843283414,0.1496141569997127,0.6610984501673786,-0.7322124068949925,-2.0263246705454,-0.20069048000283995
1110,-0.7463361907895965,0.16336273429389833,0.6860073923941293,3.0104963842937456,1.3100250530394004,2.7516247194087056
1120,-0.7851300444229864,0.12825048087183077,0.6476002538492422,6.7762163740264025,2.1961638213500234,3.4284245573460703
1130,-0.7636300554647671,0.15473331487627262,0.66724457155671,8.038977273347925,2.179430344577405,2.906776449736355
1140,-0.7696901256968444,0.1509636216901532,0.6575411662047649,4.267467840332824,-0.29759383463869526,0.13505235786047032
1150,-0.7951661514940587,0.12443985090401809,0.627961373196001,3.2609486358500273,1.3248458844464372,1.9536632588427603
1160,-0.7457364366494522,0.17144287575263953,0.6793854061522621,-0.3280134564289535,0.17415171014990571,1.0131336730819755
1170,-0.7689592453724062,0.1429283677537119,0.661453446984457,-1.6341448898506874,-0.21362755109751308,1.4554976431932114
1180,-0.7854798256549047,0.1264274791106103,0.6457673116068665,2.0300090119563854,1.4706551778314856,3.6833177538148663
1190,-0.7596340857731099,0.15876563010855302,0.6706647790869689,-0.5035755292323029,-0.3655861535503675,0.5549397291300744
1200,-0.7343675101424911,0.18805565160436344,0.6949190597824357,-1.0904547827524367,-0.7845819376360882,-0.5635352548248675
1210,-0.7479961411816239,0.17314909310504617,0.6817570970065716,-0.909806751572364,-1.4473457048802247,-1.624871753304709
1220,-0.7275220128342972,0.18942809871527982,0.703453592677829,1.2152220014873454,-0.8528366014080151,-1.3386500096078178
1230,-0.7748802788705357,0.14188986393342662,0.6546287429870511,3.171226759346494,-0.19537897311269437,-0.22980189463656675
1240,-0.7812721568700896,0.14938948549942369,0.6399466219388616,-0.9482192911603708,-2.315830048052105,-1.182752228337315
1250,-0.7944656514756193,0.1217753976919533,0.6326301542522209,2.7278367452227563,0.9648371032247876,2.428243523484303
1260,-0.7737290612219131,0.15257531123687987,0.655504041196745,0.9098050757402327,0.8446824490309442,-0.10296041393721073
1270,-0.7529720589255482,0.18270761796269563,0.6756688299296071,-3.255381316831619,-0.037770612280161764,-2.5174350068645963
1280,-0.7792818607512024,0.1516863873456679,0.6474024693544794,-7.732086994775694,-2.6617944954651973,-5.755367896464669
1290,-0.7775661458441757,0.14110834413969064,0.6485031639471268,-10.921943413022584,-5.038365454910836,-7.88257904611387
1300,-0.7806207423128827,0.13245640239258077,0.6492349296489002,-9.972871723845481,-2.9643512852336578,-4.788409264389787
1310,-0.7607429308746398,0.15502012928322778,0.6770567180590631,-9.003275897578064,-2.6934549078612298,-3.8579872371753643
1320,-0.7489500124597168,0.15661644070074401,0.6779623656124818,-5.731910103361506,1.4211070498528122,0.39833858812560496
1330,-0.7513034068832982,0.13359419404491912,0.6670905772742032,-2.649521411057585,0.7907850836407274,1.3921096364237893
1340,-0.7662962822545021,0.1274555402893277,0.659557639648536,-1.9708396997098347,-1.3927171696562382,0.0854853181747206
1350,-0.7706886638689832,0.13260843576109957,0.6558283596228099,-0.8866412504329859,-2.3838437794889478,-0.14898674870967143
1360,-0.7721080448636457,0.1362049455769279,0.6539303890395646,0.3339730519212354,-1.331467739714228,1.495538027065556
1370,-0.7585974437652969,0.1528212825833721,0.6732625323998667,-0.6023983261485144,-1.1756297054518363,1.8967574702224441
1380,-0.8014602789345168,0.10353260157088712,0.6298991015337754,-0.11981810492014466,-2.012014705243713,1.2355882607377309
1390,-0.7760892728329022,0.13067034113408635,0.6578823992828343,2.9588677713245257,-1.4521109256236708,1.2456832634809039
1400,-0.7770258898216587,0.13872541466995422,0.6524549403963407,1.1319188273747252,1.3066150028933348,1.2351973050098444
1410,-0.7751380287794402,0.1377714386376485,0.6486831227675953,-4.316018667038607,-0.8837555030021184,-1.5176430993603882
1420,-0.750731615991771,0.15412206673491424,0.6761719802657096,-4.949655885980904,-0.8189593874434108,-0.6003557036023093
1430,-0.7595967250804528,0.1368602135570408,0.6677033090442152,0.51941462109655,2.8211756986232683,4.456383275565832
1440,-0.74988565855253,0.14787425769698806,0.6766530897465399,-1.0039465821503852,-1.4382656552562965,1.441539873639723
1450,-0.7815736201206667,0.13146954728658722,0.6543693635514253,2.66802246961972,0.7068365057086083,4.166682154336823
1460,-0.7478276002823387,0.16054521931989024,0.677360450310645,3.54533158824147,0.9571976266580728,4.441073806257125
1470,-0.7619974592513928,0.14230205236738794,0.6639246981523425,-1.990087424920678,0.9101164798700513,0.8754872807310247
1480,-0.7311641577994016,0.16485538113739892,0.6906395186210295,0.2190299471554849,1.005809333084327,0.4255701106770525
1490,-0.7377991546289977,0.1655461467831074,0.6874679606281141,3.2647603687898474,1.1868446551504455,1.071639982768851
1500,-0.7728125992263253,0.1390060767727166,0.6556725028213339,4.570099235942188,0.6253739063202657,0.8398667767174861
1510,-0.7742487100580564,0.14185124968280954,0.6524463187845082,5.1354491492196175,0.9173427836419169,1.1968778259150545
1520,-0.7803707014495266,0.14200369608081928,0.6433068392473388,6.2606800746167295,3.225056117471262,3.743568619025828
1530,-0.7286042995273405,0.19900454806638124,0.6964829276310851,1.3166486912468263,-0.8986169315273158,0.2117770561818244
1540,-0.7351054368571007,0.1764506444720536,0.6865632978685587,0.32908916937328386,0.23668417347709392,1.742272672597901
1550,-0.7749773270742208,0.14550104681930537,0.6550580382747948,-0.5480727239052722,-0.9310089717482426,0.15361802319252427
1560,-0.763375251019439,0.15039566795383258,0.6594198091368219,0.5148508510164784,0.48536561835238323,1.218735770826323
1570,-0.7599107220300715,0.14849817980357496,0.6646762937234002,0.3770832754013318,-0.766192937279429,-0.2741936290127873
1580,-0.7616420208415285,0.1452971245964895,0.6686960620519841,0.7343679286933775,-2.08666364720079,-1.5281372306499161
1590,-0.7487902872959655,0.15893125914474573,0.6806471621678312,6.121243738917792,2.7610238959219333,3.674579638411749
1600,-0.7468284629253739,0.1725405960987111,0.6882511413703695,4.3142117150380805,0.8589079668454215,1.9697919594787094
1610,-0.7609661908087307,0.15368871384813768,0.6733109541995624,3.627860814849812,0.19965316303737904,2.034791204550503
1620,-0.7855444053035835,0.13515359513484845,0.6404055696717799,0.10481337833857962,-1.8564721363599652,-0.4297396503319515
1630,-0.7666990974200898,0.15688076897969228,0.6636154083313451,0.3302163507016884,-0.8078651735644102,0.08557539494750244
1640,-0.776888808073443,0.13658998178788267,0.6508655407813576,0.3515346103572087,-0.04306616941696473,0.44561312061797353
1650,-0.7656402778296627,0.14463946419314005,0.6576303127083697,2.1839248410880705,0.7531521127495389,1.2042242052711585
1660,-0.7495857919248878,0.16945030592931032,0.6758480812588183,3.308050145247483,-0.3158922448208833,0.2986503452006031
1670,-0.7775517355567653,0.1420830054797536,0.6535034813910316,4.45051688931384,1.0537108425103192,1.6531867315913154
1680,-0.7734538132482047,0.1465794381479799,0.6590507661867363,1.4093237237267364,0.4659454446251232,1.463815247120751
1690,-0.7456504615727532,0.1640357644702004,0.6756391371830623,0.29546107712630265,-0.9386674022771183,0.798832871276488
1700,-0.7659527018172458,0.15451557908748104,0.6625885391605515,1.8035580360868642,-1.478932173221144,1.1229813683626582
1710,-0.7734971159481783,0.1554532236487293,0.6511967782532417,2.163860762822883,-1.5152017336748766,0.7900874457872638
1720,-0.7690724304978618,0.16105235222744554,0.6558512833719647,3.021631258585616,1.6907428786633707,2.61932473161346
1730,-0.7616983919285334,0.1691624090474566,0.6661055682302126,-2.2984657859339244,-0.9008391740032974,-1.4042989146124056
1740,-0.7462561480406795,0.18566520114359292,0.6759245814948008,-1.5015676706607812,0.1870770070082702,-0.8773892516298075
1750,-0.767915709319587,0.14299983724722706,0.667346154924296,2.1871026095815926,3.4333836717610353,2.3278780652075746
1760,-0.7554368041448501,0.1598268864920237,0.6716621069897012,3.0081560996897254,1.5682469920505633,1.402039200367395
1770,-0.7362105993186726,0.17932455335352987,0.6796072359077673,2.96733430001085,1.50401347240032,1.917465190288665
1780,-0.7478033388578795,0.17916262444652295,0.6698163495311915,-0.40336100902687777,-1.3238637293541002,-0.8133462290844846
1790,-0.7530095894886956,0.17731506923777698,0.6704008845484577,-1.107987367370177,0.05563951756206442,0.010593626340943796
1800,-0.761777808250273,0.16577148122031493,0.6643432025734343,-3.649047309313203,-0.24676130672771582,-1.258870397821147
1810,-0.8106672300999939,0.11889235877015253,0.6165858972344284,-0.1740290637711448,3.082093610507895,1.5774538405014085
1820,-0.7534790777813247,0.17697813309630553,0.6788787919355961,-0.9408847072324897,-0.6939514929319086,-1.181332155142617
1830,-0.7374994611998659,0.18630480447342235,0.6899033499860874,1.5845845965688579,0.14041992494596903,-0.16381208928906177
1840,-0.8017361938802314,0.12118665676067775,0.6299351206207192,1.7321093986912217,0.7180259281330701,0.9120607091516484
1850,-0.7672130229961686,0.14583696268522428,0.6597333917806383,-0.43404351239985584,-1.150450075365857,-1.4421687753873693
1860,-0.7548716283778197,0.16084630941421432,0.6734061561706114,3.905304687162327,1.7511012075340637,1.0249680063632123
1870,-0.7557905720213185,0.16895671792541944,0.6726025186902326,0.540918758131772,-2.567024616842269,-2.8161652128267103
1880,-0.7561960435130235,0.16821002913907668,0.6678687578244125,1.0492030163689694,-0.3272898975978528,0.22620612484392594
1890,-0.7827203747306353,0.1295357532475857,0.6452100546593785,-1.7405121779050656,-0.21223858837845427,-0.026321623673804362
1900,-0.7831263721332383,0.12508698895303344,0.646898380372177,1.6301068424282592,0.4972783251486281,0.3861488443010246
1910,-0.7637044366239706,0.1553499630211832,0.6680201727006612,0.24950763659699327,-1.2495573559548698,-1.8680254501929547
1920,-0.7620275150745265,0.16391636978660745,0.6620614745698213,1.402781380424525,0.3578109003745497,-0.10434918092663464
1930,-0.7620261111053726,0.16269219599049842,0.663780434280728,-1.2412177214766262,-1.1685265806778034,-1.467249507738376
1940,-0.7738425033626596,0.1507018951891793,0.6544107046107369,-1.646801571589644,0.04294212406017062,-0.07491363309056442
1950,-0.7714261520545773,0.15048258242179252,0.6539614722324918,-3.9493944063112156,-2.433641408139956,-2.635728274096245
1960,-0.7620825799837408,0.14801807207178325,0.6608519514855725,1.7995268211172366,-0.06717884564735833,-0.8377019657331946
1970,-0.7722824531290959,0.14407617214682902,0.6530142379833322,3.635495801003933,1.1442912562547936,0.5612239009777251
1980,-0.7863667877407333,0.13313347326320218,0.6414871532524935,5.4075239354978315,2.6580113756220465,1.752223833619437
1990,-0.7525609247259772,0.1665185712799789,0.6760474622179812,2.0130104640062525,0.11865490144741797,-0.5830708986777795
2000,-0.750712271715244,0.16852803629107757,0.6746603026504737,3.9347922850486015,1.2478431663257479,0.6901924548181442
2010,-0.7559156079365204,0.1646703575253683,0.6708220521164562,5.355727568219633,2.4135774252847515,1.953600378404648
2020,-0.7711174555764326,0.14724262714412495,0.6580938940494371,1.9971673273395463,0.8450657595086937,0.4427623270627704
2030,-0.7586845381329309,0.1545311288655345,0.6687718507853343,-3.8397713367461774,-2.7780732439963884,-3.137903611096667
2040,-0.7574501410382919,0.16162938865328025,0.6731065550123085,1.1175987610436962,0.8288054283903336,0.7233252096561342
2050,-0.7521145260810622,0.16937918788279532,0.675175492126657,-0.6333730155361387,-0.7548160107616889,-0.3377991756681613
2060,-0.738180518591094,0.1864731309234968,0.6867398482320466,-2.6217038626859903,-1.0765341033785596,-0.7853407477912664
2070,-0.7690582128219011,0.14848845883421774,0.660359652829277,-6.308925431841011,-3.6371592916954865,-3.65975996336213
2080,-0.764062457942654,0.1512460892233173,0.6671749019125908,-1.2411916296391698,1.5216675913358335,0.9437301326036236
2090,-0.7743671170071371,0.14074568439985416,0.6537778904129741,-0.13127154648875594,2.456931638746323,1.7068209045404996
2100,-0.7504151480546889,0.16130284038833642,0.6761705992136837,-2.3167354921164796,-0.11756037604054626,-0.2921918964163911
2110,-0.7662834105388463,0.1453359118815456,0.6668264737582881,-1.0419704714810432,-0.48656753307622314,0.06951563503509109
2120,-0.7665082247169639,0.14970439152793077,0.6645490675213624,-0.3794782192880107,-0.2133156814975436,0.4485037180918445
2130,-0.7496459921315144,0.1762610127816609,0.6802405402930477,-0.9549452584577403,-1.6156216203928198,-1.757139878390208
2140,-0.7829721789232608,0.14379908959380927,0.6494592252841108,-2.900751299869622,-1.6859321858758907,-2.755094873841802
2150,-0.7401873955699882,0.18297672789504743,0.6918185302106431,-1.722378857686862,0.9295854570200857,-0.7368982319193131
2160,-0.7715249995278264,0.143313063765198,0.6599405666679746,-4.531049420511348,-1.209288877935854,-2.462023346184464
2170,-0.7413556397259305,0.16087737965415344,0.6892770181067234,-2.7747755574953117,0.12087091621157328,-0.10778637800568841
2180,-0.762194045641077,0.13123649296738987,0.6639514576013825,0.6436611929678145,1.484852385927479,1.7114500019841157
2190,-0.7598391984953725,0.14943768465815016,0.6670018030436,-0.4526682108328324,-0.6976932338982293,-0.4080082321889046
2200,-0.7681904026387791,0.15093039864408633,0.6705775483236557,0.5372209881407106,-0.4582005960006015,-0.6004464400131055
2210,-0.7654139743743669,0.143610876536464,0.6634779211894112,4.141202256419856,1.6824966486276067,1.1923052672673289
2220,-0.7746171741144771,0.13853883189432406,0.6582229546399804,2.630526054292291,0.22607674594831634,-0.13674627325850913
2230,-0.7692051006029532,0.14622552358140975,0.6671439232269888,0.7497064366047792,-0.45447284911328184,-0.5485571149627728
2240,-0.7432606843396171,0.16892944108840363,0.6898429850271592,1.596648198815164,1.1200556084545,1.073784357577874
2250,-0.7770696073284151,0.13327925287824893,0.6526308048667687,-0.44875037127113093,-1.4138879451771666,-1.6876805133318955
2260,-0.7870436511313599,0.1134630864908202,0.6387935316590811,0.9696249830146362,0.07156181488605434,-0.40948271357221216
2270,-0.7620821613000636,0.1611838467692266,0.6733390603853145,3.9886440470549993,2.838337877175176,2.3037505990285183
2280,-0.759957022882737,0.16041601206290113,0.6646867139337955,0.24424133009288695,-1.122830643504432,-1.9593438367528497
2290,-0.7551781122918786,0.1653657041215079,0.6714828348543047,-2.5885301404879386,-2.6459141325652396,-3.604554610286662
2300,-0.7667548722536901,0.1491135180538623,0.662860759904597,1.3325528085208835,1.1752573670643378,0.5234379999376829
2310,-0.7858726331754894,0.12232725989051053,0.6436915599412484,4.581137756389681,3.0121227462882256,2.579168456411708
2320,-0.7501635538282798,0.15317522540420767,0.6796953219613504,1.6271628509984368,-0.626457966773377,-1.1334468173645993
2330,-0.7533978324736934,0.14696612625460437,0.6769949817831763,3.6028625461391206,2.4003688559822876,2.2661960098222056
2340,-0.7755395297447235,0.12884030183561554,0.6479783100878924,0.8889440531639468,0.2507942078526125,0.5350643921093825
2350,-0.7428408022272195,0.16671502108232503,0.6851501907778859,0.5501408623971548,-0.1096583888708518,-0.5468429351427792
2360,-0.765118970315109,0.15960728664668442,0.672796924062021,-1.3941032498512977,-1.5596150483561169,-2.6997657231619057
2370,-0.7602745002111267,0.1611115320124174,0.6757898916516822,0.08493577304152627,-0.5018713337551362,-2.832858509751592
2380,-0.7491554072327828,0.16032201067884028,0.6830177790531988,-1.0356084619623163,-1.2659603097917205,-4.52253651392788
2390,-0.7693113358242282,0.1338710934077684,0.6628784569522933,0.6076411203632811,1.4274695653374043,-1.720642152158163
2400,-0.7586141332097969,0.14157328832472643,0.6699597702220753,-1.1928258277724961,-1.3646996623508352,-3.3442775677359435
2410,-0.7822852949044501,0.113331347391094,0.6475709031431919,1.2124190636939072,-1.2739022706852863,-1.2574305426146255
