time_ms,ax,ay,az,gx,gy,gz
0,-0.7063543038683563,0.19864505811181743,0.64392954103134,1.8569459885215023,0.2422473176912924,-0.38085391487574943
10,-0.7053667302597331,0.19818314084407604,0.6429524778295459,2.5902713628762375,-0.35627120183592015,1.0698005540143498
20,-0.6968301407644056,0.21118092724408255,0.6503296782966501,2.4516238735257563,-0.9666854102870359,0.37847370448016604
30,-0.7008952418609791,0.21435301455877537,0.6456921396707581,1.907106501903932,-0.3166072613849601,0.6709521714973119
40,-0.6947421637540352,0.2186198835844894,0.6442298968786487,-0.07138954950939669,0.7323705302862462,0.9957592245992544
50,-0.6901023861571461,0.21759017034500255,0.6572115046491096,-4.5673503405848,-1.974185367408235,-2.5747368943317657
60,-0.6780408778137144,0.22902206124298027,0.6712657891531587,-1.938222710401504,-0.4126700388022814,-0.7525646193259982
70,-0.7228368987844932,0.1826415325754636,0.6197987237548424,1.2793838202546244,1.8069467723233732,2.564976127013625
80,-0.715224950043903,0.19677426190071656,0.6332993276586166,2.102378719411188,2.730162004075776,3.5409344009964814
90,-0.7094228372202919,0.200458648540621,0.6451761468830657,-0.2615489845475325,0.6663267947770342,0.5226217190372037
100,-0.684829580394043,0.21920369245716956,0.6612548993123588,-2.5795098001718513,-1.4897071719214563,-1.9813962230136184
110,-0.7148979817578109,0.18942095896282513,0.6272180311496698,-0.24669453537729658,0.24749121368238652,0.24730975967131277
120,-0.7242299636418973,0.18088665107812257,0.629873467202037,3.0107418390903207,0.9132687885117836,2.2363475282672525
130,-0.7180660517721583,0.1920142229282563,0.6345061528567354,5.9840978195418835,2.7589908668320606,4.501162606777468
140,-0.6949328887067231,0.21872133537753843,0.6576038277413682,4.326594664704959,1.7164636762526335,3.3033401165494602
150,-0.7196238728870804,0.19827249260138566,0.6277630655575763,2.070833104532051,1.6337882531906665,2.6676572012114352
160,-0.7110333181803893,0.19883320822779862,0.6335792401075229,-1.8035651400887498,0.25157732047486236,0.5598289281545665
170,-0.689923430814359,0.21237527889135183,0.656299742319525,-2.8726751206194656,0.49842096692131765,-0.12488335105026926
180,-0.7002863873833669,0.20789683373180218,0.648329067744168,-2.0813173279962753,-0.1378464666277008,-0.9118436728122851
190,-0.7041068107431506,0.20480978938731165,0.6474359017102911,1.7033933991141201,0.7902122591084986,-0.4208112444927665
200,-0.6915322041343769,0.2263002877970019,0.6586861354847995,1.4347251090560231,1.9461296104115071,1.2717823783685849
210,-0.7038388411658774,0.20434282621097224,0.6378830955294928,-2.126616477982412,-0.14192850663430906,-0.7039773709910411
220,-0.7192560371105735,0.18581096541666067,0.6279032650170941,-2.2848690150810054,0.1906331381032253,-0.005018494205019054
230,-0.7111557503079734,0.1964453277962293,0.6430275494743296,-0.45265858708852325,-0.6492114444266562,-0.14401868365882997
240,-0.7211837279224436,0.19199953802171635,0.6414792515456884,0.29252616155708533,0.28263770990402964,1.6807221774064391
250,-0.6901990205958869,0.20990259801340605,0.677020658641604,2.556395168859372,-0.13092692687594631,3.6850390100808053
260,-0.7323252636382022,0.18564671947750594,0.6626823829703234,8.985548907343002,2.1086254656060355,9.085675058801034
270,-0.7405837145573111,0.2208671275723062,0.6841196959251313,11.587045544966537,-2.9257166525431986,10.198627644206677
280,-0.7013512657865462,0.030180279687758382,0.7356939041251853,15.195043756913869,-25.028258984757848,-17.656571295195285
290,-0.6495432334433073,0.1696951588136831,0.5939287919633625,-1.3011645705453982,-34.42593812631293,-43.60284830244475
300,-0.6155194309447215,0.366553891623897,0.5447529264863341,-4.32611395413163,-24.33522795782561,-47.17930766435267
310,-0.5581734969730654,0.48685818474141007,0.6280630120153394,-30.42841896960083,-19.10253525689559,-31.391337192489452
320,-0.5207584271918164,0.27324028590866983,0.6078050070330007,-23.061903011506597,-9.374807629283687,-16.683459684194435
330,-0.553730637447642,0.23722017474849125,0.589842235282521,-23.25080895156416,-0.5132257381603702,-13.798327457308371
340,-0.7479407924358016,0.11793488160341059,0.6533743195955843,-20.90599958382441,8.68685937813686,-5.789140680651818
350,-0.7861263754453414,0.08761624069752551,0.7787316716272524,-13.538041335162513,1.9650513369875147,-5.1297295606499835
360,-0.7564516901820608,0.15024315928178356,0.6381166310360322,-8.726620031156568,-1.8776799689286339,-3.009026828350105
370,-0.6339136008159719,0.18787765381201108,0.804942207937444,-19.446671198031762,-10.363204549337961,-2.470023189693882
380,-0.6641697547684081,0.07411486207548751,0.8148082726062174,-36.778687774362176,-14.95375329056762,-1.5368129425844732
390,-0.5614991270072153,0.09588281378967362,0.6807438997463943,-30.64114484550413,-23.314793159371316,-14.569608765106407
400,-0.7199594453221343,0.1010633397768426,0.6185677692336226,-1.3498054178890064,-9.774023047235907,-9.567629914872946
410,-0.7738072889347034,0.10231946975852955,0.551318071333309,17.806096468860364,-6.539464937041825,-12.129587823599547
420,-0.6713100182804518,-0.04600194078550365,0.9157595900462571,-0.008980119541597498,-4.0791167376340445,-24.134988551973933
430,-0.7117320466688216,-0.007268516724802894,0.7133400005141302,-32.029876895869634,-1.1203541147376193,-20.72729930952636
440,-0.7678694103634389,0.21726500533988943,0.5662668892956435,-3.5069634178094318,5.989372024633518,-20.339387222776708
450,-0.7701718173461123,0.10571923608499026,0.576139089171497,21.676808672386834,16.790636774715672,-11.028585047860599
460,-0.6351009042092842,0.06746058327290863,0.7576266771063572,19.334956142351487,17.17890878247092,-1.7363712960812343
470,-0.5125292312545051,0.09022373447649085,0.9707580993992769,-3.989464289239978,14.624467100909724,6.510815354200459
480,-0.5847662143157333,0.03058389688109705,0.9995658448931052,-21.514805092093972,17.536073389311614,16.80899823726111
490,-0.7002843486554778,0.25036515445034163,0.687302140002468,-13.81918393187011,18.777942564273516,20.975284548171164
500,-0.6645567243061339,-0.06103641589340138,0.7405952612914419,-2.956725275506276,2.971235948079933,19.36121419514671
510,-0.7131078930470907,-0.06954790034253609,0.6696761122538818,35.69796438196607,-2.595405188680256,4.388835290697728
520,-0.6618105987197908,0.11355856963748842,0.7021615456100883,47.32329174694039,2.1133467917866695,9.224735331539009
530,-0.6874565514701263,0.1305961547519045,0.6838643765422326,34.786813479541046,-1.2102506647859435,2.1283085897630327
540,-0.7919759712496411,0.12503258149137877,0.47019426545057064,29.259479794657146,-1.4591280924992507,-12.015418999802888
550,-0.7779449975660916,0.04531756111751854,0.5204879109137618,13.401070764482373,3.9661039170113073,-20.172248909694765
560,-0.8305121433723656,0.13886469146116678,0.35614402375289456,23.403368116104602,25.258021130569862,-16.638773557783974
570,-0.7603580462118645,0.36146952950955763,0.5119043071365313,28.971403125414064,26.766565899508162,-5.56117159660045
580,-0.6562751963806186,0.2911646933858571,0.6761271737775049,26.865389356849967,29.335589961447994,13.336081543969623
590,-0.6632688953510822,0.2736049223604471,0.6018910204612553,3.248896840057663,20.353837462367256,20.15636133734183
600,-0.548517027270988,0.2873622749849723,0.8110757381407404,-9.964264219618416,14.007520830065324,32.50279627263782
610,-0.6609269045358406,0.17968325693170814,0.593310944590295,24.151824988217214,-5.148665232053663,14.646672075474271
620,-0.8003434068988913,-0.06715478805983707,0.6050694634369453,25.656922653251282,-6.233156377965148,-0.40356916951339383
630,-0.6909606682124159,0.20046469999190428,0.6446105193777178,21.570131989940233,0.04985933417562438,2.2255747993312145
640,-0.7151246866912695,0.14393681883866724,0.6358454861056226,7.018151244155291,1.9239811715338293,1.255735420914604
650,-0.7319104114125514,0.14316252147098346,0.6227339870179742,6.312585435156429,1.4114401856114893,-1.9053523593204762
660,-0.7281702502084114,0.1655808251200213,0.6276550804523505,-2.3734611057937887,0.954989202036522,-2.957969952789381
670,-0.7096546680788204,0.18378197621214407,0.6447254034622856,-1.3813147754317314,3.5554003786817026,-1.4209556817194129
680,-0.6865021503851073,0.20431042549207729,0.6702938057727288,0.23309555827353168,5.898273859789168,0.6948049202843836
690,-0.7291057241393667,0.2039318705780518,0.6580850026958117,-12.311492478084197,7.6030792310835045,-0.8328064606479911
700,-0.7248184690114663,0.17675466729485623,0.6449690323268449,-5.920477348888612,8.391782774249668,2.118627784949128
710,-0.7249002727052616,0.15469679859788896,0.6220205767169689,5.416677418553536,5.589821189355899,7.453668358201125
720,-0.711672465231044,0.21098860965322766,0.6386331365661598,-17.683200055453106,-0.9948476329547438,1.8897726013798
730,-0.7347624192827726,0.17814304432023012,0.6186599780099826,-19.274189622773754,4.931930325395205,3.806192063516179
740,-0.7278262169519688,0.17990742803922216,0.6222017256477765,-32.83236667374293,-1.7807599976546373,-4.484500652457193
750,-0.6916726930914963,0.1873612867313009,0.6541375819633486,-23.033194286953087,-0.7686409846633068,0.949836757642263
760,-0.7086908092560189,0.16110774327499527,0.6412083982164922,-5.021312074784905,-0.25624970213274295,8.349739449242369
770,-0.7039692103659708,0.1912550581820163,0.6436923224690044,10.837938393469695,2.620677947139805,11.384121851229139
780,-0.7394535048748024,0.18604773772040686,0.6052624735812835,11.300356348342998,0.2478590181248621,5.395840470371139
790,-0.7421248813421564,0.19244866332654714,0.6057076831863323,2.441035411248264,-0.9088572739666266,2.30098756955766
800,-0.7156259551504314,0.22155568833937572,0.6341508503393021,-7.736028450776807,-1.417449125550924,-2.416047787027257
810,-0.7222644816184262,0.19066554950717826,0.6275150583855726,-9.4251591694603,0.8403032134904029,-3.5120073974573414
820,-0.7128254146143974,0.18234043977804537,0.6318126272596962,-5.872200795631094,0.3154999338206236,-4.285154428223291
830,-0.723260351119547,0.20128786405722954,0.6174843512482773,1.6433073861968683,-1.0189159591032322,1.2079745758054625
840,-0.6870334602423408,0.23186068419285782,0.6618000917807166,-8.381750275925391,0.8692260041421407,1.346811511502651
850,-0.7168883811832509,0.17038991342366572,0.6320375915872307,-13.176711928750496,-5.329762243694556,-4.253125566848455
860,-0.7249178919200645,0.1646517348011028,0.6211050936574052,-0.2664730339406325,-0.7511964332722569,2.68281425993342
870,-0.6983368646630354,0.20639427106403796,0.6476070597297523,4.730078337911297,1.1022171957666833,6.0680693202808405
880,-0.7119693294068193,0.17752191322054345,0.6310038765865887,-6.449587825604762,-3.3919582844242626,-1.9840363061840067
890,-0.7167116902385329,0.1577990477379201,0.628310605751154,-2.40999659813777,1.106928793658294,0.3356097929608435
900,-0.7015810572021591,0.18110928839744983,0.6517915499452914,0.24311778262143557,-2.6081036489101495,-1.544415185369648
910,-0.7399642108708647,0.14381286977219307,0.6079983634670788,5.335104696853495,-1.137213873322915,1.551826149710847
920,-0.7306234488792078,0.16009704116973875,0.616701315806281,9.46605140769769,-0.4695400829296655,2.334669374406302
930,-0.7020882294316435,0.2108361694279341,0.6528685071002827,7.788127467213451,0.2511952905160356,1.9308936869010855
940,-0.7231696098701478,0.17507573916172142,0.6210685295129015,1.1670884936183328,0.2413349515191322,0.7892128292967168
950,-0.7012356007027618,0.19083784901464013,0.65109069453231,0.551743430970233,-0.397264430887029,1.8990178317574773
960,-0.6845221557550306,0.2061033157304049,0.666694557319548,3.4180461517882064,-0.010502337435483455,3.2585741782997335
970,-0.7348334221948726,0.15476352946702338,0.6150119364278898,3.9610822882920864,0.2713528963351741,2.905059241040385
980,-0.7102211682984124,0.1858934716540245,0.6383716157458665,1.9061456531872423,-0.10736267606452332,1.6239957386743047
990,-0.7161113143916864,0.16904906637000852,0.6309934023318928,-1.9143927591460912,-1.0556491093501987,0.42944728343252103
1000,-0.7130041553286055,0.17975760871093702,0.6411649960470012,1.685504541999995,0.4101257084717239,2.7055105888098487
1010,-0.717226675590168,0.181675445499049,0.6363651561343255,1.903193543779019,-0.2952603166229971,1.8571075075745833
1020,-0.6985254098105962,0.2034887526758817,0.649868099339843,2.6119681322963353,-1.1508443522884684,0.7962259960670293
1030,-0.7077433792829254,0.18487240235619157,0.6382881161215811,1.1193513335040834,-2.258685783631417,-0.5703781337815066
1040,-0.6911474202789847,0.21992372630274104,0.666816628228906,0.5783254296034354,-0.8683042747725582,-0.18257640225488647
1050,-0.6854674154690394,0.2236229407450333,0.6678231847684509,-4.485590963683819,-2.876128371237253,-2.729009486731975
1060,-0.7222188015117861,0.17349173099348933,0.6256919032912919,1.1394910931419846,1.241609977293393,2.305320783941773
1070,-0.7317579573234293,0.16076807110359784,0.6144538130446511,-1.164603433758392,1.138099613279493,3.586508280791485
1080,-0.7073828675585075,0.19165083772904323,0.6413580628711533,-5.848919455691969,-0.6705765811742413,1.3190596671009902
1090,-0.7121083711776046,0.18421285993664108,0.6397660254312798,-0.44944240193058693,1.6980278086211769,1.663755790647434
1100,-0.718704595722821,0.17475896720762313,0.636401920650285,0.3125142797521412,1.690100339792835,1.8681994983856964
1110,-0.7235364091081088,0.1693709221865054,0.6203845360804492,-1.7570075625806454,-1.0902269103097038,-0.06285129031572745
1120,-0.7223086863306716,0.1829359929686886,0.6276787071090693,-2.8909492936973846,-0.03071551000029149,1.3275959342699095
1130,-0.6892447232296623,0.2035047222251993,0.6565258518790262,-1.8959719802712693,0.5038853902007026,2.3215489640012628
1140,-0.7155715473777167,0.18508284184325885,0.6367916420898985,1.4214665272049025,0.889775732322298,2.781196539998416
1150,-0.7185500341699227,0.1771418960766621,0.6295332344493063,0.6013756566410575,-1.3507327619571636,0.9147014768727963
1160,-0.7135057811265083,0.20036450989813,0.6388481473873123,-0.27977126546216224,-1.0468439648840522,-1.5536777441018588
1170,-0.7246179467003306,0.18079500400031648,0.6270064285268805,-2.028708416743257,-0.6537764919095923,-1.1673897937783422
1180,-0.7176660865026427,0.17889568662427094,0.6331559869323428,-4.238082023257385,-1.945122776432928,-1.1636476664579303
1190,-0.7386958491506298,0.16107450531403994,0.613354127005516,-0.4458886494073029,1.0590850853285572,2.784145713587978
1200,-0.7261734338522222,0.16646640952746772,0.620664604217399,-1.37542909125937,-0.6060899807293993,1.5818494481835845
1210,-0.7337878328118649,0.1692508526327962,0.6144014533897318,-0.17470939450451373,-0.988072144684794,-0.3193338257294185
1220,-0.7134011732357147,0.19883293709967675,0.6382648249877498,-3.3976829370424486,-1.958828346615604,-3.030137905296078
1230,-0.7129338368714613,0.18785611685638565,0.6386309258492374,-4.663715300176019,-1.1752443055033706,-1.7981504902595797
1240,-0.7018649845644833,0.19801562899390562,0.6433264964643212,-5.240414184578115,-1.163326740516558,-1.076231803315585
1250,-0.7276975497619516,0.1675854256967156,0.625460734931228,-2.4485668536109966,-0.4767700578847267,0.8008400655528932
1260,-0.6941256097031516,0.20361173212800848,0.657919906024122,0.24317591365040703,-0.03238905125071034,1.0970981135264282
1270,-0.7045852410349066,0.1958484198529562,0.64324179561833,-0.8440555411413477,0.7944097700636418,0.20828947846319112
1280,-0.7152357118439544,0.18391267720914467,0.6352812257839456,-2.624693888249159,-0.37716406613326314,-1.5197487884355372
1290,-0.7076463723609284,0.1898271140811124,0.644557360214588,0.7114064530853167,1.9048644847801723,0.4753187855397384
1300,-0.7007167117073587,0.19016435222068875,0.6477223704919244,-0.16789202370588718,-1.9913110667680698,-2.154862568032775
1310,-0.6988241068271756,0.1947742828902657,0.6538311524867383,6.310840789666292,4.31157981359235,5.179895554864551
1320,-0.7402606568850947,0.15711804615722602,0.6129745156212238,5.648325770288457,3.1580842493615813,3.1862789416660515
1330,-0.7244798717300217,0.19164830865604965,0.6340551736495662,-0.2997135781501694,-1.1704598200266587,-2.278429388781321
1340,-0.7180782652725858,0.19070428826175917,0.6266739075851074,-1.2203192779186716,-0.3978002518875364,-1.0109711565514066
1350,-0.7339077941987311,0.16034916319671622,0.6154166374237947,-2.5460969044276593,-1.067885293080113,-0.4063871984557137
1360,-0.689326898038539,0.20835552867579382,0.6628031577700915,2.6738482371374275,0.9819820551851693,3.38323298728013
1370,-0.7399699849876821,0.16946254610499714,0.613211212036126,0.035554448539042216,-0.8982135016655195,0.4707742815126694
1380,-0.7313208557073764,0.1687943446848532,0.621609568046414,-2.2864961475934527,-0.4672205059837445,-2.0426488849897
1390,-0.7232960014941151,0.17764355189985828,0.6298718857395986,-0.7224018344776971,0.5060180516410916,-0.96181836227411
1400,-0.7090711974132329,0.19269938679893592,0.6447840781750218,-0.9064849856173213,0.10106703011046658,-0.5492282377067151
1410,-0.7295708052556316,0.16617367041864087,0.621095432402907,0.5726500632057737,1.1103016574107276,2.071078723183862
1420,-0.7244260956285837,0.1694155050693575,0.6296520941025407,0.3555782587827124,-0.025362533080975858,2.01473580010822
1430,-0.7113148614754095,0.1945201249523588,0.6408167456627661,-1.4890116886975628,-0.495466458111019,-1.4104475366057114
1440,-0.6955624171866484,0.20580424655370874,0.6556840267368695,-0.012490602664002814,2.79615870010977,0.473100980696171
