time_ms,ax,ay,az,gx,gy,gz
0,-0.7502284693178721,0.03980682588775243,0.4267840946414241,4.248804232162529,3.354515722225413,5.038852589154061
10,-0.7758852745398841,0.01605160798215918,0.3994336006751192,0.7581003628425227,1.428145457499629,1.0183866931200647
20,-0.7774742856359602,0.0037071953857191996,0.3904189104283339,0.025399582434372237,1.0087215472530968,1.0671009187421736
30,-0.734858034186684,0.04775962292918204,0.4357204727563656,1.895885219548715,2.1047513769910786,2.8821875357886686
40,-0.7439739251371559,0.04325687009262472,0.42372444056153546,3.737339873973455,3.035143225155534,4.290697702427961
50,-0.7507355098186614,0.041763887677024464,0.4261160153992493,-0.6599037028248103,-0.10353023795724522,0.5277697529786616
60,-0.7420048477904462,0.04467070409547441,0.43023525573986116,-1.880482054396701,0.7365222358954637,-0.831560222202312
70,-0.7661504140778316,0.015458761155152942,0.3986880981123785,-2.127930884288727,1.6081264794417793,1.4100102067104505
80,-0.7473247012916961,0.043415241570175296,0.42770163792435845,-4.505267669147228,-4.168400314698738,-2.3144030922116703
90,-0.7558539819810136,0.039230100902679414,0.41678884936747707,-1.6505320072291183,-1.9218041894027755,-0.3436653398256051
100,-0.7619802140245644,0.010320689487371146,0.4036370752895589,-0.39260739576486914,0.914584971910881,0.7970070813448547
110,-0.7505275952487025,0.016831483616737024,0.4136403943450787,-3.731227949377583,-0.4330091686760493,-0.745512356767994
120,-0.7516510767086203,0.03315146943374701,0.4222017726582222,-1.114309495058484,0.8322810027249106,1.931321941298492
130,-0.7552672913175484,0.02439509512246319,0.4174874733633398,-1.671349123650207,-2.8162932326376793,0.23173475087782247
140,-0.7602436113409005,0.025320636260204164,0.41975185571620677,3.4909383131336256,-1.7510708285370948,4.823290744589871
150,-0.7609767720031053,0.028108271025298597,0.4156091998805324,12.248015629875425,1.6413741426203128,12.889777731577928
160,-0.8083493441262967,0.00840380727880205,0.4424982176808363,35.52950243679286,-1.504219770601587,25.32047881922559
170,-0.9214967674788083,-0.12069075985492206,0.5463630538246743,56.714404504081564,-10.376260115593762,43.52419664746425
180,-0.8842468147315155,-0.25822565335860564,0.5745657920942611,22.25846601035945,-32.56288158546361,16.025939226329804
190,-0.7404446710323332,-0.03281264388519073,0.5023736260659087,6.798522138477483,-46.82981314974858,-9.315878013811673
200,-0.6748365538243322,0.14061904942624226,0.46783987333467264,25.08162070636617,-49.911019667177904,-5.199859601015789
210,-0.597815725822115,0.24506949343001036,0.36491389317794803,11.077783263522194,-42.79164600667186,1.4150416792754228
220,-0.5826219505524669,0.12654964599957347,0.36474127331466766,-8.525451197079715,-11.380851350568932,-9.754242979583207
230,-0.6822193582727798,0.23510653222027925,0.4023454638432181,-12.705861314149997,-2.851194560526885,-9.654628910890306
240,-0.723201262910391,0.3187576192924419,0.469100053652825,-12.391106065282335,1.9990234395063498,0.7336434384948323
250,-0.721672343995946,0.27694950559129855,0.5132227185586855,-24.724107552338587,-0.6528383895397352,6.680953873930699
260,-0.7286804684952326,0.12743146881307435,0.5402924807247396,-46.37306870310071,-5.619436387466193,1.1199318936295932
270,-0.7443501386075502,0.09647348984620302,0.48138152492834446,-40.30650841422569,-13.178162639556001,-7.13634221307913
280,-0.7011319965788443,0.06669364519679795,0.4446428592529965,-37.2260697237705,-9.603925846585044,-1.2055562889400677
290,-0.7086824922897852,0.015275982204233856,0.4486883192138392,-32.5566273412306,-7.922477642278822,0.8323380990892522
300,-0.7473248309085215,0.01418285042529276,0.41467598689714175,-21.8658020765571,-1.6272917806972838,2.6768581495271744
310,-0.796721905498097,0.0008515338026808053,0.46575611660418614,-10.156030146242292,2.318828353501033,5.636355411470081
320,-0.7093297401191798,0.04258610490335174,0.44285953026027036,-4.503205796441198,4.928575813541439,4.3482447616433975
330,-0.7334038495317963,0.14572796260769466,0.48134461740346896,-9.43373491263322,5.715035123881044,5.192772600376282
340,-0.8022638762425073,0.022472678906275054,0.472361855178165,-6.960582074475127,9.714417924560893,12.954796630445042
350,-0.7059492079435068,0.01217139787421984,0.5265898775105244,-11.213598872797947,4.021918512744437,1.7549411903611767
360,-0.7044339949462778,0.043760122875235084,0.4956959247998002,-9.138275885304306,4.056402001543213,0.15624175661855594
370,-0.7202202255109138,0.019347545064870113,0.49031401689863413,-6.591054554200732,0.6851065282118356,-1.0469172610906932
380,-0.6913156466027279,0.03115884969657755,0.5421268779060271,-7.374626689056086,-4.499505822206789,-3.192231042829274
390,-0.7237077424559353,-0.026764996876140392,0.47465222411023344,-17.57017206125835,-9.86936988194119,-7.243600474547447
400,-0.7182422985696748,-0.00827563077650999,0.3244928919371801,-14.797251626464726,-13.559743665747504,-10.273679172523584
410,-0.7759585342194322,0.0733528762804322,0.4344463716925789,10.770530714296003,-8.355690986339125,-4.682583998932773
420,-0.7607946183076411,0.0877417550305603,0.40313785244584843,20.6997174118615,-4.876546240146361,-6.04808597437804
430,-0.8247299794227758,0.25728799539933034,0.38948724829291204,16.50417625880355,-10.663856098896446,-21.362090938760627
440,-0.8016588027605146,0.1465630945160094,0.39570552903259876,26.069568071324465,1.1647269346184401,-8.736552485955983
450,-0.7935034691445727,-0.09430082533596153,0.2935154857697722,-24.861551129190826,8.118098426803932,-23.551454277776763
460,-0.7766683865233461,0.025096618351577574,0.4036121267628068,-29.830876675987795,9.502025724708918,-23.10999792440171
470,-0.756598239637023,0.21218384403459362,0.6080701666091637,28.117305943735005,5.3444917347070575,-20.678616787994553
480,-0.6805129389240212,0.000482411614538358,0.6258698437079551,10.77121188422754,10.066533286826472,-14.905198950110021
490,-0.6671456505147059,-0.03028950253905789,0.6511436517737694,24.450824860664635,12.117922589044298,-8.20008495268944
500,-0.7175988716222473,0.061031068034561355,0.4547765308865167,-5.011752091777705,22.857600799613767,0.25888048869248603
510,-0.8060016763398546,0.12303109563584326,0.2996662010480139,-29.54674321785979,15.487141920521927,3.282099638740452
520,-0.8049848537324822,0.1703290876635897,0.19464191697283897,-29.71152592626861,16.81501355297781,16.113115864236278
530,-0.6591143474362589,0.13164878534710578,0.3238544935668595,-22.626245212362463,6.836379000724513,35.1889428620558
540,-0.670106790697322,0.020986552970172087,0.435543879810989,12.198383612769726,-5.726269392510826,22.871939776274886
550,-0.6735500344296124,-0.14104098585500677,0.5449572997587854,-23.782627932347655,6.218752915085692,15.79004090948731
560,-0.7616061825657434,-0.06966694358097372,0.3850426784929163,-0.5961070510834732,-0.9580053210734891,3.8900114867496263
570,-0.7288006084856292,-0.07285492241204793,0.4633436358101607,12.676142744255417,-0.3732674772390776,0.044850526737372
580,-0.779308732255401,-0.017877729966368303,0.35068161488971517,21.414523406122342,2.6774078361924056,-7.020781707529701
590,-0.8100971526728428,0.08012671323023263,0.45385849628705577,70.23796253836915,3.1495368332871236,-12.867792249325912
600,-0.7638945975897563,0.10888810778620533,0.48032259898898927,42.79936014257999,4.542846750758084,-20.65644262721088
610,-0.8305729667250236,0.05774917806086581,0.3553689682649717,37.14768782250455,13.507474226762401,-18.92879055327702
620,-0.6656205491256153,0.0754979177998,0.600763952371111,26.79530407378546,12.683354101945207,-24.635765964365998
630,-0.7493044351371847,-0.01581607374904461,0.5359317819622437,17.64352762177499,21.67422659954291,-12.729886299564008
640,-0.7849445997933627,0.06805620795495126,0.4180726302973148,18.894537904870692,39.21760798809618,14.272478005204155
650,-0.6543627638188259,0.2780659069751374,0.5293697201305017,-4.0925933959389145,38.947526528539726,21.490357160078304
660,-0.7279543584598156,-0.02537332443197677,0.5979291802402493,-5.2880274173303885,14.95285548244788,11.105669993138516
670,-0.7190112777923674,0.009211061772795192,0.5833050721495603,-41.11575233050259,8.551775937396481,12.530310206693896
680,-0.688862774370935,0.11418785102001326,0.7034336440709,-74.38134848664157,9.14153633071714,25.697549607591842
690,-0.7686280013565873,-0.24812195189910075,0.47192901571327384,-14.27843936118622,-15.049139928021077,-3.517596022739942
700,-0.835799222401431,-0.1795895220720129,0.2913320723619348,-25.51643244749016,-6.36071216607218,-17.508580234014307
710,-0.7788776404527518,-0.07659519003226159,0.3672005637018087,-14.959099420857621,-2.0870820987585477,-18.01337762845705
720,-0.7721060660971192,0.001329228147983261,0.3860914129248232,-7.8946355153245875,-0.7424934845804254,-9.142163882340013
730,-0.7609092857450346,0.01655465197525472,0.40113168235224234,-8.007228886782118,-3.1117094474071907,-2.5873258096088207
740,-0.7645436552103199,0.017296645433281785,0.4033537662122126,-3.8468943830279803,0.6662749468150082,4.87374953823535
750,-0.7493883250951887,0.039918944454400404,0.41234750926608255,2.951166162257045,2.5240318261434664,5.498639058092327
760,-0.7580947862790439,0.027480223237598352,0.410532346810519,3.7370861811614198,-2.2015921746584257,-1.7469352079708147
770,-0.7612333931766152,0.018335438431269054,0.410509905479983,10.22194623570922,1.1380989832882704,0.8800856441374443
780,-0.7760316396497712,0.024699664861922436,0.3931736281077873,8.413008889689877,2.870570953398782,0.40770523021413235
790,-0.7576579179586366,0.025155584479608393,0.4014396975978927,-5.3750784265791935,4.257363021962641,-8.294624493758372
800,-0.7469072625460594,0.042514259766688,0.4259038879884999,-7.3906800041214025,3.234665422266426,-11.215099049007867
810,-0.755065241555804,0.0026535512890053727,0.4105208405749884,-8.395222730295458,5.037172993166078,-4.043084945504635
820,-0.7710997465906148,-0.007469089370232256,0.39788677584838317,-7.282251859343207,-0.6914970085828214,-1.9634601634995774
830,-0.7748104607204732,-0.02700507772530967,0.3823511941761306,6.538793547908435,2.658648717250607,8.394647386973379
840,-0.7662157160527698,0.013403237431993844,0.4011951161501938,9.853736273512075,1.805513633343533,9.333415361197886
850,-0.7899027711187672,0.004603441430347174,0.3763692722676245,2.26318783744857,1.0321133370386644,3.489771108979798
860,-0.7548082772326855,0.03094048467370755,0.41159532298890594,0.4905870556112719,-0.5045713260953915,0.5214044942807465
870,-0.7642757893290676,0.018932983296087454,0.4071451196262099,-1.8357323479536687,1.6866428999724772,4.292046145400116
880,-0.7682624793592612,0.013979238716097549,0.399245502808916,-8.844647476026454,0.3776743861756988,3.56763248067351
890,-0.7794606408209827,0.01524819527968143,0.3896124380249935,-10.18807260894968,0.6179835020711913,4.142145216160441
900,-0.7787451016978544,0.00902452076103278,0.38018357673528197,3.3086518919447587,-3.2675600822663875,6.176364018774238
910,-0.7722231681036802,0.023201574435270184,0.39486819748879753,1.6423126663365357,-4.294144253332693,1.4584156274506634
920,-0.7637935368146105,0.042722621199166776,0.4091727652408184,-0.05829169284051361,1.2734291533877273,-0.07289328665224903
930,-0.7587372222195902,0.03969065232497451,0.4051128569531542,-4.118916344067118,3.7919532934389086,-2.068897184760412
940,-0.774855241607649,0.01761686355841855,0.38994898488828506,-5.645616031124575,0.3066473827756686,-4.015614074411056
950,-0.7732226319021603,0.022793247334395923,0.40111600365586614,-0.9642505436721314,-9.007722371252667,-4.033666305406576
960,-0.7275147299350118,0.0621288194413617,0.43201740832998825,4.1535526178662305,-4.426724459389027,-1.1767783508679095
970,-0.7682910741955672,0.024937639176082,0.4084013617150864,-0.2619679757884648,-2.3563655707028355,-4.686848417347828
980,-0.7774773545178617,0.009154254449482861,0.39278720707910986,-3.200243284238412,0.0542374131269025,-6.4207443443947465
990,-0.7717086381127931,0.005300122846814411,0.39236480438066645,-2.7745681951608923,0.4457223381030984,-4.2592202558235455
1000,-0.7428745481538939,0.03406399536885971,0.4198703498397654,1.655307510481115,-2.998203427981183,-1.2077996877018653
1010,-0.7700644441923373,0.010121480095603388,0.39477550683433726,2.5153580657324226,-2.3224423352210364,0.9540805410144091
1020,-0.736416708635979,0.040976126669715944,0.4309476538713722,3.6384313150439165,-0.6749847262043924,1.9108326037013064
1030,-0.7583963680262246,0.030866521384816437,0.4116574547131582,-0.30343349522106855,0.1015186734219977,1.9271730895565824
1040,-0.7509539716282227,0.03326609068074429,0.4185882369393518,0.24237790048810004,0.3251576329493847,1.1183425906475175
1050,-0.7775508184492984,0.006596593096501187,0.3933423470663771,-0.7292911699160034,-0.45817494456234226,-1.1222568199395857
1060,-0.7338901909079186,0.04766776710262063,0.43208220063177677,1.1268590001826628,2.137672715297962,0.4954646888553993
1070,-0.7712818767604772,0.011391716134953786,0.3943482190481683,2.8099857023540658,3.2032773090987443,2.741463735156065
1080,-0.7493205187806735,0.026483727821360454,0.4183854638598398,1.6384528057206669,-0.10109649361713618,1.6238129764261091
1090,-0.739489089154418,0.04964175834964967,0.4287574090931283,5.958914933582097,1.8241560411754554,4.3993466677150375
1100,-0.7555425898563062,0.03502356556574624,0.4138153942965209,3.5822846193621922,1.054376980286018,2.9642024312973634
1110,-0.7499179264668419,0.03510554088967554,0.41565985829438123,-5.388547514321443,-1.3464622830430144,-2.940026892921195
1120,-0.7597637711117969,0.022347210709510013,0.4089856702040562,-5.2228856214401596,0.2589502006010933,-1.8282600551624792
1130,-0.7643447249012008,0.015323969323975234,0.40627191538774343,-6.333509695069887,-2.803789652867439,-3.5990342082774776
1140,-0.7546128967519025,0.024564312059532373,0.41218315496935426,2.4839211164171915,1.4402335964284967,2.665492012051799
1150,-0.749729205338842,0.030219821736151113,0.413809986672196,3.9428585125744977,1.3540152729952903,2.8640390119713883
1160,-0.7701809987758752,0.013433027377729742,0.40088236113356823,-0.2570934645427341,-2.6678701490624115,-2.09880478080099
1170,-0.753240840399552,0.031079137739987633,0.41592751112148474,1.247679127989708,-0.15580550286756717,0.9414505035480056
1180,-0.7727228572494362,0.01005623154951146,0.39607213257933793,-0.29306852454828647,-0.7640302212669443,-0.7004851073377312
1190,-0.7811018151715394,-0.0054264040995834865,0.3821584213346154,-1.8135455508894909,-2.9309843360275085,-1.920544093574741
1200,-0.7582886949416091,0.023447521260402164,0.4051321190285051,2.8912246947437596,-0.5182404182577183,3.240437110026475
1210,-0.7568499879496722,0.039029428524810506,0.4083586938915955,3.123837223253503,0.6544867552047842,2.4733152056577943
1220,-0.7475365130846662,0.04121916286101967,0.4231782018006306,-0.9393365448434547,-0.33189503521117447,-1.8020364586629398
1230,-0.7659637912284256,0.012815427877138835,0.3986933550773292,-1.8708663814498405,0.07801920806345775,-1.3967549265409018
1240,-0.7403290555134819,0.04457200755999685,0.426814234996782,1.303524188559889,1.2635274780751415,1.8287452055799838
1250,-0.7692830667286102,0.011652217616024692,0.3978340054805582,2.5635615349782546,-0.2730435818237776,1.342244058579916
1260,-0.765846780554542,0.022681923978208646,0.4064297275692268,0.3316759420370887,-0.4506917799000229,0.7827163909757392
1270,-0.7580168020853655,0.03347500325836312,0.4114799029425605,-2.8799586376951636,-0.5723396122334623,0.07444027009833531
1280,-0.7585575276727087,0.029883708718477158,0.4100365768544115,3.5599623255185664,2.2455460439704695,4.455180344292872
1290,-0.7521795938897984,0.037005718899299295,0.4176681060739936,5.887222647026514,0.9625698625817315,3.543042622910972
1300,-0.757343126634836,0.0384483805283346,0.41315923176764674,2.1279315713394147,-2.0051956207885855,0.22928188308051212
1310,-0.7502804552027297,0.03920507950040519,0.4136070300505825,-1.3037888510445574,-2.2688739446352586,-1.2463890518340348
1320,-0.7349850030501512,0.054272921419269024,0.430258320110663,-2.2103792689095836,-1.4271144979150416,-2.0163306288683263
1330,-0.7531132524219327,0.0356679450972866,0.41639034286566257,0.5996249717355522,0.10374795106814753,-0.6188768411157134
1340,-0.7402807155772113,0.049997314294455884,0.42532582947055736,-0.5588156336711598,-0.9977755169325605,-0.7827793108866361
1350,-0.7442642603017207,0.05229671604330832,0.4283872739771155,0.9802245340802924,1.333446728625169,2.1252370197510837
1360,-0.7584704250808213,0.031879159680444365,0.40743919328324146,3.206215519002824,2.3800958316711505,3.1668611174888364
1370,-0.782985481190917,0.01539441380626735,0.39201564976653724,1.8062372695394793,2.4154836759719047,2.100755651837705
1380,-0.7614207584496808,0.028091655589137985,0.4131796618442061,-2.9509693651798363,-0.8775926895694883,-2.162857087912127
1390,-0.7449322774037276,0.03688514288032198,0.42765317715605494,-2.9890548802220778,-0.6497722729506621,-1.0290423677007543
1400,-0.7354464020938283,0.04613833940830815,0.4329817671975301,1.5284403681299972,2.7369948608366528,4.240584519515073
1410,-0.7681651261465073,0.021118913358765024,0.39489026650039893,1.2153001993284038,1.2169476108254156,4.132423103432455
1420,-0.7741471168515073,0.030812012741333605,0.3966334411298004,0.1647380087710239,0.7843136236760858,-0.2999488963918131
1430,-0.7671619362491717,0.035488524454889536,0.401111590546262,-4.471527052871443,-0.15564231772469228,-3.6418982211490962
1440,-0.7464673780202421,0.04875613588658551,0.4217247600453764,-2.1468443992625104,0.2759109624336266,-3.478018239864648
1450,-0.7752324379947677,0.026567643782487313,0.39201033224265797,-1.171903427692229,-0.13837449237238708,-2.4256226636157754
1460,-0.764968492857689,0.0287541776618484,0.403344012788133,0.576526689091886,0.2035441735738177,-0.7713214480837425
1470,-0.7346606559194234,0.058543919223103716,0.43099860885822705,0.9098232396399782,0.478319008185929,1.8535761923981977
1480,-0.7598599758745885,0.03560901170152022,0.4074872477495175,2.212315111620451,2.47087692742944,3.5011835509216223
1490,-0.7777023938072524,0.021005655528437438,0.3989628819104252,-2.177298946220885,-1.7627698649387542,-3.3226939865131975
1500,-0.751721137169481,0.046028413378429056,0.41870244711859045,-0.6052348594389465,-0.1930782985304016,-2.633473889049246
1510,-0.7346775851999174,0.04872534704982508,0.4286620026934042,-2.405836017581438,-1.017819928385435,-3.6483434477902335
1520,-0.7504178412475649,0.037275137472738605,0.4194726260408013,0.4673310385457857,-0.057156770318113614,0.7342225128285077
1530,-0.7801941901532363,0.009056158092612964,0.38925213101466494,3.9007224384322905,0.47497500143540783,4.564283655654202
1540,-0.7685979571079496,0.02718199902059442,0.40083454921352174,3.4419588599718365,-0.4649720383399704,2.0885900250364005
1550,-0.7571774141205314,0.04032141119610664,0.41047025150622507,2.1246926178769705,-0.498745060196977,-0.7266810074607578
1560,-0.7588323386434901,0.03710321984449577,0.4142799216135042,1.032887770137203,2.33771268439251,0.5113522546987828
1570,-0.7598960195104411,0.034487402895713476,0.4099070662871387,-2.777303138915814,1.8057631645573287,-0.4012929133016825
1580,-0.7623713737584118,0.025798106319845353,0.4105942220355502,1.2346598343558715,-1.1519202917934428,1.5573014929653077
1590,-0.7477775504525627,0.05030831109060402,0.42677206244423427,4.481988271508703,1.9780798582695764,5.194833888812183
1600,-0.7560607597897546,0.0421843991059874,0.4158748558901394,-0.14138440096383897,-2.2567899479562072,-0.0230999841430668
1610,-0.7680643940061517,0.030801488151818657,0.40364120927226216,-0.09857235809204357,-0.28378292844183417,0.5940576605441621
1620,-0.7773917326952909,0.019199745988742238,0.39046615863220857,-0.7242395257313403,1.531242604983389,1.1322941905126793
1630,-0.7763048213812482,0.020249184901912465,0.39413859013975605,0.8839435786272729,0.7340779862852636,0.7421025822692545
1640,-0.725307369167039,0.07088481572758776,0.44937417511471706,1.7863200349840478,-0.05035206353697286,0.5865830620853258
1650,-0.7655313700213459,0.03392798934911993,0.40576247466090193,0.9408869837915479,0.46570466732003823,0.2052606993854338
1660,-0.7849937185969382,0.01088332729120807,0.38710726295924364,-0.3108064836437475,0.04152893803207264,-1.2201608849007926
1670,-0.7518023210288474,0.03846403692792737,0.4203283794422619,0.8432200935163456,1.9098612777002288,0.08857226402919816
1680,-0.7695649646680651,0.020932801526784398,0.3969105402735874,1.3047870361987968,1.7636789929061292,1.8290812358171038
1690,-0.7833411097553247,0.009367764078000738,0.3970087656202462,-0.15157969442769526,-1.0972466766802431,0.36943945988876026
1700,-0.7345983370830476,0.06602681737995286,0.4405019004477261,3.632172110218841,1.2752624610772982,2.771456411285165
1710,-0.7723141531093328,0.02714351625798011,0.397200707049438,3.3136074297971123,2.1790183210795986,2.0588135652058175
1720,-0.7622890892249017,0.03868341513109927,0.4004485920749572,-1.7553685591049906,-0.3108937245828821,-2.0766415410301957
1730,-0.7578948051472905,0.03238553179931022,0.4094560614615248,-1.2396002127234502,-0.7786156396776855,-1.3297561912764582
1740,-0.7374920753093201,0.05816184977963455,0.4329926833388634,0.048825253853925776,-1.5080277113990734,0.8954241923820452
1750,-0.7478491408159517,0.051015912930280696,0.42358034898402275,2.632743441609348,1.8406608164565603,4.160516771933853
1760,-0.7755100114273075,0.03427687408214576,0.4046763552888806,-8.927231933832525,-0.9125198136562328,-0.6716189948915321
1770,-0.7807438891050271,0.024347207177446296,0.3889567524117495,-5.032317643629082,0.0068876752461908275,-1.1891864825864475
1780,-0.7317625281082439,0.06561549426654247,0.4430725284645336,-2.250986006465446,-0.3853638946723431,-1.8377888948526384
1790,-0.7549240283274528,0.03883222210513471,0.4131732286378693,-0.7378196684888904,-1.402926502125193,-0.4132356472143782
1800,-0.74794791510903,0.04524378521420489,0.42429012586634474,0.22397233732106409,-0.09221237782900771,0.9620063008950582
1810,-0.7449971938984921,0.051042833471427004,0.4261459967314395,-1.5130938731363326,-1.168898923826465,-1.048275374674267
1820,-0.7683826467005739,0.027591393031314804,0.4040929312064878,-2.016156240543703,-0.012016838470753632,-1.1777249075738123
1830,-0.7868208446148649,0.005293849283367763,0.3850710588799373,-0.780029949354327,0.944773127221511,0.1891803049331527
1840,-0.7352924332067358,0.056458981891252466,0.43519483213093346,-0.6748571753146113,-2.7973479675152566,-1.6155871538149391
1850,-0.7625570750089413,0.030800025646557184,0.4024368747602037,1.6922886348686448,2.7093126419146474,2.7646679551810114
1860,-0.7792785576461475,0.011183074166693147,0.3877189189856798,-1.2941944179320082,0.7892959565290025,-0.3848213476891707
1870,-0.75579202702768,0.03353203994242863,0.4098761204762111,0.5670913407151552,3.316566589137106,1.5572523289272284
1880,-0.7633743702815143,0.0264648932640809,0.40384529598596475,1.0412680495376667,2.386195322426951,0.9720432300826121
1890,-0.792873175554397,0.004097143912112425,0.37772905900054415,4.07316476098984,1.47169668359478,2.7163231612189733
1900,-0.7951799683608353,0.006255396281002204,0.3740181853336753,6.233467340929203,2.946010993768332,3.958834419486065
1910,-0.7503622315155654,0.051323320923239754,0.423843802157305,0.6485939655951443,0.826094004514933,-0.38847875096762086
1920,-0.7439959158766618,0.05133711170588117,0.42752838627223094,-6.575141252328727,-2.727980557489873,-5.751691124319834
1930,-0.7692042228306681,0.018793280499756555,0.40040786513882864,-3.4835235680517034,-0.2796727949920949,-2.234813453771725
1940,-0.7316427304657558,0.0621750549722834,0.4385929362898785,-2.8357831670440703,-2.350967330371372,-1.5110762845483823
1950,-0.7603463794369978,0.03969147840672746,0.4088504283951647,-1.0636169113565186,-0.46744479876371625,0.6966411665922869
1960,-0.7450413792184281,0.05220419095238647,0.4279886935032955,-0.5119552963663752,1.5215197000511442,0.9633642970525773
1970,-0.7527440120052363,0.038264155554174915,0.4198065585805712,-2.250026329073754,-1.2886218669923415,-2.3162662443199813
1980,-0.7799297979669636,0.014206350337448322,0.38888383906911794,1.215160685313994,0.9095581885057871,0.13324796889229307
1990,-0.7410726959172727,0.04896205308231359,0.4283535577104689,-0.6298277826744276,-0.7528260055987819,-0.5515158956570895
2000,-0.7758201806284701,0.02391103087069742,0.393063931777209,-0.9702033074638066,0.4174115754702198,0.621532701990962
2010,-0.7502256458125317,0.03944052041158234,0.4180863395200563,-2.304994394930376,-0.4626903768184782,-0.8457593737673603
2020,-0.7499978926750871,0.03949682972598246,0.42091537879839547,-1.4224384920493969,-0.6256670032104366,-1.0949423603490558
2030,-0.7518915310532962,0.041432625086115775,0.4196523670595859,1.8388263702583405,2.6205542506456245,2.1434762919505888
2040,-0.7637787913728739,0.03161156661644356,0.4049209853553928,-0.43569526398061265,-0.11168208115733418,-0.1793944701301884
2050,-0.7174839604762012,0.07483110392228527,0.4456567954583963,-3.6009259333210273,-1.9657664741523835,-2.2410816886231286
2060,-0.7738680176533206,0.013596313101079335,0.39427529508584,-5.669840050435148,-4.876971807808506,-4.5530696211020505
2070,-0.7304959569235272,0.06106751323611034,0.44215737060935034,4.9429238107010764,2.35961875416767,3.56637428918763
2080,-0.76605051705858,0.02422274661578778,0.4053558979212421,6.065042016674688,1.6891624495242663,3.218752888884669
2090,-0.7413513469893712,0.051698280827059115,0.42874998216976035,2.9716246451563317,-0.03413991105538117,0.7905427996729137
2100,-0.753392400260122,0.02792733817393333,0.41068266162259,-0.4570693529193438,0.47042260989111956,0.2457901222838514
2110,-0.7488422257062085,0.04454177668053758,0.423971418094326,0.3232901323619451,0.6146257022655498,0.657956569697475
