time_ms,ax,ay,az,gx,gy,gz
0,-0.7913528968181803,0.03089118922055705,0.26800634598501616,-1.8021815644043284,-1.2537253360893574,-2.4759800499209104
10,-0.7903541501067592,0.029312729343037483,0.267274132866828,-0.007833505844672572,-0.7762222927140582,-0.4919771616687102
20,-0.8027675311709699,0.008949410482481893,0.25410966342023866,-1.060975481732054,-2.848624770551909,-1.302555409688595
30,-0.7868294353434436,0.0271273453559237,0.26297780059492787,-2.645379282563618,-2.1659278274106755,-1.797193775699785
40,-0.804863095394646,0.01305640317866201,0.2476348712062013,0.5681067344653428,2.28716650647919,1.8033987794590463
50,-0.8209238357231319,-0.0016932396177157458,0.23390074535077163,-2.8485063922803056,-1.3666642868993564,-1.7558601610125246
60,-0.7889444197792522,0.029772487623296054,0.2662064824406769,-1.2972293434109492,-0.08918194779684996,-0.22786678935214616
70,-0.7990946955007281,0.01799191086487976,0.25721942258297803,-0.3158936389211131,0.660075943574475,0.6019232100993253
80,-0.7943395554730976,0.020619484374218868,0.2625558647561788,-2.346052819427127,-2.054026212484033,-2.0744134538352914
90,-0.7997921874310479,0.014368888224055555,0.2581666993563725,1.9718496408512194,2.2901029727964692,1.9840189729552589
100,-0.8035964348263024,0.008667266523199336,0.24981163513084292,-1.0513748219617411,0.6185622222708067,-0.0996290881573479
110,-0.8061383323508443,0.013091670632598184,0.24665274080996175,-1.1422695381630983,0.5149233974783378,-0.08307283434043655
120,-0.8056810345588294,0.00902566653620599,0.24338356900712074,-1.1709652657243401,-0.09866307906668353,-0.5387071175718974
130,-0.7822699479764357,0.03350353327192175,0.26822207971597234,-1.0299765702972594,-0.010251716300665084,-0.8229615694190049
140,-0.7923674707388065,0.025529135360870377,0.2646094620020991,-1.7566188903368816,-0.9668959844597039,-1.9081745136168227
150,-0.7745280421338164,0.04065185555232424,0.2808074495130638,-3.0242647272154173,-2.003330601973541,-2.6610427056897517
160,-0.7954736461421104,0.017612253004203243,0.2557952966452215,1.1878493325647024,1.1358276963778642,3.0338775174298935
170,-0.7785419315126844,0.03549996889266716,0.27295387879846855,1.731472226593578,-0.13819596761691433,4.932922308027226
180,-0.7900553377652261,0.028335299857178507,0.2688472098373444,5.237797992682005,1.9399715495323282,9.26781178291937
190,-0.8285091673529495,-0.0002468121959980918,0.24463693718176263,7.4652642677505625,2.3902625933181754,12.431587406047015
200,-0.8367063547748581,0.00955621398014644,0.25322763485836447,4.843274310855869,-3.006153110019567,10.588911802888106
210,-0.8546372789398633,0.03947452784771805,0.27420217419296466,7.382152564388622,-4.8605274993984455,13.337574852998749
220,-0.9553007231433984,0.1282226838728795,0.36661211714467523,17.98691459346336,-7.730389946459316,27.47030417689379
230,-0.8170604278715276,-0.062139070374603984,0.2728528119074872,14.641635687937072,-24.539100259144426,0.08768490343359886
240,-0.7499963918757776,0.03189109321747926,0.2880214266688725,12.82633308129111,-24.391814009190604,-7.43584533516708
250,-0.7700987549500958,0.03815216602120125,0.26165576016054615,15.260473012644928,-22.12805932842252,-6.087771161529121
260,-0.7481638889142532,0.02543003623953575,0.3093190408980153,17.67171373103927,-21.171309499694093,-3.53017066556146
270,-0.7529626144465179,-0.005161663086172066,0.32809346303709075,17.956105320543468,-23.356100536459707,-6.857682253748321
280,-0.7947395161099249,-0.03767722789009452,0.2975432391591103,19.567948838517943,-23.719106016721913,-10.146696251688894
290,-0.7574121102396394,0.0011691880379380033,0.30446017110499496,6.487541006033239,-26.71380293516864,-24.637677902964022
300,-0.6851793087546421,0.04413282599709664,0.3025861837537323,-14.977633227373673,-21.68385422466268,-42.9170724929753
310,-0.7010967964607722,0.02048908697197605,0.3083991909771632,-28.428450873694505,-17.390358007920785,-47.877218580629865
320,-0.7608699925382907,-0.01797618076547057,0.34287425473160804,-31.14889239523911,-16.656672191478407,-47.995579320820305
330,-0.8259971936580167,-0.020319771728943392,0.3607410607566619,-23.708848626152786,-16.732611508343727,-38.35633973940545
340,-0.8405878330735369,-0.12944951481754313,0.29910435643903005,-15.85526592091377,-19.895687193209206,-36.349983585258784
350,-0.8218360500863655,-0.17704468951891153,0.3320672436948279,1.1517187634179051,-18.10581691409487,-34.89986120806618
360,-0.7864478972784066,0.00977398457224515,0.2927273301297313,-2.6815737687243484,-6.507076915592847,-36.98046733177459
370,-0.7850113197330563,0.07980033815157873,0.3180365904968195,-9.330582652460153,-3.9366342022951732,-30.85566811649712
380,-0.8244731255842342,-0.027447787509126825,0.29998024988863203,1.8774363196252157,-2.957482548281195,-17.961165418746578
390,-0.805359468266265,-0.039141513345512885,0.30086611246964456,14.690406965233322,-3.2851588053193397,-12.257126111978343
400,-0.8034537919672153,0.015117868409370195,0.30494509130105263,16.269452623391707,-6.371813275238784,-12.698161836244546
410,-0.7985457250130026,0.007801793118134446,0.2925761460727428,18.48385477804291,-4.6932328486257875,-7.745096715580974
420,-0.729471398287778,-0.007895910991991089,0.3063391522825698,20.305663218025103,3.9364241789966172,1.9853674221057849
430,-0.6832407111488721,0.09465817878673785,0.306681492126511,14.994530229081352,20.632411731682563,23.1288204145049
440,-0.7024970625153665,-0.0075796332123688765,0.31552845837646,-0.6398624558146524,26.018076781539428,23.049469142399325
450,-0.7717911475338413,-0.044532984624017204,0.31988946463705703,-11.29793322441469,27.110541743705255,18.3580086726246
460,-0.8206417488935163,-0.04928392789107643,0.3574787390472182,-15.938785321950112,24.72075222525833,18.150435165620085
470,-0.8223257007664445,-0.05399966060602501,0.37183934147991354,-15.394535767085987,19.339723143853295,15.612044900648348
480,-0.8224660008390484,-0.11899774438964567,0.32581154620142727,-8.259029629296407,14.02517126006375,11.687162821618031
490,-0.8214491525566976,-0.07412516295492312,0.31702362642140725,0.31104411561314715,9.253362181409159,8.81588160910394
500,-0.8154168256924078,-0.011107316997923606,0.32933030284754516,5.612380463538452,4.7657322785375875,9.021952575072039
510,-0.8094954228750011,-0.06085730049270845,0.31677492111421546,8.149979200963244,0.24888379489864076,11.074814206920404
520,-0.7821247545850791,-0.042573655505797926,0.35096820237836834,13.90741865213055,-0.07396392100012061,15.592923097649438
530,-0.7771228353780713,-0.029943765957614443,0.32783140470802635,11.272435691896886,-5.552653357375462,11.615173958590143
540,-0.7714376821597819,0.0015001050297624267,0.3167059668422665,20.619850119836027,-6.875568631833595,8.125140601174133
550,-0.7837606062072026,0.024139824668525378,0.29315740281801134,29.22683450013233,-6.250731735531817,9.335047761925225
560,-0.8350326484631055,-0.056906444094736865,0.34203536163386067,27.79685176680941,-4.711481471602541,13.25170575025024
570,-0.8368677973606903,0.0936647863478893,0.3036142358818223,39.2924626496895,-1.4858806160472642,22.226867097190304
580,-0.6593101706685576,0.030643981623381434,0.48277411154143635,17.559904948017767,-20.25909589870184,7.768983685649823
590,-0.7086282572595426,-0.08428693508339502,0.5324529678829794,2.7583729068298997,-23.258348142725858,-2.9140800958963076
600,-0.7763495670861978,-0.08385576139451394,0.42833543954269493,1.5234379224404178,-18.873150952166736,-6.929490145951613
610,-0.7367153735866783,-0.058457342160348966,0.4463056037649495,-0.9848113244276189,-24.73239515956875,-13.067110894428032
620,-0.7950693944898087,-0.1474109019884896,0.4444354864511958,0.49270682789506587,-16.163307247544573,-10.93178611289009
630,-0.7447277562992475,-0.03629751214383105,0.2607675019080326,-19.040823891281374,-13.062600944899776,-28.300430294532056
640,-0.8230419679037261,0.1332880184624699,0.21483807612716882,-0.894329088788916,-11.754294544731774,-23.579251861961723
650,-0.7839786715613168,-0.23714442539590622,0.44578360579372345,29.000431007452264,-7.685748837290116,-17.936910891823434
660,-0.8319423793830854,0.11818203370312441,0.33035126086119265,6.4368755225950665,-4.948497049664406,-16.550972061084938
670,-0.8072847014113245,0.19682773309440554,0.2577279536604004,13.923356645291483,-1.34540946519528,-12.913281374904363
680,-0.7554144371445521,0.0458773258952546,0.3199257243975182,27.904665173947695,0.25705815279724187,-9.011476153033414
690,-0.7699060174449719,-0.015397738975685495,0.2982451213924729,11.115392275583254,5.025988176500906,-16.781255002387454
700,-0.7850702348991409,0.028776223917799604,0.17474264840018738,-1.1273881582548446,8.881915983138475,-18.46236475729738
710,-0.8033096120836899,-0.006696478222206249,0.15732654862970674,-8.276841955828987,13.199529998275569,-14.16308486910416
720,-0.7674494311017228,-0.061540178103579674,0.30435501950643934,-17.330606180120242,13.55506791694053,-15.741941977645713
730,-0.7375363876355252,-0.028700337065388007,0.3104402913939568,-12.405245301384342,21.50660096745754,-5.5300318609941606
740,-0.7953066717830708,0.0495838867161302,0.15817521156227596,-27.477098787790716,19.83920193174796,2.697393178738405
750,-0.8213365143847529,0.017669722631689387,0.30024210277800223,-17.697793309793628,12.84328709370903,9.52997385951926
760,-0.770528702981511,-0.03206258086270993,0.14140512129402807,-23.651371859185733,13.537351039796285,9.979256086081676
770,-0.8252257797817796,-0.2539856147780156,0.8019453703359152,-32.51597606078724,22.155421275736618,15.003566420343445
780,-0.8534470432925216,-0.0017329736362749152,0.6672786751053814,-34.36510271559304,22.714974870402934,18.9980039883171
790,-0.7640125599481332,0.16007364380524,0.5463042575871859,-21.976316089097637,21.275266863906605,28.797844335223814
800,-0.8260898454853388,0.07282518751518363,0.1745443563884284,-5.056505286447926,21.116843416941464,30.11519791203827
810,-0.7736740854459626,-0.009677702197457484,0.3196508936234435,5.087270788099818,13.573680355465438,26.36510826380953
820,-0.7769641219180184,-0.07376934617455672,0.4314169979758312,27.37876042239688,4.466547506497509,27.95156693735174
830,-0.7564529696685931,0.014290684330986875,0.34312874475683464,42.78909327109,-3.553867244605896,28.394946764895863
840,-0.7824728848165693,-0.030654745651136284,0.32161527655274363,34.06517272675888,-7.915994241598213,26.051108574854748
850,-0.7216885460415932,-0.08650967976394436,0.3829213192202393,31.68120390038996,-16.759035815227342,16.899676913713126
860,-0.7983044213628501,-0.04116552126223893,0.1859088886596425,25.813612221182574,-14.58587550801468,8.524786813377009
870,-0.8061941860001629,0.060984705169029624,0.2071665212307454,4.368219156769618,-15.462228559431809,-3.675850425241808
880,-0.7605272602333488,-0.06955498338453953,0.33090821717705365,29.29136361301401,-14.790935100015107,-6.441496380534327
890,-0.7184894874454212,-0.13077271458438552,0.24991749007734415,41.876508594094304,-16.994956763160104,-18.315640567354354
900,-0.6974743390294799,-0.18102786905209742,0.3316390116239188,28.110440764693173,-13.046472111604611,-23.363211630069156
910,-0.8031799513078346,-0.04518533414921983,0.2362383200309622,11.59839023029663,-6.010380614355412,-24.236004293386646
920,-0.8202947372138137,0.13790854120807908,0.1669462384204447,-0.4794401959806396,3.804305932995994,-22.149469602796273
930,-0.889189213423156,0.25438507379213904,0.10461141563458742,-2.658143188342386,4.157760835681654,-22.959340377793254
940,-0.9080313195784862,0.3411118628379997,0.14274417023720004,8.764305800170675,5.877411979752578,-16.885253612285915
950,-0.7895553373277014,0.2084231104063304,0.20352733329425252,9.2874644542878,16.650755468522565,-8.08220914417445
960,-0.7124612788742902,0.07038986609899532,0.026675762822952906,2.0807210698483862,33.46782488310907,1.7408012437146396
970,-0.7359008833233053,0.10527404754202159,-0.1209417025571209,-7.590657732086983,39.06980949764094,19.160677906070738
980,-0.8810931745238576,-0.21448161154212902,0.890159211148792,10.753441162677554,34.10568829742125,22.963967356314058
990,-0.8343454440577145,0.07802183225093573,0.5673908056578515,7.131552146722603,27.603602873903903,30.094076229344363
1000,-0.7696468818249131,0.017590421062224103,0.35232082552546107,15.720198204944161,19.641470235626898,40.018063561716765
1010,-0.7770470962252612,-0.035322523025182406,0.38705091187731777,-4.659727202538993,15.864264997353569,19.423036522597958
1020,-0.7864866544244243,0.2573561025059584,0.22711762927132673,-47.99052879556355,21.220679157288078,17.67147916191502
1030,-0.7139293997038817,0.36947549096720345,0.09518114800097081,-76.05504147019593,10.496618150418877,12.687492404049264
1040,-0.6826521802202825,0.20934239752408387,0.1745014637991181,-80.95180616559995,0.20432912226017974,7.544655645806168
1050,-0.6873001842022481,0.12259663807018265,0.33714347573064735,-67.41257614901915,-16.359750902284482,-0.1874963364481812
1060,-0.7470863318978538,-0.05192963306549552,0.3440347000163581,-19.809420573556192,-20.569976730521432,0.5308120249482888
1070,-0.9002378759877255,-0.37925796705636244,0.3716881672927453,-65.55763643110438,-14.43645493358095,-27.717636797544415
1080,-0.8904470819072682,-0.19882674587149476,0.18845407778802714,-36.69519834514578,-5.005221753896779,-23.06533847693741
1090,-0.7797208092326028,0.005916599243439426,0.25733120910277324,-7.253978556269319,-0.23925947159051053,1.8509632830570506
1100,-0.7900811968339961,0.028037119845490975,0.26478896386915246,-3.005487069263739,1.3953742452450335,10.969806142122051
1110,-0.7868416764166184,0.05562417328310637,0.2710498107724312,-2.553783160701372,2.490453113419493,13.220214407318155
1120,-0.8192894138759572,0.038498292605133606,0.24376439062321067,-3.8865646470829374,-0.5495925682985603,8.43302467115775
1130,-0.8416400182247932,0.01691438490091405,0.22739565504275583,-0.5690089535931435,-1.292712906287107,5.542220016412681
1140,-0.7887994573256502,0.06824816848579343,0.278331784458846,2.494458446426351,-0.1510177798416832,2.369734624980754
1150,-0.7975199617434728,0.06094850015008547,0.26826851992778594,-5.876703080677766,1.3257874552712143,-9.338374507441706
1160,-0.7883173334321496,0.05893056784790006,0.2827346896597331,-21.829621407308192,-0.7200045078489663,-25.38587449656018
1170,-0.8033593635104971,0.01790779818109718,0.26930853963758034,-16.063785633255364,3.6902656649507635,-18.963301063748663
1180,-0.8125154340129023,0.006860660617415158,0.2558770703073628,-11.356350929845334,3.198206423760464,-13.191439610788612
1190,-0.7765454177579064,0.03897141775822062,0.2688740690570572,-6.595180000245158,3.6268366156247116,-7.811615926085762
1200,-0.7844418891722472,0.04679688655633204,0.2708194685058976,-8.384086721715974,2.2894483236986827,-9.689586074134597
1210,-0.778493767100553,0.005993541057602855,0.27338930779385007,-13.969540656030077,7.954801929233261,-12.313662751407609
1220,-0.7971946671399656,0.02294226129650603,0.2670718640313594,-8.427904183773826,7.713684901344284,0.7188066586722965
1230,-0.7941325577259783,0.02935661688429284,0.26642556393648203,-14.43376947447225,3.4473868869461555,1.7695646413753776
1240,-0.8217012952473772,0.003975290522550051,0.23993542214907698,-20.950391726667903,5.442292855165906,4.297778628787324
1250,-0.8249311048158503,-0.028823580123394556,0.2278629310635536,-24.50101418259844,5.198084374726027,6.578549140758896
1260,-0.8048494710492765,-0.035388145124063845,0.247776693215305,-17.698074062973507,2.1247859513929854,12.005986353191673
1270,-0.8066063233020564,-0.009659099208695714,0.26031923206518287,-0.9620547164054005,4.077023405408315,25.605639082652594
1280,-0.7866756525936416,0.04810383056643151,0.2694866318261157,5.018519764569021,2.5745911247745363,27.101376538475108
1290,-0.7861176555761558,0.08633888618861273,0.2776033959724545,9.366479352381516,-3.1547802323888146,9.067588133240358
1300,-0.8092977071778223,0.06523871375012312,0.2589549141563935,1.345762470079328,-0.993348946120141,-3.0100159162772453
1310,-0.786512594411372,0.07324555343705916,0.27775267576873297,-7.333051901982985,-5.002993425386963,-14.84827491762742
1320,-0.8109899643099323,0.029644565943449986,0.24779690537457105,-6.329831328987575,-2.8833454615569805,-14.548362826076627
1330,-0.7694528629877757,0.0615304232511394,0.28177318501160453,-9.515785725877535,-4.978066026294718,-16.534248167540603
1340,-0.8054098298010025,0.014249665457200677,0.25522741748727074,-7.537765855137442,-2.3217573436300225,-13.12494932163039
1350,-0.7861749378709466,0.031438938699220695,0.27598526170521326,2.884387107202129,-0.9031202055944909,1.8123854665314558
1360,-0.7841745798648437,0.04170776998551668,0.2745448793589191,9.418793316202493,-1.9945809638303929,11.867402812910797
1370,-0.7898762415427562,0.04978105374455929,0.2704257999155738,12.722823436669852,2.086435105856898,15.67713892012687
1380,-0.8075478124155135,0.04455407349594242,0.25445494906715527,4.36183706218117,-1.5905980939998763,7.68929689679084
1390,-0.7918388595082835,0.06299405204144111,0.2682793226116258,-2.820374679769543,-1.9616537187374732,1.060358438667115
1400,-0.7915046519203529,0.061023222535361944,0.2680054622641372,-3.6864832027929784,1.0435700970880704,-1.5856243550017206
1410,-0.7534750752358195,0.08664585161104377,0.29634046970686234,-4.976738680018141,0.4657671021883415,-5.510204067608315
1420,-0.8042441192477056,0.021944215759664463,0.25982061419341124,-0.9680481106345125,1.4304667130958924,-4.7777940988430245
1430,-0.7931701350141341,0.03171953641495013,0.26602813341624,0.893262382770992,2.385055956861231,-1.228276179241317
1440,-0.8169518870017927,-8.349602476167423e-06,0.23931672474490506,-1.3097899786920095,0.23288558894235395,-1.2480103449424247
1450,-0.7869974692051792,0.03587532117936724,0.2679487396675154,-1.3250798337397838,0.47004497404558626,0.4534019600176955
1460,-0.8027442639892641,0.022277702974502597,0.2552312848306055,-1.7503175414193808,0.606412392834523,1.4267612730446158
1470,-0.7642646151742974,0.05880560007401507,0.2932772538226799,-1.6332734243189067,-0.8149407797937597,1.7875721501767399
1480,-0.8036200380607801,0.021447685815813262,0.256346389852516,1.394100345566759,-2.639422656077836,1.5412969469519826
1490,-0.8048708970619657,0.025188410899210152,0.26438441690221026,8.025053769252686,-2.035980219548817,2.0857390094245765
1500,-0.7773508387106143,0.05425198319657547,0.2853713135973246,8.27238026283888,-4.376841533258769,-0.20479498042397304
1510,-0.8025658900713804,0.014732176698192451,0.24942377481232367,7.203140630572868,1.5864573643971305,2.874911012721569
1520,-0.7986014020354721,0.03915849216201106,0.2826243330342052,-1.0623745775469962,-1.0034166312327186,-1.092228554960035
1530,-0.8022141779990224,0.024924439717089034,0.2551639505267611,-2.3639261484516547,1.9115654702631157,0.6665751435370708
1540,-0.8260858558601908,-0.004280390434177151,0.23381157114356113,-4.521803117963545,0.4425424946828862,1.032447342061097
1550,-0.7954887569942366,0.03687814892405954,0.2683862433919335,-3.8516723360343192,-0.9123997997684978,1.9758994582765068
1560,-0.7856170275313542,0.05026875407980823,0.2821733136381676,-3.25090546772286,0.7510626277493113,3.172426261857704
1570,-0.8100795153798082,0.025924387034936512,0.2593518552500313,-1.5034391915019545,3.9967500934557902,5.185500238174117
1580,-0.7714950412238056,0.06617587738090883,0.2946562199537595,-7.291348549133104,-0.6484341537553119,-0.9908537107826891
1590,-0.8283997824199827,0.009856512722139082,0.23055737560791673,-7.862993704909737,0.08270310503106149,-2.351644741026028
1600,-0.7933761236076219,0.042256245454465255,0.26048013171343026,-6.5361496002102575,2.379680551683911,-2.153053575508763
1610,-0.8016278789996325,0.026846768893241883,0.25366765358153454,-11.143986905929284,-3.5337973766732627,-8.25240673023698
1620,-0.7829512827352553,0.028542174883269097,0.2716332876002824,4.957590891217699,1.1343195558779278,4.9723972791576
1630,-0.8170496606512178,0.01733136274591523,0.24463443037448232,3.4932697390975136,-0.5259240210858687,4.607870000772406
1640,-0.7898619886882705,0.044672246932274014,0.26436463455145265,3.3960348993291984,-0.4070460207908651,4.108787483846721
1650,-0.7881204840375592,0.04567806133371309,0.2716340830932554,1.0083091106801434,-1.0378731869480908,1.1138294262648938
1660,-0.8178639820193221,0.010868109681704045,0.24314009463624284,2.715099386057152,1.146265005250119,1.9418580037125999
1670,-0.7999477588300922,0.0296906828876799,0.2629372271524987,-0.14370011767148183,-2.6917138330803723,-1.8409485613100904
1680,-0.8146302306503239,0.01720212816576306,0.24387978075408787,9.397803361309279,0.07880625131192309,3.4158961904836618
1690,-0.8376735764372124,-0.0033039528691362063,0.2200943051481063,15.985564624300842,-0.38695834507894333,5.2068348599301615
1700,-0.7663270151034195,0.06932346353584418,0.2992636083135221,19.419283050087017,1.6272834922828672,7.381070757368681
1710,-0.8101121642418456,0.02253467899320557,0.2589489734255541,13.642749914363655,-1.4900047579553009,3.654173570246162
1720,-0.7858149472931653,0.04882311621103264,0.2797586145326006,10.225719240118515,0.22862982689854916,4.3432221923924965
1730,-0.7669168463545599,0.0791245382653478,0.29254063884737497,7.144453879888726,-0.8703967248871042,3.1891002159145234
1740,-0.7890958015988462,0.0627175841167581,0.27425763591409164,3.634031238503289,-3.394404144156696,-0.09690952409226883
1750,-0.8072444376890244,0.04166453405317587,0.25152797636260926,0.24286898058239403,1.4327143545634402,3.1760100918369254
1760,-0.8182417342745748,0.028921243876328846,0.24579905316143455,-4.328525378793948,-1.3371799703634228,-0.0034433184776998527
1770,-0.8099814753219385,0.032801094434691355,0.24970653960231784,-5.11125725931195,-0.8221479482130095,-0.6010362234995499
1780,-0.8057427109298281,0.0379400228811907,0.25642715272701005,-3.4609832751096254,0.9371479659612933,0.6205069181683602
1790,-0.8058995961891355,0.04180183081372216,0.2576134547487229,-1.5041144376125581,1.8665779169784207,1.6307768972067196
1800,-0.8148106995080636,0.03159671209958494,0.24404155653636303,-7.71452486264476,-4.751385543743991,-4.671335872382
1810,-0.7722562872786659,0.07089627510205275,0.28481993081358026,-1.1148731980417186,-0.30889063303265935,0.7445782036735497
1820,-0.7894247156628021,0.05673411448365069,0.27174354914386806,4.489055314903021,-0.25510647787324825,2.2929857422974114
1830,-0.8126604332643741,0.032552504523806466,0.24747127733290797,5.483062413176471,0.23423295559951945,2.709426165122413
1840,-0.798727582403833,0.0429884271047488,0.25861424457025034,6.50239351425322,2.2687897452101833,3.4093474155569647
1850,-0.7904063224239546,0.05971259433042554,0.2711308934078493,3.657901801657001,0.7523187271720324,0.5727386610445266
1860,-0.7966708885355408,0.0506944200693643,0.2695028813946396,2.381239531250409,0.748867929879689,-0.6382843349101013
1870,-0.83273507018815,0.009885272977499165,0.2285921246975275,-0.39759079659397745,-0.32094946335886243,-1.7444198909064899
1880,-0.7955468630288484,0.05225331971655446,0.267109146893715,0.3777695053258334,-0.7195839476766269,-1.4988760246253012
1890,-0.8119014339842723,0.03483195334136756,0.24741705921329682,0.6140978763035951,-0.3291957167685689,-1.2918743577212295
1900,-0.7923035256600747,0.053723857365728586,0.2663993662290838,1.4554412638141025,2.117589687888298,0.2471955673291062
1910,-0.804901977033138,0.04447934788654993,0.2536043877068484,-1.1280978890507742,0.7080772740933864,-1.5774259987616022
1920,-0.7726206783764479,0.07568817590628278,0.2838746590068688,-4.500690263196734,-2.70880498077622,-4.444573728888029
1930,-0.7842854589522994,0.058218067802982096,0.2787803381552882,0.8467662092337136,1.3632265647542792,0.8859219495410401
1940,-0.7780214519393494,0.06757629793605281,0.291189409043267,-0.19091588444861585,-1.6544892837147527,0.12066955614774333
1950,-0.805308760107615,0.04765861150593584,0.2565693069823664,1.821528783321057,0.8123517327017598,3.3492169761892514
1960,-0.7969283471907807,0.05364943491962078,0.26704466248095776,2.5639016275678017,2.174529937138169,4.274377956489803
1970,-0.7996511883298294,0.05178111351694612,0.2585901287460713,-0.12037081513500603,-1.3395981068070468,1.4246047799862391
1980,-0.7898273596967652,0.06136344093532244,0.2652704228963053,2.796311690895029,0.5592783382551569,3.109540580997855
1990,-0.8163239431444467,0.04329210413744922,0.24345800480794738,1.9025910290094208,-0.05224609165982194,1.3158096220236846
2000,-0.8180196488304684,0.03567255188859368,0.2397682905452137,-1.3523242636404147,-3.3305475552647428,-2.9055513595674314
2010,-0.8191233566200985,0.028050409141543935,0.24018751665021604,1.5881306936737918,-1.383066608534405,-0.4158443094094222
2020,-0.7812976370210793,0.06988260881047677,0.2806752967495495,2.7545274529790156,-0.4062868202964425,1.4416464289458693
2030,-0.7835045921373007,0.07346829812165395,0.2751261369378751,1.0568181032161146,-0.07064198384345938,0.9733255358668207
2040,-0.7645789271588543,0.0934958381818942,0.2944960455322892,0.7802026448097878,2.004121336651195,1.1810161297039725
2050,-0.8215931371770882,0.032347430688545724,0.23578148188698447,-3.0327656602434203,-2.1096568147302928,-3.232053667536942
2060,-0.8039863096806995,0.0528326171449796,0.25828855321028765,-5.211507632079017,-3.6209014418552408,-5.7965915670623165
2070,-0.7860030800517124,0.06262385581898436,0.2775632063228927,-3.199213098380873,-0.5715857126137603,-3.621301717131726
2080,-0.7884059303549564,0.06142614055936691,0.27244561692219954,2.3106410301523472,2.4691071506721403,1.8733374258185647
2090,-0.7901672119537357,0.059657850155420244,0.2692820476326237,2.427438650179962,1.7213908062799783,1.501077446192103
2100,-0.7526803253796251,0.09922677241302015,0.30870349633535676,-1.82429321218427,-2.2067811121816994,-2.248760793511224
2110,-0.7840718373176879,0.06932205734042765,0.28020910019105827,2.347895189616103,2.1985966736613354,2.321089164082368
2120,-0.7962545365460649,0.05611594103744235,0.2724279371668148,0.8704694261598921,0.7874278004413695,0.5318293904091967
2130,-0.8214258455866931,0.029101270018073503,0.24780544245551747,-1.1319135308698556,-0.9434883158638718,-1.6896167186218483
2140,-0.7715798004128139,0.07776552007926195,0.2937288082807545,0.2697408183900529,0.7523261894874084,0.25974182317726424
2150,-0.7828051693265167,0.06572605895744868,0.28369270540678515,-0.19298748043749978,0.22470844351701513,0.4270433949612593
2160,-0.7718810567429438,0.07793736329530071,0.2920755707521327,-0.16144954610056267,0.29423162854051566,0.3317543277771082
2170,-0.8054726308500361,0.039912620540019414,0.25607344222258577,0.5247190526594445,1.5531838043100694,0.9191797128920542
2180,-0.8235259969507184,0.024112767176632487,0.24062638402791112,-1.2463178835269033,-0.6277723222657563,-1.0171846315682844
2190,-0.7954914557899189,0.051726123639635406,0.2630703577173647,1.8447195005983412,2.328142665085412,2.4374501199498004
2200,-0.7614496772847347,0.08894826672935352,0.299321181054556,1.7950866803380077,1.5284683498810796,1.9975492214614068
2210,-0.7905950989165897,0.05973518525034215,0.27501470021848484,-1.0197038891568777,1.116558311543002,-0.056630897775127975
2220,-0.7756975058618776,0.0690723107049026,0.2888681336111922,-0.3122121862803455,1.971141747195887,0.5854438484029008
2230,-0.8093325859649194,0.03092356310898483,0.25307450922306035,-0.3903350592194467,0.7061783350160135,-0.14217161614654322
2240,-0.8097751945249345,0.03139820125113653,0.2511165168880912,-0.5211176536319109,0.32661192284408214,-0.3475276850918609
2250,-0.7855442929479705,0.060033343663811724,0.2730875151260112,1.2114738888325625,1.7235849155121754,1.862285417083394
2260,-0.8047579247871487,0.04559853473173793,0.2562004588545057,-0.044122161898694,-0.007827454760845787,1.168130128849916
2270,-0.8049100204232386,0.046468023634318546,0.2555101580717746,2.262472469269878,2.1082142835525874,3.1941091427455928
2280,-0.7948568555709378,0.05099649348582966,0.2666772859573454,-2.792605164866436,-0.724725646105113,-1.8958130886560742
