time_ms,ax,ay,az,gx,gy,gz
0,-0.8027983643614,0.0826991316138053,0.4946858999242276,-1.4712456658661948,-0.8890989408425922,-1.5272166852538305
10,-0.8248216569654627,0.05866074252594262,0.474398992724172,-1.6673703336138488,-0.9416326979341839,-1.266898633537543
20,-0.7991172930596784,0.08577600283435204,0.5021458638425023,2.5720174361127235,2.524050265257194,2.8319231236339704
30,-0.8489990917625986,0.0368543733119048,0.44795157835638744,-1.8327540772804132,-1.34466582177357,-1.3461926407626401
40,-0.8017655970904274,0.08407894735921453,0.503339091369653,-2.6988963659259335,-1.8447094564730548,-2.314125417043375
50,-0.8169051410023017,0.06281750840797211,0.47937587874240983,0.79414251107252,1.2385959402699878,0.7022066263968675
60,-0.8268724922422713,0.05541825750886927,0.4750602502991855,-2.0464121375307824,-1.2876113007163212,-0.1047109031735578
70,-0.816657891075855,0.061840854251802135,0.4758044524961813,-1.6745097046116169,-0.920223262144809,-0.30844937737396816
80,-0.8237171333912856,0.06115839663382121,0.4773079811545934,-0.6889042685008149,-0.36795270923477624,-0.43994195036362654
90,-0.8390190671805865,0.044256190664997815,0.45737917973074044,-0.8188449106582325,-0.6940301841126333,-1.0705920708849541
100,-0.8243583711530468,0.05601049472996159,0.4795126579471733,-0.11355248238321984,-0.20995287257903836,-0.5740708384226813
110,-0.8200374851911233,0.06250292947833258,0.482440879058711,-0.4400416511400464,-0.9352707282314704,0.8206718197757393
120,-0.8136186355676245,0.0676677482658192,0.48654420424410594,0.5140935231623016,-0.3319348760417099,1.756669712216845
130,-0.8066962571491249,0.08036241076181713,0.4902561361047024,0.05581588741212107,-0.7436107843809017,0.6142826868392841
140,-0.8076136404326164,0.07307689635289634,0.4902483314640736,-0.9349440926416624,-0.9712584313557632,-0.2579669123183024
150,-0.8113502601967468,0.07590221015516474,0.49085108266059213,-0.007964728061556427,0.44388824526401516,0.8941291224459612
160,-0.8107587921105968,0.07571634362993893,0.48935693132913904,2.371589599971869,1.6621014852376486,3.245321819081136
170,-0.8425976274492812,0.033974729974189946,0.46568052725258535,4.36703144304796,-0.6670507838774159,4.109885718366319
180,-0.8489493436135566,0.06756369171184826,0.4773156394487138,5.17209688052465,-2.133435850707528,5.632556497149455
190,-0.8094547488572743,0.09832911677608579,0.5240022278897242,4.007535170508224,-0.6813045380417948,5.409046472782762
200,-0.8166984484455372,0.05758283784899645,0.5545382372185181,5.777131007381691,-13.626716770639073,-0.8328468430101682
210,-0.8296236319670913,-0.010418539546067782,0.6014068935772895,13.266159146849574,-55.316824096794875,-20.30638986636542
220,-0.773050112606787,0.0026356866235216735,0.5190993890809431,7.269192640693483,-60.12749638753232,-24.556654558039888
230,-0.7084326755565482,0.14485518861338192,0.5151834013059564,-7.943256772145017,-58.21548068424747,-26.674027731477697
240,-0.7069517893721263,0.1135459982791523,0.49086167197362307,-10.029001739945537,-44.20990425874016,-16.580910560263106
250,-0.7249676795300252,0.07087721158505454,0.45827501560162526,-8.542097782763696,-30.120210713418118,-15.351443900126462
260,-0.7797525277649725,0.16290925762820022,0.4681294215178264,-9.468040744255074,-8.745947839767204,-18.526467669713092
270,-0.8097164858620235,0.21515843156723094,0.49019387600694636,-23.86770912010129,-6.774501846373928,-7.877453826328074
280,-0.7593509522081626,0.15801314957640242,0.5589742677607742,-22.852753535187805,-0.21327591887505526,8.08388172917308
290,-0.7219923118640408,0.10903644978620108,0.5960404847307814,-28.40201159993244,-1.0037320525176512,6.719611260417545
300,-0.7839330879102158,0.08797633712512685,0.5760631705878761,-20.775769669849907,4.170204896535582,5.378985446117579
310,-0.7864122564391106,0.023584847815031867,0.538942484303926,-11.207804434296621,13.034962638654235,4.63143058087665
320,-0.7739748862534305,-0.02707566151769213,0.6175828162434811,-10.339809178908645,6.650932321547214,1.9293722741933734
330,-0.8698963332375496,0.0612305384966501,0.5886807060758228,-18.04311799162028,-4.402525343304922,2.740636207059143
340,-0.8166138324561334,-0.07370417857997487,0.6013392287849514,-2.472105971811327,-8.353517691923159,-4.502059495763337
350,-0.8876552374018243,-0.051206938865313786,0.5918493217383888,4.565835889826616,-16.252994906429233,-14.995544396889832
360,-0.81321697073703,-0.07624548779339813,0.7565554737562483,13.1857947087517,-23.18841244063524,-21.89405414291303
370,-0.8479945692165591,-0.18817422211788423,0.600040197577143,19.74342630764442,-11.791926622823066,-24.645598174894243
380,-0.5837088313613966,-0.14616354957017685,0.6034327676281459,2.178595227386787,-5.719131985228808,-40.838733827693346
390,-0.8312166748183735,0.19566012853553058,0.5675588188995345,10.191973624610656,1.7921191936809286,-24.196068514574545
400,-0.9045499478874796,0.054516509917116714,0.28385307303588764,9.19288397435684,13.846436015645152,-13.005404898381192
410,-0.8582411917996524,0.05137584404349379,0.4645677015177943,29.07609477003654,31.14801618748558,1.3539569032540117
420,-1.029905243023276,0.2268055111177136,-0.11304655023844032,21.71274842438282,48.7762052701455,23.12481545966182
430,-0.8101733121145809,0.2522656299914598,0.19862620782028825,26.66288410313419,47.75230859130874,31.795901730120065
440,-0.6817592069594278,0.12717534314391452,0.6680541076950274,1.8039352521125442,36.263540949943,32.08009879317744
450,-0.7001651680971601,0.4706227390284539,0.24639407393885776,-15.708665594421463,19.47777078172628,32.89652352180682
460,-0.7892680344317425,-0.02570152620967155,0.4850448344390531,-0.3589477782017078,6.0046168469258285,11.056796898993422
470,-0.7959463939737967,-0.2222990064420297,0.5245759556717264,-9.128171268173276,-0.32329219523877195,9.996745600558036
480,-0.7830846158746015,-0.04968234681128207,0.507561708734194,-13.27517107311765,-0.9524197272132433,4.759031108922898
490,-0.7621056205374381,-0.02672655146694087,0.5846505235227953,0.413200508858919,-0.27101081313754805,-2.2743933100793354
500,-0.8114725065770052,-0.037801024865223916,0.26096890052371785,11.48438116836876,-10.109730896191715,-36.60646590430355
510,-0.7252544415730386,0.22379833393072587,0.3448676931577232,13.166501021160542,3.109918845858034,-47.71399787963368
520,-0.8902809505182635,0.1060987250260143,0.3600131016271751,29.140418049686737,10.375627645997884,-21.040245898381492
530,-0.9618675735223504,0.17152582433946503,0.2790682669255734,55.24604306327068,15.393892008553557,-13.263046744182777
540,-0.9302790251999651,-0.02698981256865684,0.3361195563813421,21.18974327374076,35.0099942986079,-12.726818106109993
550,-0.8144646467701003,0.32132290661832835,0.4392397048095575,22.01179764869483,47.94417804839262,10.514914986038232
560,-0.6664424076016974,0.1988740211311569,0.643697872134381,-12.948291727533842,37.29283991329458,28.54438724826402
570,-0.7265612731585391,0.11026968482627231,0.7769305885896028,-39.570131456629206,20.73588539011173,21.42543529860613
580,-0.7506721322606761,0.24073077496706216,0.7160822168802699,-98.49283360746809,12.698304069500663,37.9311486319955
590,-0.7239083952365101,0.4256763234036034,0.7690593544757958,-56.705601813636825,1.96540321179371,47.95746276233319
600,-0.7563162183993833,-0.01716422786978194,0.5493721364414371,-37.7146589792168,-16.90032709194184,7.410402971752152
610,-0.8509009929874966,-0.16521335127171866,0.37941138095038285,-37.05093105785683,-6.050372840237015,-17.20342851283198
620,-0.8594217618897285,-0.032092592862059885,0.43518388810435504,-8.579399930591201,-0.19674100341772682,-13.302032900449396
630,-0.8307920784083418,0.014668646536715159,0.45915859752258464,-4.074042932438548,-3.128962844896043,-5.615272159723424
640,-0.8210240491243304,0.03032542791757207,0.4888257394130984,4.599921326057123,0.1426515454924302,7.005643271578704
650,-0.8046631238657924,0.0636625663195612,0.5040886398774435,6.480506396213704,-1.30459576799951,8.37479716030677
660,-0.8147227656613278,0.06969713743987434,0.48806469959248383,4.7993154047942825,0.7972650281438581,4.4603896366963545
670,-0.8362980462061373,0.049273744914681034,0.47148214468693916,-3.368965359704528,-0.8865856056859849,-3.9223894143676152
680,-0.8554558635921552,0.027029789308143787,0.4585868691861129,-1.4030953418154162,-0.22998931941682932,-5.658352206266437
690,-0.806445335865419,0.06297470960925723,0.4993194870218152,-2.409766181328794,-1.8643671352926843,-7.218422854176553
700,-0.806368626228295,0.053432658840577865,0.49671806059022083,-0.5298974696345604,-0.5513564969721116,0.22087217225972178
710,-0.8014311018829564,0.05933723848892536,0.5076274519504214,5.074304740956267,2.449009512547126,6.035295627474965
720,-0.8087063209747294,0.05799408061849168,0.48386974967235,3.7255391745672575,0.9221529588979773,5.265561826517841
730,-0.8154533934798567,0.05629670383888275,0.4943186172855049,2.023076007665679,-0.029750829000754098,3.935685825985241
740,-0.8097487882492579,0.06135367679210084,0.4943645816355241,4.818819603178727,1.8278333656625376,4.637416418157292
750,-0.8084421391661829,0.07791279357549427,0.5013412178153049,1.7220838826112508,-0.19163778868883333,-0.7085085325638261
760,-0.8183451348065589,0.0515012153927804,0.4878815245925945,0.14170358627321877,-0.6952571043520284,-1.5634507384465106
770,-0.8049913255834061,0.07049327260381527,0.5039558538273697,-1.4876159112792748,-2.3569121741502865,-2.655183998983729
780,-0.8208904598648565,0.05421307340988199,0.4924847147227389,3.230798619551448,0.7176344025896231,1.3080734048795377
790,-0.8199704508570795,0.04659674334518149,0.4806241420686318,5.4103558320616365,2.714029017316647,4.232869910218827
800,-0.8281934853786947,0.04861284825767545,0.46609728267261535,10.541742478758723,3.3942818188405948,3.428020773007222
810,-0.8141415325338056,0.08347995108257983,0.483989397012259,-2.4571347477267693,-2.5435849133825603,-4.813810788390004
820,-0.822200301495725,0.06364374573480555,0.49120423162878374,-2.2851752220130135,1.2721074286294858,-2.417944626896212
830,-0.8025933373868794,0.0648147082974855,0.4870404170693856,-4.926780569358416,-0.8469993474588244,-2.7449834374440467
840,-0.8406288782823393,0.022567064619651384,0.4686629411406748,-4.143604160093192,-1.3546563896989956,-1.255612488913692
850,-0.823402820877235,0.061672309036750396,0.4838052614807718,-1.0083907606342346,-1.154396254172675,-1.3319399092320299
860,-0.8399263481501242,0.044230767931038126,0.46098134234208593,0.7008854863175238,0.9389076711137982,-0.38893459985387
870,-0.8057055636406101,0.06997322835739399,0.4976430541050163,-5.360661526569455,-2.6195524431988577,-4.5206328832511105
880,-0.8373299540801472,0.03442196333584337,0.4725892771458261,-4.6323825203404265,0.6231831179140814,-0.6180610752991833
890,-0.842361503734241,0.034977728197144245,0.4603029018893475,-5.355669116072631,1.35748868389293,1.586068524563026
900,-0.8300310635407859,0.04469030081951189,0.4709948558345294,0.14619748959412293,0.13925411575394286,4.1253095839292175
910,-0.83475750811622,0.04904301552864089,0.46599515187276846,-2.4204697889451086,0.075987175727474,1.1015381498484373
920,-0.8155858107294254,0.061438191998395626,0.48460162293583786,-3.515206083314672,-1.1942031730431761,-3.6350210396770963
930,-0.8068076150698228,0.05722146847735103,0.5008549568794481,0.8789762743297627,2.2875911597527523,-0.580634420838392
940,-0.8364314408159139,0.02019122799906861,0.4749941097959658,0.5245448466025968,-0.0440897077143072,-0.7365808912721146
950,-0.8088263907074107,0.05999315489850111,0.4892480055396722,6.073672826975699,3.6491577959315653,4.311086593203506
960,-0.7992299967481336,0.06882474917272925,0.509914547039059,1.2539113787433285,0.3161162378184209,-0.02089586314836543
970,-0.8385590443989065,0.034039075716198824,0.47473363166125415,1.0018398096969288,-0.689453080251167,-1.2558458129768306
980,-0.817968743457174,0.05823591194779341,0.4925242761788754,1.5281441243408334,-1.201311087738651,-0.45846594995014534
990,-0.8180932567118554,0.05225066467514272,0.4812478961246518,2.71875599405573,-0.9104570630712677,0.07655963107312957
1000,-0.8001081843788217,0.07603399651777762,0.5005789064823147,-3.903204514206389,-1.8758093143143575,-3.1345092479248584
1010,-0.8160108721517688,0.05857375099215027,0.49468933613237775,-2.046150922664407,-0.7218751429440826,-1.4838538345529864
1020,-0.8161350781430557,0.05685163948040513,0.4845801228988671,1.702150818331798,-0.22197770795316218,0.3335395777710305
1030,-0.8080642336301147,0.07455699459566008,0.5086260121296952,2.9708360867336068,0.8970489340851744,0.4194494508542224
1040,-0.8242790611864201,0.05161295184532096,0.4878290120126491,-1.450690529175664,-2.7735249925431735,-3.9213341514675015
1050,-0.8142695677290641,0.05590089692208793,0.4937421131841659,-1.1589335544009987,-1.4581755233786091,-2.594262982021228
1060,-0.8261345527678371,0.03856203714145309,0.4682159625682816,2.0804188788537363,0.9251230122489956,0.9104863228195073
1070,-0.8356108184145907,0.031215472747126525,0.46188898115030597,0.7005388300090643,-0.08222544663848019,0.22870785013244482
1080,-0.8140621716147798,0.06308413531058839,0.4996211061540829,-0.8249291003377993,0.4087648031500415,-0.361407071194781
1090,-0.8081058082644711,0.058765708087166,0.48310852068832794,1.4848813339872304,2.9540559107900175,2.0152505017797218
1100,-0.8075106213344271,0.0670623887914592,0.49570980946611143,-1.0539436077942927,2.084776237189058,0.9833878013007259
1110,-0.8095970108772013,0.05522734909543654,0.4954856766626573,-1.0454766878207784,1.744965851169207,0.7674429237452801
1120,-0.8147652824629692,0.049130835210024794,0.4988944267333676,1.0390172506529165,1.2796878607359576,1.6133053712039476
1130,-0.8182980128118412,0.049104259420931995,0.48815711778735577,5.178450303481451,1.372053979570732,2.4948505537790586
1140,-0.8148680887752784,0.06322695660213276,0.4788121166286637,5.304099142843013,3.744558275120645,2.9152113198063385
1150,-0.8041550552781026,0.06359881649934271,0.4970038240567844,-2.012638592768481,-0.057768809354314436,-2.047985922368647
1160,-0.8254518180126821,0.04295286869169908,0.48689055086998767,-2.145274816231715,-1.7636066435001863,-2.5441557684207625
1170,-0.8106794567380932,0.05611351116443339,0.4912276339049183,-0.9583788132264353,-2.6901542834139947,-2.0008177843827593
1180,-0.8223887831032891,0.050409373266353696,0.48017787481934104,3.9349853821163756,2.813955068592912,3.3564953325214963
1190,-0.8218930055350462,0.04705848483770594,0.48568492706227206,0.9597965543386171,0.6696954115051316,0.8404254719429509
1200,-0.8340803223730897,0.037044581762865854,0.4755611234257993,0.7166165575929943,0.2994174708747299,0.6942892324489259
1210,-0.8077638809209334,0.06623958032060598,0.4947347590003471,0.23810088705456423,0.2578071512606701,0.47292191362035363
1220,-0.8172458101551269,0.05669214099186698,0.47892849114580704,-0.621111787553844,-0.7979467917475758,-0.7908758868720559
1230,-0.8290224940867347,0.038661129162466085,0.46982051601094654,-0.46315845150149915,-0.6436991137728381,-0.46655828600329674
1240,-0.7833748057180921,0.08701664841149562,0.5134861762151866,2.0885716818787206,1.9130832421713846,2.1051068596633336
1250,-0.8103981653344375,0.05314504710873674,0.4897207047910853,0.32253502223900776,-1.248860580643841,-1.0533789274924301
1260,-0.8352234757647196,0.035984933256778276,0.4681345462149405,4.770261053547486,3.46326720193593,3.4625690138011715
1270,-0.8281442171353731,0.045365126165353466,0.47212792130198333,3.071986419220572,1.7635511548480096,1.8006046559584363
1280,-0.8195838122599767,0.05658658089531561,0.48592129243755416,1.3389698163518342,1.4602120256352475,0.21749180841635396
1290,-0.8014588610081594,0.07091097368204868,0.5103832494214936,0.2665268273004661,-0.674376324262683,-1.2435668034665317
1300,-0.8136479764532436,0.059587989219859035,0.49102025262725113,3.24628954804436,1.3294604927365137,1.3388088980892137
1310,-0.7847411081318588,0.0898758800727193,0.5154494423374525,-0.017870832754309923,-0.06591697679558123,-0.6278257590757035
1320,-0.8056239354364092,0.06427234813550671,0.5003262008965157,-2.433786905138009,-2.5444164544788173,-3.0190143441751154
1330,-0.804554607776228,0.06589775926771443,0.5042943918881311,-0.5232893547801274,-0.8935354868308435,-1.4293800624849322
1340,-0.8270217063344144,0.043086116673016,0.4811980797694355,-2.9152877391684946,-2.157178816697567,-3.010659235530901
1350,-0.788368908786319,0.08533000297232116,0.5134392079183672,-2.6422937821556585,-1.2077596740130288,-2.2625102970686806
1360,-0.8109851764450094,0.056831397665251894,0.4903512100281757,-1.351481044639697,0.3786003650981068,-1.4780265746541466
1370,-0.8071273561981894,0.06291146793174408,0.4977396314375441,-2.0905704571466703,-2.7409354200619664,-3.8167457953370176
1380,-0.7938266348629773,0.06613331809359378,0.5085321822070707,2.022315012406164,0.679737793863194,-0.1719076980624181
1390,-0.8305675210273361,0.03758745602784412,0.471616245172874,2.3747449410831662,1.004508779896438,0.7518934387608409
1400,-0.8236851875748231,0.05241218554718575,0.4769369877332299,2.6566156680391195,1.4545015807796804,0.2799042388766042
1410,-0.8067213047779651,0.058281363770440624,0.48267423001324516,-2.5480196840017837,-2.3114386347494733,-4.846553773518657
1420,-0.8418552377478031,0.017189426988498523,0.4637657906265508,0.037886054927952495,0.477993964725111,-1.5999321982254138
1430,-0.8040738575754321,0.06235799439514095,0.501692141579514,1.748508881598102,0.38057344900809514,0.7744337390735632
1440,-0.8418385743449383,0.026766911727077652,0.4558510039991701,-0.3439738319049783,-1.2566913667281334,-0.8621186751074141
1450,-0.8215939977783365,0.04918862847395571,0.48482824777027217,-0.9686959367632323,-0.6460353911640457,-2.005608274515681
1460,-0.8083233255582207,0.06069181096965423,0.49819955508608776,-0.34040228379532755,0.6555973483023921,-1.2884306755562085
