time_ms,ax,ay,az,gx,gy,gz
0,-0.7504294542214637,0.04994228309994056,0.34914871003424447,-2.6656050023588365,-2.6540520562323557,-2.779553784961655
10,-0.7451895446545369,0.061003358903618826,0.3560900385636815,-2.5100721226500133,-1.865825102005917,-2.0726523838904543
20,-0.7941235019158361,0.011212301577967501,0.3107561454584868,-3.8430066444356057,-3.4707519992419384,-3.618158061690261
30,-0.758769983815859,0.0436197554888038,0.3442019079041555,-2.7848250647109496,-2.371766008684978,-2.3480181269615676
40,-0.7744185550731593,0.024914211497788365,0.32510371062986837,0.9422949179581284,1.21615982296739,1.2606241270226601
50,-0.7737613207851414,0.027245470322583627,0.3266111726978893,2.3153777725231053,2.26939317300966,2.2197976526315655
60,-0.8069499086278711,0.0016451762077652407,0.29815999304855695,-0.5469622248642566,-0.43465716972945523,-0.43386352131433403
70,-0.7871282199354016,0.01397400075598126,0.31317549465036304,-0.28176811134592356,-0.08258007051999353,-0.0836818890114027
80,-0.7688192550658731,0.03592186850287355,0.3313053286210203,-3.711835551582592,-2.5533560676957325,-2.291788692065674
90,-0.7654869754648046,0.03588278378215602,0.3359817951185441,-0.7249145470819524,-0.8320327595147141,-0.3763574303550023
100,-0.7562965313882986,0.045720665182391686,0.3447171619629802,0.09537436628890722,0.12101557466534721,0.30887566237815856
110,-0.7621968339086647,0.03864612507085181,0.33641120026654076,1.1448860201697384,2.398714984630377,1.9894307841520475
120,-0.7670785140376268,0.02851444987548724,0.32998278383015517,-2.4482825444412133,-0.790015011028419,-1.2928835238687235
130,-0.7585826956593069,0.03549979382060905,0.3396405271479218,0.5624871631993869,0.9804379882922731,1.422630487056606
140,-0.8018376916119088,0.004868476777355461,0.2935153526805391,1.1464039324747588,2.075362161933126,2.5680068006920447
150,-0.7331572002970722,0.07472509900839544,0.3689040063253246,-1.494606236626551,-0.5795507442054448,-0.08327088157709711
160,-0.7972959581402521,0.012473087495811316,0.30672789742355794,-2.5732816412559516,-0.4308043466197525,-1.0810885378639055
170,-0.7505267290761544,0.05477525667736859,0.3513967033671974,-2.969048464153437,0.17248892679156055,-1.548508286108115
180,-0.7700347889022016,0.030945956765759324,0.3310861672556173,-4.852459134129422,-0.4008169759163367,-2.122354421304277
190,-0.7654693695152109,0.03147113961529412,0.3376392492552014,-8.370036161348292,-2.7329392310387703,-3.7112654061316537
200,-0.7594425636456172,0.028140309124913353,0.34492109194388204,-5.9899333001548465,-0.9117299918280232,-1.2976754048419288
210,-0.7605816722847778,0.022184373981982006,0.3420218174450913,-3.151204872359071,-0.6135574263172483,0.5734838066800172
220,-0.7615368465832258,0.03691304931438072,0.34044145468111786,1.6996809426897914,1.2794660377949034,4.319644147680224
230,-0.7564689121526991,0.04474233229990978,0.3475322963831185,2.0912199712549064,1.526579281024415,5.190135119104559
240,-0.7724251385095389,0.028846600596408284,0.33548042423245344,-0.0897409342311413,-0.2204501731883519,3.8018802388278146
250,-0.7928300153252065,0.010921416720281072,0.33406563276772827,-9.606895345362682,-1.5849623252762914,3.2734073143460862
260,-0.831535485006605,0.014479712856758722,0.3526848169990803,-9.537252340672538,-5.759348563037278,7.2793291543584475
270,-0.9671297317647308,-0.0233661220419027,0.3376406845796712,29.560390434542104,-6.283593968303837,27.07099644983781
280,-0.9995595786189043,-0.053691304317531,0.5026407410871379,43.981588217037526,-7.298105581230841,38.47363531015045
290,-0.9677010358417222,-0.0397995888020985,0.4134721357303001,45.82908416667113,-28.414479765578918,33.6420157274051
300,-0.8421001919759638,-0.10434159316427781,0.34799146969603895,41.50236845424978,-38.304044247332165,28.603745751642403
310,-0.7280295119367377,-0.13822334225305524,0.3397113647686873,50.414300371936434,-34.05494897268801,24.131756993969194
320,-0.6337763070938791,0.003321689836569188,0.33628009768843875,41.52513692332443,-32.38710071966306,7.2929869545814086
330,-0.5603679237569114,0.18120007030599344,0.32019347628505584,34.238567155624345,-19.22984324402446,4.467052770041464
340,-0.5251166492020036,0.13451776167034704,0.32848169965657775,32.34763778589354,-12.265660659057508,7.482563430756966
350,-0.5048111696689213,0.1384045048227592,0.38554436796502234,19.637415639978922,-7.8330585304965945,1.477915987333229
360,-0.5741365422517629,0.18526970552939714,0.3879259361763522,8.473313307091876,-3.3366358483979743,-3.636062255699665
370,-0.6614371106173785,0.10555417834841926,0.40298015879485943,-1.689108856600747,0.026295539825718917,-9.733747456165009
380,-0.6908203151348024,0.07383397519521945,0.43020320672191853,-8.862177024391212,1.9041564246924083,-16.086282034617224
390,-0.7075668769746476,0.14052621521612127,0.3744764149996837,-32.447247623872826,-1.5624355518719741,-23.311763342264552
400,-0.6825496261466814,0.231339157731301,0.34438995821278007,-59.68588575175626,-3.8185007673080045,-25.851238377565032
410,-0.6874208404784876,0.11406977128504099,0.3880674745263484,-65.09038177679992,-1.3331828951609244,-24.83461320028629
420,-0.6937656133372639,0.07955128100130059,0.41329412055837755,-69.30116219235194,-0.8464406492730698,-27.784033104519633
430,-0.6850584931973159,0.0729996918484811,0.3727018519977656,-62.64624829616856,2.2671109613259306,-24.832000959475753
440,-0.7310978243120797,0.09688750261384815,0.3650583356434869,-64.07371601759884,2.3205427120111626,-22.511036676813486
450,-0.8415202066646325,0.04234174774691604,0.4739273454270366,-56.346726570430626,-0.9915891849673453,-24.351073749661584
460,-0.8496781416653195,0.02395838721278261,0.43819301051068166,-51.17257722883693,-12.194952165060876,-32.15477470918431
470,-0.7574976557093793,0.09240160755597877,0.2691309567493158,-63.51325854294611,-21.4972288161895,-40.42144212627324
480,-0.7899706112531133,0.048573489234330504,0.21385469723901843,-84.56370380374759,-16.674932160642044,-42.19490888746985
490,-0.7910570283126444,-0.27242128268123844,0.4333619490481858,-52.10067173642257,-24.088185693201968,-45.038348724211076
500,-0.7426260202367192,-0.283327271252267,0.46408536556361313,-30.873945879110405,-20.65618026416486,-28.915170190029027
510,-0.7724093106579851,0.07284666467976146,0.07967034274012799,-16.538479652482494,-13.539221498835676,-23.137181458637265
520,-0.668933006794302,-0.11197607638768255,0.2214669571501665,4.879473921684106,-10.393445901557568,-20.94438996460388
530,-0.6883861010136483,-0.30570265717728445,0.35740414390909847,22.118019456199615,-2.525163214641325,-23.442657468958874
540,-0.7822916897788095,0.07936941375835928,0.49073437040805734,34.86544369907326,4.023488269980221,-26.21105440096138
550,-1.014887793543941,0.43907731358990193,0.6931419445739898,64.6619296660517,3.9409319995908656,-11.61379000367464
560,-0.7531449804798095,0.28407555005060187,0.579287754780096,87.5459262167311,1.6933548616735072,0.2120475282971901
570,-0.816116399108773,0.030076991739937813,0.062305965554988324,65.9032466097869,10.846077058991572,3.2487703122804588
580,-0.7975872938220566,0.019661500447628356,0.18445816718865202,43.22927209701344,19.530319427649065,3.3803584207063264
590,-0.845967190930196,0.22235049649615202,0.1002056142557931,26.64210214515215,26.862345894970233,5.291852838344134
600,-0.7532849038444203,0.11554620273167279,0.23052124714209454,38.46294790652436,28.37263999905553,26.861914684679874
610,-0.6048691255525671,-0.09131546236984202,0.4338415468743647,48.81268694926617,18.513426339807687,43.59552001617328
620,-0.7417421275534134,0.1412854972528706,0.10736339391345862,23.778156922952537,16.721067378730883,34.03068642461785
630,-0.7631482942581146,-0.07252070295766527,0.49126420190140235,-17.379352456148688,10.505794971737965,19.59169081584687
640,-0.7720180754805435,-0.07145920881782648,0.20727542391335665,-6.556383656979187,16.421580660323208,30.76648451577491
650,-0.6918638440834258,-0.2170990790470198,0.5362034594576964,-24.81991305269016,6.435838862360955,9.40574839821068
660,-0.6843208113481154,-0.12531647024354664,0.4889190799542216,-22.528814874181478,-0.15794829921452713,0.22678119038204447
670,-0.710380763424272,-0.06002138088629787,0.36007036642845563,5.90508040072613,-0.35752538004192136,10.283722556153194
680,-0.7245003335584209,-0.11893151348181043,0.39344593966018615,30.013707362801583,-5.698264738114805,17.516794465226578
690,-0.7562435458367005,-0.16180067652801353,0.377933192276382,41.124500011389074,-4.573058493434173,19.147151334426294
700,-0.6983935259689329,-0.3000366218218861,0.35513662726143547,38.734485385487005,-9.958355056917778,-1.4153147923229934
710,-0.8024400055661585,-0.1599449248212903,0.3712268345321855,29.36370856627893,-4.970374024883081,0.26942501143376907
720,-0.7955966437517272,-0.023246009286594274,0.38283770435095527,38.4194986228799,-3.6754530349565906,-1.698835808575307
730,-0.6251655427331452,0.01595951682051255,0.3451886877367637,41.682951535900735,1.8039165027298103,-12.47629134214962
740,-0.5930490243374766,0.09203976788996375,0.30893808302172215,24.612084565511704,12.486605198924087,-21.732233061530277
750,-0.7823824148721036,0.08104207621995801,0.23882000548276283,5.472537351538352,27.617931569099053,-19.512938344922187
760,-0.7714447427812154,0.0002650146340921018,0.3671965670427384,6.139353583200308,32.615379556875745,-13.979851294443343
770,-0.8620359705617777,0.06700332469536853,0.8553366445772078,37.72126962118913,37.026374079724654,16.129370534197857
780,-0.7767757427937673,0.21198787315482132,0.6319037221617253,21.87994986321851,34.592678454413594,24.07008294682229
790,-0.724062162641962,0.12872162826342168,0.6356310140130942,4.974063510168511,23.759134411326652,23.2380778522414
800,-0.6853712882738227,0.019345718420415214,0.5632551071860145,-11.020152183481702,17.594815840053407,21.22635103660886
810,-0.7468644014467303,-0.07815853980649148,0.38102355348495653,-18.602097889116386,6.988596250184151,23.339794817234967
820,-0.7309562952872937,-0.04976978134536284,0.3995355182300063,-5.153267776407161,-0.47348070796404884,30.906644744921294
830,-0.7691224006483678,-0.1624737189376582,0.44931024376092554,12.333096720238805,-3.489632023491787,23.66625176910987
840,-0.7391523240084097,-0.14176482907388152,0.23387575471481065,11.816769337855243,1.7350469907220747,19.85079426250007
850,-0.7733962605432084,-0.2086732993145622,0.22751962817907334,-3.7029337480302225,-0.633431635404321,2.759432827670467
860,-0.799940524224988,-0.16866575355141933,0.24719517326232215,14.609416748272734,2.4462545532148523,2.563672262024676
870,-0.7460858779385906,-0.007183349815514783,0.3346682557915581,21.60854797311715,-0.5863305265842689,2.2413259881182053
880,-0.739129056940541,0.07110056538842574,0.3680829924151482,14.65402742897535,2.5468133425572064,2.959622174155589
890,-0.7672722155191091,0.055424027148189385,0.3544499118291262,-4.4629515922081895,2.715133373493696,-5.274903147146544
900,-0.7513377862490617,0.06133629352723401,0.36180202368248643,-8.142908100343007,5.982199706772512,-8.109962896943475
910,-0.7918493049355596,0.01779340517037695,0.32645824206701474,-7.470049196596445,6.739532406649768,-11.803039879296932
920,-0.770780196955904,0.04810119479839053,0.36147095167689314,-23.62588462074029,8.484129914090813,-18.051005114148516
930,-0.756092918273794,0.03924239772188405,0.37286267263748185,-27.393066207370314,12.515240060986772,-17.8292595863693
940,-0.7533288931089294,0.03177116173145682,0.3674031238846546,-31.35388666475065,11.318276603243355,-19.85536038671168
950,-0.7738683125006036,-0.0040422847645645455,0.33303739766944335,-22.654028360375083,10.665333302813693,-10.127298126187805
960,-0.760860775127927,-0.006229638716562257,0.33277746369006034,-10.086958756912352,7.198440566286401,1.8605987892716311
970,-0.7467647491836534,0.01888511068144283,0.34539113058372484,-4.6857322733297,5.476360785154085,4.956586053012009
980,-0.7945053743277951,-0.03728656482782771,0.3008789457521075,-3.918630862581397,4.38849008637823,6.148819229316225
990,-0.7544139735772626,-0.02837709531779356,0.3113361301130418,3.7881501738295302,4.095811466223106,8.919535847291534
1000,-0.7864859541404366,-0.008918597904374746,0.3213988987063752,-8.561296293526535,1.7727378082835077,-1.4457258190625328
1010,-0.7666050749124764,0.009364006046181941,0.3411848055788729,-5.994218308877816,5.165345503536941,4.322117141819877
1020,-0.7473821666446656,0.014761903975316968,0.34343373594830856,-4.427342693390015,-2.438118656542982,6.361436429237874
1030,-0.7617903491059635,0.0116316073240111,0.3295452906895928,-0.264619254848772,-8.135067611955828,7.447605025902053
1040,-0.7624524861236721,0.024115505172747603,0.3401858258238561,1.3280989913087557,-9.724618892227166,4.3050770259448665
1050,-0.7974807062816387,-0.013366071448822965,0.3095653192320822,0.6090384432460381,-9.274255346907022,-0.39856635110234007
1060,-0.7719134625835166,0.02028692595195399,0.3411075095731383,-1.4747008761807594,-5.301041692695053,-3.0973047112018532
1070,-0.7312367717982899,0.04548528193842427,0.3750981614920849,-4.011119926433823,-4.845942129252165,-6.468477441497582
1080,-0.7922863986127235,-0.02601070177206137,0.3128147661119859,-3.2801331663818494,-3.7796143339495796,-6.091170033856679
1090,-0.7609869766422043,0.0019549004554566965,0.34393433463175577,-0.5304856497636425,-1.781321363481077,-1.6414258734900802
1100,-0.77527474104858,-0.01135513411274268,0.3256503502557669,-0.6709182932312455,-2.26041071633347,0.9412213349720454
1110,-0.7528120514246096,0.01575265751422752,0.3443729849567281,-0.7357171881782512,-1.8995887436996373,1.6028827147682354
1120,-0.7858145435730786,-0.014981974103326023,0.31769174244378295,1.5346508363647988,-0.16069261611668706,2.29941473037655
1130,-0.8039488444264031,-0.03428440383076967,0.29872960259086273,-0.5653900753323686,-0.7934159119505342,-0.723470959468226
1140,-0.7846251814853489,-0.01886531697316257,0.32475286543158854,-2.946581961306028,-1.4068483454047613,-3.1345188863844236
1150,-0.7696111138595728,-0.006948649714375195,0.33713318723481983,-0.9706340403800104,0.8810967251660178,-1.3077425023618114
1160,-0.7510598178389608,0.013197924079304165,0.3523641108502842,-2.125888208921845,-1.7265141611118862,-2.1766140658270547
1170,-0.7758489093351891,-0.009583736980864097,0.32753791421935297,-0.5429466047829337,-2.021100923524723,-0.10013774973558387
1180,-0.7913072120148175,-0.030077768944738327,0.3102399122308042,-0.13552049480159745,-2.0073913643290875,0.2706731380788685
1190,-0.7733087478372724,-0.016297903673948403,0.33188093520822526,-0.40361378388747327,-1.06271095999333,1.0888015242792417
1200,-0.758791634344966,0.011545092013182564,0.35443412120747464,-2.457320265147623,-0.6183124078828054,-0.0802380600383863
1210,-0.7584441425718602,0.010885098213364468,0.34954963131110983,-0.9699860117976016,2.327509146375079,1.6696416869607091
1220,-0.7706801493733293,-0.006570059257941454,0.33179498381801936,-9.709015091667666,-5.70309894826155,-7.460416285138962
1230,-0.7770840104689525,-0.02271997619580064,0.32404054105129654,-5.548620295475554,-0.8126808331852208,-2.9011721875570857
1240,-0.7526555459322904,-0.004180625260824888,0.35225661301788375,-5.64526488639043,-0.7121089610241945,-1.948704538807962
1250,-0.7409436051781223,0.014320353311891085,0.36913869934933746,-4.683274058019898,-1.296645715602135,-0.8179559573945065
1260,-0.7741871943932613,-0.025856957396213368,0.32644188657759493,-1.2010007502244626,0.17518551962387718,2.4732057498904294
1270,-0.7562971954415896,-0.0006684491572541713,0.35166194814212126,1.0964003669262605,-0.22668273338264833,3.5901455672129283
1280,-0.7500680343007793,0.007671388933657582,0.3580061945709125,-0.6590972846949485,-3.6492069599067443,0.8426863873250148
1290,-0.7661686854228938,-0.0067018866984330395,0.34415430338192515,1.6460263750250683,-0.477921222597799,3.4149088211030256
1300,-0.7739423075167061,-0.010744260852036934,0.335493697416289,-1.1420346581419272,-1.1794312194628631,0.9899133974796683
1310,-0.7432759554026248,0.02131732611955533,0.3635333128420906,-0.7733834915527587,0.46384951980841815,0.960375180311343
1320,-0.7704921131865324,-0.010197011199014649,0.33864761609623345,-2.1724083530787066,-1.2265123105559708,-1.1126029564889741
1330,-0.7470395147525132,0.020617866031504728,0.3573734037643969,-2.480744603039706,-0.9666144808336613,-1.0082953915029254
1340,-0.778503910098626,-0.023542252038651734,0.3280006282578391,-2.1291836012067864,-1.4147465259015566,-1.376591591573512
1350,-0.7639625576576474,-0.012192643789680407,0.3398805299851354,0.8897339181197237,-0.3446960315930234,1.0430235544272106
1360,-0.7896330394658423,-0.038753795228589766,0.3166393003865513,0.7541589256968395,-1.0415158744639017,1.1250816001928223
1370,-0.7675513426571455,-0.008710186748798025,0.34296114069261446,3.165525090099684,2.3035186043660794,5.016868440705181
1380,-0.7741482311650952,-0.00562637276044295,0.3371035973295848,0.9492048029233322,0.9759653514840112,3.7558571514161136
1390,-0.756501945992758,0.008118475593625172,0.35126404842355097,-0.3529817808896738,-0.8136328623624092,0.7833982922350883
1400,-0.7565610292720092,0.005583769414815131,0.3495035461817895,-1.0240179717432212,-1.5421144057744698,-0.7709456078227489
1410,-0.7603448948846712,-0.002220838788883011,0.3462484026432084,-0.23533804185585266,-0.22816718056240476,-0.36681374047234355
1420,-0.7254003528855691,0.03190722876045144,0.3828394284546435,-2.640787293419968,-2.0644704250218875,-1.634575594638083
1430,-0.7792264621398188,-0.022362768651209983,0.3291478541290452,-3.4640250054640456,-1.9063307092234758,-0.9847388649284736
1440,-0.7526908593705001,0.009228860706151245,0.35555255919521483,-0.24402171235980297,-0.3435171105693282,2.579754379237992
1450,-0.7429043354227954,0.024870743518020523,0.363804221914506,-0.13046683275751203,-2.7828587387039554,2.057550543129079
1460,-0.7854573409624164,-0.019750503374654303,0.3186014591496172,-0.6774863361703822,-2.0527940109507536,1.2155993063746346
1470,-0.7886151977099064,-0.0162474411884781,0.32728218028388617,1.5568308804205255,1.1626296493516715,3.221061700450307
1480,-0.7512642643352794,0.025820457124522044,0.36172377054565225,-2.788010562815276,0.31464129464534096,-0.4201126349602282
1490,-0.7753531219291919,-0.010499746344306761,0.3350093386535178,-4.468031341174431,0.7358479187003852,-1.3991275232895184
1500,-0.7765694399843945,-0.019179235970361405,0.3281331848866597,-4.3140039110218344,-0.2253364472991471,-1.6938000553336667
1510,-0.7724352249127627,-0.014911991410087512,0.3340223089672227,1.491050620674609,2.443402722179468,2.6337590576608383
1520,-0.7440288833366743,0.01789728543353515,0.3690817032016422,0.3053736073917197,-1.9973872664790724,-0.4903083981463753
1530,-0.7539627508487841,0.012968772142079523,0.35754347301197514,2.5187304186901134,-1.3041647461958554,0.265411774196031
1540,-0.7582028835641548,0.009219858885366604,0.3510329875332861,-0.10980662444872114,-1.1144318809094527,-1.3501291735473437
1550,-0.7519187300167559,0.008780141311724606,0.3510140286404455,-2.0281383770639634,0.48419247878709615,-1.777705683548614
1560,-0.7542310167754908,0.001916011552631696,0.34848039905276523,-3.2627142649597305,-1.695492546495299,-3.994666481920503
1570,-0.7681744094997138,-0.010521600087780903,0.33830489880105796,0.9682074372414275,0.23321669336960643,-0.7124708006526113
1580,-0.7659489495606296,-0.006827741432210122,0.3462523795868656,0.9717379945013475,0.20288829648790455,0.7050795763405219
1590,-0.751558639027857,0.008619224091318732,0.36464762964401165,-0.7099494269987138,0.09544798056308285,1.2699023490008536
1600,-0.7720690357164854,-0.00719597891882885,0.34286714813607727,-0.19422193109296826,-0.00859188509770379,1.2007991691987325
1610,-0.7524360039637831,0.010952461234880534,0.35770266342065016,3.058742685709553,0.5804588942588758,2.3733488225421953
1620,-0.7713761576814921,-7.820681051515753e-05,0.3368079659566662,0.46445399005720034,-0.28252410729958427,0.6824885788726166
1630,-0.76020382716134,0.007150351879997085,0.3515820465873041,-0.45683157792844553,-0.6087260585776142,-0.4128464001116628
1640,-0.7753086512424061,-0.009057094536399518,0.3337337390417092,-3.3956589110509414,-3.042040785053279,-3.0098729441860956
1650,-0.7719081965222059,-0.006028024728293597,0.3370792586117325,0.1935114578414992,0.37287952631338517,1.4293950662219894
1660,-0.756246729964477,0.007139460546388004,0.3542615681293447,0.22385102638262094,-0.08614661763211987,2.232168209531538
1670,-0.7592848954291685,0.0018538437965069363,0.3454034284596573,-1.8235606922644894,-1.9709997695126436,0.31112703251868723
1680,-0.7797272050114683,-0.017123934113300474,0.33084722262273375,-0.721431209978207,-1.7815274433943278,0.5121922197012578
1690,-0.7519868914430149,0.011354668122920231,0.35678820573347675,0.10979461013831726,-1.510026887883617,1.1065342357909036
1700,-0.7252242044233846,0.04026414859274557,0.38730424339276853,2.6707907842301415,1.1921077961125939,3.252961340289344
1710,-0.7688969742099592,-0.002714058014578238,0.3394241836584076,2.1875348612986354,1.4091034937316314,2.787741642337342
1720,-0.7480996874706237,0.01323902477948708,0.35838658810134144,0.20259663645615128,0.6068017024684246,0.6618810188533811
1730,-0.7509268270336994,0.0025905579554017302,0.3578739645027786,-2.7974976931579376,-2.0717376115868964,-2.722271952360048
1740,-0.7412914089494969,0.009972256515770547,0.36559056520083816,1.4100992920791664,0.3477108937904392,1.4237334395054702
1750,-0.7489620138192232,0.010939188857428537,0.36242045413102136,3.5177111339219094,1.4586173104531723,3.5831533840526175
1760,-0.7837103970574275,-0.01590165877866013,0.3219364471496302,0.8002326330477472,-1.9109888981191676,0.7186217740388594
1770,-0.7758934045991581,-0.012409920908749851,0.3322369881419528,1.6573927615221515,-0.7451746008711083,1.5321714439653313
1780,-0.7864628150244874,-0.02194431834125166,0.32448807793192685,0.8586630964891961,-0.08864706516469907,0.7960880881162252
1790,-0.7805752032194698,-0.013695673907180565,0.33174822035027157,0.05053186996856289,-0.033322205847580076,-0.006073923872427875
1800,-0.7711490448066216,-0.005798318769610645,0.34277884963293365,1.8341759688350239,1.1455526283420068,1.5007525175192806
1810,-0.7945550160416516,-0.0319268203670883,0.321532114744667,-0.1176116507687055,-1.843792232858244,-0.8378665213955185
1820,-0.7747612231298541,-0.007699765944418075,0.33599428667433984,-1.0012005619536342,-1.9368691974653474,-0.8250990755916876
1830,-0.7695311498129328,-0.0012624113766712937,0.33989171652789196,1.1871209816053954,0.5520013861369717,1.6049267028820284
1840,-0.7736811872186727,-0.004857990396665459,0.33361610967214406,-0.43262609351852754,0.0871131489078493,0.5150497342449872
1850,-0.768214059975838,-0.0034441124178983037,0.3413514464887765,-0.8368872823767869,0.7766392437625966,0.3148716978300582
1860,-0.7622073998029273,-0.001963198906440306,0.34903540902633634,-1.693888956465369,0.27657720924722773,0.07386385513285762
1870,-0.7699506538518632,-0.010278506381145289,0.3415841790425064,-0.7197465025589322,0.2809812135967781,1.4621509876034824
1880,-0.7547742562806189,0.008449615012243282,0.3592590649557666,-2.2829148017605756,-3.00629290590498,-0.9372027655784545
1890,-0.7447388569235698,0.02077943348430623,0.36800716383765736,-1.7677630175309038,-0.9291117770275987,0.5448118614920938
1900,-0.7456416288853602,0.01433955352524922,0.36638458009776087,0.01337019467101741,0.9623260964099208,1.7309018552138113
1910,-0.7632779092611296,0.004298882885975282,0.34496279361851523,1.1346951671425656,2.2862296626792977,2.4405404224932634
1920,-0.7676862460363976,2.534803406353814e-06,0.34507637602106034,-1.831926651125905,-0.06998090278053462,-0.286128857556594
1930,-0.7369108979049441,0.02520330792648989,0.3760255982006866,-0.5545782604029987,0.6499044582186633,0.8306740699343396
1940,-0.7626815523600046,-0.005799032062047193,0.34365857852103837,1.060737314533953,0.12975324899940655,1.2719001320048196
1950,-0.7523289167372681,0.0037116307187169927,0.35283229700214264,0.8935588561387198,-2.082485579535825,-0.40009431404866236
1960,-0.7526207948851408,0.014782634379527697,0.35806786282679476,1.0589531205856488,-1.3557142586389654,-0.33752583314581797
