time_ms,ax,ay,az,gx,gy,gz
0,-0.7124341572559016,-0.05459800131864353,0.6339620191097584,-1.057840609069349,1.1229921129736693,-1.1476233051072868
10,-0.6783452783659435,-0.02097336825122778,0.6677509166054834,-4.697737169630057,-0.9367982237505255,-2.1358127771170206
20,-0.6970724295710774,-0.048097583633429065,0.6531622528203266,-1.343513196936565,0.2894721854398803,0.26341036267025936
30,-0.6640976813299321,-0.004498306280363424,0.6841248113103142,1.5655230870457744,0.3343029513995153,-0.7864147628809475
40,-0.6955322403906314,-0.03611048263359331,0.6582302075264721,-0.2912691456208045,-1.2593381411651374,-3.239107961715608
50,-0.6840099749447377,-0.01887365043757577,0.6606736214494614,2.4159706954242894,4.232887217861829,1.378807289006927
60,-0.7011489735550276,-0.04633700048726182,0.6449234097982173,-4.475624070623607,-1.0543656868183606,-3.324993283442031
70,-0.6957362634684386,-0.0528503901520843,0.651995174891977,-1.529290897086979,-0.2337966853555472,-0.5988325794264456
80,-0.6893677671252301,-0.05884878364678714,0.6648772791574191,7.800198371898403,0.16582763884338925,-0.016587412034571036
90,-0.6788711980213219,-0.027518170248158294,0.6725592809195553,4.125219737801807,1.361726274910345,0.1134077878053259
100,-0.6880192604312791,-0.023515427729604466,0.6626216770868729,0.1800934504358575,1.5642556032734984,-0.3985205799579089
110,-0.6775984921460837,-0.014316099461828165,0.6720849903349554,-5.046688907388438,-1.4307098032852743,-3.5729052929216505
120,-0.6944760226294683,-0.04235436465502688,0.655359147383029,-1.9711435074522066,1.0053550329518095,-0.806755079243676
130,-0.6482341550498498,-0.0008965608839281158,0.6989958905428006,-2.449547175533126,-2.291735236813799,-2.6392815148484816
140,-0.6988228771905265,-0.054069122894654986,0.6472761938425854,3.001913129472408,1.1321946738058095,1.4736456295719866
150,-0.7110275232857272,-0.05346629203653823,0.6537343591750389,10.407719963810713,-0.8229976471389637,-0.6793444651491141
160,-0.7063849250247991,-0.0384239352308567,0.6637151780721423,18.142402883210917,-4.026401891566881,-4.75828366883027
170,-0.7180920691937275,0.010959274950835787,0.7026607587727834,16.652436038325586,-5.372411389292353,-4.898844844926293
180,-0.7620604349028044,0.010144569844105054,0.7166074355015167,19.157072621451242,-5.15425690845414,-0.9297005997990224
190,-0.816227830212521,-0.050735762745573273,0.7232796253294064,31.47705497151296,-7.110104263721391,0.5020607177050553
200,-0.851956090555642,-0.0037501751538879247,0.7302183195736363,34.01334792520553,-16.707566750286034,-4.463256969847276
210,-0.7322417440201704,0.10548696295511047,0.6135700638343135,40.72256507602803,-3.683184011124152,10.072752920394606
220,-0.5621547951982144,0.10317157248230834,0.520879207639654,40.02919003470773,18.717151201106088,26.345163360477773
230,-0.5310924730529648,0.10600399842096289,0.650159744523906,25.82675790922224,29.380123523632474,34.3782159911361
240,-0.5722590098977752,0.053714342411610896,0.6687124748555282,5.456182007832614,25.842038378220913,33.811794976763444
250,-0.5927225968308658,-0.007859409062600142,0.6565347072260794,3.2664480471578186,24.079592268740775,31.204402812828867
260,-0.6263366839991185,-0.03136540080832861,0.6856078403463152,-1.3021508935509933,26.6818653934129,27.678778199667335
270,-0.6768759530173057,0.01518178802757314,0.6864696325429962,-8.50509318218286,20.048743269307987,21.427972140193972
280,-0.6316868581539345,0.0050747419250761795,0.618048395586322,-11.90069384347552,13.868787034432021,22.944319203446952
290,-0.6214530523526478,-0.036542676313695364,0.6218425831090435,-19.898369307577024,17.302283414766706,19.175446370870013
300,-0.6555058509255712,-0.015942226669597707,0.6590920733642294,-31.280172327793704,15.343247095090122,8.306593828693696
310,-0.7149446082766967,-0.005207553208652376,0.6619737501224502,-30.20969716957271,10.661064138625623,2.0352167637911203
320,-0.8025321104548796,0.07213813869999211,0.7343123041183088,-17.96325157678097,6.235254964644183,6.093655232977298
330,-0.7847341880229669,-0.02735120683244928,0.6718657968697159,-18.44447187291795,0.7346009907535967,5.322795355319254
340,-0.742313076880238,0.02440192638606735,0.6188675323982625,4.679181690531835,-0.7021119246079603,1.98142030950901
350,-0.6954468117466481,0.009420285303769572,0.6643742029156594,9.794759516011505,-3.7412021313451547,-4.969711831277888
360,-0.6706786006430218,-0.04402803836578821,0.6971571647080632,44.71073744503016,-7.304387556502897,-12.110602251291532
370,-0.7647980965765112,0.3608988139532079,0.5910399419254853,28.14284929627133,-5.313660481088391,-11.889498719493474
380,-0.6879134742846172,0.006214765818782438,0.6598058411933887,5.655838366677858,-6.743102749684334,-19.487679064675643
390,-0.7346860267385523,0.16280015295712857,0.6595232739260595,21.994266024898728,-3.569675183738563,-17.99593469570646
400,-0.7671648254520286,0.3235296802526777,0.6500059626968386,20.29639720379662,0.20142532056854634,-8.201073493793338
410,-0.6816944215142661,0.32243685201845773,0.6656648991741746,16.084015761581632,4.9921745690388555,-1.0206299378459014
420,-0.7630436641413894,0.049704246955393175,0.573973529646574,2.068727914418341,9.970246801388994,-1.9478431753390941
430,-0.7353037816569953,0.07395210739841178,0.6115833693813891,-10.236063589188518,7.122631663416216,-11.084412932998573
440,-0.681229570864183,0.09056563673736136,0.7009802876121869,-16.529344400760007,13.303674178027109,-6.759490431335729
450,-0.7534003607887253,0.10382144123423004,0.5650275877982549,-32.22617194039412,18.24185212227166,-2.436776811741818
460,-0.6914978797117342,0.03167030265020928,0.6524911364404489,-19.395686594914025,18.945581112464826,18.284967037863712
470,-0.6053165836770503,0.034141193656522434,0.7714160832002421,-20.242291359739404,15.024502566185447,28.322365644776198
480,-0.6724165788985003,0.07167230159075419,0.6820732191767107,-13.02547908605478,6.506844258442133,20.115837697654143
490,-0.679760407329824,0.06635166275123357,0.6826307974228305,7.5315653011934405,0.4345010310699937,16.4525928322065
500,-0.7017185141315084,-0.04502055289876858,0.6515602637040699,0.10716605170941226,-0.8632220251280828,11.409823936119068
510,-0.7473950720696542,-0.07849188918295194,0.6048980886759532,-12.515851362709498,0.42854473386544856,6.639729551305006
520,-0.7175248367012937,-0.0008860484465642382,0.6360919116633192,5.226831205801215,-4.060210696677457,5.078772650384898
530,-0.7249487222008449,-0.016616905869785776,0.619556269624599,25.892661039804736,-6.691610208033087,0.4716329014516578
540,-0.7855934365893947,-0.06943157646220455,0.5529817037448986,24.26499997027765,-7.387347549983651,-15.728096301624607
550,-0.7661933393601871,0.03312580127505143,0.5611185305270149,19.759532836165818,2.4928771857274636,-17.47793370785716
560,-0.7700050937867003,0.18977883134598864,0.6111536188953355,30.79880501383813,3.6304646697641587,-18.29660452219472
570,-0.7627253975501052,0.20287378528174296,0.6416470051913632,43.80486355477017,2.6924278689029424,-16.29230212954337
580,-0.7108523371837424,0.08928815547175538,0.6364160466335789,26.188063177909847,6.166403594598517,-10.68490022156429
590,-0.7534244025476746,0.14302758960695774,0.5432126681615014,37.366413069799144,19.672777311494208,-3.617983565183781
600,-0.7776886430023257,0.35392544361413697,0.29603102512283097,26.598958796105777,33.87410087213451,15.31639440707155
610,-0.6829999771976102,0.5336517458231725,0.4084532064876889,10.631109134319047,25.36591567529166,20.265161442472568
620,-0.7246687321146416,0.14302258664654827,0.5772140417058168,6.85093119410258,6.835748576389702,13.00636175456568
630,-0.7138310011614044,-0.10866843394813774,0.6632418629143706,-10.289936382341324,3.6151011289824018,13.88265677581764
640,-0.6889059582194416,-0.039078564623546155,0.6696039090920833,-7.586171178154624,0.6546542587137545,10.73669489211261
650,-0.7700262875361386,0.027962051622689093,0.5507132623466595,-7.427006926540778,-3.296731949221413,-1.4139420195647454
660,-0.7580426270506683,0.016767534016946434,0.6082568284731931,-6.549710496905302,-4.011064752908627,-9.742779153807346
670,-0.7395751855497535,0.027950424151755224,0.5815224844122223,-0.9534273721963863,-3.8365589540206204,-6.732166665626485
680,-0.7336168646881227,0.037134021161904264,0.6082697744862928,9.48854044817882,-5.986045193915814,-3.3488650043942845
690,-0.756277687207008,0.026560212254742366,0.5834126453281,17.32142462771706,-4.732524917487845,-1.7475360865345841
700,-0.7189089023154578,0.06500732350984548,0.6213821810439587,13.88485132364504,-3.0972135013667854,-0.9822594534432167
710,-0.7221509789123146,0.07484933635137467,0.6139410760155509,9.323777747657571,1.1709666071346192,1.833788034683329
720,-0.7309123604025515,0.06604214608436276,0.6047049361604014,5.041205591813889,-0.431527705289536,-1.8361971834164557
730,-0.7142018244461944,0.07578759890476462,0.6233563237039235,5.680084324343376,2.7592687415739343,-0.9255228636893476
740,-0.7338312157632231,0.07640173903578892,0.5950713549704744,-6.453242920146263,0.12675975971298703,-3.798182547247541
750,-0.7167389515000421,0.08265682694335014,0.6233517339951792,-8.34001233636469,1.8338934289954334,-1.368010622706347
760,-0.7662406245365825,0.024494936506493443,0.5801004850188133,-3.9778675658379727,-2.66728449757973,-3.752436483884066
770,-0.7692938612889089,0.029756168732092334,0.5772827455053554,3.917779486695394,-2.555000263431973,3.0223695836494486
780,-0.7351443668745495,0.056543716947156195,0.5866978645046809,-0.9633034576296209,1.083642449723374,5.282198400558019
790,-0.7574742102075845,0.04710323319288326,0.5867045697393161,1.0316887165347999,0.32042450679214934,5.664638327264134
800,-0.729414754883475,0.0792531490744027,0.6033770825579842,-6.01080453084514,-2.513765870872294,3.273048130469512
810,-0.7389165276502739,0.05183926876619898,0.5931107595826244,-1.976179962143504,-3.9769330509627254,-0.33463356295494906
820,-0.7656383562938233,0.03234720373517133,0.5787068020288505,6.904704512732162,-0.9775970913491132,-0.6959327272673881
830,-0.7313945795445723,0.0810292991579967,0.6078771938030592,1.8689662637696984,1.0783516704137672,-3.2103096777045232
840,-0.7339723205274293,0.07522492364969746,0.6024569981168367,-7.179682296998028,-1.4337339714578783,-7.91505916601525
850,-0.7298286818777865,0.06214444561641036,0.6049159645437381,-10.417982453395778,-1.807066202588434,-7.560291187158738
860,-0.7185997257824716,0.06419457547261583,0.6156429441088406,-6.586942364659713,2.4801412759570067,-1.461582912644841
870,-0.7337530141525249,0.04030050222306806,0.5974498046238156,-2.3977664135501744,-0.14919588857938448,-1.4067910917497
880,-0.7324821965332943,0.043035109366176494,0.6031542684797105,7.640127978131476,-0.3892374387188431,1.968137276868771
890,-0.7494298961103273,0.046825175750032214,0.5950675975283806,10.834390608368942,-4.248224221654134,2.508994074248776
900,-0.7322037494568928,0.06964691134360139,0.6102897250529236,13.301306808128981,-3.787602190357477,5.486995964474878
910,-0.716017333409456,0.08350629032698387,0.6223663059042321,11.108802353510317,-2.044063071756808,6.4134808745371
920,-0.7302203984643922,0.08421838779157881,0.6137985723349375,5.1074642455033805,-1.5402953839909586,3.9061189211612186
930,-0.7423194065311318,0.07808761627723777,0.6018831381597116,3.4082295618672735,1.1134394484514223,2.002549880384281
940,-0.7220051943071141,0.08514879962407546,0.6109982236713359,-2.1488774241325563,-2.118465310294508,-4.115143355287841
950,-0.7215017580081304,0.07179265778491986,0.613992898261021,0.37091782574514864,0.022296234073991394,-1.1734043883279948
960,-0.7562921354260835,0.03723981915041606,0.5828442712517166,3.1301971990647983,-0.39433183286318174,0.3737668410892341
970,-0.7424739809299272,0.0502761806021933,0.591528718680582,4.814216499219414,-1.9450728638129815,-0.025795606951262928
980,-0.7386645234224412,0.0591172973782674,0.5985248533315192,8.040917514745296,-0.4457759539644308,2.215266583433431
990,-0.7248481613594842,0.07549608722905592,0.6155262383812535,4.334954600839535,-2.610161923121754,-0.6479648277147007
1000,-0.741222584023798,0.06634540816218523,0.5996881620098707,2.5856748067714492,-0.8966028858523873,-0.7540087798690054
1010,-0.6951327952108155,0.10787624776503252,0.6430157742547012,-2.990992324296596,-0.5044046616715346,-1.6926403700063664
1020,-0.7384872750730963,0.04252268632176483,0.6038908000707799,-6.954183600216737,-2.7753396048961534,-4.062544064692602
1030,-0.7370755883567496,0.039514891958853694,0.59971350144256,-3.395831653704722,-1.6525639612862286,-0.4029416074169885
1040,-0.7211064287168432,0.056890096288565,0.6163548724467132,-0.42564318047836913,-4.544592224720769,-1.8754277981894234
1050,-0.732779963108237,0.05160707125711907,0.5881452565439266,1.4267651774590688,-3.6809707945267505,-0.7506622481017542
1060,-0.720682833352438,0.08512106454884379,0.6165047960107766,1.2709093799142643,-1.843442012815152,-0.6515359127249873
1070,-0.7203506327842558,0.07387437655456232,0.6174364501451295,-0.9972336805849941,-3.949786145044022,-3.8499297333446116
1080,-0.7107515516149056,0.062240626467038075,0.6239351046749108,0.9158767113555535,1.1023508167149887,0.7366252650857672
1090,-0.7273081042057524,0.050729977343697635,0.6174919515076942,0.5082057105393787,-3.6207698962691595,-2.7176253666615584
1100,-0.7126458830323313,0.06621942155757067,0.6237299731195219,3.2401949090941695,-0.5529864101258968,1.0526366830964966
1110,-0.7210418348138621,0.07130838841084551,0.6206005897435138,2.9972673927572857,0.9198308677442522,2.7305820431383876
1120,-0.7204530153094729,0.08025406670351695,0.6139830380148527,-0.7678295532642136,-1.5046285634511263,-1.761284752713099
1130,-0.7186255782419776,0.07880834874055002,0.6179382167432633,0.8088993367098983,0.9511450246474388,-0.0008564428136608182
1140,-0.702281299540899,0.09187210082832313,0.6366607932693924,0.7484129180684549,1.973336023424964,2.0043335383998437
1150,-0.7178504045084586,0.07507187924895803,0.6230105488042632,-3.0144396338614614,-3.207295227074402,-2.877669892195568
1160,-0.7273379602376471,0.06470105757533097,0.6156114873540283,0.26003318948919507,-0.030902509313669668,0.47878156302817254
1170,-0.7328369541541829,0.058717578128464634,0.6103352056535726,1.7074814392199882,0.628890265285193,0.32832691718375084
1180,-0.7158444960974366,0.07353021580318614,0.6267650271047069,1.5317023079442857,-0.9498628059395277,-1.6075029790380193
1190,-0.7355603186272618,0.05795545205305183,0.6012816333400063,3.163164722182967,1.4131513901016262,0.7269006906915123
1200,-0.7355870548065818,0.05522059001875361,0.5998203132385124,0.5879739434455142,-0.16828034050453078,0.7571563805112356
1210,-0.7111825263683188,0.07905800227683141,0.6273159442936743,0.9256214305920852,0.1648956753236394,1.9966756047423042
1220,-0.6986864862179772,0.0971330448564707,0.6403455842613306,0.3110677893482654,-1.089023958535213,-0.10053082168556049
1230,-0.7319530830479534,0.06902618485809606,0.6093455772208225,-1.9682265083151478,-1.2536439703721598,-1.6028140573685734
1240,-0.7244321949966986,0.07685772520744388,0.6181235906517216,-6.823151407461404,-3.7848529302604836,-5.1487401937882
1250,-0.7323846074244469,0.06444523346108602,0.6068813835534322,-2.291826313562613,0.6895094114088925,-0.9413850433867436
1260,-0.7393814950419613,0.05311058992734674,0.5961466069610022,-0.22846802370023422,0.4554673797696829,-0.4277884044411805
1270,-0.7226677825124541,0.06660149436714835,0.6119255312100844,-0.6571525439889135,-1.3764846758948066,-1.5145455613672036
1280,-0.7595149306484562,0.02635037836005942,0.5765480671796832,-1.8523417439729415,-2.2666972617629817,-2.3878357596021993
1290,-0.734855071510561,0.054252447265992224,0.6056833006897336,1.5658879639327086,-0.5538139148086195,-0.8806805825633676
1300,-0.7006287722907336,0.09756994108026776,0.63879002046789,-0.0679284650425569,-1.9286743288608794,-2.6468267066609057
1310,-0.7234711334250967,0.07404759087927827,0.6090308754478595,-1.6451762262174483,-1.489164753608474,-2.2745678427223552
1320,-0.7482784466755484,0.04659981085443937,0.5979537409054868,-0.8525110137396497,0.502674368826713,0.4766556809456108
1330,-0.7168981157295402,0.08487058834583504,0.6281676443350878,0.15483762124466227,1.8963621978844976,3.722792810950531
1340,-0.7296936612748518,0.06944110161093188,0.6190801181954136,-0.08634039628717494,1.0748991625902242,2.0074031556077623
1350,-0.7386364392480387,0.05958352982147517,0.5984456145708407,-1.779248823151561,1.6074324895773169,1.101528793783406
1360,-0.6928104240684355,0.10322284726731223,0.6412152001463324,-9.649743408941102,-3.452434543261211,-4.358841519918695
1370,-0.7046091854400761,0.07681159595783495,0.6231179021257648,-7.40480819131065,-3.035174021588086,-3.770913802177326
1380,-0.7465520235411705,0.036631457145415935,0.5990009564968347,2.3082117446791552,0.7956918370033581,0.2920141262162998
1390,-0.7321072751042524,0.06535617592375814,0.6058416863746966,2.9231298490107953,2.3585680327759473,4.000115503775199
1400,-0.7389029753924969,0.05356481715857972,0.5974360634329723,1.6050217480771252,1.0658454945801799,1.6774948865974788
1410,-0.7318286833686546,0.0572864302203633,0.6021868245167401,2.4527824858391716,2.662378270418432,2.446788175968576
1420,-0.7591592700165165,0.03497922200075117,0.5830118860108974,5.320813259565842,5.92009396160171,5.113612400305792
1430,-0.7224065844514981,0.07227190737018367,0.6141705118417755,2.964735017362702,3.0537556970393904,1.927978036754549
1440,-0.7001715713602655,0.0870355822831914,0.6372407936312339,1.6081842362519005,1.253582916734383,0.06558354889520701
1450,-0.70361760962132,0.08595521745280675,0.6319093798241553,4.510262415558209,2.4506061138543522,4.0204470220208375
1460,-0.7269761120152775,0.06396458837009443,0.6098308140171803,5.1865869344136195,2.119462328944917,4.756310475483671
1470,-0.6767743765057277,0.11344176904082018,0.6598134028800577,3.3222608258296056,1.0380357539816902,3.2574425923750936
1480,-0.7223679786936337,0.07448699581575143,0.6176711225362654,2.570183263655005,0.24934165536692984,2.153189210851807
1490,-0.7005338103554642,0.09358131134319322,0.6332106116382902,3.754619647365912,2.0498632046242795,2.540415606671136
1500,-0.7133943995814309,0.08240740792863116,0.6276205516629911,-0.8628113185478766,-1.4904451995794301,-1.8646926831024513
1510,-0.7448853124610545,0.0533114552860384,0.596447141090999,-0.47972087062839275,0.11823155336531083,0.6052498956138845
1520,-0.738420814164413,0.05638961063697451,0.6034860990176304,0.9348536828770334,1.4109053899186388,2.2906718390486205
1530,-0.7341478872926259,0.06024327260892892,0.6122402275894877,0.9686007055567135,0.28811925023864454,0.801589932121188
1540,-0.7383096578027778,0.05785962687876989,0.6046396717552902,2.3582403620088415,1.285451476826356,1.6559090989977046
1550,-0.7295741503654162,0.06803222546400979,0.6113699661218225,0.6859581051812148,-0.03310955020024198,0.3343416053091014
1560,-0.7230442937145813,0.07232371631897372,0.6171155794440982,-0.972486939769563,-0.6798139692555475,-0.4731560961271922
1570,-0.7616817816274939,0.031042945856202923,0.5767540431505743,-1.1744865616170639,1.2314954168775512,1.3009006317149918
1580,-0.7514219255417609,0.0402540202492396,0.5900622745585543,-2.7688566838510282,0.01578375977745039,0.6252219230305865
1590,-0.7531960045962528,0.03909943016965339,0.5871764949884571,-4.962424901043573,-2.626319974474256,-0.7971332071808326
1600,-0.7126296937078518,0.07420853363124023,0.6207412064274952,-1.0726785675697263,1.0417287256174315,3.681767366230673
1610,-0.7206972118765477,0.05806369758902873,0.608681364659666,1.2182791807683386,2.064134179148139,5.019365767121897
1620,-0.7419645689315071,0.041024126887151055,0.5929888010965463,2.1717246688931677,1.267552760253388,4.502959068136034
1630,-0.721102990785186,0.0715755347732316,0.6206087222527022,1.1605527789508236,-0.4633542386262419,1.6007225375773075
1640,-0.7221729088371,0.07040403767034616,0.6209676354108956,1.6827213016137623,-0.2806012321827814,-0.4765411131237477
1650,-0.720922349027745,0.06990245953801531,0.6227746873378179,4.7119651028984215,2.497984873133828,1.2813475598581567
1660,-0.7085921732743602,0.08155293716363374,0.6281533964792585,1.9682583769914392,1.2282082015864788,-0.14622328662519912
1670,-0.7045933304477133,0.07890123759398406,0.6307360363053138,-0.35418834315633135,-0.0009960831677468807,-0.5986151919037723
1680,-0.7009498219928132,0.08699823972450849,0.6350064137792341,2.1819135927303672,2.481652260872656,2.8038053181792435
1690,-0.7123303993676421,0.07504305740767023,0.6246912269094677,1.769844261171178,1.1330314207771628,1.6439442051838438
1700,-0.733309061876114,0.06436601575631391,0.6038056570681027,-2.06652703245934,-0.3455859230383378,-0.4826880200911991
1710,-0.715489956805808,0.07915909252333367,0.6262715035491224,0.6804589668517125,2.364072004700777,2.2028625806088407
1720,-0.7156412381156917,0.07755872087107535,0.6285260660605417,3.8778054466687073,3.4586749053332606,3.471845399755237
1730,-0.7274749430888686,0.060266356310216686,0.6130797122964894,1.0580059461529183,1.0270539201658362,1.4518317644775622
1740,-0.7297115316750746,0.06112974908488002,0.6017169226919792,0.4565083274519613,0.6577629145839686,1.221859443058053
1750,-0.7469864480027665,0.053608652691664094,0.595480239999089,-0.7316002225071545,0.3179467737258742,0.9554010708674034
1760,-0.7253526920703386,0.07226720734314948,0.6104307899974667,-2.3440872302634053,-2.8740650153661056,-2.976546625290945
1770,-0.7247581413835008,0.07505030362562368,0.611548372350652,0.036636979109232914,1.6820937369007094,1.6076187601379408
1780,-0.7461687729435212,0.05124581130167512,0.5948077320574935,-0.458893386375925,1.5572498948298685,0.8873236274322389
