time_ms,ax,ay,az,gx,gy,gz
0,-0.8246573814147227,0.0196574837418036,0.3688444747275264,-2.0003539685530636,1.6618689172698358,-2.3747044344304533
10,-0.8686717961350958,-0.02469291180213336,0.328596988106933,-0.3884542350006239,0.243677493775301,-0.27443458892832573
20,-0.819060226722525,0.027658185801192326,0.37533327395681776,-1.9313535457465125,-2.1225162831179913,-0.9294827704717052
30,-0.8577504773658324,-0.009853263311950081,0.33632111181801166,0.18822555099051985,1.8067231790039044,1.502179587928772
40,-0.8329838251097572,0.019294865242413656,0.3646481733492272,-0.3508940767013584,1.6392226908080343,-0.5280631130600193
50,-0.8037599558214178,0.04522290817233207,0.39046779266056403,-0.23628931681531706,2.304306053822497,-1.0588339719317337
60,-0.8302987135685379,0.01514304316244065,0.36328570859734505,3.070709793971474,4.46973036395507,3.027367623323731
70,-0.8294717073862301,0.016040384545902626,0.36744034218707,1.273702550214859,0.9362449339442995,1.8681911742334396
80,-0.8384295397538002,0.012778863169191104,0.35927039002555183,-1.16356238188521,2.0863939550308266,0.8931936644477891
90,-0.8629469740346475,-0.01802647577169182,0.33181146741873463,-4.261935251771732,-0.02978035647739441,-2.8477984176362443
100,-0.842452153863862,-0.0009420843672373236,0.3478879004889949,-5.410060320638079,-1.1624745614823158,-4.266325465087445
110,-0.8215522176532514,0.020630857062216394,0.37566404438972373,-1.0196134959308218,2.629059660243136,0.22040276175208207
120,-0.8632630333963079,-0.01926287321328148,0.3349717591013519,0.20551093994922742,0.1652236267574853,0.06070491881367743
130,-0.8375652882719168,0.005985485343945479,0.3600374358673297,-4.2908145967115585,0.6521837723491157,-0.8810749839263325
140,-0.8421553617951997,-0.0030989094410882405,0.35548824275045954,-5.24658856892095,-0.6697694977848747,-1.7781656277754154
150,-0.8689050538716376,-0.0235567398586308,0.3347843302232409,2.2803172826525313,-0.6735842373499044,1.7550245534605218
160,-0.8530396168085992,0.0033477899776081215,0.36886982806045737,2.895000750966424,-3.8677502011614036,3.507163224575707
170,-0.8799357634129465,-0.014429054764860897,0.3548917101495122,24.717779210208974,-8.458623910969116,14.721738772056195
180,-1.014281920092486,-0.1660736105336617,0.4803231939099659,21.147695329669695,-41.36572916128791,32.78488124797088
190,-0.829463577131586,-0.25487647898972665,0.43717924327006374,47.09049035473894,-51.92396507789858,26.479615914427725
200,-0.7606268701985142,-0.14279925033959123,0.3176110916201178,41.77445069389391,-49.42168668366701,5.3923590136386
210,-0.7614550263875054,0.17755637173923958,0.3013668261090615,15.770898098031154,-31.8018593218497,8.062952671602401
220,-0.7327162225090341,0.31583271310426153,0.3871361154682725,25.393616763965817,-14.88394351640169,42.83067391622772
230,-0.7675911008004968,0.12438452754363623,0.35980299832894724,23.114468965511538,2.8263976145470977,54.58267357798204
240,-0.6770578765609047,0.19780691088436345,0.33814598446803834,-1.6177963431777087,10.415409139927984,32.341747930141004
250,-0.7753272213814532,0.09352129663355391,0.4103544414914204,-1.5752772088938705,24.78252106449518,25.23543871843842
260,-0.9518695980308733,-0.09584305971359185,0.4305453383870579,-13.239768935275318,13.586087030376445,-13.755950421828151
270,-0.9078719036014892,-0.16451153993479198,0.40881453397813633,-26.67498019161772,6.541365779007233,-63.51506460145921
280,-0.800923547887797,-0.03079220293203828,0.3945645369903339,-3.680365133905921,4.461269609470463,-47.578775160281
290,-0.8171907098159656,0.2175948189806179,0.4119927482368004,3.2986426795937156,-16.65942909415944,-23.359598810655136
300,-0.7380941116549927,0.2952522592144239,0.30394862029686787,11.184096254580423,-19.07561031970682,16.353890826190877
310,-0.6236500090842795,0.34268898169244116,0.3407039118827867,4.0830201092445435,-5.045647138821717,28.28976870929131
320,-0.7700622318911526,0.333101234129676,0.42494948314159764,-9.564534799507928,7.188593244957103,21.436767555196994
330,-0.808971605692929,0.2382607740664618,0.4377798432714753,-39.884192077773,2.680826145588854,-0.4845644292741589
340,-0.7030676040813986,0.14541749092462725,0.42316488704131866,-54.704088666550675,9.429792708381388,-15.164404078918473
350,-0.6616770456361944,0.1670441735723525,0.4228443559374154,-69.94259574394458,11.402498253208359,-18.863556935210276
360,-0.6033978528891528,0.08441110755564474,0.36804125766259244,-99.00860070780901,11.251131507678947,-26.055390244651917
370,-0.750669908930779,-0.17527211710045515,0.37795903662950836,-112.53592101548783,17.3688609201466,-36.418814332280206
380,-0.8575029234142891,-0.32095650708759427,0.2896576241404541,-34.37529430716682,-3.5441769480240315,-32.722535163414776
390,-0.8678710534631596,-0.12400894385128473,0.37394744433851607,91.23154734689523,-30.07981782100942,-5.373382102082843
400,-0.7969267461798829,-0.1363417541332043,0.35627647020014364,32.174212230864,-29.372379825094818,-29.957671792963016
410,-0.964725497827758,-0.05208435528214634,0.3924015226839524,19.71194744626238,-20.797131058210326,-13.53151474728701
420,-0.8047777875648578,-0.014007486480645554,0.24408310418014142,21.124438330961045,-8.012721751881134,-21.123414714243278
430,-0.7651240102730628,-0.39791979775839914,0.3446222205138289,-5.654461355938115,-3.0761832873053425,-44.10869105300546
440,-0.9180732493420863,0.1195589684777806,0.30343129998766993,17.037320001238907,22.969590990916068,-10.139051511943451
450,-0.8139509852620349,0.019945794386791463,0.4119448490366355,25.66576006968458,48.77858613504262,9.73015447599853
460,-0.7726710824825588,0.08692481353228282,0.6016953125948618,38.16834843215257,40.88505983438629,16.60368701571993
470,-0.80396307871658,0.17845134583922587,0.0720125189342429,16.456831641172883,36.84212480902045,30.089213012995444
480,-0.757240759852148,-0.07745304178122656,0.6896937975114679,0.43241459678522476,17.948503718513805,18.94718814413767
490,-0.8387830008367392,0.16837305434337912,0.35596750524564374,-48.879196786319014,5.434013011827166,25.662838722514415
500,-0.8207909237102576,-0.2683067143338403,0.392150069796204,-36.85527280884035,-4.746356161068045,8.243885175194052
510,-0.7943296522542902,-0.2128511084207665,0.42129787129751795,-14.736438030148085,-8.62710043302425,5.710793592236325
520,-0.8031661417407394,-0.09022189379732307,0.3709316324045886,1.2071794272817227,-8.561492270770911,1.9226490996140042
530,-0.8631056286040989,-0.07602768680746187,0.3359761239635116,24.412968639075547,-5.070504115280288,8.584486212570068
540,-0.9351342361410447,0.08913911443122026,0.38345792113933597,48.85048107071972,4.557527029561564,-8.238434717708685
550,-0.9075840204288941,-0.2124232087481145,0.3527145837640037,16.06828413031321,11.268248411127658,-23.82989900650849
560,-0.9863629763213101,-0.03204873013965225,0.22994923734553974,37.2734440854783,20.4891890402749,-22.821032386559022
570,-0.966832786319066,0.07741225184870865,0.2936973250389043,39.88412671502818,30.985018573475365,-10.233080560278593
580,-0.9643932663704525,0.05866753229028943,0.3849897654480397,33.611804207498764,45.720778860590606,-7.768891129677605
590,-0.816863748037928,0.04533698516880239,0.5229846112518077,-14.737683064520823,30.494649210198173,17.0989287356797
600,-0.7170701089124929,0.36855327304649266,0.4189299708942893,-50.42739634132162,35.70776943600297,28.84285586553043
610,-0.7688698782462546,0.16669204583006045,0.8333368269070645,-60.44963645408786,11.427573702847175,23.334511452899616
620,-0.7961836215177499,-0.05295593361485029,0.6336319145033494,0.14193878425143505,-5.949523080721928,20.313054092496106
630,-0.8515889678140693,0.06931058992151798,0.7038607354582989,18.780215362668443,-13.575870063069136,21.8473506454133
640,-0.8700628856868018,-0.21002155840534178,0.2917121999235562,-3.383518954077854,-2.394683062537894,-5.333533915011314
650,-0.8379013350788461,-0.021573565896252776,0.3388586269648142,8.168673008016434,2.517882160809822,-1.1493013870689448
660,-0.8268760185607844,-0.005571394967168568,0.3482774110390102,17.258541386054592,2.6222681965715036,14.29684726822154
670,-0.8585740324542307,0.02143538423715693,0.3277857476011412,13.687812662368012,2.2373663245065516,14.44027074508646
680,-0.8448527422576438,0.042153359015074665,0.34517774207620816,2.495241194115478,1.8980573148041597,6.762689529412349
690,-0.8621815657165938,0.0234147278576549,0.32351155938297255,11.57090984152548,7.580194831269853,5.071440733821159
700,-0.8533016880176275,0.03536823049379959,0.3315024005075239,3.0741223290527055,5.3517332578442876,-3.0295292349944303
710,-0.8710095737609482,0.026160931462234437,0.31099960513353025,-4.796699905478363,10.505727189893815,-2.8563814345779237
720,-0.8681198609398625,0.021156096442148366,0.31158981326606655,-11.068690450438568,10.398548228964195,-4.24093347056368
730,-0.8846744378290884,-0.012077731947197995,0.292124050530631,-8.379750341645599,8.843945147304895,-1.6378475569828368
740,-0.8455317465953324,0.03751866069756977,0.32744842307361016,-12.252298660596235,3.902564702917095,0.31915458378474804
750,-0.8648070884333617,0.01700935961354837,0.30998497724245605,-11.080475874343863,2.2730214621409894,2.8433064436915716
760,-0.867347494084893,0.012789416399501239,0.3118715004121175,-6.937525615649083,-0.9855989564345515,1.7560176987274532
770,-0.8681630801195483,0.024042804317552728,0.2988883406934993,10.16548479069748,1.8132532103384529,8.41334792409002
780,-0.832179362241876,0.04415343586003716,0.3370300104724112,-0.7165723798949537,0.6263333574741976,7.136278168172048
790,-0.858684729153189,0.022897704304948936,0.31565879195577307,3.931387105900016,-2.8172531444633884,7.882965106971333
800,-0.853061747767237,0.048299236366167855,0.3163460661416786,-2.949089262705157,-2.6911423638795435,-4.640025174067781
810,-0.8711229109069468,0.015256276499004788,0.30157546948180813,-5.897926147738939,-2.7486076493815164,-7.88183486721676
820,-0.8560312225918367,0.011855376230706894,0.3175816182456743,1.2132080376096666,-2.590216401625977,-2.6528417203269377
830,-0.874318628346314,-0.005817451506768512,0.2961379769821345,10.387229849003685,-4.636173439073736,2.577758229249366
840,-0.8646049900288609,0.019091116100582655,0.3101121145361592,5.18482464137927,-7.048858278166435,0.7363402414040636
850,-0.84258774340251,0.04735608009629696,0.3422269289451403,0.22847173597589054,-3.647822491097133,-2.518301676861901
860,-0.8596431197309482,0.026976627438940158,0.3204026810459244,2.767801024741637,-0.5515784212816313,-0.7866640522494361
870,-0.8487110548897963,0.028290940954908025,0.32594881300856604,5.386590975371616,-1.720135334980401,0.7451238809653026
880,-0.8459050208025375,0.03534883360423326,0.32785279051792526,6.239149665082952,-5.59655165655636,0.0896785968271343
890,-0.8391971560191496,0.049899670651707334,0.34089120234518,10.849858048937913,-2.2464429017892487,2.294760789671174
900,-0.8427083658258453,0.043726295858994756,0.3306477795387078,-3.369123961213015,-2.305632922553908,-1.2193140136390876
910,-0.8785684880068504,0.009244703801842984,0.2943170879152293,-1.9424698709400392,-3.7568920248224438,0.057526114890688373
920,-0.85654540189088,0.027011368926991918,0.3190149532876261,-3.5856273628668927,-5.160142009763423,-0.5433998774927611
930,-0.854484207728436,0.03138224861222707,0.32964236517100337,-2.0130113162070504,-3.668755187327282,-0.41991470205958037
940,-0.8429292659597851,0.05071064750862173,0.3464758449995671,-2.83755493392302,-2.787069724436753,-2.504324211686569
950,-0.878199451826678,-0.0014199629864623288,0.3071105994097394,-9.883496682358146,-3.133074479502455,-4.369895024239416
960,-0.842686690542573,0.03942609653078123,0.3389203640708356,-4.666145522858119,-1.5141546305936504,-1.8445313891798143
970,-0.8557138408705073,0.02255396576692383,0.331994543890515,-2.8808428083133943,-0.3957037384176776,-1.0438181000268048
980,-0.8567485541236609,0.018427932948637815,0.331608007409891,-6.309962203493148,-3.759585828834477,-4.045968686050151
990,-0.8572508179642248,0.016775745389364445,0.32423501063354676,-0.24627940095262335,-0.6643437742650258,0.44651291184761566
1000,-0.8619002884765525,0.028325086098022603,0.3204591201635621,1.3908673995973277,1.272066883956722,0.8004198108197851
1010,-0.8240709072163753,0.056502836609408726,0.36201959057354893,-4.690139108903952,0.2973058085734296,-2.3872868820285724
1020,-0.8790015966505921,-0.008865708107213655,0.3019230164947279,-5.2708358678211695,-2.734159336439502,-3.6259148540625246
1030,-0.8225326674908847,0.05098008948925442,0.36322263156180756,1.732720281617254,-1.3550199972089727,1.139086239792292
1040,-0.8506967648361752,0.024117539253596117,0.32996038126575017,1.0933423471457024,-3.8712625475780458,0.3433755794460669
1050,-0.8447171630951469,0.033806554023363695,0.3329365607561335,2.9663123605867,-2.2674790752094243,0.4499698311951139
1060,-0.8193640056779897,0.052758975302921854,0.3621041024931063,6.144818890217602,0.9252415819903184,4.5067571066658365
1070,-0.8468451700945989,0.02479941570398884,0.34262283243325997,4.526586820333774,-1.5304738883898592,4.696260281366209
1080,-0.8342191590652576,0.05614611005255759,0.3521764249995091,3.7598535383348506,-1.6088172236144411,2.768413037015513
1090,-0.8593752234688804,0.028490296768717796,0.3276422164096738,-3.4159219922492965,-4.469337809486159,-4.255096765552553
1100,-0.8640891931236101,0.009380425473661592,0.3252018898794532,-0.5145384837458293,-0.8448265895813574,-0.6073544101151831
1110,-0.8615900515431845,0.017226258694540194,0.3288402537144044,-0.024595796367821755,-0.36109005660099525,2.762480809555698
1120,-0.8064471900361138,0.07546271940925187,0.37505925212078794,-0.22390264156339634,-1.710009545335192,2.0130340884384723
1130,-0.8456489625688712,0.04276477151515891,0.34637413550498547,-3.8219593557962144,-1.0972287312409905,-0.2748394401823119
1140,-0.8521212889666994,0.0315681657205283,0.33573245613842606,-5.6335705795681275,-1.98353703255713,-3.3877404702886182
1150,-0.8434419549211755,0.034587918247164,0.3483272845309123,0.07245725661887847,-1.5867453154770375,-1.5249054977028003
1160,-0.8543725276221485,0.03063798592133816,0.3400468370210175,3.092062421594681,-0.9506056083100753,-0.4614454778950866
1170,-0.8509740048724572,0.027901584292004778,0.3361311044192963,0.02255274397348446,0.09245550959055845,-0.6945098357752469
1180,-0.8274455233790143,0.050997539210693194,0.3685820462800071,-4.589263210008766,-2.163505432936896,-2.937799955192401
1190,-0.8370904204983606,0.04213429754606621,0.35647584394219844,-1.7309056059343924,0.329237628932586,0.4502019441890994
1200,-0.8665363101521528,0.007765946557421886,0.32283115432250387,2.0965481159425634,-0.7910005030959837,2.2324474777660757
1210,-0.8549564276642531,0.024521998455209304,0.33765557810970404,1.2385677816703526,-2.5044661701356494,2.6909271043521428
1220,-0.8546956410910311,0.020685364872631493,0.33146982886273113,2.936416025150922,0.26385356141846256,4.798250739510413
1230,-0.8563290343812028,0.02264927751829083,0.3284519139306703,-0.3521508050318628,-1.4348104530173338,1.8973778767271696
1240,-0.861835518547519,0.023316067822436254,0.337196341445269,0.8108331262716525,0.9070037944888825,2.7980815685758413
1250,-0.8272997537456603,0.04789195035428278,0.3581307072692841,-2.087548931927303,-0.9331910852888927,0.4381543412048238
1260,-0.860669953651463,0.017221890481006672,0.32648205753046994,0.30718670563325573,0.25197491363593477,-0.03992776449002855
1270,-0.8067278449908891,0.06601145228273539,0.38069623486209947,1.1869723406026456,1.1663544050904164,1.3345771034551697
1280,-0.8562624603071012,0.0243206240576732,0.33702283069932987,-0.1562623227719262,-1.6915205996017777,-0.4607477175075637
1290,-0.8393414908070846,0.04280350668228056,0.3548536173751795,-0.5338333489574522,-1.2865376861403872,-0.383769154716156
1300,-0.8517453991989352,0.029039257356043822,0.3391705402502147,-3.943594859502068,-1.9449777484980835,-2.8513935898030427
1310,-0.8244940092603971,0.05705530452352317,0.36376724654605685,-0.142100316366077,-1.9092127707596513,0.4590393559846495
1320,-0.849527708312385,0.0290367613904694,0.33501144185899095,1.879845678350544,2.3543459420385653,3.918227515580703
1330,-0.8336466748651409,0.0485954671715501,0.3523884089502556,-2.9473065163360115,0.12171591132005558,0.21506073951343838
1340,-0.8325711135145668,0.04515022179978467,0.35912172699564004,0.9969140516670616,3.8936893671965693,2.6894164250712116
1350,-0.8622931496198102,0.013876337470665363,0.32696803485250836,-3.3125642337986285,-1.8422872621536703,-2.4538201492996787
1360,-0.8420408404175621,0.04868038411390415,0.3464274541676637,0.8113132650761656,-0.3294325826169865,2.099845818946675
1370,-0.8280335457508878,0.04921918741244338,0.3582758762653131,-4.965879127533847,-2.68236985237913,-2.5707940396034292
1380,-0.8513402343070726,0.0279746433545986,0.3437003197454719,-1.3696165839660837,2.5861603766549286,1.486681776370975
1390,-0.8230610000991444,0.055239683945372785,0.3656754512131186,1.626063155890415,2.986387447198568,2.767395825157744
1400,-0.8319336305503818,0.04858070748319245,0.3566362525012108,-0.43305686722323067,-1.744809870354994,-0.4223021567685066
1410,-0.8326624690232227,0.051648045620692244,0.35878015693594445,-1.6538467005832185,0.18255876528201892,-1.51961038391026
1420,-0.8660615473624838,0.009781441448965346,0.3278310188699129,-1.694140385529693,0.8462810320167109,-1.1340758132266902
1430,-0.8310653452808169,0.038127348513871326,0.3592663140623498,0.24328446138020948,0.17631697755239856,1.1759335862511722
1440,-0.8602381191042363,0.019139378375735636,0.33008366361381186,5.935976260161164,1.4268869192246123,5.217805011675953
1450,-0.8340739561375017,0.05904909850339237,0.3612225070913608,3.1964627758472672,-0.04707030682239455,1.6643669694508227
1460,-0.8383618414608252,0.0438893360208918,0.3499687770965441,-2.35379925223502,-1.4124834300051288,-2.3928828237230926
1470,-0.8484094942316125,0.0262534884948281,0.34280337932871346,-2.563682260757835,-1.2581127777824395,-1.4192335410670274
1480,-0.8674897013254471,0.011059679612697902,0.3243605136254676,2.3235856501612773,1.0997435141880518,2.0463401526537566
1490,-0.8278867886380975,0.05187870562025307,0.357778518295393,0.3569751455973529,-1.4318375940306063,-0.06846536312469897
1500,-0.8341209311295397,0.050604528501600896,0.3613706540295272,1.4234616606022494,1.5013466732806195,2.439067894567771
1510,-0.8302564361262917,0.058013314204959796,0.3666508913355265,0.399534314853508,1.4907486112989763,1.263606860866572
1520,-0.8118998494887799,0.06731506503943271,0.3796108321616899,0.2513970867195445,-0.5311192389025605,-0.8941036871757257
1530,-0.845793521675373,0.03342870264598892,0.34245141259416073,2.6768715887255423,-0.18818236270856437,1.2431094177118482
1540,-0.8251080035713707,0.048612757436211365,0.36407659194169584,1.8288565238408516,0.9018541916748144,2.4501308525143246
1550,-0.8447480073647198,0.03805465239238795,0.3444365824263012,1.9612669960402696,2.7370902207658947,3.5644918984940857
1560,-0.8436472248904492,0.04081561964364124,0.3487610649521232,-2.2757867278045394,-0.2500111487494774,-0.7660216690176864
1570,-0.8261746484051412,0.055519458505696874,0.3663106171361114,-3.0472807558965895,-0.9457488360279944,-2.0537326852459685
1580,-0.8306156679284551,0.04372148620436134,0.3591092485696105,-2.855359575772826,-0.7000561103414877,-1.1326938108751428
1590,-0.8762052075357452,-0.00036692872737208865,0.3115578316350117,0.8573413303114445,0.1132484790195959,2.0278710430489486
1600,-0.8385380162413115,0.04753080739877986,0.34605468616752233,-2.2386192170605312,-0.6869461381616534,-0.11804190862273445
1610,-0.855485081992508,0.027645520986501113,0.33532539552634544,0.16701326138396566,0.7692303731177254,0.08608442885779466
1620,-0.8294406545759626,0.046646022215857716,0.3621402510735074,-0.6238783064890242,-1.4305570662932026,-2.154808116228915
1630,-0.859751432283406,0.019219287187062714,0.32796363062628237,-1.3634774295527492,-0.8247928461804411,-1.3621969535313807
1640,-0.8348610568874607,0.04802927663756524,0.3528968279434602,0.9230941253871598,3.290969516861952,2.367874973478514
1650,-0.8418061276518914,0.03747544037122671,0.33953970122938004,-0.7828115091705432,1.2168311331266612,0.6158261422145787
1660,-0.8455006378502045,0.02782290257048765,0.3399812447222983,1.2637068230827067,2.2756316717156793,1.9688801173470214
1670,-0.8717005439047655,0.002794151919417065,0.3182766619607632,0.6305636254469361,-0.3552045408172444,1.5539237080042572
1680,-0.8665654859223993,0.008003941007305372,0.32573369313629214,2.8503149953459355,0.22799439402978117,2.896778260611839
1690,-0.8589078824023421,0.02494274810019136,0.3296940304080354,2.6331599864689883,1.6157521920384608,2.443022370708408
1700,-0.8674218971336499,0.015187226487346397,0.3220555690961923,-2.857992309076044,-1.4774171015617084,-2.6412380720388122
1710,-0.8314410469470809,0.054069767928292614,0.35811181321350316,-0.6832758967316963,1.0076725292271602,0.19080312870761862
1720,-0.8293589028400181,0.03904237370216348,0.3576194833417174,4.286485110006995,2.127258838747641,4.998098367797347
1730,-0.8233153551847842,0.0638142882773031,0.36605471148705576,1.3571169322781378,-0.9829070025394142,0.952151932004278
1740,-0.8401299344861728,0.04815822702159446,0.35372788673306244,3.9051944916095023,2.778174400748776,3.374330829219229
1750,-0.8597114294029012,0.027429465203456377,0.33040399648924024,-0.6802272233321599,1.248608755053962,-0.6287551100157766
1760,-0.8380843536792746,0.0442194696981663,0.34901052876273875,-3.9148356359947183,-0.2875818103519773,-2.7601357407805476
1770,-0.8453137107176196,0.03045996580546462,0.3462159613394803,2.8107315660992804,0.17592801895240304,1.8423699034392023
1780,-0.8379740920576224,0.04899547753653659,0.34967956930825556,3.241278221747624,0.5124417085512663,2.2553468752498036
