time_ms,ax,ay,az,gx,gy,gz
0,-0.6819993103397822,0.1272930380348707,0.32472844072118234,0.49440634202659256,-0.6198632997375408,-0.4541492023362294
10,-0.6878701805472248,0.12734234351975884,0.32581899374887974,-0.9043792634112049,0.34810639251524045,0.8232589409902321
20,-0.7023126603814355,0.11178198650583157,0.30801290081753185,-1.468289342738569,-0.061628801997240745,0.16514178418497213
30,-0.7120527472836422,0.10081436692684362,0.30239356262562417,-1.8844581187781633,-1.4463256436002623,-1.330189574781312
40,-0.7063874849493877,0.10117068727042311,0.30530447922920867,-2.0890856235774957,-1.628615883649668,-1.7636483205111932
50,-0.6550986882409098,0.1495837892878169,0.3610061848271791,0.1707649230655044,1.782958910124623,0.7905819421487061
60,-0.6984521806393963,0.10970883792411842,0.3151419181301891,1.071821249151511,2.125572537503174,1.7146829490493802
70,-0.690210005779384,0.1184257636620344,0.31956152121817666,-0.7710500899262898,-0.8932672079817525,-0.3159810105900806
80,-0.70242907538746,0.10366863238046574,0.31492010044629865,3.595378122704774,2.874065809037139,4.028939326829656
90,-0.6989213900353904,0.10553601570037147,0.3163870200925151,0.4123703720171772,-1.2409030739971034,0.2648548947566116
100,-0.7068051867512185,0.11157865000394548,0.3224517583461258,2.04471861754687,0.416552050446804,3.0655671484616325
110,-0.6931899425949128,0.12815982010736493,0.346651775395469,6.349218547524323,1.9001741219112371,7.951969779806274
120,-0.7592729363428796,0.0953046160162307,0.38553779666094856,17.285318122940314,-24.475798008400968,-5.619117542146366
130,-0.7130127291748842,0.11544415870530027,0.41476756434518763,21.44124325146353,-31.416964431312227,-1.6285745579084843
140,-0.6367254741751683,0.09648242869946562,0.46447658211689946,13.642346683810018,-45.377391683134526,-9.394909727817453
150,-0.6068111531981477,0.1468701234377107,0.3302565752082776,20.62942866292478,-41.86984057815656,-3.1414634348604986
160,-0.5485264765279816,0.15846516162250573,0.3110014568765537,13.664314576131751,-35.509029662488445,-2.237539154039017
170,-0.5625232315000289,0.20569906889207648,0.31569910607416407,-14.0249032110606,-25.286600581567853,-7.293918610661405
180,-0.6613915841680438,0.20094684573815746,0.33715176549013925,-35.80566012511867,-12.397314104425705,-8.937360126440684
190,-0.6812847922284718,0.15185973562317065,0.3388917993523763,-33.71005833101791,-8.052268504551488,-6.318317178683314
200,-0.6884938141001797,0.09604379893406585,0.3013771849669752,-49.60204927466293,-8.161419544768146,-14.461764435742362
210,-0.6329289598663549,0.16195677550695978,0.322781811748951,-58.57848927786717,-3.9417658806254794,-16.198179011127728
220,-0.7606078211777488,0.10930606159894729,0.43556283453807093,-67.71319282491531,-9.565548649720636,-14.740923719369828
230,-0.6417238138745004,-0.010467540381175647,0.4137686514643539,-16.4873309915291,-25.519033633237324,-13.398399084713377
240,-0.7294932177093653,-0.053735509579791445,0.4548407447775799,-3.017914860092697,-25.702497982253266,-14.865827661842175
250,-0.6989108720317935,0.007030283129847034,0.36627974561979915,4.080800737742824,-17.984743334290243,-11.685810722858532
260,-0.5666834274642506,-0.18668045739141537,0.39727696231638887,-4.403934027983294,-19.69008844563342,-26.78094280574809
270,-0.68351593946547,-0.20561089212715006,0.6223976967441248,12.874249495114665,-10.185441915555309,-20.006076906598036
280,-0.7040465619306131,-0.09782281700071849,0.4933915508345635,1.8365265538591222,-1.5878570226466195,-23.809911987724554
290,-0.6813798240328792,0.2868297975547494,0.3123417746008391,4.965970416477148,13.773151872410914,-17.18647182878015
300,-0.6451818114609827,0.16783339609258216,0.3816833803075086,3.0541804903195287,20.134108439777343,-20.580305182265292
310,-0.5943284122790122,0.15624604399120634,0.5762143423465674,7.067664807494922,21.538803430496408,-16.495533358953587
320,-0.659852622689373,0.18157498745842982,0.4132935329871121,19.143912167493795,18.349423987403753,-7.880149631627475
330,-0.5638404086892166,0.20519722163994253,0.714398711191882,11.856259178241853,24.79843466348629,13.403020279916802
340,-0.6230534915050406,-0.01530617035431721,0.6100058451345587,-6.4568460615461465,13.23025625374431,23.71324138241009
350,-0.6982354922988592,-0.11853240531850115,0.4677602827496566,-19.666968577359572,8.401146296164928,27.511341803860383
360,-0.5502368667624844,0.05447102493177402,0.5507340452757684,-18.63593914895248,-4.705200481244585,30.696658792065925
370,-0.6556606313390548,-0.07094863568279719,0.42958975690476536,20.45864674091618,2.1778028119286805,33.59761709226578
380,-0.7158322402821043,-0.026400175948470803,0.2781076001172597,14.204597545085882,-6.8437001700186775,15.665461154235068
390,-0.6461264137317652,-0.019089692499435023,0.45420981659807125,15.413039414476119,-7.593995993058389,7.989383052747232
400,-0.6438108408772039,-0.14844090485813843,0.433315967518542,-1.102311489179984,-9.86620021156736,-26.66110823657452
410,-0.6869279865998686,0.07775842828851354,0.2442771666619016,25.83259926706691,-1.4233104748917185,-26.31873386165524
420,-0.7348052288150393,-0.06761266144692796,0.4224054156786472,29.377666179408312,-0.8710137037333711,-37.03050295110125
430,-0.7796657622586098,0.06946767948952869,0.39384329859293066,-5.447572219954647,9.15623671580007,-42.992963201648045
440,-0.7194238274499566,0.17559473858753974,0.509275032875369,4.730248460718602,17.55222960223519,-36.527930658008096
450,-0.6692202968133881,0.15448835288109034,0.3757963528155303,-3.800321895648938,35.38651823324658,-24.43534147998351
460,-0.6091261592879215,0.3733651940988519,0.2659682516119411,11.278601046766534,57.64675951277334,15.3977142437964
470,-0.5918101032839065,0.24759828375879514,0.23645784898161706,0.32472889729878296,41.38493318223357,28.76233018971235
480,-0.7036489445368153,0.14165985724710098,0.6648900848076638,-44.38275612601078,22.869766479760713,29.16291680414045
490,-0.6199502568926757,0.03058980719812842,0.5616398594855491,-17.98803661765574,5.328224741921613,42.597197356953934
500,-0.7141077712726643,0.09760689434755176,0.27223352893178693,-27.644660395035917,13.510278319753933,49.47964079170285
510,-0.7631374115692363,-0.24764300448472815,0.3574390945772135,-6.129012183620859,-12.902657355766792,-12.618613289183603
520,-0.7478940967241672,-0.0021977706544343348,0.30736391302714866,-14.62541788799241,-7.602076296983686,-17.530343156666476
530,-0.7135146620574077,0.03728092682131314,0.2298135724173267,-12.671567170787078,-4.3637181400830185,-21.092394531831964
540,-0.701737871855374,0.05513096671159787,0.30227877239359685,-6.18390406261628,-4.926224416764286,-16.873751264279928
550,-0.695102933168855,0.06872961079631322,0.3158740162826592,-3.483156682725978,-4.725676790684785,-8.110292057791867
560,-0.6944539541896727,0.10152364122810528,0.32896664631141964,3.0385827924740827,0.9730819676385041,1.9123272523075066
570,-0.6720032979932766,0.13708484830834367,0.3531942821204639,0.898722675065018,2.0402792464018087,1.0082208275011202
580,-0.6982417779791614,0.09539872953336302,0.3194141565723335,-0.7746452142533143,2.411509235040354,-2.397924090969657
590,-0.6940907616407154,0.09227884060169023,0.32057934365067675,-4.191258092472095,1.2909131539344192,-5.63806495042796
600,-0.677954811199548,0.09545836470853068,0.3307872462639533,-4.581300083612002,2.1970557657150858,-3.1084490598599204
610,-0.6980894442547039,0.09579957979026796,0.3106821828564347,-5.294895819063341,1.8978359613734033,-2.2474841789843545
620,-0.7093820500289308,0.07410876913484696,0.31590915430579747,1.010080224709779,4.14210585543798,4.5670252705011345
630,-0.7167522582483646,0.07287543832090565,0.3092280733579549,5.09035817190537,6.45244864777747,8.502424143761502
640,-0.6822084184901218,0.09256575778602265,0.33025622643034935,4.171078530236342,3.2972846579866917,7.590718380167473
650,-0.6616493878810895,0.13007152530226604,0.34781607941814247,10.080251885736464,4.4571069526080835,9.414654583852966
660,-0.7007927091381247,0.112666999066734,0.31531477553441334,5.169182318395009,1.6634413583360859,4.826403283146817
670,-0.6964580669081498,0.10432084233735749,0.3113764856076858,1.2915682851420929,0.46483329022147224,3.801723713826487
680,-0.7046086066553454,0.10173755864481217,0.3108000437368462,0.4942091807713349,-0.6021944617128998,1.6371664185375243
690,-0.7060946272648767,0.09470840532833623,0.30109831639572204,-0.7182023911885758,-0.8991500004912358,-0.4721433507511499
700,-0.6892351035438582,0.11937687976637856,0.3216804417481591,-6.028187310791369,-1.1521363855746976,-2.640915612662161
710,-0.6672636861335983,0.12902411067480718,0.3497618502053178,-8.055100832007085,-1.4755432326474716,-3.2536135944077875
720,-0.6908872942640941,0.10076157177890116,0.32657550543198044,-6.866358264079776,-2.8218111200932228,-2.587051323523613
730,-0.6900443082463718,0.09853937546700299,0.31720781837654083,11.445566475964357,-3.9637765234241176,8.177071795815872
740,-0.6876021702431097,0.11638805060392429,0.3289491146947652,12.495323525395621,-4.429809527599779,7.319049417610889
750,-0.692066976601039,0.119788663587225,0.3246387488958721,9.583988403997154,-3.678907416292338,4.5128927301717745
760,-0.6955341912325651,0.11558377030223727,0.32047155831870966,5.426132699773786,-2.3616165402813776,0.647616178623132
770,-0.7019047545973913,0.10035633246035125,0.3160133072913819,-0.2908549583084805,-2.838245124207444,-4.588563661895968
780,-0.6929651855730741,0.09983049927897188,0.3253100352554327,-2.746564088284635,-3.7913502356562807,-4.4127974681749755
790,-0.6998930218756522,0.08680179194386212,0.31437829398940853,6.539865501267776,-0.9899818597750487,3.4340766972713443
800,-0.6971581382804122,0.11063263073782849,0.3196189661054513,2.9234291072769114,-4.941777863190014,-0.01543921455337971
810,-0.6673063241619842,0.14869984920723742,0.3607108528713631,-3.2184826622765232,-4.451218969258038,-2.385487359762834
820,-0.6782789298643193,0.10689027488307208,0.34105277712816,-6.02333826745676,-5.617392160879691,-4.971127679523115
830,-0.6887380213432321,0.08923895091425331,0.3285162281105405,3.1018749937368923,-0.6424647877679281,0.5057125833188891
840,-0.6828580656653388,0.11179436472978446,0.3383030457158609,2.098960821747469,-0.24076163164752518,0.5756251876375968
850,-0.6883586845045907,0.1258123498452897,0.32851180127354046,-7.116796854076073,-3.2845999029366397,-4.9564650043060885
860,-0.680903883160834,0.10214725734716326,0.33248421249843924,-14.141698473972879,-1.6245789628707232,-5.56485148787387
870,-0.682250466364841,0.08783801894047508,0.33811616310464265,-10.253542554623117,-2.941412317490764,-4.149270048650954
880,-0.6722797654441454,0.1008802913690165,0.3451271492172552,2.4254486872628003,0.7152655331172473,4.327322266079216
890,-0.6849941323045203,0.1028897297662859,0.33290733252730814,0.7880644964358321,-2.482184522840493,0.5136275916188289
900,-0.676182493524139,0.1160712982149261,0.34778384757823855,-3.3048852234765276,1.2458301566281695,-0.7298042662786901
910,-0.6756456568375073,0.10688525788456257,0.3422079121756185,-8.711648537226024,-1.3317051581009278,-2.4573837794455944
920,-0.6708873462162159,0.10183777520783856,0.34629311536275326,-6.468017872070952,-1.978537396551339,0.2671796601560401
930,-0.6808502340906742,0.09416269714406823,0.3322755640481804,5.378160025607041,-1.1077838642386664,5.462764939568267
940,-0.6381578653456735,0.15725802442949427,0.38565311312686,6.394264567999729,-3.031744950949032,3.759467001887878
950,-0.698047774342474,0.0875500816061642,0.31742752481509656,1.6508061399627751,0.8579809374730449,0.6664805448551152
960,-0.6876958939944601,0.10341987202082598,0.3408985632002892,0.2039492914296963,0.7500691146631252,-1.0157106602720014
970,-0.7015153674919171,0.09032221629028221,0.315123975778543,3.413412974757822,0.5779325778659536,-0.6377244415443994
980,-0.6893913598195753,0.09968898495933623,0.33828827873968215,-0.014609058173253961,-0.6703367840528349,-2.2599184444474414
990,-0.7074355702603723,0.0803064672112918,0.31860580087682683,1.265168832489424,-1.3587809892847802,-1.364019572033719
1000,-0.6956516441669245,0.08871565311471404,0.3255331723078254,-0.01898434459444953,-3.9012346617144065,-3.130784816840004
1010,-0.6820549512012776,0.11084300610769744,0.33844782123626166,2.751948461250152,1.1232100161428136,1.027135212301855
1020,-0.6633946219274701,0.1295620245940682,0.3595891807498032,-0.8174138337486319,-0.17481397338923793,-1.5902096684365141
1030,-0.6880206993446457,0.10095652018478966,0.33602059724374356,-0.26328757592102203,-1.0737820333855541,-2.554313319398558
1040,-0.688429185933744,0.09693942346363119,0.3299350484788501,4.861435156454995,1.0644553203425757,0.055838114771016634
1050,-0.6840677972323341,0.10176149337650892,0.3355030408799826,4.087438629640549,-0.4051299056404432,-0.9834813893992242
1060,-0.6974937086974926,0.0964559214850594,0.32632643248795523,1.6197783704509734,-1.0275185650728276,-1.4022717057583043
1070,-0.6865240941765148,0.10539818077024879,0.33654084264027756,1.984441478635193,-0.193800954196525,0.10052102125319295
1080,-0.6644445994314503,0.12563390872386535,0.3595717971572206,0.5832935499972489,-1.2497249021863557,-0.6426011265907772
1090,-0.6677789158390351,0.1250489173681775,0.3528920663052011,3.300797078358088,1.1687968348081517,1.699541178596585
1100,-0.7145704624064947,0.07327975017465077,0.3009321876303477,2.2259920615969477,1.4215654121592123,1.5731818425541255
1110,-0.695461140614096,0.08532967549898952,0.32556241547019044,-0.1004829138017142,-0.3018608664399176,-0.7486524741031817
1120,-0.6917895586854965,0.09668876237827757,0.32605486727644234,1.2425244045467108,0.5714112583684193,0.35765517273463676
1130,-0.7062931961790593,0.08726524222455308,0.31322486770527813,3.488411574691413,2.4950662703334467,2.90327018141621
1140,-0.6861379932994814,0.10272714782437746,0.32934359622360565,3.5418316361251887,1.3220855132260394,2.6412048689730905
1150,-0.6909828212283928,0.09964350444050048,0.3274725160518476,0.26095770321576406,-0.8591711933747206,0.2691337851194624
1160,-0.685231340208288,0.10715165431586308,0.3377659554658003,-5.4256261692717125,-4.671236791095361,-4.638882656247734
1170,-0.6791942382176669,0.10753402820054694,0.3449881385918041,-0.08301914938511423,-1.1758889357909175,-1.302488952779717
1180,-0.6949813945040341,0.09136847994719104,0.3240788389931701,2.099362676422657,-0.9830640948016263,-0.25884902914899943
1190,-0.6501618539119659,0.13922607519589142,0.37146831078454434,3.0623796370893333,1.472917099452375,1.9619848296125824
1200,-0.6737642217671982,0.12584743460771294,0.35065816736731453,1.9221246358343136,2.187116261933873,1.3469166650151765
1210,-0.6867450156373469,0.10526552025920173,0.3286519407679704,0.46034502586268866,1.6068830779127956,-0.14685228244265902
1220,-0.6884252733283053,0.10376738355541626,0.3401959234330051,-2.3081089322965003,-0.4197670425420613,-1.9947870422643
1230,-0.6970268864101886,0.09758744247386739,0.32568541913911553,1.7279159160226818,1.8682041233131184,1.4906725140522556
1240,-0.6881255078591203,0.10330434418618616,0.32857489520775157,-0.06863482824615343,0.14261246334494854,0.08776076870617404
1250,-0.6891621915192158,0.10611300142867283,0.33081273535666555,0.30810840977147325,1.0792946755061892,1.0397743002885407
1260,-0.7069603394118047,0.08142717073433214,0.3114599671047329,0.47202389957210644,1.3709854876816223,0.7699683902110548
1270,-0.687466454919301,0.10460560680860849,0.3343839862364945,-0.4636305288151037,-0.7335150470248197,-0.8103770716947577
1280,-0.6935553607801173,0.09651997125319069,0.3285776657167651,1.6822100208686752,0.963280349815304,1.4999802492195402
1290,-0.70180696298503,0.08579136406954845,0.315841221632541,2.70595688139426,2.266318483745905,2.681657077651075
1300,-0.6856309182265682,0.10484037265174039,0.3299990834664358,1.4381153052594082,0.5442175007271293,0.9616646798799348
1310,-0.7088251632305246,0.09337230824249065,0.3154511220083072,-1.2338954425233728,-0.38807688233449017,-1.1171201480912079
1320,-0.7031110298561996,0.09213656796931069,0.32044997305044337,-5.114160147390602,-1.817369232026278,-4.091393588203199
1330,-0.704069563789585,0.08557801348756489,0.3140763778521959,-2.0850549758369126,1.0758383337951678,-0.9593610903541827
1340,-0.6808818818136696,0.10991320828478378,0.3370477405681255,2.987277655758244,0.5692667496272437,2.0778024128970554
1350,-0.6709397661469425,0.12029262405074542,0.3499815149794187,1.5716054910919883,-0.08923376941281236,1.4120710715382927
1360,-0.6831534313353946,0.11058059564806302,0.33094315274472025,1.6683630613369016,2.7730962386556683,2.32935363404635
1370,-0.6784550577932247,0.12163744705621882,0.34448357941123187,-1.5076332923803317,2.104949298702425,0.4858666638596292
1380,-0.7039903774529709,0.0827660806627967,0.3148377684627037,-4.226302854903974,-2.6847125297719843,-4.348715527093145
1390,-0.6853390703102288,0.10159679407712012,0.33640858353904635,1.771303782576077,1.9194798640145785,1.1675721711687719
1400,-0.703093996037229,0.09215499016534337,0.31821291245252176,-3.707228011092026,-2.7961547079957003,-3.0651252049080355
1410,-0.7123160616151247,0.0865086118800672,0.30361346718577664,-0.988179197281911,1.1547145525348586,0.47787840613149224
1420,-0.7032833418332289,0.0902686845762485,0.315185580609702,-2.9273350020277378,-1.3736237916289746,-2.0720591040402976
1430,-0.7115988973378761,0.06818664419747779,0.30952566024101547,1.4383836555824647,-0.6851405117700198,-0.8696633283454911
1440,-0.6815210695582813,0.1023271942141117,0.3374661362405004,1.2000201183347334,-1.8216678673202373,-2.025459405572026
1450,-0.7239221665626505,0.07200793959687997,0.29693356730517534,-0.39987155207400893,0.6494248761689148,1.1704550528127096
1460,-0.7034153549627489,0.09356268582178659,0.3130406922074,-1.4766847624499553,0.7483206194289133,0.5220338284079262
1470,-0.6980124090945811,0.09957876096277446,0.32460218772142213,-4.790199941621477,-2.175702042626794,-2.82296193773636
1480,-0.683067885254885,0.10407194536008145,0.33745949237206074,-2.093708062161947,-2.3065380266044135,-2.929882813420062
1490,-0.7156388362717548,0.06994320649816937,0.3122144816560045,1.8517943161723105,0.5745602629518861,0.636075019261616
1500,-0.6867552931359383,0.09743626586333921,0.3367778732081542,0.19553388681661443,0.8996996194788834,0.9709080398118498
1510,-0.6924752142948517,0.0985693265377487,0.32894947661582596,-1.5790950435758084,-0.04061941521061041,0.22055168523649335
1520,-0.7135308538359431,0.07478600684585925,0.30789549585649917,-0.8047521482127102,-0.28329365720681143,-0.10564589919351985
1530,-0.6727246075493369,0.11586639763239141,0.35008572209197475,2.2882926567964628,1.4705074106548546,1.269686953091147
1540,-0.7022520439652559,0.08458881113500638,0.3226375682345381,4.276533416308967,2.931185488086142,3.4042097903494826
1550,-0.7102490442057344,0.07900317854346742,0.3127048859819008,2.1874844364322987,0.774054415773781,1.5443998418209084
1560,-0.6890192108985738,0.10428999017393506,0.3341114783397625,1.4941824132450752,2.8775001013151016,2.241449352773973
1570,-0.6803134327426009,0.11939074801091576,0.3357607176395476,-2.1107875160049705,-0.7309375420400004,-1.5973421563018966
1580,-0.6960001694940301,0.1023456479636648,0.3302728710723403,-5.587429216419554,-4.256472523147463,-5.388585999710976
1590,-0.6885932379288751,0.10146210481964643,0.32748288939518055,-0.015057237793374645,-0.011465317878665893,-1.097067936585345
1600,-0.6807846308493135,0.10741368057714545,0.34314739333869876,-3.5880396550073463,-4.051358452263438,-4.5687718889373645
1610,-0.718188541651311,0.06783089845863385,0.30223652489414765,-1.889234056056845,-2.7200992296844193,-2.2049463895336507
1620,-0.6619084872333328,0.13272960594733035,0.35784776269698393,-0.2331308279510561,-0.26701040344392635,-0.28987398406263454
1630,-0.7031792542802321,0.09422078090121606,0.3182105507852841,-0.7382462793128127,-0.21048507308204092,-1.6098325034963277
1640,-0.6735144858737769,0.1190489784876885,0.3481211505148992,0.0026965000570819964,0.8372786848664131,-0.823027525708951
1650,-0.6649511751718957,0.11912487938762206,0.35463802474683626,-2.1312431552303943,-2.776748743812992,-3.5604311805102355
1660,-0.6734902761556808,0.1139043274739502,0.35185712136348934,-1.6592768333170453,-3.3628757995312863,-2.8517922288820525
1670,-0.6944878955783856,0.09558060306068486,0.32707051920077024,0.99063740887745,1.945630241822348,2.0345301914961587
1680,-0.6957971721847647,0.09681148901000802,0.3257553236298951,-0.6691284737391436,-0.8256055580547956,-1.0946989746406026
1690,-0.6862216654794598,0.10927675243496363,0.3378157330104041,-0.1779674257589131,-0.8306922977178148,-2.049972371587061
1700,-0.669357547737769,0.11469352977093036,0.34930252790247185,2.2251081770738623,1.888719149600519,1.457954678038012
