time_ms,ax,ay,az,gx,gy,gz
0,-0.893175265604242,0.07617142685894523,0.46496788370715225,-2.046285324137607,-0.6790332232557488,-1.0494493300480638
10,-0.919656597419429,0.05134597964315492,0.44608489660469364,-1.28017838909904,-0.27528272891897837,-0.23786174171875527
20,-0.9025469500477461,0.06126619198842866,0.46438854890936226,-1.3060017543425038,-0.8562749117334741,-0.3357141197095305
30,-0.8961918163533237,0.07593025855905909,0.47661668743940316,1.185031108868463,1.2632481767390662,1.6796190752057898
40,-0.8857910004983778,0.08499288026731926,0.48742169666716884,2.816437528743326,1.4647026313817022,2.1228083338693393
50,-0.8955256214529675,0.07472541119637299,0.47545309477386316,0.6195667161900081,-0.4836445603874907,0.11214668582045961
60,-0.893075951405019,0.08398766579747151,0.47690137260866144,-0.7238638314842651,0.4449095441719204,0.43563849908344027
70,-0.9007171588237992,0.07426445675643559,0.4666835713914191,-3.371128005831559,-1.4064327336072169,-1.6792242234615826
80,-0.9221095378542398,0.04978704441520741,0.4444786838405348,-3.573851916577191,-2.0313266663465512,-2.5635879310700713
90,-0.9066627245572084,0.07150573963390794,0.4577571243336299,1.9077926492679231,3.330826886472218,2.408208087115562
100,-0.8555730525027533,0.11089013559600785,0.5092725661172883,0.062312001292452276,-0.24333457408862655,-0.44501668350873863
110,-0.9077673122577908,0.06663083912093178,0.4580192083077758,0.4326632321324557,-0.437616914333368,-0.7272098670051514
120,-0.8675856959574543,0.11237297457218709,0.503320213666009,1.4906056939377823,2.0929156430716724,1.1966924008531752
130,-0.8998165682106704,0.08138486189306479,0.46789009717095886,-1.493504654423301,0.18477029380503843,-1.0317116117137406
140,-0.9009245314550884,0.0772497648910167,0.46150528417953435,-2.4806015676459934,-0.5936749466898875,-1.9768593829263787
150,-0.8800668365169269,0.09038869110543483,0.48873671349609543,-2.1965010463365084,-0.48356562461269614,-1.8977726539365292
160,-0.9110780820945197,0.051915399181937036,0.4681232404536575,-0.9779374783324116,-0.5043509533431291,-1.0294224671998324
170,-0.8778358959467087,0.08527154447393372,0.4857515516776619,-1.1214360339234242,-2.1294666078167777,-1.5115831148867729
180,-0.9003419991994182,0.07482050693076178,0.46793664880224495,-3.127018377499157,-2.108873604990359,-2.4916285969849445
190,-0.8794404560211035,0.0958779503495089,0.49347026980508674,-1.7310271414867726,-0.6108192718022857,-1.562680682833156
200,-0.9278308288027695,0.04423464472278068,0.44246494865960284,-2.4740169935511513,-1.2664525111163223,-2.32969019139592
210,-0.9183773957029799,0.05188686413748194,0.44943924586600714,0.29259438767107626,0.9428304040561193,0.5249829332618788
220,-0.9035282728857987,0.06950325935916396,0.46857717208134325,0.6191384357360752,-0.0964818417371402,0.8695081972151505
230,-0.9042435371756442,0.07077441325592705,0.47818873141667817,3.221354530261474,-0.3523721581966325,2.820773788822132
240,-0.9322504320589279,0.06739950970549348,0.504186635038051,3.7724325151858014,-3.9889077713526033,3.626066690175749
250,-1.0008336877298112,0.08628338896241622,0.5815588829134464,0.03460555632382921,-11.23207270505189,4.584793845733354
260,-0.9727066361429485,0.07697077728276275,0.5695882977114342,-1.6611394013674747,-18.77443559241714,1.6112055131006913
270,-0.9604132849657973,0.04837804032094773,0.5175433342403133,-3.05271198958883,-25.012252811973575,-2.3564703015983106
280,-0.9101887825292866,0.013329118407823085,0.511195864090553,-0.7371038473667704,-28.0293471257057,-4.793137164558356
290,-0.8747054864482877,-0.020434066099118582,0.5069563061516177,1.4143808550571983,-30.867746504222364,-10.187898364044633
300,-0.8579741320995946,-0.00797056967033893,0.521006651702784,1.7553384443906057,-33.4942297647553,-13.53587274906685
310,-0.7881437398456745,0.0583911977752506,0.5245685147734512,-1.3957197279559166,-33.2114319933996,-5.175178527761138
320,-0.6553734860819762,0.13219023088195364,0.5435532261132532,-8.78703215697374,-29.95312589110859,6.709756936338528
330,-0.6633378363016953,0.0611886735625487,0.5264040618376866,-22.48025741781982,-29.596093476375923,1.5699286990387256
340,-0.6588770926057037,0.10673033619412617,0.5980452211375287,-34.92030896713516,-25.280986594357948,-3.0252520035192614
350,-0.7460714292570091,0.14378394499181826,0.5406660004867164,-57.45656834097766,-21.493684740928618,-9.799423072668404
360,-0.8422728324145163,0.13478744009879634,0.5567698304827864,-59.91994270070997,-14.983151979329831,-3.5211022238086285
370,-0.9271414155645616,0.1659039594727291,0.4758695763956905,-51.76662688717917,-7.570037629996829,4.83720818309243
380,-0.950758716477933,0.08272164211574193,0.5299897671978453,-43.84271675879131,-2.1004828944898684,6.021220480257073
390,-0.9577222369854771,0.057018351354998394,0.5820220252753088,-45.00603539315576,-8.781958961578834,-2.207574091729558
400,-0.9581813174522988,0.06906942666091999,0.5225652570464747,-39.25379243593914,-9.29809259757012,0.7185447059328308
410,-0.8659672722129325,0.10451553927226834,0.46339496224064664,-38.831708010110226,-8.50566436194412,4.273964900691361
420,-0.7575111288691712,0.16894873100520133,0.45778471545945465,-40.66644909982202,-1.0891499611043445,9.889221288568262
430,-0.7788312061191006,0.053917564412704906,0.5032834574680161,-37.024226532558096,4.78627235176599,14.816515275095108
440,-0.8465906129198575,-0.017060560216154676,0.5021652739503775,-25.200251798643464,6.007853494279795,15.47390348113762
450,-0.8030514942216871,0.05380931990720511,0.5721192521939598,-16.91295133197254,2.462839485674552,12.19895722998276
460,-0.7261275451897237,0.09846494847844434,0.5536762559933889,-16.826419416352962,3.9632652476432506,11.732542667461901
470,-0.8350508136403009,0.08884340248093606,0.6265790996182623,-20.84058969073386,-6.115624891976665,8.686583715970132
480,-0.9451939745548665,-0.031003503941732367,0.620734810427836,-20.41812686691526,-10.668707592805793,6.916015468405414
490,-0.8874450517635161,-0.09500540660049692,0.54856176493714,-16.25616870669029,-6.999040545717607,6.988003575482541
500,-0.8346723325857229,-0.07428436242633504,0.49516223744145516,-15.079143682431145,-7.097294451187115,6.981334164797463
510,-0.8439089461725455,-0.1108144894638483,0.4956606482194467,-16.595319352461644,-7.8407662255412305,4.753908491989716
520,-0.8628135742535276,-0.03647325067518628,0.4691849873807766,2.726381913759503,-17.661607358437315,-21.20306558910506
530,-0.6955117714003577,-0.09040893081521965,0.44697030398613263,2.8288880073570164,-17.55318110665685,-26.03950333413158
540,-0.8425381511548812,-0.025915113797491434,0.8089576420745694,22.299416533744548,-21.635335973124075,-18.576709365769965
550,-1.0211815034837903,0.13622760942684226,0.6169697820802449,24.28852371479985,-23.778785276772723,-17.456920168577305
560,-0.923825599839052,0.02374153217553222,0.7889490041631774,16.409593319585923,-18.016977086938287,-10.873980608773705
570,-0.8488419333672804,-0.12474071143054499,0.7523103714196164,11.264447790596625,-15.305389312173219,-11.298024034405607
580,-0.7903124529419187,-0.06679136103753022,0.458570193541826,2.6528265477811024,-19.499954405292815,-29.443445032846913
590,-0.7367581733528695,-0.17297541976795375,0.6136019496051444,13.398460847730814,-4.234118228450377,-29.359427125049063
600,-0.9365977750890433,-0.03570585065916112,0.876447963484558,70.75300881067338,-3.554350595290953,-12.165847794403422
610,-0.8664313773582712,-0.042578334379334476,0.7687756624162119,87.0102350375793,-6.258460989180822,-12.329038242532404
620,-0.7972030059470505,-0.23409742768169273,0.5693828551100979,32.62511536503371,-0.11155190985720953,-39.57589479600726
630,-0.7578754449872177,-0.3587623567107341,0.5379394297189295,41.87884882174589,-1.0311500980717963,-30.198886273615205
640,-0.8245634911000596,-0.1809647611419964,0.5325691709191211,66.77710407497985,-2.962392761598146,-24.073686008286877
650,-0.8523400026416976,0.017219187621944475,0.624274219088008,76.20822153012799,0.21910537090190907,-21.06266801937272
660,-0.8888775807556506,0.08138910935869542,0.6967152357226511,87.15577312004518,10.032700127425535,-12.263316371441176
670,-0.8986562116719186,0.17408503982222695,0.7323566970254579,94.37634074939447,11.72988088957843,-8.867893592675813
680,-0.8459456649083921,0.261764945132877,0.7136033296310265,72.58295773267683,14.29314044063232,-4.347334173921101
690,-0.9158825319515923,0.1472899660613474,0.3752017863823593,19.224234083017322,16.85216785200494,-6.1097325346306635
700,-0.9284071214638121,-0.08825320152684,0.5875351233180527,3.4371920985577993,13.140270015501782,-3.289011479327587
710,-0.8642038695501283,-0.05222127054180522,0.4784912526371013,13.499386249528754,22.724632223002363,8.682191837612352
720,-0.8167516149737978,0.13270142029813167,0.7464543342186284,17.619876243733273,27.02975596211427,23.499616966948256
730,-0.7776815142489105,0.10084599269948441,0.6209518766728126,4.435311213368885,26.407798317013388,20.82435666749429
740,-0.7988482812382874,0.047460149463702715,0.5631460964381717,-1.034054804515692,29.07108419136743,22.52283785967907
750,-0.8236559778918767,0.10160286237353791,0.8566822892559669,-6.015138846373985,32.105507986567645,30.162073782141874
760,-0.8470626735976794,0.11863002172571627,0.8893164062773236,-20.595854744094037,31.671244795355367,30.478844172532295
770,-0.7569765053163531,0.3102783274377743,0.397044746826003,-8.780129480648702,34.1986078189766,34.32857072559314
780,-0.8889643481956739,0.058356745431348264,0.11174354181271051,-16.239771850635783,31.681193787154914,29.56716606503287
790,-1.021613205499301,-0.44980792605989106,0.8156090148398978,-60.44773821012267,16.443683731526097,7.93380559631413
800,-0.8506118992225784,-0.3274437894683086,0.8237346616054545,-13.329693612354273,12.984805192562144,9.845137978213781
810,-0.8532217153043896,-0.10949542047329641,0.887451412842403,-24.362900309822233,16.606817232037777,16.320533256320402
820,-0.8462897329762261,0.01293950494270038,0.8820580812284696,-33.00964008788326,13.737748583825336,17.041253718086736
830,-0.8981016845096943,-0.091077511527483,0.7122782955169065,-32.446355704504654,12.774456292384919,16.58589320804802
840,-0.9174739011614048,-0.2284750181263564,0.6352173553438849,-33.80760047986373,10.884470733486863,11.40691808730268
850,-0.9244790054745169,-0.29615386190055876,0.602802228937044,-10.247754283722315,1.5000089482657533,3.7679680815620253
860,-0.8340506344605025,-0.005156369261066105,0.6058503246019945,21.678961227174387,-2.436177228231957,10.912223674898357
870,-0.8774626810046958,-0.05497213099183314,0.4845926439727145,14.493425720755232,-10.278596372803948,2.755956018042138
880,-0.8672615386179293,-0.13687019345992119,0.6271199390444641,27.189554916170362,-13.201877506101862,-1.4905806268934905
890,-0.8040766848770233,-0.1720626208754559,0.5655250454319619,41.81669539885815,-19.48481811025185,-12.66444413130375
900,-0.7695775505587192,-0.00859098508655236,0.4730869315252907,58.47327995902592,-16.877454476596032,-11.171890003855362
910,-0.8607914629709369,0.09048689351555148,0.48517747343812395,35.951816005950235,-17.4282550705837,-16.804094450726105
920,-0.8597236892268735,0.11832856605488092,0.6005278766263455,29.58729950146583,-11.575120277919186,-19.356536876625533
930,-0.8435522572493606,0.03943332825858229,0.5555922076530446,39.393488837738865,-9.346321180253627,-24.290645963237246
940,-0.8971370961152236,0.03463965778876691,0.4875493278746483,0.07987194000453235,-5.863539046203348,-26.71861007066708
950,-0.9647343006782225,0.12202740822456061,0.44344416527225783,1.1070847274171376,-1.0656071928992756,-18.020860410686343
960,-0.9511511360461153,0.10194198472122926,0.49245681801696645,38.681226004665035,3.1303549124495103,-15.452418929087024
970,-0.9658115404846597,0.319985398613603,0.42512746433914206,53.108296842383155,4.931366936844867,-19.543293143691407
980,-0.9221903956884696,0.23163613791441565,0.4609920105896551,24.04664949009009,6.137244232129852,-23.295309272523795
990,-0.9038997652527208,0.23237757535090892,0.5003300141921093,20.555379336438268,9.78579007980013,-19.122299354316166
1000,-0.8536610489688216,0.241101356643719,0.24925397773916572,24.295632607590075,23.90670638768793,-8.558518082627032
1010,-0.8092219064961693,0.15924471489909559,0.12559741376982417,15.095565418923963,37.76591407301661,0.24354991401598647
1020,-0.883075263885878,0.02391185562283568,0.49337156131609555,13.81064025398512,36.84481752193918,2.4347542248283434
1030,-0.9516983690186792,-0.10212779217302609,0.5955343261449488,38.3928605029747,37.98180863534606,7.091773945884493
1040,-1.0497262802753302,-0.1003732269368518,0.1436516413883851,6.862036282289895,42.7165659954058,3.0193149411423983
1050,-0.9099720244684679,0.2741963288713163,0.6059820167313159,24.556742294370277,33.30197958126455,11.450328066442266
1060,-0.9945713870114135,-0.029601070892525415,0.4609578887291802,23.48196260238274,29.184533700515544,9.95458500966633
1070,-0.9005490795489393,0.0792007899198184,0.2933024145006689,9.174168241126157,40.7284605294236,10.107554054573562
1080,-0.8058464873630026,0.32369611543478655,0.2114296703610624,-2.6434440934131533,44.98595164255091,13.959987576858829
1090,-0.7493180148467273,0.4659809206693856,0.28539287338927277,-9.763544480404695,35.106717747640296,13.951736200825945
1100,-0.7614809964027203,0.49696744742560367,0.26998836454736447,-18.54290426707147,24.087476536956974,7.713095072330349
1110,-0.8666201834200419,0.47464060528080965,0.03840945480026817,-36.459680388518,16.918368694782334,-2.581407828402614
1120,-0.812560217087886,0.4360235471371688,0.4094402896786545,-43.92585075338198,10.824789757276305,0.2240730941933624
1130,-0.7941810292635212,0.36270420094042344,0.34423876842363277,-16.99149949428095,13.29408398699719,33.2000133036556
1140,-0.9792906966168489,-0.14821786413250604,0.7278728379528523,-43.9444562655749,8.15895864453251,27.182760263987927
1150,-1.1001754710956417,-0.28828945879063483,0.3930466185015506,-3.6387665374688156,-0.0696767536393943,3.9855394371894284
1160,-1.0173377724964403,0.005612520924287313,0.11330122662030012,-40.99583279432005,9.310177068801895,10.928101666322153
1170,-0.9244476732671788,0.11580615010856947,0.20220203666876213,-66.9681003120198,3.997830827270993,14.252378366088651
1180,-0.9179963044591446,0.04887640717993255,0.49460772737769865,-58.557997516237776,-2.220737507965469,15.577289392758429
1190,-0.9983460931424488,-0.10104121092804375,0.6057506228665719,-50.75373822181242,-13.176507713200227,13.80053853291145
1200,-0.944967383811602,-0.33305693015861815,0.5874519364407779,-0.985674666205419,-35.02577601984219,10.158099195393984
1210,-1.063258643033142,-0.2120449719431682,0.47418302024095305,-25.14155173159874,-27.880124196385196,-2.5538016509621464
1220,-1.1035508956229034,-0.20860266308707676,0.3474548599367081,-34.31899954314208,-25.69828563354843,-13.904828499047206
1230,-0.8388492189802936,-0.021769679383847242,0.5677052916565832,1.7778086839355915,-30.140334864200735,-25.54155862291864
1240,-0.8830583227797703,0.030976213319155378,0.5108676464784756,-2.581555431653612,-31.790045713324158,-30.719491908001118
1250,-0.9107508921481423,-0.015795147486349647,0.35129115339003675,-5.8259846762739365,-18.57662162163657,-26.5614453570393
1260,-0.9162250821087442,-0.007855194016085585,0.33091432018416256,-4.159570354691583,-6.72095915805428,-9.12869022676509
1270,-0.8790044513208863,0.10521757156888047,0.47851576392220446,0.8016119238729205,-1.8999878933774974,10.34091013618742
1280,-0.9074462216271005,0.07802775388881404,0.473205205186216,4.889865687744857,-2.236519126300506,11.431893056561176
1290,-0.8640127625231467,0.1268373007086726,0.4887843299635771,1.221593863966448,-2.7757367198995704,7.254323499664999
1300,-0.8850753286219739,0.09657425667055038,0.4542730282689846,-1.2240743163698762,-0.2739403975308216,2.89228725727023
1310,-0.8768657617556327,0.10955725976766177,0.5037804257567453,-3.6553728407845876,-1.191400397603163,-2.150910848729144
1320,-0.8925021571197834,0.0919757999607645,0.4830683187915071,0.018553219681446853,0.8458976559347439,-2.3693699111906414
1330,-0.8885084019080846,0.08585703331104866,0.47956282622430574,0.6686246723699052,-0.23725915925611318,-2.315183425674172
1340,-0.896107120846368,0.07151250302030307,0.4776641189218161,2.5002859978689598,0.7320287804030994,1.0344849268806615
1350,-0.8962531619578156,0.07073822721894477,0.47900030315969655,2.156594237551958,-0.33514525895615876,2.617789750196703
1360,-0.8908956980815239,0.08305276799370764,0.47777862784663955,1.6991219574632033,-1.718978548186818,3.2347852603083638
1370,-0.8963808418654818,0.09203649320586475,0.4766770712359047,-0.8393682558928348,-4.43808048303403,0.5613607871263149
1380,-0.8803224948561233,0.11347302107765164,0.5017644656212782,1.8543260444793874,-0.26346509436296356,3.330874209748482
1390,-0.85338328120435,0.1239430556949058,0.5034319783471913,-0.9097980534993998,-0.717842793898749,0.3963397822955581
1400,-0.8854677858862704,0.08384760764596107,0.4848437439170965,-1.9766585850778369,0.7171960720016287,-2.4290425963379447
1410,-0.8936136672425014,0.07773250690165003,0.46873309989892453,-3.877611614770551,-0.9146020540205142,-3.93879423870108
1420,-0.8709736026106484,0.1067483007967421,0.49478004980146684,-2.459743130191328,-0.835439072463589,-2.1527181845647116
1430,-0.8974272009628811,0.08224793847676828,0.4722072970991125,-2.569832126818793,-3.1689176656805365,-2.533403086571243
1440,-0.8833662554867447,0.09500697487147285,0.48598892170244024,0.7692539252095717,-0.6741411772816857,0.8206310127346909
1450,-0.8803901701263501,0.10058347653949902,0.48851329575205726,-0.43009356649007735,-1.3222240348026224,-0.07559858536514685
1460,-0.909836400224939,0.07675024643320216,0.45563807503895526,0.046513451494239355,-1.6611729282711671,-0.611071428882046
1470,-0.9034931195379037,0.07459739815814853,0.459771467325917,1.3453242780760253,0.8972516826472133,-0.9470918827291122
1480,-0.9068150867617166,0.08249928308261814,0.4567609141955964,-1.005199100243188,0.8074022867325128,-2.326758938134043
1490,-0.9045401944557832,0.08191639170465231,0.4614535966817675,-2.417398691843548,1.400875771846729,-2.215432653593351
1500,-0.8874151541429408,0.09159409442697253,0.48624932869061804,-3.810488749144796,-0.3768524667647164,-2.591716986405254
1510,-0.8729776896732331,0.0938298567496601,0.4968910258679495,-0.8260530217750821,0.5710637752368461,-0.16970095197195767
1520,-0.871930131837836,0.09346174333624012,0.4946215651214711,-1.9425896949464676,-2.4174115255169224,-1.9056247637605357
1530,-0.8813112582375228,0.09486298537631387,0.48779530378881425,4.205863695681562,3.209262999421404,4.446485725561337
1540,-0.9000134786654453,0.08554757681442646,0.4695070930224786,-1.1406134072761214,-1.5588485391076916,-0.6294344081676246
1550,-0.877416458452987,0.11151606176148626,0.4896974736221207,-0.6693851642532921,-0.4082154658707229,-0.3321388667119416
1560,-0.8542370886356746,0.13689019187614837,0.506867212191707,-2.216766045335722,-0.4326481228956589,-1.0161598225717055
1570,-0.8848866964368004,0.09177669883594121,0.47827805507439003,-5.703476112099338,0.27392284668511657,-2.355698442553388
1580,-0.9213397738352227,0.06629243034596503,0.45856713677832234,-5.75451357759462,0.18369899553721047,-3.222933548615247
1590,-0.8882421380002332,0.08685828903725133,0.47708385970859946,-4.411998900588615,-0.06418896546579114,-2.1869272636683164
1600,-0.9000891320217647,0.07615831352883656,0.460749224155553,5.027114424310042,0.7324432814840894,2.2146130913678066
1610,-0.8825748352623869,0.10129979370685807,0.4832122310087228,7.460675821800157,-1.6722979653559285,1.4704467375304748
1620,-0.9218214500053129,0.0650475376227502,0.44757942086464264,4.494284897518424,-1.183488255108901,0.28953735871599884
1630,-0.9025182397643388,0.0931129742518581,0.47275834042969034,0.954302080404632,-1.7635038539626002,-1.9061125889495494
1640,-0.9109702315076855,0.08149248637883096,0.45421130878296967,-3.5218534437872826,-1.4910818628930556,-2.6720275605344974
1650,-0.9405068729514046,0.03519131462768155,0.4269827334329783,-5.309843503551886,-1.80547202376777,-3.1593595098923104
1660,-0.9025905662978329,0.08238429238907244,0.46928704821197403,0.027426668546376654,1.9715324287176486,1.8609942679660734
1670,-0.9217803582807887,0.07219839300625958,0.44908051673358856,0.43188443096849816,1.0539362099224217,-0.05882725272851763
1680,-0.8980858557371039,0.09053389338539888,0.4697198179979568,-2.9167150265992183,-1.7662613879576257,-3.5439096849263576
1690,-0.8961267371826772,0.08476247108222248,0.4749331673490163,0.4048392712541813,1.8440647781015533,0.11923908832038466
1700,-0.8701161622655801,0.10607945628859891,0.502899587313386,-3.947707118829789,-2.8898391565946806,-3.658320446900328
1710,-0.8874173327555888,0.08513840241175619,0.4808451626725812,-3.842981493160239,-2.850759949238625,-2.1507680489438052
1720,-0.9017849239038785,0.06902358617501929,0.4665538073945723,-1.6783113610145408,-0.5515425492411529,0.8297600796948569
1730,-0.8951119133653812,0.07393558736681867,0.47742764518919073,1.0474685225058118,1.4419094564534058,2.9548688882601284
1740,-0.8666812198399783,0.11360900942053864,0.4958573126434026,-0.7141243252868084,0.11566225529896451,-0.9458976296739587
1750,-0.8884208598491654,0.09134274762633963,0.4886160846633948,-1.0326989730234146,-0.38830988781152787,-1.8694321362448298
1760,-0.8719596133736309,0.11021559711562767,0.5047908098854115,-0.4599275638170902,-0.8289558877383615,-1.4903197719755796
1770,-0.8992719461068903,0.0806256526240745,0.46495813944279324,-0.1296393784381315,-0.5955610032040229,-0.4959713592284536
1780,-0.8842870540207003,0.09237838646167579,0.4766219493942542,-0.6443142395390034,0.1749171578887656,0.5831889727567918
1790,-0.9048893261913666,0.07461826388482311,0.4676851515061272,-2.122479874779846,-0.9833340310006569,-0.5066106353796742
1800,-0.8930799721969027,0.09117557229817083,0.4851501212203021,1.2535452675594723,0.34198516982611216,1.2068449321757777
1810,-0.8944461752771998,0.08494006707393639,0.46601753919715866,-0.4886504004223944,-2.4658745967299716,-0.6120197118046622
1820,-0.9016209321339734,0.09341510612939992,0.48358939045374943,0.3795235124104779,-0.6697491470046383,0.2922713174922815
1830,-0.9054841642572153,0.079594514772093,0.4560040767198543,-2.0684074662587397,-2.6193381119010444,-2.657134386390998
1840,-0.8934923932929327,0.09409334732278239,0.4694224558533052,-1.3225244302769128,0.0036009225567855685,-0.9544106580482041
1850,-0.8928089255476755,0.09582221232579456,0.4771489678350091,-3.0541086367247114,-0.8079227313064674,-2.430024982284416
1860,-0.9193228235570516,0.06755461928596312,0.4542036651495404,-3.614334795469489,-1.283297159726546,-2.8088418952379284
1870,-0.9144914955702985,0.07290794615860963,0.4635684447924817,-1.1860442035122798,0.12293969653636694,-0.05139787869166934
1880,-0.903101613072121,0.0849259896580868,0.4755537241646069,0.29594294799398013,0.4498825402833806,1.5932908263865975
1890,-0.8649631973946527,0.1176569005197881,0.5004087851047059,-1.40568937830624,-0.1477999488143104,0.3719088823154194
1900,-0.8578804700190612,0.12178344621342402,0.5000938245854153,-4.232644908754361,0.522055001107948,-0.20039324123044625
1910,-0.8904697282166814,0.09100992828334001,0.48776550344635966,-2.354904161043533,0.6925335720000849,-0.23404412953397533
1920,-0.8853633049242551,0.09485355909401837,0.4872250030433695,1.4736033987084334,1.8727738501250135,1.2025216335478925
1930,-0.8849630347779306,0.08588271398785799,0.46629182649767237,-0.12559785207705865,-0.9480250636525192,-0.25001487345299267
1940,-0.8633844800980448,0.1201307195903338,0.4890072203941511,1.3477392133008221,2.6032852571375473,2.3522211317405213
1950,-0.8846118572220594,0.10632594151790101,0.47720802570307025,-3.0236558001537626,0.11739103382446592,-0.9254020869607467
1960,-0.8890177667078147,0.10396824946772218,0.48522116477372834,-5.222132113305804,-1.9734406950507541,-2.7441358501623583
1970,-0.8930704249164607,0.1022325588743175,0.48781855257773815,-5.37576758037634,-2.215617958799565,-2.820822700970371
1980,-0.9192306086495786,0.06105196367018324,0.4416976011590291,-5.440731634472537,-1.1882907575818449,-2.2343076797686052
1990,-0.8844826731986265,0.08928896633589745,0.4673497401166098,-5.520964308684559,-1.3535578666837182,-3.2642639336575976
2000,-0.8822409884785279,0.08520775217270085,0.48678693178365084,-3.7133753290267792,-2.1908383869201233,-2.9834517993184297
2010,-0.9158379032583863,0.06596330543379152,0.4645597211575746,0.024663612267825652,-1.3971139032986473,-0.2685269768857308
2020,-0.8905936539796034,0.09122178661736757,0.47836959909595533,3.4974163325673127,2.2375352788426075,3.5840163412844617
2030,-0.8872314312121168,0.09681324441113798,0.47806524521971844,-0.5007071254780396,0.16453781289040564,0.6245546592344806
2040,-0.8826001035649147,0.10301114580710571,0.48524227206640713,-1.9855420097441987,0.11004556177491204,-0.3445742758097878
2050,-0.8778941482499104,0.10642098151662463,0.48982329416450854,-1.7966092526274497,0.7732038822732685,-0.3483468493972588
2060,-0.8884134089980005,0.0940842250076049,0.47910844797199675,-3.1713962739013573,-0.5475384444021891,-2.128062807914838
2070,-0.8870115299938554,0.08917640503011161,0.4857664533173465,-2.8177988461942394,-1.2931143141620507,-2.4724549845001396
2080,-0.8587745776507013,0.12162683453314457,0.5115093573191779,1.230136606564827,-0.042219639390331354,0.2608249201030001
