time_ms,ax,ay,az,gx,gy,gz
0,-0.9004717354817999,0.18842733158349437,0.4638171861144019,-4.725188582963977,-1.3742476973796267,-1.6817871402974194
10,-0.9113393275876139,0.16786700383168723,0.4502158301034889,3.2558771433923237,4.1309884009040605,4.025286774945017
20,-0.8810510961287005,0.19955657307608562,0.4805516868832754,0.5018047902873981,0.4104445378785031,0.5835021966066877
30,-0.8687388268317662,0.2148678076153925,0.4912292151267724,0.43887728442800533,-0.09283761263078566,0.5279931727791893
40,-0.8588292172508079,0.22462383157921778,0.5000732778738654,1.009756182133974,0.826485584485369,1.1121679131316893
50,-0.8827936621705128,0.1983823036494253,0.4721834097579649,2.1139304232848533,1.574137238837398,1.7293892772437172
60,-0.8791882416765986,0.2079803636132457,0.4887458327571664,2.453220968788265,1.8511355285247775,2.1409364757601788
70,-0.9393465728128304,0.15113315721137374,0.4253479096960713,2.2146006825022906,1.044344101256405,1.1330126055485885
80,-0.9126418570784489,0.17354524792289072,0.4438790009428401,0.3197097980606296,0.20890631530418308,0.014457857303192618
90,-0.8837569326603341,0.20034026849429326,0.4799878408153981,-0.2698495688289146,-0.1899225842848742,0.16288638946734124
100,-0.9005610704584076,0.1841543878117799,0.4610738717803216,-0.8927813177109212,-0.4628007684771517,-0.7234029424872364
110,-0.882057485281618,0.20504611728770725,0.48277178989746417,1.5463234027416115,1.5552293104023964,1.2941106626065397
120,-0.8864933916206741,0.2003679282469378,0.4809939819248484,1.4822649710406994,-0.11536844890794415,1.0859117060713106
130,-0.8923409396317109,0.20959090520599627,0.4885095872912148,0.6035050622612435,0.9666525728557088,4.055532003282824
140,-0.9216071017139265,0.18277358229401738,0.48403775988438036,-2.8163444190455857,-1.8778329734653747,5.624598421805816
150,-1.0516144359225015,-0.008984894654892155,0.5866292985228573,7.431924428998659,-33.323844428914526,5.543220065852559
160,-0.8533444727597345,-0.0015461463705608149,0.5505926370475199,23.249459471814337,-49.08541754584442,-6.441345268794931
170,-0.7179038374195251,0.24777790162716187,0.3387912829552459,15.995674536417177,-44.13335921403837,-24.35665280905001
180,-0.6455463186000528,0.32543327489369184,0.42461169331866855,2.1202358636313696,-30.830267168133176,-17.79595441394194
190,-0.6297006660754813,0.3335207404141401,0.4022817850909163,-8.656600914111108,-16.203457376040404,-12.53073480573983
200,-0.8110358306405558,0.3142251475865133,0.4838939370749882,-18.740404297920207,4.748804095121363,-1.9848340403117424
210,-0.9849002712701546,0.21656535747593814,0.4840922797668984,-17.759077882544364,13.558399537428727,-1.1666428879847626
220,-0.9361742136080884,0.2501315858290308,0.5842167970025276,-21.199016117402557,7.186073406873202,-6.088012032934294
230,-0.882526035930672,0.15773066640495714,0.4625990938647214,-17.224144015593875,7.990955095647046,-2.9403379914440206
240,-0.82374352613461,0.17190798442668417,0.4832022242389566,-14.784865784840434,11.793169809305327,0.11243307107279721
250,-0.9301452984613129,0.11359258271868508,0.5050484261974283,-1.834763030554588,1.0727758132843643,0.7684999532528218
260,-0.8858214384575129,0.18025299175725712,0.5189555568477557,0.3569451539906171,0.2806701832805457,-0.40256462780620084
270,-0.9085762390225989,0.1395168582177285,0.5248219187319926,1.8822731372220827,0.9861582323636151,2.524861378440323
280,-0.9253346192331768,0.11169654116810651,0.5190010959165199,2.6120383772286173,-3.0756719577841976,-0.6668942042343542
290,-0.8804413714897008,0.15661076918602837,0.5344067422629951,1.2324441389456835,-6.174577361246276,-2.9452331423694815
300,-0.906699188120818,0.2019002052436023,0.3795694925628417,6.056994397616338,-6.628410750949908,-7.838832030507976
310,-0.80799949370714,0.06179959710570286,0.5817663513546432,0.5444404473612947,-7.372911665425897,-12.328450430316348
320,-0.8432470152614409,-0.09617801017514992,0.7400025999481672,-14.49494274717962,-14.306485390047534,-19.432011574432885
330,-0.9029194416275926,-0.056731674422376824,0.6374961156853738,3.635226038756584,-6.76261618545689,-15.537759374412763
340,-0.9009954144437902,0.27131418250793726,0.4090582908845415,2.478735571565548,-2.5271721375825265,-14.592845288590567
350,-0.8891421973860254,0.2368279828923803,0.4503913361343818,-17.55719891478352,8.549188460319206,-16.003693136987664
360,-0.8598226947050642,0.23535292212278822,0.6827642738744882,-0.6574969507574571,12.029949829220415,-8.542629760675167
370,-0.8896918600148465,0.2922432881516362,0.2367529462923693,7.225961883614611,18.84962521461577,6.105989890210225
380,-0.8557249357441042,0.10218116141784547,0.6506690659607633,-9.755822414120859,7.454911100642603,4.482231017954774
390,-0.8940364156031688,0.10628905467373712,0.5389571445120621,-8.058581403853836,9.289067223619398,14.578059727524082
400,-0.8723510274310704,-0.039260020962307546,0.5590747756500168,0.37648321224412173,4.458406450287188,13.280364048394816
410,-0.8474100003417351,0.12053939898899593,0.5815611618587255,16.270575955663745,-1.1163343618199748,13.164460408525752
420,-0.8838018246789673,0.08435095502848325,0.5022058226420062,29.47290112437099,0.4217309440257642,10.440468191258367
430,-0.9008373728915586,0.21635919055138264,0.4578706903260419,34.588552190242474,-0.6906149232875805,3.618742664053201
440,-0.9615953139521148,0.09842763511174511,0.442126006988251,-2.879003709869468,2.4263657182318052,-15.622640730223535
450,-0.9199784193986286,0.17295853516181714,0.3516533315428559,4.245882332237163,11.475378427249906,-12.737666933305853
460,-1.0240685121468955,0.13776583673021106,0.2299223672792124,6.440195848143612,16.041518546638883,-11.585966007248036
470,-0.8805113240471781,0.3638889167142831,0.402332817287444,13.36769650133571,20.987100124339346,4.190001279424617
480,-0.8681461181773378,0.3579508818912343,0.418432535483344,3.4241543483548256,21.757377620820282,11.647096593670762
490,-0.8218861107581694,-0.03805241234884225,0.7797070293326822,-33.53488169862811,2.381911596867571,11.372018198845794
500,-0.7688726621277967,0.11690937774897524,0.6360799241587458,0.17468414401734167,-6.118745464701007,14.76561473665567
510,-0.9099671557070632,0.101735399707077,0.48724774683477845,12.235331869118276,-10.18666849464205,7.150956010807812
520,-0.8658932578362514,0.18468690883666092,0.5404477444257509,9.72068734860832,-5.125389544323158,4.2157113172090614
530,-0.8983703428190526,0.1613613600504389,0.47823555893501796,21.788912713308953,1.7136809765972956,8.168145609100337
540,-0.8881298626613345,0.22415168596263021,0.47826520599222333,4.325818619128805,1.2970931971017141,2.3592265037982694
550,-0.8970811076065707,0.1945800326563846,0.47214502386489043,-7.402418614693735,-4.383679928214147,-5.747454086456356
560,-0.8962123529632025,0.18235716932106677,0.47497650514415174,-1.997076021584141,0.0602535606548385,-1.1581054561710449
570,-0.8872707321339353,0.19653168639319907,0.48375251950925535,-0.2363519680056301,0.400873771678232,0.530212832559737
580,-0.9084662576483298,0.1816596071193333,0.4617648817784953,0.5010248669629643,-0.0317747457540557,0.6032738650522718
590,-0.8810750904939133,0.1998236792676848,0.4837762847448879,1.0938924987289453,3.0791227069319103,3.3760537147552903
600,-0.8986004609765615,0.1846607407076373,0.4680671288003445,-4.706027649222408,-3.954223302793354,-3.07103559161343
610,-0.8963283272943142,0.18842290962829208,0.4685628409955962,3.9725704732208977,1.4041344759341614,3.2273533710677555
620,-0.9061090340627872,0.18561745392387005,0.45842772309425917,2.544196078170291,0.5974550784645164,3.3823219408771728
630,-0.8922267817168886,0.19803339236310769,0.47970552920044385,-1.0250767039405784,0.045720252841332215,1.0919941149264305
640,-0.8850374586639771,0.20876319239095242,0.4833674451696124,-2.677401922120546,0.7247583195170804,-1.4393226268498756
650,-0.9306585934735263,0.14285951644626257,0.4348350683815997,-0.7446611871905113,1.602119116782049,-0.07457757678110033
660,-0.8715206840368459,0.21110230996197354,0.49899909748203236,5.453995533824942,4.687523918250881,5.220551609994673
670,-0.9222140595071758,0.15446406926520223,0.4468768547560034,1.1781377603935517,0.5082065083624754,2.3439736483901465
680,-0.8719618505089983,0.2176298583634649,0.4894334404765389,-0.771320994690919,-1.7048228070358102,-0.08050357045279677
690,-0.9099915801679553,0.19749654294757849,0.456336480160997,3.0729538633839106,2.719068396247931,2.081796331625613
700,-0.8814239354606728,0.2149790417803094,0.4873610913486847,-1.0665404906802727,-0.0710562946443536,-1.933039588841318
710,-0.8623647431002922,0.22337174022489084,0.5071630741631653,-2.1825405088201473,0.44491439421386525,-0.38281133154735225
720,-0.872978607492697,0.21290143851452556,0.49665568129828824,-1.6224074503118944,-1.049386590075465,0.8119367500135395
730,-0.8751958716664024,0.22181569694678835,0.4969726109099356,-2.4591053023471856,-2.327942679072175,-2.4395195443414135
740,-0.909597668610678,0.18522928126969695,0.46513798738926615,5.081827997263904,3.3366732446808776,2.6756334132156496
750,-0.9004316110827455,0.18817728316165064,0.4658246877590614,-0.3324071757387681,-0.9399273118746267,-0.6853026740768442
760,-0.8908310854877595,0.19070570733336986,0.4747931531415572,-2.519877032021428,-1.9911268403450846,-1.230195711866784
770,-0.87260714008743,0.200800779581135,0.49110970610718835,-0.5298628396847933,-1.8888248541510018,-0.503255620955045
780,-0.9075834631977907,0.18518423030946596,0.45913200368590645,-0.5529435998960885,-0.2987547741941137,-1.0629256413952732
790,-0.8793766338302195,0.21007001420842306,0.490236932456092,-4.022060017409103,-1.0546993142181145,-1.4281369602497826
800,-0.8488107153349149,0.23196629765289598,0.5222005674652556,-7.053422755315847,-3.176521589648307,-2.7446744989028247
810,-0.9046508884165884,0.18185635424726293,0.4656409285994102,-0.38944827884906097,1.7977650531095644,2.5909572934370964
820,-0.9000180064291812,0.19311035941313298,0.4626816222237495,-5.214733286243871,0.18465542476427244,-0.046386504066854295
830,-0.8836026376852749,0.19761768728217297,0.4907730489519711,1.7250400615566606,1.5862063502267862,0.7547179346535178
840,-0.9153987990070648,0.15926179106712327,0.4513503214454243,1.5739726415685242,0.6191612276579755,0.0046258950860929675
850,-0.8528609942526993,0.23209896596700708,0.5144562364738838,2.8884372097000606,3.9634740138937135,2.1273909620277616
860,-0.8831536363573429,0.20708708108439589,0.4782637659387511,-4.508844090042575,-0.3861966901061694,-3.228952509121868
870,-0.8669470467774649,0.21247269752731174,0.500333147464939,-0.9104723495771685,-0.5345110358864902,-1.3108409476944802
880,-0.8932956691565302,0.1943538966405135,0.4806253812726601,5.574626952671257,2.1667557358140357,2.8508041529374886
890,-0.8797948957859126,0.21386831088319047,0.4923727960150952,3.344974575598595,2.801707731705095,2.7646705297209615
900,-0.9097099244165051,0.18487539377619838,0.4636651591943982,-4.363581626070237,-2.309192557994037,-1.7031488828897863
910,-0.9111000437110655,0.17493597594473356,0.46101450609686234,0.9334076186709892,1.2512601168064752,3.356855139166335
920,-0.9043238542225108,0.17683104558677054,0.46411361558044656,-1.2221457774658608,0.405832386351174,1.5454001946301545
930,-0.8824900386381754,0.1943403289543798,0.49333563684736703,-2.326219806885562,-1.2004104814682883,-1.9894058926375124
940,-0.9036960690512206,0.1805908670507484,0.4669475866263567,1.7721398046314951,0.6415287154304485,0.2361452687049566
950,-0.909193739997579,0.174596130966031,0.4594092121746565,0.490879294019535,-0.212055072663933,0.504859109384847
960,-0.8961950553891825,0.19573421944134045,0.4746017020998275,2.3919306698626865,1.1374843707954436,2.146185919060937
970,-0.901613952805806,0.18220501199220346,0.47059014182303,4.4769327715375296,-0.7851409067766211,0.23070033054998718
980,-0.8972640158940215,0.18950544033548594,0.47424117257790716,9.178606265835446,2.4129003018074524,4.430016038219488
990,-0.8925068173927654,0.2097023242422107,0.46833780300951056,3.554981744347154,0.43039060815368557,2.263183108003001
1000,-0.8798537864114155,0.20909403931187928,0.4873528671339932,-3.0812011142377322,-1.8327072926482841,-2.023571749965856
1010,-0.902367438580166,0.18960001074878322,0.4693836400003999,0.3127854950480624,1.6533925501402615,1.1421014691689981
1020,-0.8807538024188103,0.20163503246142148,0.4869281069626775,-4.391543048390142,-1.1128419217787944,-2.3274522063561305
1030,-0.851365058998417,0.22918268667308223,0.5170313704333237,-3.0224850327654904,-0.11363819436572173,-0.7344453588898727
1040,-0.8671938844573256,0.21994296401874208,0.5018595865790599,-2.786010917825502,-0.7520395396945275,0.27219832465582994
1050,-0.9207935602786084,0.16307605040360892,0.4508739788432841,-3.0883146059591464,-3.2102216694197736,-1.6169261152400745
1060,-0.8875052871151893,0.19798313308468288,0.4879093732723107,1.9835614245761315,0.5240789568131028,2.2791804484527125
1070,-0.8700168358860567,0.2111197144552735,0.49436967712247615,-0.06531511026433479,1.6624966647758892,1.4194882755428049
1080,-0.8740997344520826,0.21081084307605308,0.496724627928171,-2.8092489242532928,-1.7729037285068832,-2.01627816196239
1090,-0.8990205519397041,0.1850938433908328,0.4663430352214049,1.5101458803622774,1.6836684523815948,1.972968239229324
1100,-0.88238336635619,0.20123470021997333,0.4899387120754413,-2.0534506432149864,-0.4602327045825746,-0.12453364633486579
1110,-0.894279449637971,0.19652592076318587,0.47856287902803085,-0.34896571624957806,1.9815300551173476,1.843128326026949
1120,-0.9039078876364093,0.18537589268370655,0.4691101844918609,-1.232259240335392,-0.031663797302043384,-0.049930546631327774
1130,-0.8835566134651418,0.20343418836003224,0.4895651283543532,0.5153160241436048,0.46765482692642557,0.8953842554956646
1140,-0.8750170299928939,0.21332822050072497,0.48980963098387703,-1.7979173559791142,-1.824509178321661,-0.9068925141106545
1150,-0.8856295710289365,0.1813126318484161,0.48344380309506524,0.801446823802666,-0.6984122186435258,-0.04361592279088111
1160,-0.8645710491872219,0.22370965426703207,0.5079953592518197,-1.2040873857956196,-2.2004289587028727,-2.3081749545781114
1170,-0.8709757762896073,0.21718760544062216,0.5014129036084162,-2.9523495005236424,-2.585980276294877,-3.283717909157592
1180,-0.9000886738928418,0.18683406572431702,0.47426636596631677,1.003979164158073,2.1631212007801075,1.764520213939678
1190,-0.860603304736312,0.21701572189190557,0.5084573444006952,-1.042785446395876,0.544686782517738,0.246796722317714
1200,-0.9040866688972545,0.1848117334249165,0.4688911482005213,-2.4873978136192783,-0.9292609107418672,-0.9354306113740776
1210,-0.9006769950737039,0.18967458859087166,0.47565593259726174,1.9997389181968968,1.3997479117529872,2.262303926448312
1220,-0.9008148474713265,0.18529188303027855,0.47419335840929244,0.6017482780454204,-0.308280206012751,-0.2520625036433594
1230,-0.8873127154813143,0.20490725893887424,0.4858298268473232,-0.007602388750801076,0.26385272508993296,-0.2775222725683419
1240,-0.8890660086274959,0.19844819939475472,0.47826026179639347,-0.5725292253215879,1.411979669316872,0.5677581205555474
1250,-0.8846590039611161,0.1912626306100856,0.47744386556618873,-6.872209016660958,-3.3432246327713355,-3.7712304172360795
1260,-0.8686511677446417,0.21123634355407797,0.5014676325664499,-1.422071286822508,-0.16854805842038245,-0.27113262925285164
1270,-0.8837042550670002,0.1954545440992243,0.4876146271459894,2.069408436114802,1.5298283486809567,1.3141512768841432
1280,-0.8595104126368742,0.21330046042223472,0.5048467338926538,-2.45341937082158,1.1860144606217045,-0.3870293309232642
1290,-0.9042537118305269,0.17078509018813873,0.46770363875685733,-2.71219668481187,-0.7584904896327163,-1.7641503574214825
1300,-0.8890471633523576,0.18791426494496294,0.4880535054186515,0.08020201884883933,0.3287452900673046,0.05413342170940878
1310,-0.8716963877403118,0.22083487041335778,0.4987222350084058,-1.5760147013971175,-0.353864615700639,-1.030945031189979
