time_ms,ax,ay,az,gx,gy,gz
0,-0.9788943792421819,-0.001990316652654374,0.40281107499882113,-5.806280011173366,-4.206825871292633,-5.461379922485247
10,-0.9392935154525187,0.03028750833709693,0.43307981427322545,-0.42724407262483743,0.2003273244057972,-0.45875151032101336
20,-0.918320006215041,0.049778161016622316,0.4492305215745579,-0.7151278719382468,-1.1493039529215898,-1.2020411999905865
30,-0.9494772705140958,0.015586499977766675,0.41944948636761775,-1.6767232226245026,-2.1720237443629644,-1.70761912357254
40,-0.9200121919457172,0.047840246413973914,0.45202905420604744,-2.1762461124356935,-2.228144508196479,-1.6625147802405769
50,-0.9302187532605098,0.044783247084815576,0.4460479173611776,-0.4334707733851897,0.18772119991188085,-0.12343698493104435
60,-0.9319914333800241,0.042015144459954724,0.4430626288902686,-0.14553210915127335,0.42009706401641894,-0.20941868411904652
70,-0.9244137345416934,0.048748135736031845,0.4499247543546552,3.6300795757787165,3.828096334996822,3.5846021548265536
80,-0.9575419416619783,0.013143176482285083,0.4235603054815455,-0.38001804573604436,-0.05509478710993798,-0.3758902773648566
90,-0.9316119434047891,0.03641640796933148,0.4440838278008957,4.662972628678984,4.223088129904478,4.994946140105322
100,-0.9334669455298713,0.04247577732260299,0.4438617903271862,1.7358871039665154,1.6015900951639206,2.547720986716059
110,-0.9742875655141539,-0.004204979511312521,0.40202101258540757,0.6404700526855588,0.21315410246438637,0.7764111128515961
120,-0.9233570806300846,0.056158678675938434,0.4521025809883252,2.2816979975759213,2.1227077925901647,1.952132568723511
130,-0.9394755766661419,0.0358660687760999,0.4358220107367895,0.23681091418172956,0.06239411951229756,0.2363728368988794
140,-0.9259291178860182,0.043759845290743386,0.45242332755456055,-1.6851674061151907,-3.4017292472153144,2.1837546512525363
150,-0.989459005355843,-0.03670706283440085,0.4179281362832085,6.314939466646727,-0.3373288757004034,21.161248599745836
160,-1.0286894883172122,-0.09753994168018934,0.4609485789310064,11.002734411392282,-4.761485791832105,21.34518162032769
170,-0.9984321383252655,-0.12207445602700913,0.46167924462129745,19.88891828533167,-12.321795271362433,8.897482146486565
180,-1.0241250326314773,-0.04814391555357826,0.49214363266679173,26.132407549484807,-21.405058887949636,-1.8581523019034516
190,-0.9894340386289293,-0.0032954334617686584,0.5360526282276735,32.54488660730254,-31.03043855735344,-8.047694750100938
200,-0.8677511026391858,0.12175574566540862,0.43792024964031634,-10.041492347741196,-25.277718032454388,-26.235698780492008
210,-0.8023451564805831,0.042629676988606945,0.47481170621751806,-20.26436325823227,-19.236239965737237,-25.717876008405234
220,-0.8511623530040217,-0.005329660808485373,0.47838857548166863,-26.25792183818091,-19.859322504952267,-27.221387951508532
230,-0.9716730394881079,-0.03731507029897214,0.4767093275804242,-12.716336575244096,-17.15969918818505,-23.79235254010266
240,-0.9763639677587896,-0.05042558264193568,0.45036933562512155,1.3437893197119424,-17.926739275242127,-21.171012595674636
250,-0.9183788944693966,0.030186753383590025,0.46764105391067506,-15.2082834252362,-13.985495214731477,-20.389974548789656
260,-0.895701176162121,0.032644469280371194,0.4849497730672243,-17.084169688528398,-7.8113356626926045,-4.1778442390869515
270,-0.855443056481312,0.12582311344991434,0.4215110982072703,-24.855724514810213,-2.224973372639901,-2.606023316317308
280,-0.8665666579178547,0.13732265954053038,0.3882840590022921,-8.004570160525638,8.072105208952083,12.71581216325879
290,-0.8519308327977262,0.08592176601531609,0.45845382776433324,-5.6600290041043175,12.168068800091879,16.07227377885298
300,-0.8625205864017836,0.03329372408151047,0.47955909192121726,-10.376445332902787,20.39471407619435,16.82309444322587
310,-0.9599862871734556,-0.16084475125880512,0.5222996375183733,-14.51253573548884,13.518198549988323,9.620722818439951
320,-0.9246795402220079,-0.11657958699656545,0.5004081934625794,-2.719942870621686,6.35867534631769,6.313845230275759
330,-0.9727832165112675,-0.0045829603312338195,0.4922169701248744,-3.4120937401888876,0.5550645692634862,7.393307818968955
340,-0.926901567237157,-0.0023467834428226057,0.48421267696753195,1.6898061536641953,-0.24109867892513898,9.623749038675667
350,-0.9268928642602061,-0.0011553985164439763,0.48615026374019105,6.95420978291743,-0.8033255052643733,8.696612858758588
360,-0.9785296581483066,-0.12547965102503342,0.42228222689532374,24.297991374044926,2.033172972024409,13.462086324822835
370,-0.9455219780283952,-0.09928992367864775,0.4604647775955845,20.744231271660222,3.0108093489654357,7.108770266478718
380,-0.9354589196562627,-0.07879427213792155,0.49765474792340286,22.136687295243423,-1.4237945025562584,-3.8385812083765294
390,-0.9426744768047332,-0.0744367022774271,0.5035736249521223,16.368012294194155,-4.351872345488443,-13.72861284359789
400,-1.0110563307560931,-0.015584846635856303,0.5186348844767669,10.373856703301295,-2.228617894040876,-17.953008628457066
410,-1.0320542535875323,0.09539576482012267,0.41379700609704184,43.29927083185083,3.5983432166400355,-5.74018443982204
420,-0.882634213277707,0.22079126160394738,0.3574245533989197,21.351463720347667,-1.0767753546572592,-19.733800194640757
430,-0.9790281654273133,-0.2987953763001223,0.02423364160751446,-6.634513259506781,-3.2801811567716253,-39.41638827658887
440,-1.005825030687471,0.2543337092470277,0.5584642782683711,5.364543018453884,2.4865176375348104,-6.520768174605166
450,-0.8715538366786012,0.1485134800849295,0.4474929420016361,38.28562177408525,0.7596229789849337,-10.539418422918512
460,-0.9341745722005701,0.28859597998239117,0.5105026342858408,21.244030123705773,4.358118710098413,5.471711377619619
470,-0.9459818334021475,0.06429450134485122,0.4077872908030257,12.010082149010112,2.0601571745273395,-5.493242944213365
480,-0.9167440076144876,0.15460951366761685,0.5459166762562965,9.552074084210876,1.3433029226399698,-6.584877218472951
490,-0.9290741138429508,0.13270031683368758,0.5155499839729163,15.229436957142179,5.245090336875293,-0.7456033338131636
500,-0.9180111049179048,0.09750643178462899,0.5437644851455754,12.954759387024199,11.617757098167669,10.00711450534869
510,-0.882692325593157,0.19397713906345823,0.41970485014190784,26.655287312650533,17.35570338103698,26.54774252545765
520,-0.9352605455886802,-0.013678591344098386,0.4729627504157437,5.817197302746024,9.985076014891252,21.51630286202529
530,-0.886890955053821,0.007851360925002385,0.4477271439576868,-12.781390116550888,14.985798682875227,22.658021528542914
540,-0.8054252618458685,0.1926605911047778,0.5180024915080531,15.646307694848444,15.70064225822985,40.06545948578147
550,-0.9340747616758519,-0.3863443297641363,0.7003386750148589,-34.09514729579169,13.924896529574134,19.17227204837542
560,-0.9721389575848205,-0.0577808019636643,0.4040540552984665,-31.139888500494486,7.025594719016333,14.468888302150663
570,-0.9207333080103272,0.16361252996515707,0.5104989059331638,-47.817969626037645,20.140259924365136,26.177461029849376
580,-0.8542654304024786,0.14196970410006815,0.656699626801021,-36.203306258685814,17.494309818323366,26.721476158202208
590,-0.940858052445324,0.018089762851298374,0.4458018074533043,-8.649248890390387,2.530183526459701,-1.086156349630103
600,-0.9573498433173625,-0.029787780401868746,0.42107578310471194,-7.023995113185356,0.15841127520878645,2.3803032832145887
610,-0.955503541606032,-0.03685451354798698,0.43040657484699096,1.7918344191614177,4.06859475531644,11.332099271816217
620,-0.9288442939245872,0.012999099847535032,0.4761110010785245,4.123850060749,0.2272968389626333,8.384924734003668
630,-0.9547196243696737,0.03113703375515433,0.443054140315019,9.212151966135401,2.521947753625539,10.157950235617344
640,-0.9470178813154718,0.178818589276151,0.2792860021158578,32.453338012677115,-2.4976585364902326,-10.761437390059378
650,-0.8494972907744004,-0.26966778125942853,0.04721598528765826,22.889732069237944,1.2885363009855868,-28.905525860613476
660,-0.9366338065634883,-0.11955815784226201,0.45078723255507697,29.05229688084549,-4.0442896147209835,-32.09680339674943
670,-0.8815391612835876,0.007296153758615,0.5440249490914505,45.15890933934274,-1.4389148277111445,-31.897354017803895
680,-0.9502132580212915,0.21471447301367752,0.5519646245422297,20.337677063141964,2.8048946347335093,-20.318409050133766
690,-1.0136222795202565,0.20172926164466776,0.43347599794585784,18.841941849315546,7.445461428072758,-16.52974970689525
700,-0.9780941008065326,0.30668364047444274,0.5446771151463193,68.33198900871054,20.08017653730782,0.35043297702469456
710,-0.8858166367374019,0.17337445886234723,0.4019402504014225,54.821222563707664,20.88007481575484,-6.024474547064293
720,-0.9729871849841835,0.16482778761207856,0.2295392261453746,30.289162883269963,19.877361429837993,-5.078424089186861
730,-0.9587643835911527,0.13706468642937528,0.710268340535855,17.245883970217182,26.43100208068628,1.852461135133121
740,-0.9969677704600987,-0.024706991217117873,0.9698556470111444,14.584736723414776,29.482351810992924,11.120203425988516
750,-0.9414385237492113,-0.12188040690034213,0.6543705368170405,-9.957865218780197,29.515995700999063,6.768427400736217
760,-0.9867900899435873,-0.142874424681633,0.5243084916461709,-24.136000401691188,22.829784698962793,9.096268447376882
770,-0.9688841669399996,0.005999017810140643,0.26335622583706547,-19.740965463032556,14.831285330450115,-0.5647945817891689
780,-0.9560516323146757,0.011236367517072483,0.5798567607000764,-32.83169678107022,9.453597954752532,-10.546505067452003
790,-0.9219634774163213,0.08530468744637246,0.49762391105664844,-69.89722376687382,13.734717705871066,9.919863280698024
800,-0.9999821163125753,-0.0003044238266095966,0.43886520905758125,-44.5922820881883,-1.208099341800172,9.715670816127762
810,-0.8512790752881858,-0.1187814933845684,0.3495242955519353,-53.29903377621351,-21.573360902450837,-9.741234321062148
820,-0.9270203110966118,-0.13469958002367247,0.00584229947537731,-41.422153133555454,-20.686774681246202,-5.886435324108398
830,-1.0856733827569165,-0.2267687006083879,0.007348495393523032,-41.910725786865534,-11.775744187272068,-12.834646808009555
840,-0.9831409046640182,-0.08820484348329335,0.26420485013201883,-13.709661238861903,-4.1117791365510765,-14.612482369411891
850,-0.9907844868425139,-0.02288261879776702,0.3373221648373951,-9.554199693476574,0.19539182499539165,-11.015714293834362
860,-0.9677944582805872,0.025000160173416604,0.3607826071368532,-3.661307773143185,-1.26478878211126,3.3631688416370036
870,-0.9672727471040785,0.04443126579977695,0.3790009857916889,-0.9619066464916006,-1.730666943984349,4.886849187183482
880,-0.9212925203039749,0.07333609063360957,0.41982816402850737,-4.637448180901824,-4.774278629754614,-1.3890116186102224
890,-0.97074950532705,-0.002454698951021862,0.3752730731167157,2.870273259651456,0.05527233925259312,3.070026509943367
900,-0.9484422072964572,0.032965396146551224,0.39548985922368673,9.757115534479292,4.440404952091336,8.450243733976212
910,-0.9627495907174842,0.03036258061454246,0.3681325635631964,8.123346162670966,4.122241893108974,5.826430657687726
920,-0.9400795867949453,0.05561580349233309,0.4088455894231639,-6.293254170517616,2.3166299251390363,-5.987164144567597
930,-0.96427523451823,0.035152529776180406,0.3872124207194836,-6.94921189378008,8.684286402687334,0.0062189389440523435
940,-0.9497927259356526,0.04250778306826708,0.3896343068987675,-11.250399393998592,5.827098253911992,-0.2718739674238304
950,-0.988847378941803,0.006417826486370817,0.3382710360043125,-11.137108206580928,0.6407163552707695,0.5193247680162116
960,-0.9685200275849711,0.028053017698184562,0.35784506197202054,-7.2523127968827845,-3.7621229201612327,1.5893705850290751
970,-0.9712335114062534,0.041068377274604564,0.38583843192760303,5.177634662379238,1.6299498771132759,3.6969112620045745
980,-0.9448802386371381,0.06882049134468674,0.40691487095395545,-1.3376790201146314,6.091911422614544,4.7456128149238985
990,-0.9813964514233718,0.01231414206914115,0.3753641894130746,-6.354956738227928,3.816451798717264,1.871496515670314
1000,-0.9437176429529077,0.055745945702344334,0.3972244216818162,-9.320602407206199,4.459761172213651,3.4675917297419128
1010,-0.9814243783884123,0.00687074428549261,0.34690474316533304,-10.740359025238536,2.9978042828485836,4.902975958665636
1020,-0.9632085857444331,0.0417821982245683,0.3658547636291926,-14.027336946390308,-2.5159793856566264,5.093146777672308
1030,-0.9596990788274378,0.03980915143514991,0.374925843327377,-7.017223237932801,-5.353449755236474,9.831743462996887
1040,-0.955403933520582,0.05627490782769588,0.3844751934686449,-4.694728150347121,-6.39860749773414,7.949980419509395
1050,-0.9677355692299311,0.03876909539426541,0.37410846073856396,0.7942681001509745,-2.7010430583093874,9.86995580698294
1060,-0.9573703577322895,0.05261504415173538,0.3821704322025856,1.4759734789266135,-1.7313638865585739,8.117248322428827
1070,-0.9355583565445003,0.07432332575799797,0.40710031672881486,-3.2907515255952475,-4.888839874320171,2.188766501057597
1080,-0.9899315719207192,0.014954190515854459,0.3546336734361868,-2.1159879709177725,-1.8148558035026099,3.1009078448857457
1090,-0.9680016653343646,0.04190632427847398,0.38671003786772923,-3.018598398759736,-2.813058234909006,1.6847670783950262
1100,-0.9520717180987652,0.05932436453508169,0.3890471339225632,-2.8908864995061787,-2.5905646098810684,0.9950507055494461
1110,-0.9693559654638081,0.03655497415222966,0.3746065941352763,0.3770904428643127,-2.2443383860522808,2.2149119970650535
1120,-0.9684267748117642,0.03086116362979574,0.3762989729268173,-4.043832589517053,-4.134134893733217,-1.0961649926953336
1130,-0.9448653944503085,0.04706597330329938,0.4074057017632126,-2.7586600208809253,-4.148748829630298,-0.963103035426055
1140,-0.9681838550889375,0.03960495158982415,0.38230930142997244,3.6985631947309145,-1.8034041087060442,4.852731892470422
1150,-0.9787218374746439,0.04906209845782265,0.37566707594978377,-1.5203165680080697,-3.8693710005882656,0.659086332633444
1160,-0.9848460847515838,0.0345322664676066,0.370667227038781,-2.904389691215383,-1.1197552433159208,-1.3863080820015012
1170,-0.9653459901898818,0.046026883927261175,0.38128568549352987,-8.131300314701035,-2.2995598198539677,-6.094187439330831
1180,-0.9612699118246231,0.03585718650264091,0.3917500358710832,-6.681176415599982,-0.7725281903233916,-3.900197850274594
1190,-0.9631534891672987,0.03929740408921243,0.3943689496102487,-2.106636636970928,-2.2039655852504496,-0.11857031922702288
1200,-0.9550461971063557,0.05052104179754644,0.39685777914998055,-2.3034581905590343,-3.881103436441995,-0.8778392125107324
1210,-0.9791988881519116,0.025021019682781722,0.37457448643355234,0.5611004928265327,-0.6234368411570839,1.342027445141564
1220,-0.9280112020742366,0.06279536758228128,0.41657479734714264,0.6735276966975995,-0.26777554673842136,1.5403971579868339
1230,-0.9365189124343707,0.0618093157335409,0.41228811726452486,-0.433035168849911,0.3584460197052087,2.093480572993286
1240,-0.9527281642058539,0.05520707266131662,0.4016968582606262,2.5175886297398207,2.9290923333089594,4.97680880880982
1250,-0.976873787023635,0.032754466103214225,0.37414696876156034,-1.5532234651630719,-2.5214880744008994,0.13285759673326325
1260,-0.962170210800918,0.045652055689380446,0.38882342223709426,0.7971811335901293,1.2124222540312408,3.177377925056297
1270,-0.9638898906928197,0.03869864873700211,0.39396695066219395,-2.10707929962542,-0.014601316489560423,1.259087447858166
1280,-0.9578731604632588,0.039481711597367325,0.3943878330510961,-3.9519786480707806,-2.600970070620846,-0.7966442536826166
1290,-0.9596130591102594,0.03819364312708324,0.3846429036917038,-0.1038862672939419,-0.6114465548877838,2.6652264002857224
1300,-0.9699869487695947,0.03664552977544544,0.38165754074348984,0.2715797384606844,-0.9491571376761737,0.22907313340216962
1310,-0.9419714357241067,0.05972267701652156,0.4076988958087739,2.870181743646798,1.965206680496872,2.3189530915535173
1320,-0.9585179167958621,0.03948544023617822,0.39386626979123335,-1.2902737154021673,-2.0917601009098723,-0.9071768754210381
1330,-0.9478651584301929,0.04769833018010591,0.39533637936327887,0.4643971225870921,0.45052169836317746,1.4660245009824584
1340,-0.9609410652677411,0.04526441567126812,0.3860720117131451,1.6212909326369969,0.559919511476159,2.7799895069469307
1350,-0.9577489972517763,0.04840224484401437,0.394923929119986,2.2875526545829037,2.256445249582184,3.619006323506907
1360,-0.9481289761904883,0.05555394439215014,0.401168675329427,0.11563848113903694,-0.05118525358823296,0.4387589932714101
1370,-0.9569237107400773,0.04809501797962124,0.3875568817892458,-0.833333069170278,-1.2713228486638533,-1.6261815540640348
1380,-0.9321979903311535,0.07940146561272275,0.4167716851518665,0.21538906889381249,-0.5327717972129369,-1.8693978561981568
1390,-0.9668549877058658,0.040052693457779495,0.38687721799937796,3.568787044739608,2.1690431741428964,0.6931205087556154
1400,-0.9477746983093386,0.053010944018552726,0.40770473504686633,1.7009731711835732,1.4512547081030505,0.35456450273940143
1410,-0.9495026562312242,0.05950000953427341,0.4015256681860001,-1.5563735601274362,-3.1888562641368305,-3.0676685677226447
1420,-0.9413060187094244,0.0711503402721641,0.40933145250670494,1.5088006399399427,-0.44209223586362595,-0.28102730313768126
1430,-0.9879769361793531,0.015742160119118033,0.361355023687136,2.8334972749228307,2.4785706389365574,1.6493778576656255
1440,-0.9545902108557893,0.050217142554310555,0.3986906308935182,-0.7921863646853021,0.19070882114603968,-0.9397936792822722
1450,-0.9843149428169051,0.022266968796959507,0.3707708510545386,-2.6566928246109596,-1.4591538810327866,-1.7974531200491926
1460,-0.9730560675162875,0.027272466873586546,0.38017826307793284,0.5401988107180045,1.0327006596818362,2.2383099864664957
1470,-0.9294864157772889,0.08118491253799019,0.4169029289738905,-0.834716118021957,0.09965478800585398,0.38975475318844255
1480,-0.9498667225104674,0.053581561814027664,0.3918477685666208,-1.5409134866048706,0.3516101449323849,-0.5873363813118271
1490,-0.9556671410283982,0.04919437372024359,0.39930435561319527,-1.9699083689663133,0.5380266396113249,-0.751803089483659
1500,-0.9942061251108757,0.010543761007731037,0.35621913989311527,0.8693322818551572,2.87070365837133,2.2150516356941345
1510,-0.9656029088823852,0.0341236413860339,0.38872649530354564,-1.746946164522407,-1.6996971223328963,-0.9144676842115462
1520,-0.964896672983218,0.040624859293513504,0.3896191305860591,-1.457422291406891,0.0069031627589928035,-1.1710243435125314
1530,-0.9579797700265886,0.05133275723348204,0.39286081702369674,-1.3864717223458447,1.4338967204950792,-0.6661979284874069
1540,-0.9621067664323759,0.04734222669774603,0.39165614204514676,-2.453186130819194,0.684083496287324,-1.4281053171041305
1550,-0.9558566049653713,0.040247905143928245,0.40027801583013867,-3.7460328402428265,-1.9679492020074913,-2.8192892222057218
