time_ms,ax,ay,az,gx,gy,gz
0,-0.7427718791558333,0.13028727603893997,0.2642605357221508,-1.8042251181630378,-0.45599290802909664,-1.1838148010388045
10,-0.7554144222603899,0.11563049284634858,0.2507958965236086,1.5517485977848768,1.0186961321270065,0.37591432525505586
20,-0.7460928586043032,0.12544149673505656,0.2605188900548792,-1.1495059286305465,-1.4235572924870312,-2.4413870599433856
30,-0.7124882178807478,0.1601340537983653,0.2956292709033763,1.4042306652979684,0.45913287167485806,0.8353396394258437
40,-0.7338621661695051,0.1401467783145083,0.27606537960933253,0.9795823172728042,-0.69776322163613,0.9576615722839015
50,-0.7648306019614434,0.11012678638439108,0.24350850840417332,1.7342502424166055,0.8628939387807572,2.1290595911996593
60,-0.7660731926797761,0.10856579183379786,0.23693429670853533,-2.5974072513091944,-1.416850843722077,-1.452227328177067
70,-0.7685179321488276,0.1063495639293361,0.2431720759391985,-0.18997207374068606,0.06825489947098919,0.40099736191621327
80,-0.7504399398507217,0.12402411277743683,0.2588558818978248,0.8637246122931882,0.7357971892069588,1.1876402391970609
90,-0.7389242608107264,0.13778339219564364,0.2636553563623911,-1.2470688234213045,-1.645807902036807,-1.0144117528198817
100,-0.7422498953778435,0.13879662814861807,0.262952746207277,-0.34608034177434277,1.3963974249922513,0.34664965434402906
110,-0.7715564701055813,0.10890401550506486,0.24014795856175175,-0.9211857729903115,1.4273671804761356,-0.7531555610444736
120,-0.772470733068171,0.10257986375850753,0.23988560347938123,1.3164025044835839,1.9032120570428608,0.31703982095381833
130,-0.7573911392189688,0.11491415202821913,0.2488172492522617,-0.08875469826509796,-0.32754491413273146,-1.0707259468040504
140,-0.7380552920322245,0.13598772709912849,0.27427412412890134,1.4365418941128374,1.434839597679196,0.39422559238624966
150,-0.7874395698757104,0.09165082260358043,0.22560521501841238,0.8631961546392827,0.5438266356582739,0.001912464563643801
160,-0.7472210904958113,0.12974186064222937,0.2636472995446457,0.5824487886007259,0.5928763155812131,0.34160706623823045
170,-0.7685492073972527,0.12731952992623569,0.26707537317801094,2.1789566304048145,-0.06394953598973663,4.062821973466613
180,-0.7735171916035557,0.13275911779876293,0.2868900294789891,0.17254136279244436,-4.992000470641832,4.766645223887562
190,-0.8323350545152781,0.10724918621033791,0.2747547802338896,3.719237810500579,-6.066606451914304,11.974059305368375
200,-0.8943416254988292,0.1106521132154793,0.3022822485636806,0.687914539281959,-18.74164329965313,12.313390771895744
210,-0.8369030415252015,-0.032318657328752734,0.30722207768655013,3.073213790533355,-27.235347514666355,5.887637516962682
220,-0.8003019066638742,-0.006900231832352843,0.3324639908531739,6.3595521610089305,-27.358644231890082,-4.715460056268369
230,-0.6608616106443026,0.14377097432446143,0.3388072155372459,11.47226040846295,-29.849257005462167,-13.145171846380672
240,-0.6395890971587629,0.14140336623989397,0.2631740811417686,-6.252540729100835,-22.75063014964352,-30.380966286528796
250,-0.6571218077932129,0.13024545126832623,0.22042455254591733,-21.979475348410148,-9.62255645661174,-37.963994171682
260,-0.6407488035382234,0.16947710236333757,0.2641844567445834,-27.509520133704584,-2.9594462852602628,-35.36258559840337
270,-0.6892059127672385,0.08906617753635297,0.2662209758468047,-25.962986936993925,0.6863233469204095,-28.905405731121924
280,-0.749373551488641,0.05496184962445044,0.2602367606266037,-14.904889257310066,3.9809705973604204,-22.17727846641481
290,-0.7641146814552213,0.14164660481645333,0.2759016271582708,-15.86352356658721,2.4019591755947496,-18.900484050690636
300,-0.7640010229602726,0.1476602805438052,0.26284297554138025,-10.920016369468184,7.836812267059198,-8.840629027652126
310,-0.8202722008907297,0.1386891422630824,0.31414838961646147,-19.934097635112384,0.7791398806745298,-6.501685821002205
320,-0.8386142930851296,0.048114702854463745,0.3217268879289811,-25.38364049650826,-3.02543371468213,-5.495300758950093
330,-0.7943826675194854,-0.034427765697395155,0.2494397484047384,-22.252146794789223,-1.9045169809269211,-6.1539089091679475
340,-0.7861573023632535,0.027280671748883486,0.17592830987857574,-18.35201696765143,-5.859728676718918,-9.582957810708539
350,-0.7361964376939972,0.07957806112638371,0.27857290168777615,-9.09009204461899,-6.449493761355375,-2.158727865630417
360,-0.7645057356621261,0.022587735975651814,0.23204178183989024,2.133998937030046,-7.47732507074135,-1.0727889203488945
370,-0.7644629527774297,0.008010874428455252,0.09672806169436395,-0.18861148623442592,-10.833700733706689,-6.56418201221345
380,-0.8147270694467675,-0.021116402129779777,0.16494039555225257,5.54889073725719,-6.930623918076203,-4.524049833390655
390,-0.7734484568084291,-0.058066281457624006,0.3821526074378069,9.758869067710915,-7.41481839951148,-5.367272912230668
400,-0.7625303860475695,-0.02473674358424068,0.39301208367527635,19.340628741380087,-5.714238748335053,-2.241391247314528
410,-0.783241035354615,0.2617542565000819,0.2146948052056901,26.590560451182686,-4.588109871347794,-0.9534110413016725
420,-0.7568843425747821,-0.14551044145875497,0.2438986715954579,6.106163416711508,-3.9153678323526035,-14.8493684582914
430,-0.7683143533208852,0.09863459917153605,0.5025354516999071,5.560669497535605,-0.6592375654569541,-22.933896651543908
440,-0.7637807391434117,0.05806199553634075,0.31665935983904797,13.527391159098567,3.0420682626107247,-16.169870212700634
450,-0.8082465161830722,0.04540600982850354,0.09506524531436693,1.7804818626624936,12.683623620063997,-5.929795767823025
460,-0.7517881144967993,0.08127511441412834,0.22409049770320413,-18.777637227536303,15.21399580408305,-4.178245632586938
470,-0.7352964466534637,0.013360313087640154,0.4635019510382036,-19.568055275015517,15.910097991368875,2.655766420862057
480,-0.7477859809265859,0.0004419492822816534,0.5253071673261556,-6.982713010228798,14.374983987950348,14.795484209606903
490,-0.7366728415752268,-0.14006602125518633,0.33412907691510957,-19.065032865855407,6.820859490590271,2.384457310556628
500,-0.696550656548743,0.11731679889023948,0.3611755858346913,-17.834756409479223,7.267349456960984,14.138082740277385
510,-0.7286261573520499,0.1301043895641361,0.25855920783194364,-16.010197193932584,4.325539737098143,20.16106066159161
520,-0.7052721598601592,0.010504631109063385,0.332880426532446,8.006823261057894,-0.29836806377739855,20.429946880962277
530,-0.7592565269055661,-0.09713994557248658,0.30836609618015776,28.084604112420376,-4.088833905625324,19.088696129600663
540,-0.7450010361600263,0.002477159693633119,0.2879462651058543,37.58673747052991,0.7228993264678913,23.885429541099704
550,-0.7815053975716425,-0.013334257522150452,0.26339448454055575,38.02273293093542,2.189709073237868,20.762353391213438
560,-0.7546795227545361,-0.01975487511283956,0.2967885003766594,31.091434610523272,-3.766138787409834,5.566169349285778
570,-0.7721120753456393,-0.009451719150923044,0.35636789116090317,26.76701144682578,-9.604240518734997,-18.229149798694312
580,-0.7372847803388839,0.07999498400384786,0.25854311276123393,18.223891510314623,-0.9299659212718393,-15.44802059281968
590,-0.7722392221763867,0.11416473206861413,0.3152232818151979,34.651396669974204,11.554309512137113,-3.2158885361142535
600,-0.7448149799077225,0.16303233629103242,0.25459926912874664,49.13632731479009,23.206265418323696,6.703691965722252
610,-0.6926256313393029,0.23380125284640216,0.07733274026827831,36.240291788681745,25.776415521271804,7.717889316095411
620,-0.7013753831227127,0.29767250608588136,0.19767943926400394,11.583501986436993,23.985449796415768,10.167995160152342
630,-0.7984063906279428,0.049659139789838797,0.3086566515785757,-8.958444619345034,15.952660111772675,2.65391380828507
640,-0.7474839720236797,0.008208256617312585,0.4808287660570825,-5.8612814468713585,14.294795063209559,17.887958808987452
650,-0.7151011264801076,0.19249352729675567,0.4196841539744488,-10.855460238655274,12.759932045759717,28.640371917105263
660,-0.7098775513794096,0.21581348917432264,0.34890057553901827,-3.4903149705503234,-1.5500816223983795,22.290413938549744
670,-0.7000417435174712,0.19124421075754783,0.309228774208984,16.763358336919975,-6.847721047068563,23.441357115494473
680,-0.6834195738995348,0.18678975975451056,0.28964876960705765,25.362695752812233,-3.749072080766769,22.48234982494813
690,-0.7583565750713656,0.05938863549723182,0.21587834779259377,12.184898177587801,-3.4480659476020548,1.3953242431182842
700,-0.7749475204913084,0.08840258624396512,0.2168601693857583,13.086633246830882,0.44887038401026924,4.231477529887985
710,-0.7286718498604262,0.11328260063761526,0.2648089210661274,11.253009355528416,-0.6352826313678863,6.732987056067407
720,-0.7680084722313315,0.1052095691908714,0.23801770721948767,11.67666691617853,-0.9190233553338796,8.026485724361073
730,-0.765032948936872,0.13015956094956144,0.2457806203864486,4.8565702850051915,0.13836190145219587,2.4608214984477472
740,-0.7583910724297933,0.1300983536914405,0.25311479346287935,-3.0260567664645532,-1.746661734856014,-4.639691341766843
750,-0.7746171342763529,0.09591161883535704,0.2377396841338478,-3.0769317081458363,-1.7876269815996508,-4.413684649642768
760,-0.785829049208205,0.08389542248181411,0.2251773110326327,-3.1106172674983625,-1.27870168336777,-3.2435616481323697
770,-0.7483986029336125,0.13120877488386634,0.25737517392375164,-2.21889237690619,-0.4839776711167013,-1.5724985248612153
780,-0.7611036721806422,0.11523219748653857,0.24308936952529633,0.4958090945551986,1.51118830119777,1.28215270882323
790,-0.72200715438359,0.15397284569115782,0.28091043372004987,-1.254717406912913,0.49677085234791396,0.40953172793987613
800,-0.7467367657742815,0.12086481971115726,0.2586028956427353,3.2907468592782902,3.441564815833556,4.848308424316339
810,-0.7556560587480626,0.11068926137561155,0.25282055808238924,1.3982899607464718,0.016834275264231813,2.4030999487119558
820,-0.74427222296218,0.12972734285026183,0.26294576061794234,1.5289582089536013,0.5489789637128739,2.1518414473964462
830,-0.7620965996097631,0.11350752365354945,0.24018735323197846,0.738521677311977,1.305761919193424,1.293847344748484
840,-0.7623057059424816,0.10979927889458406,0.24958958332960055,-2.8844271861138338,-0.5552451104320204,-1.332780334820109
850,-0.7415866645447249,0.12926291426641595,0.26548276407573645,-3.0676350830155794,-2.148978236085632,-2.0620542637836246
860,-0.7634575084042806,0.10924825524072232,0.24651186115699686,-1.837715538042498,-0.612325031868755,0.12999818040840613
870,-0.7286097017730675,0.1460819969444273,0.28119332493505106,-2.8002313359884936,-1.345060945615116,-0.45228162820201884
880,-0.7434626883674654,0.1293176693648318,0.2648201776364045,-1.6628709826691543,0.13248727878190675,0.6735466748341395
890,-0.763410285769673,0.10774557113390061,0.2434139577024223,-1.2855277399548433,0.92984770914455,0.8399993710924613
900,-0.7355935927679119,0.13998986989285742,0.2682436929761802,-3.2589458729556413,-1.0170937349878129,-1.9478215799650322
910,-0.7638054491907617,0.10708782968180602,0.23830686317086178,-0.9829698539731693,1.7254709452542765,-1.010221690804252
920,-0.7743642129311141,0.09416901880024571,0.23364413631660458,-2.3133686844042165,0.563187534311445,-3.041195049700339
930,-0.753049254497796,0.10511321391080293,0.2502976561792736,-2.20689922817598,0.5805047407530145,-2.0007793098246323
940,-0.7552706855980236,0.10912051793440355,0.2508819375119344,0.3992193431012421,0.9644638914692465,2.822308263706848
950,-0.7554065249813079,0.11328306010830391,0.25426093320720805,3.8271384867485514,-0.05414049630663842,5.699196831116649
960,-0.7876063615359122,0.08039060728821396,0.22325530532485877,6.666519577583834,-0.15714960063282274,6.281105257075165
970,-0.7918101289313134,0.0862959415319776,0.22247117218826873,4.234498180105116,-0.01009193550154558,4.566115501096106
980,-0.7654703999124237,0.11635159585904614,0.24576192344403316,1.670013960556227,0.7346429097746181,2.195016775482679
990,-0.7592516647805242,0.12321687133896497,0.2547555985833812,-1.693949791083944,-0.390349800042588,-2.0150448794029208
1000,-0.7793227122233124,0.09747362948781785,0.22870006046588773,-2.326680324460163,0.6086103145589703,-3.1565109497040638
1010,-0.7597015446267729,0.11351263603650039,0.24726163372505816,-0.47130565479146397,0.6324069133597738,-0.2986045025173592
1020,-0.7817028857258256,0.09063149710769684,0.2282948459935916,0.42548639205315797,-0.2750139691313427,1.8382956792570209
1030,-0.7802484584696484,0.09612147117411186,0.23185019121430203,1.2143058346172295,0.2760382333093434,2.6577661793944864
1040,-0.7507811233678612,0.1330771155686966,0.25863344273208694,0.6283585874645835,-0.6208835318146726,0.8585566304058508
1050,-0.7765301752551844,0.09318146960924836,0.22316921822932512,-2.3455312714626992,-2.9535265743715695,-2.29680218561726
1060,-0.7574929867211659,0.11174055421987437,0.2457140224886965,-0.18307974033376523,-0.08512898485632442,-0.09588239632047364
1070,-0.7700477387751486,0.10442817832836931,0.2341380940722236,-0.967267977940987,0.2142046247413889,-0.45634356110760055
1080,-0.7386064242857739,0.13516468113605168,0.26956394249996385,2.8882510745701446,4.175766303428558,3.9960813620784195
1090,-0.7656348491523459,0.10731557742100331,0.24554410479926844,-1.186100812742462,-0.46713276714870317,0.322976768398325
1100,-0.7510477837324504,0.12407357744809953,0.25840812428728904,-0.27879544379005133,-0.594355168530929,1.1586919802231246
1110,-0.740434622994334,0.13624542405852125,0.2646213834492554,1.9702056199401747,0.48601851048268496,2.979731410432694
1120,-0.7325040044301322,0.14705509790265678,0.2747673418764264,-0.5922953116430227,-0.736728207470828,0.49856502591954643
1130,-0.721077098836837,0.15389647407858242,0.28968744738605773,-1.1716068373064978,-0.12135760797850853,-0.1882908860168962
1140,-0.7541979592169178,0.11692024584571248,0.25854058803524527,-3.1859866773660332,-0.9734666894295669,-1.745501825061082
1150,-0.7387217576538241,0.12781555673226935,0.2702505232840875,-1.4972313862393547,0.41529621177991716,0.2383011086927865
1160,-0.738412198569409,0.12930837915020807,0.2688524216952896,-3.3625127241389037,-2.766035042104825,-1.9670243478400242
1170,-0.7178050914260724,0.15399534024053516,0.28922010696088113,0.9028971798032208,-0.2984588582458246,1.5870636180316717
1180,-0.7534069535861035,0.11774437504323217,0.24929237738806068,2.99706209326912,0.3560558882833665,3.476547659855429
1190,-0.7394769857643354,0.14041386455568294,0.27155005640806545,-3.5168950643334194,-3.8704665141435672,-1.9717048762517602
1200,-0.7568038115549994,0.11941968249569457,0.25476264404977866,-0.4402725276386983,0.5920432883465099,1.5209038051299657
1210,-0.7500823399048864,0.12464908105610598,0.25973511024471346,-1.6150291488060762,-1.0298376872102142,-0.27219425248150286
1220,-0.7463888580179495,0.13038232348316653,0.2674986991773735,0.32740629583197023,0.530445513458587,0.7147241085240028
1230,-0.7470629356133298,0.129075977311738,0.2699197522589303,-1.9625446552221306,-2.216062447054581,-2.11363327023907
1240,-0.7486069931635672,0.12416486665748645,0.2668949580142221,-2.0120198020304114,-2.9653128082888314,-2.0565577172499943
1250,-0.7199800113191879,0.15223480797811514,0.29242392563823766,-0.0759544149340674,-1.6064898080022518,0.27034004062058603
1260,-0.755813945423477,0.11503756539983205,0.25003051831827583,1.0031588880755407,-0.9616925312362617,1.5347800082722118
1270,-0.7466488264759615,0.12583618861994428,0.2637070810131827,0.8860784622815644,-0.6167230273472872,1.131734966514466
1280,-0.7518953626766886,0.1271140647278008,0.25653943037132365,-2.2942878388503,-0.9918158138589371,-1.2214518475202023
1290,-0.7306356736822274,0.13786809716106405,0.2761664613515201,-1.7123882030509348,0.9597791469910106,-0.19114858782870536
1300,-0.7217854973309004,0.1408281225516032,0.28737187617084897,-0.9329097034165925,0.35424259237603556,-0.143702395375233
1310,-0.749836051760048,0.11766723012606123,0.26210491428754584,2.645690783152868,1.608534781500221,2.312437200443657
1320,-0.7290629409941535,0.13796338391009044,0.280940562582407,0.4391170236990658,-1.1571455372436334,0.06267642998352174
1330,-0.7723258201752162,0.09578863156487481,0.23985552956730358,3.8280220732299894,1.865604815518291,3.9117138112819827
1340,-0.7460302616953683,0.1292503794931581,0.2654472553959773,1.1666746005809046,1.1462245541151053,1.448494293339957
1350,-0.7531458334155349,0.12089127853917883,0.25974078597958244,1.3318253153611517,1.2533084752820003,1.4366253216511873
1360,-0.7515738820052879,0.12088358344125633,0.2587310558516759,2.2713664447075472,2.330375974304948,2.877615047255018
1370,-0.7522227859082862,0.12043589848192415,0.2563326694011409,-2.0166925138694136,-1.7795776568738786,-0.9959382126274917
1380,-0.775158296259256,0.09688384404148694,0.23428560717282512,-0.7179695954985172,-0.8605407471610984,0.06769617337778933
1390,-0.7711753379083867,0.09841845240448599,0.23773588767375767,0.3111620908760933,-0.3048473494870984,0.6544977166919894
1400,-0.7622943939953005,0.11494916937691482,0.24298806124278863,2.073126577953559,3.5206205651468,2.7969482873975426
1410,-0.7634131179777813,0.10984636729709515,0.2474336445329181,0.5175102464002463,0.0008924013136370756,-0.3092919695078776
1420,-0.7465329692017842,0.12839362387166003,0.26448637557099536,-1.1346599211771244,-1.3722103874768263,-1.4198832514931874
1430,-0.7535203132605449,0.12215262192684986,0.2543664023679977,-1.7318405483379649,-1.348154949114763,-1.5755144757156414
1440,-0.7786517290721724,0.09738818057485632,0.23107966324524704,-0.7419422136531059,-0.6716386094394994,-0.7478325780965875
1450,-0.7391269330313804,0.13811362870071556,0.27604665393899874,1.5996776141425064,1.08651698008439,1.3047283281578435
1460,-0.7631869467439905,0.11452994132013274,0.2516400091250064,-0.0522198626641282,-0.1571376804666243,-0.31424876425618126
1470,-0.7689595748403447,0.1037365723121034,0.24150883186693167,1.0703813595543832,0.21921923532676496,0.27428604094823583
