time_ms,ax,ay,az,gx,gy,gz
0,-0.7739429293427291,0.39326629606201174,0.25745045833249774,0.5981643709967855,1.9406562584219462,-0.7582892161283659
10,-0.7583676377974825,0.40589686269041736,0.2711624366313635,-0.5098745157045285,0.7718313016603744,-1.9690490389321433
20,-0.7312326624247428,0.43521654171084484,0.30294151699303273,-1.3674633988667542,0.07367606470201954,-1.4520164151251467
30,-0.7809605924784212,0.38115489448151424,0.2541888033585208,-3.38914296353514,-3.386866779569834,-2.6241067951972687
40,-0.7674615648859593,0.4008546843864777,0.26809787370992516,0.4353545509729746,0.6750108242217164,0.7498080203486677
50,-0.7539900905927522,0.4198878538626483,0.28223352296016757,-0.28814082968149485,0.7628114561068383,-0.6813231479800554
60,-0.7500259388528203,0.42167286255002057,0.28534967783333004,-0.24758858592370747,0.6524640435782543,-1.0050883732556346
70,-0.726819652048091,0.4438271307052843,0.30822817679249875,-1.463044613457151,-1.036516948428635,-2.5555092711310197
80,-0.7715885236195347,0.4000729114443806,0.26931754599285046,1.004105270085934,1.1508974891866026,-0.24853412465502434
90,-0.7538128460558475,0.41473540979580975,0.28829271429092124,0.8166568135878132,-0.13593688132280957,-0.11648621158755068
100,-0.7314359077159577,0.43941131964438196,0.2974290325800871,0.36575878926308447,0.6740462728386755,0.8706485391937407
110,-0.7680576017204198,0.40373411356665906,0.26583300091014583,1.4233086182544232,1.9129850637261443,1.5658150100697257
120,-0.7847290005933789,0.3880380394559639,0.25112624497707814,-1.1229948001228054,-0.5860418778931312,-1.1751511162606871
130,-0.7676119231106505,0.40239839667403243,0.269522480195324,-1.152138041546041,-0.16751717342916916,-1.3779016074094208
140,-0.7419867898030509,0.42604825142383634,0.2988260052623707,0.9667810300249859,1.5276291728512923,0.3669822833584835
150,-0.7636470781088422,0.40513746493607683,0.27637578104017585,0.7167323670200321,0.5776061729234323,-0.13508766388151888
160,-0.7520097323620685,0.4167616617815868,0.28178107913525374,-0.5245883370236524,-0.6280983812953035,-1.2703386531356289
170,-0.7562222644117216,0.410170315521828,0.27900875832157584,1.2517306477736754,0.44722946260860874,0.6340767927415331
180,-0.7544904880013671,0.4116956046897704,0.2749290596147539,3.498772061538472,1.664871987351053,3.3252131910288707
190,-0.7712911373539774,0.3977636775411199,0.26461701017079725,4.522278716492344,-0.7250269339667201,3.517730026689795
200,-0.748033326814627,0.42660944261706807,0.28982457498804753,1.2829904765614208,-1.6762611451296001,1.6289904182730255
210,-0.7720514833384706,0.40947046184745833,0.26858580507096697,2.0693401387415618,-0.28329624834947253,2.6325341808394005
220,-0.7595527651336202,0.41587154795573605,0.2829731720206285,-3.384587486747521,-3.494567631470061,-2.628968022816055
230,-0.7494712344430825,0.41054608107634755,0.30501232838137265,-4.062982657631979,-1.8454040099412445,-2.2562689195466015
240,-0.8070520673285303,0.35878915964632374,0.34971644167089766,-1.1138772265513017,-10.79901584924799,-13.1155946795915
250,-0.877491043898543,0.2817955777738352,0.39446860876085416,0.2915745940787291,-37.62819752424332,-39.24727965018077
260,-0.8296583463431916,0.2271766536480431,0.317310879322379,11.511055624325175,-48.60170958547593,-39.31181919748915
270,-0.7021330302574574,0.28255845266235496,0.24721871396593773,24.177375516692674,-48.26639742357273,-37.49313132123923
280,-0.6003240957819144,0.39831962948659744,0.23588003382159567,34.41899691847763,-39.275007254750655,-28.61742111990693
290,-0.5781826237770369,0.3591694330490742,0.24529368057909204,39.78697087414113,-24.521469231131313,-23.064489988709667
300,-0.631781081095258,0.32249494958972513,0.2878703489525061,42.71067441628001,-16.587288655557476,-23.57192077134519
310,-0.6863139837874747,0.4625025038284913,0.32611333702592693,39.90205000547252,-15.614189806124845,-17.04509792247716
320,-0.6879152527979365,0.5429229751430207,0.3476568015426353,28.27839412415336,-13.463619128918694,-14.678563979117612
330,-0.6807186817842414,0.5204772383593994,0.33234591854486206,9.73320346811595,-8.036047795802599,-20.958872134656374
340,-0.6869379847450072,0.5166840564155929,0.33722589766575783,-6.171267456374281,-1.2099516996726098,-26.385372761778193
350,-0.7085875250124711,0.49777019673230183,0.394171707946925,-10.314607803788418,6.243862670848237,-22.55991920642817
360,-0.7641688117264663,0.4705033084028352,0.3877940882966219,-9.425731747374327,11.295211668456261,-14.890070808392034
370,-0.7845045586600017,0.4713433181751376,0.4395746473888288,-19.34209818176717,2.3405628902645543,-14.566136975611427
380,-0.7843555220080592,0.33636936321891514,0.27573610201968834,-17.08011712787526,-12.112591797092996,-0.4085794835159694
390,-0.6854250846026524,0.3279075547956873,0.2818203940999282,-15.369566650613908,-13.130687438372288,3.936668999549758
400,-0.695659191416144,0.2992666601939432,0.26295850757925726,-17.479170846930153,-7.678007832832606,2.729269211281524
410,-0.7242839229865323,0.2744997249127771,0.2850625723928136,-22.005966407018658,-3.0834931417875566,-2.7287329446059836
420,-0.8021842219953563,0.3176083607487433,0.26141959188349784,-22.03903915824455,-5.123741223433567,-3.8439760982299718
430,-0.8535611032757214,0.36410136557254097,0.22561068572835394,-15.692185606998176,-8.346888576714552,-0.058332826770300716
440,-0.7502108211312258,0.2880832112360577,0.3207504620406913,-5.787847465216532,-4.006768970069678,4.005785186032249
450,-0.7488221634672795,0.26878575970651586,0.34261695838249673,6.983275267966689,-9.050671011603498,18.718377840093975
460,-0.7288959300335485,0.26294872246288464,0.3497685882792635,7.526143574252972,-11.148568124630327,21.128428147197695
470,-0.7366316255146568,0.2080881000703706,0.3648189865488065,16.557957192580496,-9.325205962212351,26.669182302600376
480,-0.700510418502084,0.09790690775158242,0.4342477093067225,30.525863735799067,-0.36311817186974027,1.8983451223300385
490,-0.8881487350005877,0.1959657522845979,0.5116676943743808,41.87766091181054,-2.250747583462691,-5.334730521334901
500,-0.8147901885308891,0.35950395041595756,0.3439740412239934,48.771143256999416,9.919269378754157,-2.1296503374818494
510,-0.86615789394409,0.5674817963855466,0.4262042215150791,51.44062191973265,21.78923117221134,-6.238616896883876
520,-1.1175220653545972,0.8999813607356515,0.7376278173990738,49.54150001811823,21.088848111443763,-1.1205513592711622
530,-1.2541755122553413,1.0662941628671638,0.6714810245779762,45.17595761084457,16.417125766179716,19.196399999194355
540,-1.4240451110043146,0.8740233303071667,0.9533393996958502,59.64654992341887,11.88036128439032,4.872594470154665
550,-0.9455952448872248,1.087851847966913,0.42955971114098834,53.20874211640901,3.008387763926267,19.7007757703883
560,-0.942141504908875,0.68542608419946,0.5159290416836491,39.418725450836185,3.889656616048673,9.648577983633949
570,-0.6421913583622926,0.08425369900858526,0.1650156875556931,37.012597834457594,22.14613257763227,-33.32742414508171
580,-0.671983357432212,0.22308924000918062,0.2754742180243363,9.995179108878443,11.81173633686437,-27.122673195420006
590,-0.7436142250757799,0.3453361294446253,0.36106500435502986,-5.110031866456595,4.420922114637456,-19.64983065460901
600,-0.7614865511703542,0.3335314120415274,0.3343357567987484,-7.074684029850694,6.363467689906913,-18.591678607208603
610,-0.7574296102729923,0.42317706675250716,0.29581820876867476,-12.320111686488348,10.29687032606212,-13.067230419293258
620,-0.7735556620044542,0.4748490542782552,0.21962199415124328,-4.798842108482841,20.538545529980855,5.6638206541219915
630,-0.7546209462717696,0.27156022813647984,0.2776096690117039,29.949199879127065,21.34792136644206,29.19826120885646
640,-0.6863951611728006,0.18262445327219937,0.1916652093045823,32.608467336373366,15.994397949394621,14.754642294305608
650,-0.757425366132454,0.5125789358780256,0.23053395321801706,-41.8547144369983,18.25471483036545,17.72881230367247
660,-0.7363359077852466,0.3767115417485436,0.6068573122695095,-62.13893356098754,13.967776435812144,-0.03770133341520365
670,-0.8074730910944666,1.1335220194965219,0.3034860809852201,-34.702506183758864,8.64822920617388,27.927513487321328
680,-0.8999369041182887,0.5206940601712948,0.9863202617087616,-30.258362400559445,21.81031855278291,6.812582525978017
690,-0.8650154350335857,0.15068045677770955,0.9993482037495903,-28.972376147994396,32.94342180764427,9.072270479809
700,-0.7585701239866625,0.24449778171500572,0.18170327270274236,-27.241332357028384,21.101897389904146,28.679757857807974
710,-0.571932469334762,-0.06923281954277025,0.23405203011588738,-31.88783953749532,7.230870921822765,3.0128426504346217
720,-0.7265541465183418,0.15964016505344536,0.3355587794952901,-13.732795110407743,17.470453326783932,-7.039086008829732
730,-0.8306408128484435,0.4264836873025439,0.4692137157849102,-14.05332029099074,11.615725125564262,17.479674430303337
740,-0.7843329546877387,0.08632774940474859,0.43003652680403537,-19.699655477710404,9.064037552353609,-0.6660034142691895
750,-0.721417513757937,-0.00951524690911895,0.5261226234230811,-32.87323391628542,6.00637322090507,-8.52883559481188
760,-0.7690906977759774,0.3344808380474966,0.28530676260545007,-8.198288295209869,4.713369360842437,8.601754201450902
770,-0.7435898430144762,0.3293595284661461,0.2665847989396851,9.291097416954697,6.375585599947753,14.551872660598868
780,-0.732714846584155,0.289169671882651,0.31458288499619114,8.921065418653486,-2.2243744507267413,15.178328739789654
790,-0.7533515951341409,0.36561265172704915,0.3062278197805769,17.22166281966522,-3.8010792715597748,30.138983796680844
800,-0.7688276830036846,0.32299066601877985,0.2987447241850605,24.344725051716072,-5.035006978430831,35.65885820163711
810,-0.7487537567187204,0.27440696246681573,0.30650674363302477,26.250975026574334,-8.820484965622457,28.461092489569683
820,-0.7301539292674489,0.25413935119685066,0.2381916885571717,34.60678032891088,-2.869710499395538,7.714425751947652
830,-0.7840444554221282,0.31861306032042475,0.3442127758364426,43.16432001572686,1.3043110107003246,-18.123539806914103
840,-1.4720887731534678,0.5861054855654098,0.5367878737243745,94.8813209955084,4.70157990445627,-9.010950578580879
850,-0.873631829741712,0.5348195202492467,0.1291707419800446,23.613332135069655,0.7005014614586049,-1.966926263578837
860,-0.58825608628616,0.8204819613604956,0.2063814477138121,-35.764965965064704,0.6092761090544931,0.16560698650193456
870,-0.5860874667558614,0.5685528061443904,0.35710205082813423,-24.598943633159376,3.6524487894633726,-10.001523546720042
880,-0.7208700374922657,0.2640583369299713,0.10607083983152951,13.401094808338682,21.636753703005574,-24.163041090517098
890,-0.7884954189766709,0.628040360779351,0.0015674813506210937,20.785205387294894,35.08827042899522,-21.072013556764478
900,-0.7250574448414977,0.5803056642019639,0.36195946582449506,-2.0097738304319472,1.1150355608167772,-4.413043364805122
910,-0.758086534453006,0.40825515174792715,0.2972810194850179,1.1862576825213842,6.994459691140785,-9.833316890374022
920,-0.7722163496192869,0.3864595648124715,0.23179313398075227,3.465491429622264,45.437640591610396,2.94269183476444
930,-0.7102845828405434,0.40229261820937895,-0.014175662255554795,-2.840673569586921,40.57131723971031,5.029688057745904
940,-0.7483660563507216,0.5463691482997104,-0.15278997660474286,-12.99524995449092,36.83413670655329,14.128530267008975
950,-0.6938638168528459,0.4186406434815362,-0.10548612657077668,-4.237936170402267,33.695959581664205,11.407492458539956
960,-0.76428640681205,0.21277739232413956,0.1553650619443624,-12.522246678985029,40.083185408341734,-1.628040022248158
970,-0.7926311244692459,0.3254130055262274,0.12577585723813522,-13.47240651925582,48.108404419227334,0.24822052849370035
980,-0.6709614263181558,0.5828946154757981,0.08488034565386249,-7.761555683643737,47.576466932910115,9.253125593964556
990,-0.8438266966600648,0.21301213783720507,0.5899750939351776,-50.587286290358236,33.376025619822826,-15.229285405198034
1000,-0.9681013342854107,-0.24654032798894387,0.5333756430650766,-64.4982400629863,22.162785841802037,-21.631101998704185
1010,-0.886275005913321,-0.06876844339054043,0.44601135543009596,-87.4540935377853,16.90630135798201,-30.44050418223202
1020,-0.7405614463326784,0.5245751836331785,0.39421110217039146,-40.760412467146644,21.463023899748965,-0.23196608038353206
1030,-0.8285557820467837,0.3557340608649427,0.842410198679335,-60.47883595598263,17.584024599253794,-4.136061453123716
1040,-0.8237658291100552,0.5708827014282015,0.6391380530989744,-43.5971272340873,8.649715311147228,-9.752430211703334
1050,-0.8356876939178453,0.25089164247243817,0.19806451411919976,-26.296874522543376,-1.375307505317664,-1.6837237706740198
1060,-0.7587475056792776,0.09090526940366415,0.08635070923673019,-8.57759539233295,-13.162924580535918,8.007844029920467
1070,-0.6609307474340484,0.45380348829997647,0.23968581021474603,11.391107022988827,-15.348742822012369,19.9107989041117
1080,-0.7305229866927154,0.4026899672742454,0.30664962300294485,-12.41794705298356,-19.462148260393924,15.586664512461713
1090,-0.798086574826813,0.03354754893343766,0.27484502982463793,-24.31578258930746,-16.997936377034907,-7.664377181585355
1100,-0.7736345296333156,0.6779805960462201,0.5530849912340874,-21.068847280281922,-24.635885544921567,7.9084008879516805
1110,-0.8070410119730196,0.5348350848745388,0.3893545057331208,-4.314760793600427,-20.43059801015376,15.59817052643471
1120,-0.735797372275234,0.3759813916074086,0.13683808183149784,4.936256546368527,-32.600278403860834,13.825185292143292
1130,-0.8079724658336848,0.4007952884037242,-0.19815988588486447,12.88722014009544,-30.91358465226485,14.332488831508238
1140,-0.8034762721508071,0.4197114527945078,-0.0304657448181388,6.925961060511846,-37.50531340016796,17.95377441597031
1150,-0.7587801522118321,0.32022973930059195,0.269612059419001,5.58350432591663,-38.494290180693476,14.170049643851142
1160,-0.6808459685980076,0.2661011564377464,0.39733570286935876,2.550522312566765,-34.37183350744852,-4.673056528635475
1170,-0.7615685591957647,0.2617368634222075,0.23102494715576108,-10.10891358294302,-32.20237110914667,-18.30945568061859
1180,-0.832302400245479,0.5203418761434762,-0.0361444041862017,1.2311419782589832,-12.36708155502011,-7.676480607238679
1190,-0.6733507175815512,0.10894813496055919,0.10630258314568167,-10.33946623809663,-19.909941754337535,-27.79253449997802
1200,-0.7763129475918686,0.4321856881050134,0.15361599905403556,10.99352580433822,-3.8314630523613276,0.005338795950775133
1210,-0.7809447916713518,0.4026676896970611,0.2264630224096469,5.148578627502236,-1.8399965947208878,3.998832937967823
1220,-0.7533384426355055,0.4060589736058968,0.31472733954137805,0.7872895964191855,-9.013763783580414,1.0185792577516901
1230,-0.7404230203165755,0.4408794414735239,0.30671331665249707,2.8716950756069917,-6.309685331620995,2.123029516748036
1240,-0.7655559655095776,0.4278554633569608,0.2557421202540916,-1.215842449700172,-6.304837448646673,-2.204333205306423
1250,-0.7678096983784826,0.4145140621724083,0.2620446897566983,-1.0830858805878012,-3.336641547887474,-1.7525538797779192
1260,-0.7692612181895255,0.4067629327331411,0.2637745079028843,3.2846501411614275,1.8138388334725435,2.7213171420007596
1270,-0.7532915129681889,0.4278501166280151,0.2818754097158701,1.4501847663025191,-1.1281079702096988,0.09020119367618618
1280,-0.7666124403106541,0.42213933609507925,0.27460408216101806,0.025958873748264555,1.9476655019217268,-1.8251755025701137
1290,-0.7436636458146644,0.43460906636473606,0.2971855738062762,1.8013970773322712,4.0327789600979145,-0.9989697739768175
1300,-0.7815785665033589,0.3919068098907142,0.2542846280452151,1.5166494990554633,2.5635060982090385,-1.1607971005787707
1310,-0.7514657271584398,0.4153984705755461,0.28431642160880805,0.9625531209707014,0.1270203157637939,-0.714370320752727
1320,-0.7606917749064624,0.4130521462768595,0.27594772973040005,0.19972000044075866,-0.7805794241712941,0.7151709686294627
1330,-0.7664732031284601,0.41274812618596385,0.27067039503877144,1.3078605605670217,0.5788880093309486,2.332000317544728
1340,-0.7324580468785591,0.4458971992499205,0.3043332568803322,-0.20177405999172127,-0.5635421343368447,0.28532305825653537
1350,-0.7655339836679491,0.41333303864509446,0.27213004513992034,-0.6206603855062292,-0.5009050091693674,-0.020290027981421876
1360,-0.7475187204530346,0.4305669480471272,0.29468010859323396,0.3563931076866873,-0.7969756265603188,-0.19781071294644836
1370,-0.7339492480840505,0.4422460920532391,0.30250060750803826,1.3010054400648592,-0.46351563154239717,0.19506656048002435
1380,-0.7560479383572154,0.4214852066653266,0.2828458942783891,3.20138426152735,0.8283468535793912,2.1513993890631546
1390,-0.7883769779824479,0.39462944541365635,0.251486190421977,-0.2787643546539147,0.9143527203738041,-0.32027322031922023
1400,-0.7520312540141464,0.4289207148005382,0.28590366695510155,-3.365471206926718,-1.4426438942024913,-3.1986472324322572
1410,-0.7775455274114234,0.40267709646463024,0.2586039080920517,0.8868682307480684,2.1230237187677563,0.555757834429365
1420,-0.7627204789516094,0.41604183696673924,0.2725435687488475,2.4116678172993664,2.2269574151355966,1.712771998852789
1430,-0.732312288632782,0.44637962659415464,0.30217971744500816,-0.03596618254333117,-0.46901328946208615,-0.6750007138263467
1440,-0.7719875686090162,0.4067346621201706,0.26139660671022136,-0.44951328762413345,1.0111095284353202,-0.7183877344131857
1450,-0.7608793084357797,0.410431510974057,0.2721940771081444,1.0359277850607138,3.433558081011917,1.3378648359372562
1460,-0.7521714387567888,0.42003280874565463,0.2835520719335494,3.7299554883486774,1.9026961558589894,4.225829042705288
1470,-0.7588532385949153,0.42096075777490854,0.27845272587072517,1.1132270808498856,0.03794013559834891,1.9217311233871786
1480,-0.7719891079460955,0.40601593709534456,0.2608000418319072,1.7617826166600186,0.7985886021776498,2.754906731059913
1490,-0.7398572712580465,0.44092113025772095,0.2933813906876697,0.06266896314389153,-0.6495343921371353,0.4318004782968097
1500,-0.747898766322431,0.4314649715229855,0.28492050410258696,0.7833049931456567,0.45903629096993026,0.42104358656368
1510,-0.7731491269965605,0.40568138343131294,0.2609286991454783,1.0036710785952891,0.7328461391053086,-0.2257659700627227
1520,-0.762678750879616,0.41495653197716864,0.2738151503297989,1.2943375841407492,0.6407525312204289,-0.17765708942969888
1530,-0.7634862078117797,0.41153125886740066,0.27315973761912393,3.5419447829786757,2.621303855873583,2.6248742611947797
1540,-0.764846076918072,0.4107848689326592,0.27008923764971776,-1.527453142300227,-2.2089994533495485,-2.136114595248377
1550,-0.7485587684401431,0.42320321300508296,0.28803083414897207,0.03876887483582214,-0.66490952674376,-0.2080597017916166
1560,-0.7516128860657373,0.42533759406332716,0.28544607032293845,2.104774918690792,3.466764847990993,3.7058591077165035
1570,-0.752782733772793,0.4221784948342367,0.29019332794084696,-1.900337543542959,-0.6616406576434075,-0.23476604670933898
1580,-0.7500433924133947,0.4261452365783905,0.2879995933287711,1.0410283914984628,2.278927952719924,2.634558745321706
1590,-0.7596784012231326,0.4150600532967503,0.27547592889623945,-1.2074679332124911,-0.5714336964041797,-1.071244791067505
1600,-0.776323531183497,0.39939433063481783,0.2581746943777079,-1.3699057702380404,-1.0594068622294828,-2.440367038523764
1610,-0.7656452674434648,0.40915175893392597,0.26977640824458865,-0.8910362996203225,-0.14912094569619222,-2.2079187619673597
1620,-0.7132703557893743,0.4576655325174154,0.3215578630172128,-2.857604061920176,-1.8365642162903524,-3.69538221419264
1630,-0.734627563755349,0.43619355055748693,0.2957435961611395,-0.6423452765992054,-0.4969416919751587,-0.6341015115628384
1640,-0.7738095064344723,0.39655869555488016,0.2572952283966348,2.315577974920302,1.5386132198052342,2.758897417486851
1650,-0.773678325856661,0.39787032870303435,0.2597624133061885,2.4680158507266645,1.6445492718551011,3.234230546037363
1660,-0.7401510298502935,0.43467653441673887,0.29134795069614383,1.2531000103527332,2.118433001991621,0.19392316949131816
1670,-0.7673494927955474,0.4044773184306423,0.26730917207968424,-2.6648294252741556,-1.2564096339987065,-4.152658889269235
1680,-0.7518716165947934,0.4216127985692102,0.28441599832674946,-2.102521142898756,-0.6242393615526733,-3.006912237068853
1690,-0.7439206902914648,0.42740526950544694,0.2903565479093828,0.057527708577020054,1.3586738038056203,-0.4288237268835049
1700,-0.7552934356875098,0.41285716730168354,0.2774380429538547,-4.377146974604954,-3.5701067533807334,-4.18407548536985
1710,-0.7393491409156663,0.42985607055621006,0.29548687420374986,0.003173861731155081,-0.5257203373215602,1.0533779510527115
1720,-0.7715052294322061,0.4020780918426001,0.2667020113557161,4.7178841483106835,2.776610802754713,5.7754327429765
1730,-0.7643018435496497,0.41539042616258953,0.2736499778900405,2.797499520837696,2.384208085105354,3.3078116506564115
1740,-0.7331406471149574,0.4461758578640232,0.30153237229941054,0.6100638779771376,1.3860996149584843,0.7308780748875672
