time_ms,ax,ay,az,gx,gy,gz
0,-0.7378145615724897,-0.015838657996271436,0.3564038173636956,1.5836550364269455,1.2743244019428508,1.7596962285272428
10,-0.7314267240612439,-0.0041193140851994315,0.3600725168654276,-1.2629372441941324,-1.28156588710017,-1.7897239230374216
20,-0.7251971429526152,-0.0018553204359681354,0.36793318241267287,-2.957720824846709,-1.537695737924387,-3.2610662949881286
30,-0.7391369402424351,-0.01932661587226668,0.353100948227562,-5.071280026502951,-1.9548130104658246,-4.631335814549609
40,-0.7606095936263485,-0.046935495992941126,0.3294504374192091,-4.499570586189872,-1.4022041161897185,-2.2437408547710245
50,-0.7353453120486932,-0.02567049394612924,0.35306078644357214,-2.0088602638055244,-1.1954193222597145,1.5697991742546247
60,-0.7067431439776793,0.01397240559320274,0.3801577520620593,3.0071357919242674,1.1452530761852968,4.496398180341464
70,-0.7320919778302009,-0.006718401458630658,0.3573677173068685,3.0885889397021202,1.4678238093516127,4.182575777933938
80,-0.7028803601898993,0.023630017842295657,0.38334866595274736,3.5591902500994705,2.8774547687861993,3.7289968288688495
90,-0.737173463161898,-0.010536813534655774,0.3495499264462087,-0.03002955492047743,1.0507985088602876,-0.22665880826249496
100,-0.7548383414036475,-0.034453034841756006,0.3311490315757754,-3.0170042786424878,-0.41737922114658477,-3.170987805533849
110,-0.7398016791583977,-0.02633870058364309,0.3477420204624048,-3.542444483749925,-1.570735010427234,-3.6609686086295987
120,-0.7379133901829175,-0.02506374324666535,0.3560927299514543,3.2049350921099067,2.548917366415933,3.0145253886583463
130,-0.7240452794173013,-0.008394575064005698,0.3729091298146221,1.0409650150396947,-0.15038944287096592,1.2721580026436978
140,-0.7468945841139865,-0.027423242303802546,0.34741759508896974,0.1739082173500074,0.051236261121764125,1.7655679462848504
150,-0.7529222534855603,-0.039902694419384765,0.33595229959399314,-4.737574331412476,-4.152644188063676,-3.0378324463915387
160,-0.7351873753316641,-0.016643295403185755,0.3566613045285594,0.11348884999917006,0.3821545935585704,0.8118438133162362
170,-0.7552494483181496,-0.03402213102053379,0.33791103422862406,1.5480471212409053,0.7762261110165227,0.4989981597450833
180,-0.7495432214163331,-0.03204807479824608,0.3418349734403226,-0.3369561527680207,-1.0882148097620905,-1.5123232546501513
190,-0.7423919804113275,-0.026144902521041385,0.3501406767891006,-1.2845887972722267,-0.18258721109364548,0.3656410131809519
200,-0.727749377196998,-0.012409719422296819,0.36402016008859933,1.7254294981222986,1.4192908666134343,2.9812618093685552
210,-0.7486946606621162,-0.03201512437541504,0.34180121950859116,2.0983488674685464,0.002805805509682624,2.2643980900568454
220,-0.745914113097822,-0.026844578107374204,0.34248171595822846,1.0990117906961339,-0.9271060237288543,0.7499643161789064
230,-0.7411611694910769,-0.020164621277735478,0.34911030403840393,0.8636736223723407,-0.5947618933152169,0.22942171906225128
240,-0.7194272794764633,0.004182622474760613,0.3761056309794469,1.0854816844717883,0.4249183994133787,0.24376457315874295
250,-0.7497589613267637,-0.02625879565403247,0.3484655241571815,-2.0967487072547244,-2.286304172031458,-2.735591969986841
260,-0.7186887510179233,-0.004401368776142417,0.37305348157118257,-0.16880497173331577,-1.1675209220392233,0.23705225274684527
270,-0.706996730760512,0.003635181544481593,0.37991638899819025,-0.6180103558091092,-2.030570325557739,-0.07324769962687205
280,-0.7463150952510644,-0.029224556498442102,0.3493829956318094,-1.5043752815851172,-2.809704969855502,-1.3550204411755964
290,-0.7359767407763029,-0.015219740823186764,0.3570982048604795,1.17372782813827,-0.32163054393188073,0.8193070164231192
300,-0.7491271601109158,-0.027539936530477083,0.33934947171694557,2.7189625003189897,1.0631644498744977,1.477509976133235
310,-0.764699154341798,-0.04259876998867896,0.3213866943778816,0.5998815536094778,-0.12140361101051506,-0.9225080557110191
320,-0.7264771774867492,-0.0051719131307104566,0.3584796411872563,-2.5938752763515813,-1.5875401615373015,-2.8428055705459183
330,-0.7560320369293816,-0.04356981860423526,0.32878938005351865,-2.3518184982320554,-2.008484364348757,-0.5845849898036821
340,-0.7563889085595082,-0.033616758511636695,0.3396171347882764,1.6860184617549652,-0.3220206802080027,1.7563431652025816
350,-0.7257160293901186,-0.003244010365037525,0.3654543406871073,2.4810752410989036,0.8389807346341445,1.9445451374751415
360,-0.7371042149494176,-0.013341960866020769,0.3590375146790518,2.0065007925463427,1.0726852820384805,0.9750036895485237
370,-0.7283944915502948,-0.001111049716501434,0.36672292208341156,2.272662293823233,2.6530888367273127,1.5414020468713319
380,-0.7372876301689097,-0.009696764156632063,0.3508457949676038,-2.3675248623532084,-0.26531529976767254,-2.207783117775733
390,-0.7393827490047964,-0.019843745773372435,0.3486470181867374,-4.732124233215693,-1.475866293579275,-3.8968741332200842
400,-0.7077115267194787,0.0003944565340501145,0.37225686087268745,0.9308109007273746,4.1422090893362515,2.902835888658223
410,-0.7237459988272971,-0.010673662625541846,0.3651747297149357,-3.646435252647743,-3.737266195465587,-3.513567207671044
420,-0.7358900066215931,-0.01668642815324798,0.352290336370898,1.7649754844633518,-0.002306643324869573,1.11641391831001
430,-0.7527931427207416,-0.029877679729434066,0.3355545399591193,2.862427767352666,0.957540106526833,2.108430465111484
440,-0.7430208316401387,-0.018548199874661195,0.34594088712582527,0.515057257320499,-0.07200160423998159,0.045679742952593305
450,-0.7406916469806547,-0.01803085670388896,0.34586484256417904,-4.852809091405623,-3.4743517405773785,-4.882024818756845
460,-0.7448257323329831,-0.029765470508632284,0.3370777583463097,-3.4680125108212683,-1.2402976028013601,-3.185344101055973
470,-0.7491655910690498,-0.034606369283481056,0.3392985882331564,0.812918612734486,0.5911528299494355,0.6876644898214916
480,-0.7492137470871655,-0.03382383943943838,0.340131464578276,1.101575657123243,0.26567624483834135,0.1750787437460588
490,-0.7326329015776649,-0.013777902772331825,0.35883102919990245,0.9622093056166914,1.2039726421905503,0.40838960263414203
500,-0.7259614107760471,-0.006330075626817994,0.3659327742625204,-1.6689054248572401,-0.23443429627506396,-1.8106617779623915
510,-0.7319707529139484,-0.015543121125382968,0.3600994755672961,-5.048175844372217,-2.3308450758456782,-4.335753362957334
520,-0.7190625944707859,-0.006353351584790598,0.3743807938232045,-4.124265582777991,0.0013649130682708444,-1.62136366750736
530,-0.7369741155722178,-0.022216665458265672,0.35486515680914466,-3.602000348105801,0.20999275384255756,0.17588976836077586
540,-0.7277884654408429,-0.0054002554464218765,0.36633380460833764,-0.44571476054709314,-0.09064234041877797,2.9965772814919593
550,-0.7289043721779026,-0.005279137398541689,0.36170719939296014,-0.25723453427459175,0.8372888471058845,3.6234557996252827
560,-0.740892496533824,-0.023903971775607383,0.3562840124838655,-1.8090615680272908,-1.5400651643646563,2.791070545963724
570,-0.7499537191293799,-0.03895995609865143,0.3561497898827008,4.903286478719659,0.163446370380532,9.322337454025435
580,-0.7423560832692234,-0.029135441359651324,0.3697135918068535,11.126741161417804,-2.8080786673294664,13.825606829540698
590,-0.7485694495711485,-0.014077334217854235,0.37663503004386384,21.429257601268343,-3.280119843142279,21.89826232207375
600,-0.8271016895472437,-0.02044711933640156,0.35445580070372185,24.775451731265733,-7.029839933992195,26.687625125650683
610,-0.6907989114216478,-0.1305210414925315,0.4077405752012028,22.064949899899034,-25.016230261099096,11.08360938187299
620,-0.6688831138967367,-0.12809026681759234,0.3713658399975528,31.082339074221412,-25.192935990061848,6.34546029340441
630,-0.6953609639432745,-0.07708529212134403,0.39232331864590647,32.2205418211313,-28.57960415206714,-1.6289504951142098
640,-0.7426392595481891,-0.07319322907161353,0.3998738276276025,33.10788433128631,-27.485313500843596,-4.795457119841164
650,-0.7085761715537275,-0.041985570423573385,0.3962529007016906,23.47787590752649,-30.07428526973891,-14.124366866933666
660,-0.6622834684647003,0.013249317263505008,0.32632747705079046,6.305895873290638,-30.128748769068466,-25.519407954108384
670,-0.5801743061789314,0.04906113336640937,0.32830291494224,-11.44388086827108,-19.63828552838945,-26.821567294064877
680,-0.689360837355706,0.11921162059297193,0.43866416814820697,-12.212087238788232,-9.643461304853755,-14.054728155584126
690,-0.6948341234790051,0.08503499764478206,0.4795864954266627,-7.69515536873804,-8.170952628145539,-8.677329780032236
700,-0.7047200652372636,0.02152531800486056,0.40019001946475896,-4.869768435992115,-6.38312238905966,-7.0010696177152125
710,-0.6783554174780679,0.06448954534098658,0.38056722356333017,-15.569283165043235,-7.593081994664859,-12.164302096002674
720,-0.7518365860850412,0.03833477637374927,0.3574408482902731,-25.293246634512816,-3.2102737313691314,-11.319944305622382
730,-0.7426325206092623,0.028606141180404134,0.42504943628521175,-23.82202283794726,-3.664160164174816,-9.293646754151393
740,-0.7245716834919173,-0.04076417994028141,0.40845336957356987,-16.73292851437989,-1.0499844498115238,-6.872876035609487
750,-0.7594877130188802,0.018999730615770802,0.3289944777580531,-12.862884652633612,-2.7705718683289433,-1.3147637776053858
760,-0.6960812266067377,0.07508242208324223,0.3774090318405125,-12.527388316146048,-1.0589265282889433,4.122472408720067
770,-0.6875092947823325,0.01414099461587264,0.40247808977597843,-11.48263528572727,0.2198891077731981,7.582626161231325
780,-0.7032456986143798,-0.040330765975011534,0.4264883843601347,-9.43389718770325,0.9590166949543536,9.133813386641963
790,-0.7564199645106645,-0.07048608543902071,0.4152793650472297,-11.423891380934533,1.9252094881564175,7.1791740721591
800,-0.7519331147542491,-0.06860076133705334,0.4022582673643885,-15.608137896856967,-5.203467432818699,-1.879764537030388
810,-0.7016582335246659,-0.015928911348237332,0.3345000396826562,-10.92691352932924,0.36512131106920975,-0.3690213213035096
820,-0.7188722383888573,-0.008729877813354964,0.42485442961282627,-18.569602171062808,3.8121431196032174,0.17775187825020844
830,-0.7081152209696406,0.026425383772585714,0.511609753775205,-28.803454344456235,1.36557995315933,-1.1466042267106538
840,-0.7092467254972749,-0.005734161588611958,0.4600720633854642,-36.23822138587372,-1.413108210872147,-2.8405977631996744
850,-0.7048087982162439,-0.08677313369968342,0.3725098993203004,-39.621959433131956,-2.31196432496012,-5.495654000574913
860,-0.6790134904490553,-0.10995456958886865,0.43072628191194207,-38.0184826573085,-4.9009171428967955,-10.000195908849104
870,-0.7479005170877429,-0.12245322288593964,0.3272218310089389,-36.66047359696013,-6.20620274526644,-12.953864583151049
880,-0.7281701007019209,-0.2146694091350509,0.5128014544998659,-9.917081992682824,-7.480801647438595,-6.93196439472141
890,-0.7245575873727087,-0.14861724646000363,0.3544096976956723,6.484009413939016,-13.068740752569504,-13.305433598628639
900,-0.6746930487846676,-0.053376862802984384,0.2653864138873729,1.6022376257000275,-13.126282923374102,-21.40122897295831
910,-0.6629809296960872,-0.23599379578263355,0.3267779587793973,-11.304037739638042,-7.995879171536007,-25.839803356175885
920,-0.5868968903882935,-0.4879997427767848,0.5062908856181404,-12.383145123849166,-6.043556790306932,-28.05788989188265
930,-0.641336207096298,-0.32792614227344447,0.3093768928209577,12.18953504918057,-4.002923263917164,-20.475568839571427
940,-0.7834542334450412,0.04394842750312903,0.41460927746916953,43.60342033482683,3.707770836723469,-22.463814000584083
950,-0.7961284843878459,0.04883829518537484,0.17942681955399975,49.79722531308478,5.075438391873055,-20.007709508370827
960,-0.7632833966910901,0.08938885848977865,0.18390736407270136,40.33400666242242,12.1774190589335,-7.3459058308858864
970,-0.7415676664749175,0.09140126864303354,0.39077456705820585,27.286145821516023,17.20051707057272,-1.9770811147618352
980,-0.724553101377316,0.07313251746946828,0.694635567368534,30.472102883573367,19.54980242547402,-2.741085806358509
990,-0.7391407314003586,0.0823966829481384,0.882109156518751,47.09402147032692,18.3957904595348,-1.5639644670870303
1000,-0.7410038689080648,-0.07052850247326896,0.4169561974679553,30.13972275031013,26.561936143551637,6.385654835382343
1010,-0.7417303114618957,0.07389043855465285,0.47283080050521453,1.3091499905732098,18.87172525268394,0.4500822456677882
1020,-0.670355895918462,0.0451831716452879,0.4199704849480255,-13.615910916812066,26.73241146215512,13.416196453319003
1030,-0.6358475738896495,-0.20909549950646777,0.5343634969671595,-31.32069529974479,17.778105395649476,9.004768823197788
1040,-0.7076276593435051,-0.5156787668176235,0.9336755248400032,-49.55894460261503,9.942526124594703,4.181567784709368
1050,-0.7457354837866614,-0.48281045190167027,1.2170304010517974,-60.98002565871638,9.966424604013127,9.629084690611162
1060,-0.7708107944768904,-0.11188467820585203,0.3712661748284664,-50.9368958669377,-1.3092207592161578,10.940637178735443
1070,-0.7159397638543599,-0.3303931132000492,0.37396514751539706,-32.11670034102846,-1.5584528303794989,5.756476849079642
1080,-0.7148531815790853,-0.29434276524814634,0.33235494233069024,-20.745674059871995,-2.7473984738350223,5.1907383011912485
1090,-0.6765648651454437,-0.1446455798288087,0.4057269835225589,1.3731699661689727,-3.042115161987314,12.287327430465183
1100,-0.7103525200656959,-0.11436562645301007,0.3863198698522368,22.49382556473726,-2.696274126531765,13.08673104063015
1110,-0.7047345238720384,-0.09401077001396924,0.3838984583347445,33.91483594238193,-1.9458929797156896,10.361512442843694
1120,-0.7162131964383099,-0.09978458349905513,0.3900117498349347,35.12707856824717,-2.942525364575661,10.159031038636506
1130,-0.714422003443591,-0.1311585917698152,0.4108019718229209,38.09160270180872,-5.26471116536011,4.416099272351163
1140,-0.7447875902294714,-0.12913798798105144,0.3076031323504694,22.05720995126544,-1.714541367028001,-13.82194401376704
1150,-0.7307905942928914,-0.16057663526643248,0.26059455333169584,27.362282545887993,1.7627059372217426,-17.010571414612535
1160,-0.7275465945019293,-0.12359507287742581,0.4380838996138001,41.41953431105129,3.6631929775594787,-14.092479289948422
1170,-0.7551859738407944,0.04070361733628544,0.5044291718826251,35.77177183366734,10.45049682150214,-11.073481042919036
1180,-0.713680370166488,0.2022892234662544,0.34900541734651375,3.544347701048558,20.994380406472384,-10.754659183005288
1190,-0.7500079146882339,-0.04835615702219435,-0.03538962138767104,-26.463748042281384,27.581319236895087,-9.876926528519432
1200,-0.8036230743715822,0.002829775084949071,-0.10667190108294766,12.048239744032776,35.38550214710884,9.267620377929312
1210,-0.7961109993827694,-0.02896636758960247,0.09013883199283237,25.296837421658104,37.68962630541271,18.594239565690714
1220,-0.8277016778852205,-0.00997645609312723,0.3262093190547147,15.662659574973528,32.95741850651299,13.24024899325114
1230,-0.7747143477829146,-0.008297720681109146,0.41563803182598796,14.828487000327481,29.864062913595824,17.877906471741383
1240,-0.7147677660190613,0.033100751569876866,0.4138934783222342,1.231514423995702,23.585457440859216,27.12236167839832
1250,-0.7436865139433363,0.09079640659815118,0.3743312859638547,-40.30751401156421,1.9516168079439167,19.63300069498185
1260,-0.7411493554506232,0.09312683452390927,0.3412837089571023,-35.24798248901659,1.8001543114119432,26.23348235052037
1270,-0.7607538343329949,0.2612322373444463,0.6914914984963905,-27.243839063176278,-9.161190749260141,36.66516876860481
1280,-0.8496453962433019,0.10041152416778516,0.3504938352081873,-86.31891066796499,-13.852978288926593,19.513139631489842
1290,-0.8701922577592212,-0.2882133009277833,0.3906175365296084,-40.246845004141534,-13.96211618720001,14.31088109049955
1300,-0.7420515452613523,-0.46020571544190714,0.3738788075875392,-9.454226335645647,-20.260920082573882,1.0751876432585448
1310,-0.6819694783560156,-0.3423086793884053,0.24141661279672091,-5.138939033948027,-15.081139053960927,-6.194038232850293
1320,-0.738146382250584,-0.060586030701217056,0.32646047919969495,10.007539965893946,-2.418992449860742,-2.2113305892118036
1330,-0.7391039819954158,-0.07118769591345281,0.3190851212559646,19.197601270724647,-3.0167981847089864,8.900500796397115
1340,-0.7488488459552953,-0.052239522057664904,0.33170928882353284,17.400963280974096,-2.759040466076234,9.860335647121012
1350,-0.743691043352682,-0.015784685864652887,0.3491584983922726,11.499016251394972,-3.0503525809717655,8.097420747700422
1360,-0.7374133468445745,0.0044475040482447065,0.3570151783642373,8.990660483557386,-0.11352168389018247,7.346313728957263
1370,-0.7409267126027906,-0.005712719456561455,0.34971549865830204,5.765544604581229,0.8239226752095073,3.65508878809377
1380,-0.7746167158698042,-0.055317049754143824,0.31120511296353687,3.807153530967359,1.3217206344063865,0.4663032726540923
1390,-0.7100006272684186,0.0002828724128198512,0.37231799935769966,0.45258571497214417,-1.6600915137542236,-3.465467881990265
1400,-0.7417024056714367,-0.03594176836493688,0.3451631903881999,4.292735876439765,0.26953966545730923,1.2452726072952363
1410,-0.7198786131617246,-0.014797032769385467,0.3674322936726058,2.8320533607042493,-1.0200008630667547,2.2158282074739177
1420,-0.744103427052829,-0.024706521567104258,0.3449678146012483,1.0292494853446534,-3.6498019491905183,1.4399875976289191
1430,-0.7463576283833889,-0.030568076628761,0.3408082306481847,4.346900502396065,-1.5993212009917783,3.809067334418514
1440,-0.742929516668674,-0.02983938676011073,0.3408669320117751,3.3389931982109347,-3.5167721949695063,0.9002759798268385
1450,-0.7451104348358167,-0.023141043499227548,0.33896853764225354,4.733348661618498,0.756651808493247,1.764534840257892
1460,-0.7335852635268378,-0.024228841831855762,0.3560662694785271,-6.218180609689511,0.8733696029865224,-6.159206080877192
1470,-0.7593131030467556,-0.05224448751820722,0.3241626230965619,-4.700316015868246,1.765724650555762,-3.7611794468531494
1480,-0.7563446326191354,-0.049682985849108977,0.32708349487226385,-2.5013038315009997,1.1584690872555987,-1.0009113573518484
1490,-0.7356112044122803,-0.032952125145574725,0.34795336415647093,1.2133097164972764,1.80503500576032,2.8041965340382493
1500,-0.7222985657930698,-0.021494947101976573,0.3609556664712148,0.7347072321459882,-1.1925090923869164,2.382317616688882
1510,-0.7378567875066123,-0.03301263634542868,0.34300998580150927,4.306663546827243,1.0917596798910363,5.993965664245453
1520,-0.6984889180569883,0.016513764397206893,0.3807522349281364,0.30418335099821014,-1.6340695066794402,1.7977405669101518
1530,-0.759203575018805,-0.029929681139010785,0.33384351640731347,-3.2327780998541122,1.113814574504504,-2.064487460277698
1540,-0.7675284203485107,-0.04660661165263487,0.322446703002223,-3.193567613881422,-0.38678747014268233,-3.4040244061635505
1550,-0.755423537798538,-0.03723758676758301,0.33581777874345414,-2.505309144851311,0.5216651917839816,-1.2735860612672325
1560,-0.7517589745524609,-0.03518565399786653,0.33852250964586517,-1.3406990756416484,0.5264051710573484,1.0997115339899137
1570,-0.7457088070209075,-0.031970379045052524,0.3414782480785556,2.607065147032475,1.9589905698062413,5.129401891056473
1580,-0.7233251361832611,-0.012068002601558044,0.36132792818303294,0.2462065204066981,-3.233161999028434,1.9005503033640219
1590,-0.7528910312494186,-0.03930722319465233,0.3316996383309894,4.643168820980179,-0.4723432145374469,5.08717921495713
1600,-0.7460079166330158,-0.022823410875069186,0.33743473116239325,-1.956530271192589,-4.0077704965688765,-2.517158400877636
1610,-0.7374784847350299,-0.012023193636721692,0.3542442555661647,-1.1032135878013312,-2.7229724222924405,-3.187457099170402
1620,-0.7285475766857173,-0.005221158042105914,0.3666058231196134,3.318484726565691,1.8029401234399618,0.4163360691207054
1630,-0.7465198748754279,-0.025022492489952863,0.3427380708999971,-1.5143796667989058,-1.574645155035927,-3.218278410452059
1640,-0.7391816357732609,-0.0213490963552545,0.3432661825691431,-2.248349243508158,-1.1964492584357926,-2.104857464955513
1650,-0.7050859292662794,0.007119343042840405,0.3772576434548888,-1.7262083430130772,-1.5144016035499421,-0.53049278276112
1660,-0.7291822716784447,-0.016076693742197105,0.35699082047338165,-0.950105065654339,-2.607071795537071,0.7470367700586884
1670,-0.7803849373308361,-0.04878042611677624,0.3171394620654301,4.139469005151257,-1.9417667350157748,2.88138881625937
1680,-0.7416751105778968,-0.002784451559956966,0.3529428841351655,6.592005323090024,3.2187635912328085,4.772020439299575
1690,-0.7477845866065447,-0.013974759095881865,0.3420794393646906,0.6184391751667002,0.45390630447247365,-0.941009365278026
1700,-0.7507330297879848,-0.02377050085779754,0.33917643449564516,-1.4057535331366822,0.8841550677281375,-2.7005239879530656
1710,-0.7351013165193885,-0.01434182720979719,0.35659811566711197,-2.3270082952630133,1.0169637058275964,-3.359788639913498
1720,-0.7085790754713568,0.0061837754015383085,0.38121458191069724,-1.887403233376814,0.8155120161214315,-2.381000845918102
1730,-0.752325803748263,-0.03249104880692152,0.33681724782578815,1.2429048989681626,2.394849021745572,1.2195244872675264
1740,-0.7426640980545686,-0.031343046611705165,0.3452283944635222,1.9632498720530336,-0.5180356213577391,2.329338778372509
1750,-0.7415242632488145,-0.020227425344956425,0.3479350706446947,3.8348671574458493,0.29067472699422614,3.348871925369563
1760,-0.7539698224841656,-0.015345672585904042,0.34241114262250444,3.1555101690649643,1.4227416473793926,2.792052311592661
1770,-0.736997240752975,0.0032833989294714146,0.3619316827154863,0.3520302281279022,0.4541057669627771,0.39863805550012676
1780,-0.699169286368627,0.028466190218291477,0.3951901226509555,-1.765234960942363,-1.381065989449687,-1.9725250805376455
1790,-0.7375088874154271,-0.01311730442007206,0.3521806338039405,-0.21054129055692772,-0.20521681377525358,-1.3144300001019178
1800,-0.7256481373979071,-0.007779516832584916,0.35656359844820745,0.9881794710785776,0.47566362844753385,-0.6614817243145984
1810,-0.7210679635189494,-0.003811648539545874,0.3622056983567727,-0.9444568349652198,-1.136322175501807,-1.8928119280566906
1820,-0.734056140209126,-0.014190047464351352,0.3527910422532404,-0.6903194067447608,-0.7666266784399154,-1.0609175453879058
1830,-0.7590618096199996,-0.04379442928460156,0.33105072754414633,0.9146649099083909,-0.3930738286913923,0.4553061093312659
1840,-0.7771637555116803,-0.06417778901444149,0.3160592018900055,2.762812583154315,-1.1198502315197374,1.1250436826284154
1850,-0.742071074175889,-0.02329353095553027,0.3529336591827045,8.709138729060168,2.6052078991663743,5.657380596319943
1860,-0.7584135383154751,-0.040231463000816745,0.332953683089364,6.208510666637618,1.093236521056681,3.8453346702793603
1870,-0.7234569337291927,0.003042209510637807,0.3704948367192035,2.735135605920619,-0.22621993241207067,1.1258632005559577
1880,-0.7356364387951039,-0.012001147752442183,0.3520424095256862,-3.231608592840753,-2.5058087761547205,-2.41478377566682
1890,-0.7247645017163036,-0.0013615217985186914,0.36162029318497035,-3.38525552550362,-1.5352334375115082,-1.302698072453842
1900,-0.7584880802530871,-0.0365404768506475,0.3307133966040746,1.0591280222590256,1.3715262684776577,2.869605555561026
1910,-0.7606859884597186,-0.040904427948701465,0.32909555572824845,2.2653719778520496,0.9411388465309188,3.5949625393654254
1920,-0.7226235511763726,-0.0026512612858172486,0.3635483851863665,-0.0067116403242153955,-0.8594301910211948,1.786058263031875
1930,-0.7409873569498101,-0.023168175709856652,0.3515508135603763,3.5198272097609946,2.8332598104934688,4.971818685635436
1940,-0.7434924424856575,-0.025951709408591803,0.3508157578073121,2.622515498044371,1.6854966416029193,2.454745063720714
1950,-0.7357023495500192,-0.011730401900918602,0.35251988045936816,2.8920478565855765,2.995843290215155,2.6953432047410333
1960,-0.7176817722756612,0.005133970062054998,0.3653126703529672,0.7549589372937067,0.5336923744424136,0.3891699215184255
1970,-0.7157990714776347,0.008684713023731336,0.3703586401013168,1.9034437070808385,0.9637122781195819,1.2958454634381298
1980,-0.7332796291028335,-0.0033260734399633346,0.3602495505649919,-1.1049711247948553,-1.8380769341200884,-1.4691546854459052
1990,-0.7453302429345007,-0.019574043906060504,0.3473606789378465,1.0424358917273362,1.4652329739875887,1.6310726103204054
2000,-0.7286767092319797,-0.0051870281561053385,0.362256987448141,-1.6113018268012553,-0.31602667689760955,-0.0016168099068067932
2010,-0.7093768439791149,0.017179508952468232,0.3781311892509959,-0.01967677885850394,2.428038996013098,2.0434629783909166
2020,-0.7193683880680631,0.003455471574000545,0.3688573157957732,-2.6729951005191186,-2.2683147255742715,-2.59012204374946
2030,-0.7409882048655316,-0.019560523293678703,0.34770553041456087,0.9932940158628363,-0.21647381413293804,-0.3583023381082038
2040,-0.7436668006050565,-0.023034121929210685,0.3443984769905252,-0.45634983497436865,-2.0060735808972603,-1.9796595124064131
2050,-0.7581584354924212,-0.03908546429921951,0.32989673413794446,1.8843140852195546,0.6687356827075228,0.8754716752523407
2060,-0.7170303890101666,0.007980973295001576,0.3733790909983159,-0.269130915460605,-0.48311438732797907,-0.3558811904507025
2070,-0.7187557852340805,0.005326948823624439,0.3750205505093229,-0.48065276882503705,1.0092781055013627,1.1160252027634694
2080,-0.7236412094363719,-0.0023432573973039845,0.3659886819864031,-2.4573269535115987,-1.129577608954053,-0.7490190607143882
2090,-0.7622926399217328,-0.03883186082834135,0.3273072396421767,0.3225088201709174,-0.9573077512556631,1.0450996237250414
2100,-0.7320739198230977,-0.007106937199430337,0.35675868337275085,6.021685665920886,2.7120071357356617,5.345445809128851
2110,-0.7465622700576269,-0.020109468650297425,0.34038179740366975,3.239338794830517,-0.006940053832655668,1.5591320153062374
2120,-0.7259548748084128,0.00493224943343,0.36163637222628786,3.4417977106006514,2.0096243448959723,1.7952901399903882
2130,-0.7207480709991202,0.00877991201304558,0.3684981972073243,-2.186361040396063,-0.49795669461691094,-2.649338442782794
2140,-0.7253868411539933,0.0007700046842273947,0.3656038677634233,-5.3019751111235,-1.6443565190063778,-4.472973067311679
2150,-0.7264654304036494,-0.008869274463082819,0.3604318260576705,-3.0071925367660737,0.12530732928080004,-2.0729565422306355
2160,-0.7386721441354032,-0.019180221678060674,0.3500913154748685,2.440196678773963,1.8079554461424248,2.3749430265792646
2170,-0.7319891455476818,-0.00547918073364456,0.36084066026180994,2.112680409444802,-0.6087768067459958,1.430860157879691
2180,-0.7727575850452957,-0.042378376142906696,0.3199677021695309,1.3104862572694933,0.13513105565352201,0.9829931755199997
2190,-0.7525593714289531,-0.02326307905841704,0.33603353098216737,-1.0613827753361305,-0.37587040352765655,-0.8904801608430433
2200,-0.7304652134760337,-0.004142289973176928,0.36513722194374326,-3.747574717732121,-1.829744769721743,-2.7011613194742976
2210,-0.7364476405303408,-0.013525505185842744,0.35296037855498513,-3.3851196860968127,-0.7682466433386353,-2.128848162673248
2220,-0.7439826499270321,-0.023083949826348003,0.3460213003832151,-3.356895231364702,-0.8390297333090655,-1.8700578258338036
2230,-0.7148931219622714,0.009204195260235297,0.3736728304833027,1.8031496756945504,2.7806556535278664,2.645963434101113
2240,-0.7401753346770112,-0.014114376210171354,0.34800679989584454,0.4633403224458934,-0.5945555835300036,-0.30767582217260125
2250,-0.7370543825538348,-0.011155537480478267,0.35856923033532223,3.5976911884133327,1.5666830492724715,1.2264806933543881
2260,-0.7544407130654837,-0.01604700576335051,0.3535775044682926,1.2895904877479085,0.043865953486962615,-1.0466879433702259
2270,-0.7665252466439224,-0.034574625664287685,0.32612050690609096,2.0786675927706453,0.07915753992467942,-0.3385754136589547
2280,-0.729238357294022,-0.0037485255760569616,0.35756891499377896,-2.122311366770542,-2.684751446883866,-3.549429078122353
2290,-0.7504122165450067,-0.0278765100056175,0.3368702217422696,1.0640637772432908,1.860110912085293,0.8735742600405261
2300,-0.7358247109927666,-0.012591467662405358,0.3563250119376703,-1.3064107900296662,-0.730627943083285,-0.852572112347244
2310,-0.699387433828899,0.026597349078934872,0.3962709762446176,-0.004425744171013574,0.18868893149280236,1.0760699775335758
2320,-0.7239770134092105,0.0038509532080845347,0.36879857808383715,-0.6117948539997308,0.8179364524428951,1.6932746619906158
2330,-0.7542301138319062,-0.02970271019358461,0.3347810160120059,0.1481418839425388,0.9760672448820062,1.8149405450114806
