time_ms,ax,ay,az,gx,gy,gz
0,-0.8812146316513008,0.014333260328179316,0.5138128439197897,0.8519858396509152,1.6589202109597898,0.6932455178871861
10,-0.8624204241227362,0.030236632782326807,0.5302287753900836,-1.7562904058642073,-2.340463919830743,-2.1731287666754713
20,-0.8740731409645952,0.009538166360659546,0.5164934861422107,1.800170438337995,0.004761456918616236,1.0258494298403604
30,-0.8519403611045961,0.03325199697502521,0.5320831777531639,-0.9107152502793724,-1.139783817765772,-0.6198144951588602
40,-0.8720493714292779,0.01823423355509838,0.5119694889801226,-1.8628932718396651,-0.40323073765385486,-0.5693166467322821
50,-0.8515701946378774,0.04059756590680878,0.5375323519697794,1.281539267467793,2.8693453341578627,2.6757774305521385
60,-0.8816851916788216,0.010185213051198686,0.5064958473777512,-2.312564088712162,-1.1812136332966552,-1.0305717176558606
70,-0.8620576764009187,0.028197987780585118,0.5276011662361543,-0.5413562317871858,0.7462851351607045,1.007424094805118
80,-0.8882008559495026,-0.0012126735848102428,0.5011745120379775,-0.9531951610747635,-0.3902426393196185,-0.12021371359494498
90,-0.8668918734867337,0.018822486673522095,0.5244344639373747,-0.37324165986775426,-0.11213347510342886,-0.08260834192700994
100,-0.8519726179806975,0.03195344970183547,0.5366875808456142,-0.9379380154046864,0.05212802579478534,-0.269400801756166
110,-0.8544682469386861,0.03271509261430655,0.53170127523478,1.5154419356530702,3.030963383239008,2.5629077068026924
120,-0.8688360570115684,0.0218479521820222,0.515510470504921,-0.9145637014438472,0.4170587717684858,0.06630770697431831
130,-0.8668179475336449,0.020096786209307733,0.5140706558969156,-2.2810995875769757,-1.247766236369122,-1.50054360240504
140,-0.8743548321960409,0.014036394290694826,0.5084127496194502,0.1658762394088542,1.3248118356370604,0.7343390376859085
150,-0.8387795420004109,0.05086213087463164,0.5522148667558312,0.30537126078617494,1.2380959032300916,0.5835129894945958
160,-0.8828444280313711,0.0032226320401516385,0.5045128313324906,-0.6560364489626773,0.5148634627122533,0.24570177050854108
170,-0.8659510673492956,0.01976814542099075,0.5191766799267611,0.79930850713541,-0.023750331542560676,1.8398895394127448
180,-0.8485710385019855,0.03818975976782896,0.5369838388209409,1.9300388132701336,-1.0954094225857904,3.0473238849905844
190,-0.8704541361716052,0.01997110255694811,0.5228376676840805,5.02231823494501,0.4008845099633317,6.36645180883846
200,-0.8831350467261232,0.017066381624980274,0.5282535333816744,5.886623912585164,-0.6693472647911384,7.369518625067355
210,-0.8885250299601163,0.02725209409195958,0.5411747880481055,8.977295214553958,-0.42568250409152786,10.393171076873815
220,-0.9030983910595163,0.05293124439939377,0.5613576643428936,11.38311807860627,-1.834025772200729,11.594769690460563
230,-0.9557434834435832,0.16676812553051554,0.6930695945989019,17.417030102518535,-8.360441068592595,17.683082935723398
240,-0.9231981395104212,-0.005130675913465773,0.5861992052327529,16.682994201708766,-18.02099121201268,5.099655335868575
250,-0.8198756096806624,-0.012257094171951711,0.5447087251467352,12.213662919840377,-23.016415876907708,-7.484730450173866
260,-0.8126917534594884,0.056115887698342484,0.5290443935263582,9.541307251909783,-23.44776875895082,-11.443473028058737
270,-0.8079327556955408,0.05434676875683816,0.543910249488691,13.374568029712588,-21.37308045614562,-8.922261989640825
280,-0.8505007877296197,-0.054027523462493114,0.54485210578646,17.962061806809913,-18.573114665261514,-5.179725191408195
290,-0.8407026696056529,-0.048954893973740005,0.5658684730014009,17.67335134236139,-20.576943719030822,-10.379270110104969
300,-0.8130005516076952,-0.0032616549411592184,0.5990444351594413,14.598866306162906,-23.428880976267823,-14.968044430160663
310,-0.7695948347770107,0.02372381797787628,0.5517486202897877,-6.721089093650411,-22.42397534911073,-28.071766278004517
320,-0.7361957786297295,0.03549963011036278,0.5360872026067043,-27.494896598567745,-19.385697878779695,-37.016971486731286
330,-0.756408790134958,0.0096249773279261,0.5650023637011493,-33.0042299886869,-12.261736681755274,-34.32275899860498
340,-0.807133165523398,-0.019102944615402816,0.6214316609225639,-35.765930697109525,-14.279236522140978,-35.32638915262374
350,-0.8825820182988978,-0.041057410612172565,0.6410417922405576,-29.31179536595854,-16.274991081290974,-30.38604755138116
360,-0.834479211692348,-0.09966504011290186,0.6340537252485349,-20.465704691743387,-17.9616384569624,-29.71366233664999
370,-0.845425505612946,-0.1894315404411127,0.6369728800960992,-10.552147175815652,-21.05644685930365,-36.10341459339885
380,-0.8317495534526479,0.00768978253990522,0.5757224154706548,-14.116814739005381,-10.55776261853435,-36.66300626197674
390,-0.8458464612714893,0.09107364225958989,0.5747278238334113,-14.523626805942964,-2.7354351687924057,-27.023747166181355
400,-0.8715972208530547,-0.0034777311665362028,0.589872735638292,-5.913623749324937,-3.2206665218927073,-17.825097357669147
410,-0.8407344581242279,-0.04586887066630704,0.5893329024693224,8.562756765633058,-3.6902039699089157,-14.522077959284685
420,-0.8694173495763257,-0.0010595668234348946,0.5649049620676069,14.687171817051132,-3.340220106045105,-14.054028325215542
430,-0.8439419082978601,0.05096877094244261,0.5931728161557888,17.697380261750116,-3.118074454198528,-10.71958039517145
440,-0.7700548292150184,0.009891071798665559,0.5891999774897438,13.90047677621437,-4.399315108332853,-11.333085348029678
450,-0.7514752508611581,0.05706198851794793,0.5447535786778163,17.783301026676604,11.802912919550595,8.826308986417045
460,-0.726553962180448,0.0535838138060514,0.5623716326949662,10.463982756084908,21.56982050230835,19.490774890242392
470,-0.7668773949910987,-0.025818952390002987,0.5824818712760659,-2.769282557298242,23.283853488186267,18.645665257478672
480,-0.8512395185063579,-0.06788675533801318,0.6028752843956539,-5.0878381041792355,28.743458465779465,22.70615247653662
490,-0.8777250923696667,-0.06075647957833053,0.6662812681643436,-10.4879707317696,22.916360525499762,20.6943126981665
500,-0.8952048365732844,-0.0998602434230687,0.6378344420739095,-10.429720623014246,16.35621573697362,16.03136833374299
510,-0.7997403505064743,-0.09932830528169631,0.6497038110813511,1.2980467233912658,15.750382174474012,13.77959964691069
520,-0.8794600574491259,-0.05847301546042222,0.598462061486271,1.4847570470488658,5.912788851701981,5.399597091579725
530,-0.864639682332053,-0.02217176166983491,0.611058881909833,6.255475461192341,2.789225103335344,6.420158590306133
540,-0.857337165644041,-0.07136198524049625,0.5982193107715634,11.250191861882978,0.8191253094127685,9.320387654461427
550,-0.8439110208718412,-0.07087157989125148,0.6100820173584182,10.726980656062716,-5.10223383009469,7.08024200690318
560,-0.8353956770557678,-0.048805664063782915,0.5894999102448933,13.098183152297628,-5.165004015441622,8.150792978923823
570,-0.840120826946333,-0.02146487368865222,0.5670319645402723,19.1616331857838,-7.943096747014151,1.3127424885841905
580,-0.8555913539738832,0.01013488302780492,0.552353629499147,31.769559844705388,-2.6888785234181687,5.07675027819224
590,-0.8609355859539606,-0.03499556559809573,0.628734491871473,28.784696130555,-4.776807056545133,5.327746651240172
600,-0.8966082834875465,0.055254158634965134,0.6018398178977181,36.32508304839679,-3.3574143542686623,9.392512648005933
610,-0.7376357768872583,0.10366063349276318,0.6884912877342927,29.214963185892625,-11.477488570564613,7.643527230593852
620,-0.5812711649144859,-0.06053607349538898,0.8395636869807069,3.792424015659346,-25.071566930617003,-1.925038808275821
630,-0.7570911830448565,-0.08605110682899636,0.8299464566307476,3.0221868779383274,-14.921456660637748,-3.3277360814280073
640,-0.7558005021973104,-0.04720400039237328,0.6209466360473855,-8.080513002180773,-24.938199874920876,-13.368520844546266
650,-0.7976950880913113,-0.166003146350729,0.8013117775336328,4.441667369673604,-19.105441022302152,-7.9787933288785915
660,-0.8265642105068639,-0.1701675205216931,0.5948113543621323,-14.644444077764122,-12.118889855282237,-15.04733178625546
670,-0.884351824279141,0.040756951847910255,0.4590198897354571,-17.82509586202696,-12.30430576451137,-21.874474364705005
680,-0.8610804015772099,0.014572168646023325,0.5710476177553172,2.571037758622584,-11.087631461487579,-23.17525045883477
690,-0.7915554095151783,-0.13871331636251172,0.7311924745441833,17.63049155619231,-5.997614326633666,-20.41868407087435
700,-0.8591997998543414,0.2172011820388147,0.619317955130778,4.008725854252839,-2.0405176844367343,-14.105109284611965
710,-0.8389508571456463,0.2792381084015986,0.5362972559518652,12.283754845358308,0.027861017305290448,-13.702262554220274
720,-0.8077937445985611,0.010371081803403709,0.5808690802696768,25.764699971872222,0.7635671551409506,-13.766262025024778
730,-0.8190010035323882,-0.012780930867655901,0.5634284279293111,4.2441785838880195,4.4532255031514945,-19.14895129334983
740,-0.8711428067696527,0.038494397647360734,0.42334047406837794,-4.633773945084561,8.515315130100277,-17.13049039947261
750,-0.8912129406184877,0.007715092679595997,0.4069195332864961,-11.337327609330709,11.084286067537468,-12.762355827658919
760,-0.8278928334374787,-0.07225622911366104,0.5619211047244029,-17.02747871306226,15.297782116769536,-8.723697860202083
770,-0.7376724577381115,-0.035889775454760374,0.6225620898560015,-11.532220227872166,19.13396637117912,-5.104066785925086
780,-0.8970807861486575,0.060894154466266406,0.35690091692870557,-26.083778801241706,21.074338409092327,7.742248134960375
790,-0.9130497801965949,0.007137025587331633,0.542035886131226,-14.812441133953584,14.016506538964874,12.231435260047624
800,-0.8683388011362312,-0.018413210759393357,0.4417682013736693,-15.66198284345383,14.393620477902843,14.869628752910458
810,-0.7916188630280069,-0.20938840522299657,0.8738404904959756,-23.005402263892393,18.923039624358765,19.128660119632347
820,-0.7847515526935142,-0.16470977676033863,1.1202704679441835,-28.520640164067377,20.876835040285606,22.764794331107822
830,-0.8122530539092461,0.1100667243088652,0.911130108113474,-24.29509510285147,18.963138788693392,26.163675123255832
840,-0.7674414981014701,0.20015887840946803,0.7198961141662644,-8.048798411364471,18.20805009927609,31.066212672459415
850,-0.9274001659984937,0.09478950297078713,0.2916193250752962,2.3062640252930775,15.361831454808891,22.80300754136768
860,-0.6999878345983438,-0.030779698599974967,0.8091674996649869,13.024076230512083,9.326408903203372,21.990111584600967
870,-0.7623163657771114,-0.019289861633207995,0.6885869793897856,42.83375742038353,2.4848445863511133,19.152497679376182
880,-0.7889711225800881,0.03890693544220716,0.6220835191750794,44.61054906249769,-2.444659080530156,18.588144542331218
890,-0.7819640559527842,-0.04010639435228871,0.6291282777021856,37.33566752457701,-8.740177411818246,15.904785991770616
900,-0.7480050124841479,-0.07919086430931398,0.6351120450691496,31.31163366770176,-16.373829093708306,6.939035105615951
910,-0.8840533329083476,-0.038366480198362404,0.4380690571730972,26.78066846133136,-11.022375746841325,4.248543821099114
920,-0.8815832717287259,0.07543003181980375,0.4700421970935608,2.9167504404050195,-15.409898137522285,-5.642736312749332
930,-0.7833242936232022,-0.060612024721121996,0.6177647587332428,28.39634031513633,-11.21978292613436,-9.729983838112929
940,-0.7507850339024766,-0.12939881435938408,0.5238448066910262,38.12119167212704,-12.271433301340702,-21.6230367180303
950,-0.7372423401820319,-0.21181460229736904,0.5644760016465159,21.912721029850537,-14.410789971989951,-29.17710008676411
960,-0.8106715034001791,-0.08185347493478745,0.5508230306466432,6.267559300659914,-8.55335955440051,-26.999186024340176
970,-0.9097906277124923,0.1531412687112484,0.44627303452863704,-0.21128429192918574,4.23028907253701,-18.362085483932045
980,-0.9647407932452915,0.24509533856030807,0.37596202664591205,-12.284656112505564,4.209885130210385,-20.984996032990004
990,-1.0141347730776678,0.5265404500134411,0.4275194012018312,5.364942988528007,5.482827557097868,-18.017823582745937
1000,-0.8949564735895503,0.34285627622146736,0.5130928528304792,4.441258473389338,7.340854452163097,-15.081536465775892
1010,-0.8231217091905667,0.1448046070349715,0.3527977212724774,1.2526338955899918,22.587791456316882,-7.574971010298372
1020,-0.893762267243012,0.10341782672678139,0.07684602110820299,0.10002453662069677,35.95826883854784,11.99392265283484
1030,-0.8196610596364413,-0.012543574086034966,0.6402845563383779,5.932828092585639,35.58051567400625,19.369984530660133
1040,-0.767433797622078,-0.1015316368248915,1.1993662009340094,15.963405954750428,31.140435454081512,22.47895677035148
1050,-0.8218732424404812,0.11742329729377535,0.7944496237018406,18.819684543550196,27.382292450275873,32.38910369336801
1060,-0.7419948189524037,0.03874437523547605,0.6189725675701311,19.960760536362123,12.497150917597148,30.05717194325603
1070,-0.8283715027024262,-0.07094689851822981,0.6824125897408378,-2.8053992646994295,18.719189465378854,17.26637115867405
1080,-0.8304771049343429,0.4481162507157351,0.46225543669867286,-54.50976061136574,16.13037378851812,26.205144293982077
1090,-0.819100591886181,0.40148549642353765,0.2840225876474648,-69.2378747955754,6.2114889026242395,24.795912289521375
1100,-0.755919991000286,0.24077205024596507,0.41205652314160923,-79.65929909293348,-5.369086478855449,20.00865038545409
1110,-0.7302090856556028,0.13268017097246626,0.5738589592906342,-62.82009422364819,-17.32713903016524,12.441040767353707
1120,-0.7294173711793963,-0.0027058335831228204,0.6357219799173022,-12.610991166433237,-17.435824903632184,7.014225937665162
1130,-0.9929816183764214,-0.5128699901659985,0.6835690474867206,-66.63090496170385,-12.193342036027193,-8.893501452173044
1140,-0.9447153300038313,-0.22577692507212463,0.5276476489457009,-43.647508758507115,-6.2003193777435595,-14.349708296191151
1150,-0.8760286259492749,-0.04172000611054684,0.5115596809224409,-12.5488421822488,-0.9081756656945856,-0.03270525544422054
1160,-0.8401073437369662,0.0419455024664762,0.5416172210727837,-1.3252556224436236,1.2536944861985797,9.279386531208276
1170,-0.8515606753330139,0.057671539559065906,0.5368747750454366,-0.703056199316644,1.1927016229324872,11.886887824342159
1180,-0.8539662901095806,0.07673241934317547,0.5380029852247075,-1.661744612668532,-0.012895617446888386,9.799902368828436
1190,-0.8624607846841377,0.07760563912938709,0.5389804975609845,3.2596295566896796,2.583200246014948,9.694714505082462
1200,-0.8360750714079315,0.09773303708859706,0.5704207734725857,4.561118107973745,0.6527359806489175,4.95609735164138
1210,-0.8476604264281216,0.08778642242205133,0.54636892879497,1.9717168698376035,-0.3406339311963966,-1.438330433841362
1220,-0.8292351552597176,0.10641782642603281,0.5706792377369426,-14.940492683385859,3.8814662456944813,-11.385065901681724
1230,-0.8681009094172295,0.03756422421240636,0.5346212951453923,-23.423863526865418,0.7450839514426071,-18.04888635667773
1240,-0.8611772861891686,0.028242915912525646,0.5437183164422947,-15.967334500922426,4.566136903345635,-11.419216201375159
1250,-0.8638338660353714,0.024221366273941138,0.5295811391446793,-12.307489583533373,2.7159810925220436,-9.045740616909201
1260,-0.818181943252624,0.07137789162498803,0.5547506602712675,-8.981601642402765,2.471185740232295,-6.688961767669982
1270,-0.8524205832208553,0.04569093093372183,0.528031324159084,-9.267895055241619,3.715957097572011,-6.424060947312003
1280,-0.834973458323299,0.006275292193190099,0.5414731995565701,-21.87780317826376,2.9203649581243436,-12.934580853547164
1290,-0.8849424984037304,0.009561063822217226,0.5160405934827614,-6.668207448186162,7.81345159152342,3.6285211076324106
1300,-0.852606151862461,0.042439805611518375,0.5394422756952082,-9.923194743587674,5.530493790253969,6.113796604118433
1310,-0.848837893388158,0.047389961281368666,0.5430969477117614,-18.470779847825618,4.400043541987921,7.48024638138458
1320,-0.840386889720069,0.032788103024997024,0.5482946594299638,-21.5843005022207,5.039908090757949,11.175466446791788
1330,-0.8611994301242769,-0.03220842494726696,0.5202056914706459,-13.671954684979683,5.3961747593944605,16.442934786698736
1340,-0.8700167770052348,-0.015783644373268884,0.5404490912850365,1.543319231063954,2.639246605445433,21.72079490530573
1350,-0.8544430428152414,0.04107930499922714,0.5320397242633762,8.139438212227212,2.768816143939675,27.39386307291241
1360,-0.849246301909477,0.09326757669949072,0.5431768299282566,14.094799709138957,0.39754874972561516,13.549127008090693
1370,-0.8799804157304189,0.07572564344557033,0.5208525263200269,6.5335419762803735,0.38860318336638944,2.6205054080090777
1380,-0.8432437685863303,0.10397659849838725,0.5585266084643179,-6.131730650331063,-3.9446074234249866,-9.056525861799237
1390,-0.8577020965777296,0.07023473451615764,0.5373076865456307,-8.687817953298211,-2.6325614564209783,-11.028700296535243
1400,-0.8424981012504805,0.0669408608982655,0.5429830721608527,-10.810503272796591,-3.610981946974321,-12.345040174245948
1410,-0.8710160721697439,0.03027917964358019,0.5101569470661385,-12.191402162903904,-4.172563844578199,-12.289452735140028
1420,-0.867175622560291,0.017652319681857254,0.5327429951323859,-10.195592966907782,-2.371124809200078,-10.184921231941818
1430,-0.8642675841369539,0.0246264107280061,0.5259982578185403,7.876574609877013,-1.3408181105981054,5.1327694381842015
1440,-0.859960280358372,0.041301465649316804,0.529620634964551,12.413842617644507,-1.3692261721797667,9.452568106464266
1450,-0.8470527836207692,0.07131796680338019,0.5464708379768453,11.92058341688673,-0.0002457434924535429,10.03483600166114
1460,-0.8578763087412444,0.07244142844073112,0.53655737958708,6.814375466427685,0.5103609575354067,7.481555570075714
1470,-0.8756621498832201,0.0575487708514454,0.5170157486664348,-1.1006207849633847,-0.4594908466790723,2.365836788968894
1480,-0.856024407406976,0.0751610337654127,0.5374879160659785,-3.5036435216441717,1.5315107560863443,0.17118185389598017
1490,-0.8534339718860968,0.06423269681845317,0.5270019132998122,-7.000943916891781,-0.5582201262073054,-4.675016208725358
1500,-0.8800723587749338,0.019791863850742743,0.5156664114241738,-1.0261990376031789,2.7926874542587092,-2.3363343591785726
1510,-0.8682699165500414,0.02856931436803302,0.5236526979303449,-2.7753616355118673,-0.4393615099153013,-3.828831388111806
1520,-0.8483268968121476,0.04150258031961281,0.5388388269881524,0.5380796912887125,2.238736332215242,0.7226758083955751
1530,-0.8578125749590013,0.033208322047452665,0.5274531913982413,-0.43271792756553795,1.194671468026556,1.2068494041802473
1540,-0.8574599278053423,0.041454516642534814,0.5291686112671433,-5.293416049684954,-3.349583557822303,-2.13739901985532
1550,-0.8550673594973808,0.03929550876649345,0.5361554259808626,-3.423648638284406,-1.5808091920593306,0.5147263413740433
1560,-0.8873888999394297,0.009251497721707212,0.4987654144337969,1.9649711624903363,0.0869860106119329,4.224551617283359
1570,-0.8945964710027843,0.0033680294521888504,0.505213271152582,6.504606380663245,-0.9696896580092225,1.3888194356198698
1580,-0.8619385424678337,0.043262178006105434,0.5369612172532424,9.028227223016579,-3.027491176412282,-0.9849345998489294
1590,-0.8443223299866531,0.05004089486196256,0.538832975876866,8.13130757300841,-1.064784930447746,-0.10846718790246884
1600,-0.8360628182952978,0.05878616167152475,0.5554775123223283,3.3090020407289646,-0.015269078493322319,0.06279622890128822
1610,-0.8634513596883152,0.042505912512507196,0.5437647539383846,-1.9303451993893068,-0.5763169690631142,-0.7276780664845329
1620,-0.8100739499665174,0.08643186279546403,0.5734041604017169,-2.6106133917339998,1.7454205473245241,1.5223308532287958
1630,-0.839012001451356,0.053039782063074914,0.554290211799196,-0.14281292869011297,3.9624719289148933,5.637318881484077
1640,-0.8731044182972467,0.035031542556139564,0.5244257673186508,-3.015426929065476,-1.3336283586235032,2.269411654097807
1650,-0.8828768173669342,0.025553425622762523,0.5178553602027047,-2.956642453782172,0.5148522982275902,3.5461132917975817
1660,-0.8883535863896632,0.019678444280271858,0.5125622967983225,-6.652141891959588,-1.8335805195420134,0.37392476955306586
1670,-0.8694228613382798,0.041062080303739805,0.5277635853606119,-3.9324976322871876,2.194585443415912,3.2503061679158494
1680,-0.853256227243263,0.05983027185440423,0.5375348205990438,-6.351409071340546,1.3930669485667797,0.9122411370489057
1690,-0.8637568878928709,0.04816772566077929,0.5217455768985424,-8.388014816030289,0.6485746867265139,-1.3591315239766155
1700,-0.8603872630021435,0.04593193595742699,0.5265349661711384,-13.51080214213967,-3.072113670871426,-6.669694230307454
1710,-0.8749873920114924,0.0071383374461984825,0.5087700864013903,2.9904537863483642,0.4707935972901123,2.218134870802601
1720,-0.8436950315711469,0.05659345318617379,0.5468287646816133,7.291506475503441,2.50621683395377,5.9446890585766585
1730,-0.8715856092328697,0.03764348995449259,0.5167370385929131,3.2636048387298313,-1.355344010115102,2.15789350128333
1740,-0.8560976613218065,0.052582465397561944,0.532578424211415,4.025636573788058,0.8481646000900553,3.269441790497281
1750,-0.8538174468493533,0.05057152043199492,0.5387819050839201,0.5952012562563487,-1.0187079605266576,-0.053143808532048364
1760,-0.8523171381793678,0.046976129272235934,0.5398795939384184,1.2928718828350436,-0.4630266703397581,-0.25946922468371625
1770,-0.8588945978187551,0.044884515638136176,0.536415800827723,4.263674397290707,0.6999451380711957,0.9740850857576538
1780,-0.8551068102049867,0.051502872123462856,0.5308350356575925,14.684351015433288,1.2217888739650609,2.932227620627012
1790,-0.8620324617000833,0.048454182021116,0.5317254317671742,16.153187713981705,-1.1993538349848136,0.36245647036693396
1800,-0.8717286051129268,0.034654707003974154,0.5265511588038346,15.2346165154575,-2.1148506523141046,-0.7770918344040751
1810,-0.8460750246357663,0.05685812651167922,0.5510952018733075,15.861672625161185,1.9168925557592265,3.1820934348368803
1820,-0.8422126368106121,0.06683615552937447,0.5511670569182355,9.568949578858998,-0.37141596148295697,1.1369145338277349
1830,-0.886792778350269,0.03636701800026754,0.5046203804287169,4.263870801816976,-3.863584851229734,-1.8944176720345869
1840,-0.8603971910727615,0.06849860439589249,0.5352066999397631,5.97188950543402,-0.652709728629101,1.097108323143489
1850,-0.8469120092573204,0.07886575807439963,0.5428415657305025,-2.025791542564848,-1.2139982364211601,0.5646238605832412
1860,-0.8760887800690843,0.04669053133306066,0.5191650410135057,-1.5351150867099148,0.8983978501761467,2.7643532692883355
1870,-0.8514500475263119,0.06690723716131249,0.539387180772293,-2.283886219924225,1.4768483782827382,2.682906954093074
1880,-0.8579655738170734,0.05994259374908197,0.5333013314788146,-2.351032492218592,1.7751949780164968,2.3767682641832946
1890,-0.8440348490250839,0.07824780196080766,0.5514891851310312,-3.7897362507294856,-0.5109760118890228,-0.16383735592360726
1900,-0.8384699344028201,0.08681142504454692,0.5542978460117203,-2.2712843975081305,0.12693427071303687,0.4875965668368597
1910,-0.8852550516676758,0.0327576638757789,0.5008381631405204,-1.2527970928384333,1.2802385613607796,2.184586929181725
1920,-0.8655080381713357,0.05650688899505886,0.5271353030586027,1.584621455265197,-2.4496796732414814,-1.1207237270758914
1930,-0.8493674666308403,0.07238170789576395,0.5423645266839102,5.062885293491709,-0.36444250123919286,0.8963255307449264
1940,-0.8534857735539657,0.06466249651034632,0.5346967745670549,7.141067091328086,2.2535641255439067,2.666468122451919
1950,-0.8682446915324891,0.052775338409373984,0.5202110684707363,6.342379044567874,2.774937699166807,2.286936154464125
1960,-0.8288343777214009,0.09581357919084817,0.5646665490016015,1.0539947307799709,-1.0494296711749458,-2.302278089248746
1970,-0.8627992642500939,0.05806404139566686,0.5344862897132716,1.078828538315498,0.3795223380205653,-1.3418520754147358
1980,-0.8758962236920125,0.04145851978945883,0.515505884137296,-0.8419733057864867,-0.25464368878285104,-1.4413662323785936
1990,-0.8505359559081765,0.07526648956535209,0.5435900867334245,-1.4608406063246038,-2.9407667150780803,-3.9066706120035968
2000,-0.8671649389636249,0.05377591137690724,0.5196411139061252,3.098995816206438,2.75892551252335,1.6152307774524324
2010,-0.8563277222918686,0.06625111380324358,0.5334467110799987,-5.141609913180787,-3.8259189009307746,-5.503522116282465
2020,-0.8400938552168242,0.08678466783536251,0.5486298883421927,-5.581032038692278,-3.317647626497419,-4.933011701962775
2030,-0.8612977712473807,0.0637197463897816,0.5264786475620625,-4.886091444023364,-2.8402351676774957,-3.9428231376730154
2040,-0.8556431676698875,0.06187973349996837,0.5394084324527355,0.3048999710808382,0.8962088574369865,0.5591298762490529
2050,-0.8602698691659582,0.05908371746826182,0.5417906608670063,2.1352907653625213,0.36576104332297926,1.6146354339126312
2060,-0.86044782159226,0.06909165794831237,0.5332913899500894,2.5525622219834823,0.7589399897402247,2.5011247960578817
2070,-0.861360285274108,0.0655837038928344,0.5327591429736643,2.2203071090935245,0.9711489182027742,2.4632450001178428
2080,-0.8617645939012443,0.06616759324112549,0.527853150694557,3.904723285377524,2.154318268730271,4.027654755388797
2090,-0.8249148603391204,0.10412338959795747,0.5610656692302312,4.127186852254263,1.6065255917574262,3.4612891951706204
2100,-0.8466638589152503,0.088318759047767,0.5429336923080637,2.7242880193480805,0.23543351367489046,1.392924144735656
2110,-0.9229550202447259,0.016836795407103984,0.4715964913528963,1.814268075165446,0.028271756782741686,0.2892753393642583
2120,-0.8588689811771896,0.06456015303714534,0.5269212473004428,1.3324593841911183,-0.7667993415219077,-0.8603271855462287
2130,-0.8413448245725332,0.08175580419127733,0.5527809445651554,5.536678647905121,1.643288616337133,2.3706692075520692
2140,-0.8473333917036505,0.08488288141398824,0.5427151232733985,3.8037829229409468,1.067992447881938,2.187660832410199
2150,-0.8463923914993594,0.09024864886748699,0.5432229789306913,-0.8448801300792271,-0.7773936335490189,-0.7371432430534367
2160,-0.8770092951069274,0.0576552004711533,0.5118053864907348,-1.1589105114496,0.002270280470994701,-0.6094522633264166
2170,-0.8713143736005959,0.061762235309957766,0.5187261031034094,-2.2366385677570992,-0.8463618714482104,-1.8685679804596431
2180,-0.8815915184580846,0.05060710879298059,0.51225843293148,-1.6790191074536658,0.5894027623943132,-1.1508447090925733
2190,-0.8837139091686822,0.04024506750680214,0.5106024672958006,-3.3285867584754083,-0.5125625631471635,-2.5819629619024447
2200,-0.8552058659453208,0.07168110911149574,0.5363624283283203,0.006620011077551502,-0.23798526216846538,-0.6335006700913989
2210,-0.872327773026966,0.05431127403362042,0.5178403820986042,0.20074694896979073,-0.48504128762077964,-0.9206800309003861
2220,-0.8531824523057955,0.0754043023270559,0.5386030861140981,1.8175733161509275,1.5131892874064128,1.4354776540715797
2230,-0.8425700328688895,0.08728102735601925,0.5524399075914784,0.5882655856203294,0.4943629447112287,0.66102401242999
2240,-0.8439912606035928,0.0840407710014143,0.5551798237773832,-0.5236242773739972,-0.5003051935257325,-0.6078879900861888
2250,-0.8386120257778918,0.08654503998985418,0.5622775075879456,0.559993542108451,0.8826623708671073,0.28729566374572324
2260,-0.8625030727984052,0.06301585683083089,0.5339175754961656,0.31617151478977856,0.9480897567987474,0.475498171020581
2270,-0.8552734835030158,0.06706497402949509,0.5413198277575109,-1.4444283181536932,-1.1362972566269456,-0.9151216920709391
2280,-0.8624396046108762,0.06318598999466085,0.5330952599632405,0.9570768537723295,1.2178352507052463,1.3345644330486
2290,-0.8550789621922111,0.06710117688550091,0.5374818498196745,-0.34091214903713474,0.40552770082140543,0.06865656647071061
2300,-0.8671168870628312,0.05485089415634749,0.5265412938191946,-1.4909619365107887,-0.7781502866820684,-1.208900155456286
2310,-0.8877932802396269,0.03558512976761588,0.5044227774237013,1.161713443656705,1.5550506803801942,1.3877470397573484
2320,-0.8355169617069539,0.08934552201002402,0.5535510872708088,1.587419130480984,1.572198775876299,1.7306044943083743
2330,-0.8510121251171334,0.076957808339319,0.5430644826426343,0.049438892979489224,-0.041543938629515,0.09845981578799334
2340,-0.8406021051371704,0.08391300850312228,0.5575500962939832,-3.382547468265492,0.433183183776792,-0.6310333765420664
2350,-0.8560859992896582,0.06061908308374805,0.5378514331547577,0.6913531167520344,2.403676451843291,1.8789827345059054
2360,-0.843622242973061,0.07042579122249189,0.5497990976417123,1.7357834856955874,2.7716153435463458,2.040923236253269
2370,-0.8780407976199376,0.0386217283551884,0.5115976785135641,2.5218245156742105,3.177983281970255,2.6096666381810896
2380,-0.8721199503110569,0.05031636346274043,0.5172425924537175,1.3411013589103127,1.4919994281698887,1.6808747102413328
2390,-0.8233168728744702,0.10423092660415614,0.5691552952753985,-1.7075845929053348,-2.0967536279543784,-1.1466108352040125
2400,-0.8465880196791,0.08134521596074762,0.5446900835685008,-2.0760287022575143,-2.378584765143587,-1.573092071550804
2410,-0.8762091444757333,0.04565797555570822,0.5172198821824193,-3.35808967319796,-1.1836088040979038,-1.8032970900730414
