time_ms,ax,ay,az,gx,gy,gz
0,-0.8841780551389091,0.17263916220351114,0.220408551674711,-0.8805739224303338,0.9138368188999532,-0.32304163615487413
10,-0.8811940572850461,0.1765506044487463,0.21560266156132707,-1.3501148458024506,0.6635047239306315,-0.9826862023646501
20,-0.8887874933725048,0.16122178135363216,0.20754843501083425,-0.7660327454263705,-0.23353995410015746,-0.6649947012687832
30,-0.8643488716245937,0.18940333999177741,0.23268680874286574,1.8032840813231221,0.2564845192298044,1.3471089839556747
40,-0.8875978212274048,0.17029108838141327,0.20512111057685997,0.6681031367680011,0.9601998424102711,1.2501182519803835
50,-0.8753767901572823,0.18347880458634072,0.2237449847159502,-1.3824954195988968,0.3399969149011636,-0.27030940369313394
60,-0.8576709179474762,0.1988638857347285,0.23993890266096665,-2.2386012621074243,-0.3041678597595052,-1.5964693819198474
70,-0.8726626204448906,0.17909649154317756,0.225595874558679,-1.4549729333819004,-0.47630432503182596,-1.0467209773621575
80,-0.8508760095645951,0.1983762440370829,0.24512395810463367,-2.262815606756751,-2.5558966076288967,-2.12733968580365
90,-0.8464614589456345,0.20873570936918237,0.2505173040271007,-2.7864071763073084,-2.3816446130467135,-2.4705366306510483
100,-0.8776152124174746,0.17072675761056783,0.22130311680081138,-0.3039489257472192,1.5749667122257287,0.89265004890077
110,-0.8889376939823552,0.16630838140187768,0.2125782510646861,-3.7201110206115864,-1.5678439371141655,-2.247664997298415
120,-0.8742875431013271,0.17667414466175133,0.226317654808664,0.4466955888080093,1.86770755789444,1.7348954657508695
130,-0.9360145590206222,0.09872310723355565,0.25257374065218346,-6.859463188773014,-2.2920962197057753,-0.23206813362753786
140,-0.9670915366430349,0.03636200303139848,0.27644767554341665,-14.805297030393977,-12.816323952807121,-19.54859330247428
150,-0.9628425552040611,0.2509476692501489,0.31968526676594,-12.6183121367083,-21.621706040809894,-22.11904852428079
160,-0.9821721360834488,0.2047519185640772,0.3280303272505674,-8.983063166973754,-25.56686484058522,-5.396993289041093
170,-0.841349320875476,0.04899940050259288,0.31027317574863833,-5.65717588936249,-34.57964418736543,-0.5486807559759779
180,-0.7366564385595546,0.3373508514363909,0.24234297283611303,-9.923904238353263,-25.71328628834827,-6.863678615503238
190,-0.7722889061146436,0.26630008524181,0.2790697374768752,-12.563217622442673,-16.353006683261807,-3.698228084259507
200,-0.8295668803147686,0.19162770422342593,0.2687337693265012,-18.656547232230913,-14.028124788712542,-9.501573939276131
210,-0.8146206817712163,0.25845076835328484,0.2863860834194658,-29.946511627179262,-12.694917557349651,-14.825961735329933
220,-0.8227366162969848,0.27183510033074404,0.21201727060632447,-44.4138070994124,-6.19847684061069,-16.524539532217254
230,-0.8163467277447519,0.04606634817040475,0.3256607127502452,-52.459743061400935,6.153957044598954,-16.92629751564485
240,-1.0368257077871332,-0.007347799072387102,0.27290852450366077,-37.579095289460945,-10.477816661655861,-14.239977353128884
250,-0.9166164121445207,-0.08587366196385754,0.13114439833813296,-25.12965117646322,-6.228514361874076,-11.489983869599602
260,-0.8454399276307172,0.03465858882316304,0.30193181433657534,-10.32257138173715,-9.958602554064427,-6.576833439880868
270,-0.8593181662443324,-0.025600253978453873,0.3906795399339472,-4.827935830641824,-15.177322350975121,-4.567419800111655
280,-0.8820016861354651,0.2388000636860658,0.11352647884717018,-2.7996550222672365,-10.101804510128717,-8.398981607656866
290,-0.9033395098585991,0.1069828530060395,0.4539680701263259,8.5749980607826,-10.831368572160388,-4.547710753836454
300,-0.8378309046586485,0.13540313950842872,0.41190463449342984,-0.409593343180945,-11.069106359303518,-12.301663114470555
310,-0.8662230527028834,0.05193832251165868,0.15378531026872358,3.4159113502943264,-11.803977967999439,-12.042945453805425
320,-0.8299380022365581,0.1283366388013683,0.2149013636903273,25.775731505021763,-24.147696432308127,-17.94477929650022
330,-0.9149800075963923,-0.0014189474142688452,-0.022256561518270115,25.91277737047215,-19.52124973977538,-26.03200825570374
340,-0.859002089114497,-0.39733025290523644,0.26980234997583846,3.649266837506886,-4.122653055997632,-30.43133444584109
350,-0.9851114716351042,-0.07089195401748681,0.19930814633663904,23.92363263611308,-11.543187557563847,-33.51284451388955
360,-0.8171850243796105,0.1700463288446536,0.21769715059655384,10.848129277408354,1.1999202603692427,-15.566623507495239
370,-0.885462564038648,0.39263499905282956,0.14416345744120757,27.8925053184363,-2.5303193445549685,-8.688594178051154
380,-0.9358728379709957,0.27464072183883237,0.35133161342788183,12.595338977186033,1.5007323418806937,-6.502869778648959
390,-0.8479377937863015,-0.04818872005837691,0.2667056173242072,-8.642162388699616,5.053551065054705,-20.497810307149678
400,-0.9741884807823555,-0.022060353206135058,0.23820313563814183,4.414352744315643,10.566134332775441,-7.753425592030592
410,-0.9340665926531257,0.19274070488821554,0.19298319416071583,42.65263559230589,13.37125280209599,4.294715433947385
420,-0.8724895449247551,0.13356401521606068,0.31324572924512495,37.87543446460278,16.090698408012575,8.263113406901677
430,-0.8437810135846155,0.14473294519557975,0.14874964886638714,12.055041961426788,15.491509557622814,2.578745129247954
440,-0.883521411993895,0.006452873838880036,0.2855440502095618,23.249339595564752,13.08878993512442,5.622995942800992
450,-0.8594749997014749,0.0960535432960278,0.27846738863136083,22.175626183284514,14.798029922593969,7.420023461495423
460,-0.9065518555133236,0.08924856722840908,0.19165768742468042,10.469208346822745,8.052021898634157,0.3336059012991873
470,-0.8414047853812489,0.16232830411186677,0.35690579599681105,15.364230808941462,14.779843029816494,6.531079632473558
480,-0.8800914244837089,0.11664541670329714,0.30462907430029434,8.526673654892617,11.796942410212571,7.054733412057355
490,-0.8240057738286436,0.2238692616513871,0.2015347655617843,14.667763332492077,15.313932441843443,21.119409777082325
500,-0.8427131354414308,0.34340746021311336,0.02652316596728508,0.10126395080120543,19.698283583049538,23.607141391419642
510,-0.8010286324688156,0.31442649970580605,0.18505743428579532,-0.1762363117542851,18.956745891529177,22.2817796998188
520,-0.844594907935809,0.14517538431745844,0.15690436960387674,1.1231004955656192,7.069124846997686,6.332612946287363
530,-0.8572850274521534,0.33725121402972436,0.3024222755304905,-0.4695519876335834,15.876086255297146,19.931261829973334
540,-0.8128510555931768,0.009599447862370762,0.5455534731481357,-8.774978232681782,3.6461906636715207,3.1630281063971553
550,-0.8368680023097901,0.08492826505691074,0.5141927298313478,-8.164972520121047,6.057812472672915,11.113847775800803
560,-0.7805690536675031,0.29972623736049275,-0.012610728485084774,-8.243157487233981,11.265734231975497,19.542335347719003
570,-0.9227714253385538,-0.08057014718333086,0.4005629834684444,-37.90724834584393,15.549812084497958,9.020012915450138
580,-0.9226513511794927,0.2512214447638816,0.44227242330558336,-34.42081803951531,20.861503551771868,18.53199172881271
590,-0.8510481073737586,-0.1296078018444246,0.40240536200937127,-17.87873318781153,1.7476258910909446,7.541067881271521
600,-0.9305999956690749,-0.21049428021242658,0.5375773797653863,-48.033015527037406,8.210400982873619,0.5646895436204882
610,-0.9119748008144385,-0.06793037685872906,0.2844262741146283,-32.35379723242835,0.9299647526491739,0.4212840070928927
620,-0.888776332831416,-2.100222136449184e-05,0.19544483472999596,-17.331216941203827,-0.7627694585661652,-6.434223476672905
630,-0.8782114223845362,0.09253249241664865,0.23968533152051252,1.1618058588853657,0.43321488719116136,-2.7623494582803683
640,-0.865836333595008,0.132847439751311,0.2600200531037756,4.875874073875069,0.5167673168382643,7.858938867761255
650,-0.8955583343506079,0.09683682016845716,0.24013643257056544,8.194709827208241,3.0162004997378897,7.545776860951453
660,-0.8771031714291554,0.10886625863901556,0.2634877166207885,14.995642764509252,3.725268776930203,6.087141367788767
670,-0.8932110284228892,0.1403756745523864,0.21206898572460584,16.620464432583645,-1.7747457358129082,-0.8111374780283728
680,-0.8840461632398655,0.10883380907421779,0.30626634569706684,20.919532086511914,-7.404429454212995,-10.972752367106931
690,-0.9376278733961347,-0.1384732927538391,0.5406587183119184,12.459521522367941,-8.566791690203608,-23.582967206150244
700,-0.9085812257203264,0.3507631626304241,0.24555626329617933,48.35725541665139,-9.601097816761223,-10.014778184849153
710,-0.7612732281798077,0.3479829878646642,0.19676649304815425,34.08931923065444,-7.668510158507845,-9.133334303075282
720,-0.7128653611672159,0.1853745577080522,0.1580912078922264,25.359915423676696,-5.781645845611349,-13.052016139768957
730,-0.8478118730413503,-0.17706067235387013,0.2574123651240284,11.858074387244734,-5.381921096059494,-21.791079979180445
740,-1.0121012521259465,0.09839116907977138,0.27049116438054654,37.569613746606244,3.025873539296406,-5.628301880896844
750,-0.9075257296426491,0.012486300738840756,0.2534718310690642,11.931572427615144,6.681424318004091,-8.960354736729771
760,-0.9009474227737713,0.06977418012993483,0.15038252096471377,8.032236689893164,6.699313521144331,-9.932788787178211
770,-0.9746766341547619,0.14268322104798833,0.26016829624974747,14.796394881423257,7.687766289914727,-2.5112468277132454
780,-0.9114830311145429,0.1507204355996948,0.15559320117938158,13.09594646662281,12.337917939033435,-2.86198888677161
790,-0.8980990557315828,0.28124008426753194,-0.07823727256796514,-2.3207555880633057,21.808757880880478,-5.507577320940802
800,-0.9067504155169754,0.20032771327095428,0.29372541591636986,20.304115429838895,23.956911361758205,5.340826862883945
810,-0.847739524129057,0.1457361147277232,0.1409398879109051,6.345154805507168,26.979235036205633,2.2277308437874197
820,-0.8969244209968917,0.2004734982180718,0.159470009905194,0.8086635559267155,13.335279278678005,2.037970607775387
830,-0.8754043142479832,0.2518360874829145,0.5239214222115491,12.996115976551044,21.790698462337904,11.203251973635336
840,-0.7798899664366419,0.3678013180705308,-0.042778134459708246,6.996029707459112,32.90075403266622,15.369637930489555
850,-0.7957483275315097,0.46837185398610043,-0.19378105643848328,3.4162020242761892,24.182037391444506,20.016044463245617
860,-0.905564539796799,0.4466577610105071,0.6384651291831159,-14.089940634563174,25.766852687046345,27.95893545755763
870,-0.9206216076025125,-0.007926973186037072,0.5497922304420729,-9.803068180244454,4.440225266626363,7.678913650492249
880,-0.9300239209659629,0.0664281164888439,0.24615817489485692,-20.12785341693694,2.935529551429807,4.034805698430108
890,-0.8076745801322046,0.211950929000122,0.04350285264384892,-51.29394476521794,7.370971629337758,13.859285874856393
900,-0.8738449970273079,0.19241399357780764,0.4521586085422842,-74.6044666408955,4.1865238817325,27.78308995444961
910,-1.0153295904719537,0.2289329809549951,0.46891367768193215,-50.89853344063072,-3.114538533986189,25.539390058817997
920,-1.0487693236090487,0.044081094591221226,0.5946490300386879,-48.208192469474675,-12.878825923167724,9.751895607371399
930,-0.9001879915388313,0.15074250446788467,0.06863735048039961,-44.41823057890625,-12.576525710125438,3.5400109282693344
940,-0.9036842848651716,-0.08713705230689849,0.19079169161778867,-28.692693687985177,-22.740604459893877,-10.305694102022601
950,-0.8845590683167155,-0.04125493925987049,0.2855198833991036,-0.08874759373096533,-18.02188696732557,-10.609180061294815
960,-0.9209798305259193,0.0663295322860934,0.13061043538752626,-8.537254136160056,-8.581037074011634,-9.35790206854952
970,-0.9171405814772171,0.04057153019681575,0.03871983007211586,-8.670736366692738,-4.5118775616347095,-3.6021807719414216
980,-0.8852759026270891,0.10802318396470431,0.198390566065207,0.8189740993635639,-3.8770282377067318,4.165195386856015
990,-0.8636475966812488,0.17065385637611824,0.21435460740382636,7.78322945244864,1.7398516118237932,11.7091458984081
1000,-0.8967062896423204,0.16219654247474022,0.19063030842770173,-3.3420809334281927,-0.03053261027546128,-3.1524760970393135
1010,-0.8998976746582895,0.1378895642624796,0.1892845227564648,-4.4863274012413035,-1.9549149232267904,-6.460017971592848
1020,-0.8887984862561747,0.14232270014967457,0.19919366944555797,0.49321662442239905,-0.9072519309906427,-3.4599383404172293
1030,-0.8803221050593395,0.15862991839675214,0.20723913673007446,2.7522947365052057,0.561264395455668,-0.610611784617667
1040,-0.9043108593789462,0.1409245054071346,0.18674036816797074,4.296941348525025,2.3362221879926777,2.337226903285145
1050,-0.8841353017584686,0.15452499550165283,0.19995218284248664,-1.217663937748584,-1.9510040199238623,-0.17414407681134514
1060,-0.9032288598229945,0.13612165832190587,0.18646661871514694,0.9399488976327477,0.06015054956877669,1.8905488772228274
1070,-0.8665014674826105,0.1772988492644599,0.22256824058859329,0.5838881875819253,0.6142067814670654,2.10226539355166
1080,-0.8839892301751686,0.1629792079102243,0.1983747691227141,0.5621858224591139,0.39360463760567865,0.9163333805276341
1090,-0.9068864085887833,0.1391751380969181,0.18225102925186523,2.138378448455826,2.4835895986103163,1.3299793953867969
1100,-0.8671140099966009,0.17693708942349626,0.23261375291261688,-0.5218340219069708,-0.8903675419465339,0.34250458173041975
1110,-0.8906683010966917,0.147090877363531,0.19310653907986824,5.152756743473066,4.695242888043403,6.3974787973576515
1120,-0.8860879497973164,0.14884630463303644,0.19576564748648945,4.041366646326724,3.400431665664592,4.965643740834125
1130,-0.8837949958756013,0.16423475949093203,0.20596769632976983,4.068321817821064,2.5205814359573924,3.6827526206757017
1140,-0.8967036316046372,0.14818500810669005,0.18020239568973848,4.721334211948823,2.739343785626329,3.7495734161174674
1150,-0.8856781351636287,0.15379540200904976,0.19729090177292674,3.286044031630705,1.1971456252780257,3.0809285082166875
1160,-0.8595499649409603,0.18442543472020423,0.2237727304293852,3.368722258561575,1.7565485705097772,4.618332771683328
1170,-0.8788005028340162,0.17548362611403653,0.21358236017548457,3.827519378534415,2.14310568764858,4.473635685656999
1180,-0.8838723431445961,0.17263754428626035,0.20618824288850449,3.266175672204772,2.587760791155052,3.474811645662538
1190,-0.8729264301111147,0.18229814481869877,0.20288072511092323,0.8894666059426668,0.6977805235714324,0.615848110538734
1200,-0.8487551282497046,0.19525642803710985,0.21927649620778475,2.2121978821018122,1.9190595204452026,1.9339081502901527
1210,-0.8465678885953185,0.19955964630780149,0.2409744266424283,1.7543754473887878,0.3971630613080812,1.3489235718768993
1220,-0.8790339519101904,0.17765827946822393,0.2107632785204012,1.449658154760551,0.22724161750656402,1.5596510069037612
1230,-0.8873380512429105,0.16335069085379897,0.1923422318699003,-0.2921697726690418,0.15454042273388335,0.4215189786483843
1240,-0.8922487406057356,0.15956175484245952,0.1823863838145511,0.9701511893913234,2.010083485459071,0.6383775376375698
1250,-0.8929545078528076,0.1608707635519813,0.18281271764976026,-0.13759296868532078,1.5201998529910314,-1.024159247613609
1260,-0.8762454576740689,0.17152961274444514,0.20618580956606844,-4.463396109908485,-3.400126285948398,-5.223757316442306
1270,-0.8974348299018453,0.14911612262481885,0.1860602780367139,-0.2704453274723349,-0.12735878288891062,-0.11142617522106966
1280,-0.8954221457777843,0.14797606866009855,0.1821791697621984,0.7601125025882336,1.1523162074401496,1.7695950470649748
1290,-0.9000029312822846,0.14522578044970208,0.18663591619982692,1.2823632061303476,0.8327581040315601,1.7202049688192393
1300,-0.8764294451426929,0.17409610871082976,0.2114683029568425,0.7252982460822546,-0.18491737396605434,0.3650040956582797
1310,-0.9009245201975982,0.14667567550014748,0.18025919954442754,4.962305603902696,3.7994487109181767,4.639303415890375
1320,-0.883520611036619,0.1607463415955979,0.20220881696418339,1.1104839626944811,1.3405389289282632,1.7712710021530516
1330,-0.8788790591586917,0.1659597177574844,0.19549841100927115,2.289058778338531,0.860356671905992,1.623175734183891
1340,-0.897797613059261,0.15965161401440942,0.18973239354837504,1.1936541558005236,-2.5196101080740796,-1.1358147540587966
1350,-0.8735397377871016,0.17663766259505637,0.20767949505456185,3.8205151044639383,1.2473386995308138,1.842862965372492
1360,-0.8587826903888959,0.198674148763982,0.22596994620904567,0.14023220532718295,2.1943291218459193,0.6054646579669716
1370,-0.9024102673572404,0.15124095992213368,0.1834910820560619,-3.5737674931793553,0.3337921612683576,-1.4161144093736726
1380,-0.9024762976024062,0.14853783395882306,0.18311949656523974,-2.509000641417506,2.091594976359087,0.3474842414782511
1390,-0.8738922203624908,0.17660831138383765,0.20448061116819466,-7.099288280428576,-1.3829070488205697,-4.645199895285731
1400,-0.8871354272874191,0.162827549320144,0.19641071826215836,-3.044863935468979,-1.0087062758179999,-3.3541501045047726
1410,-0.8722271210698154,0.172902057020687,0.21009070981499128,-1.217475827418578,0.12755646067869292,-1.259391301590928
1420,-0.8706702358105167,0.17000797248208027,0.21217889489214042,1.4222674543524927,2.7511301972770172,2.944079782970534
1430,-0.8872182694613473,0.1567359089133976,0.20011177929343138,1.4614319186653049,1.6567558982420727,3.1019824013747392
1440,-0.878483643978751,0.17536454603915697,0.20427780219214473,1.779877221715816,2.1442215398810416,3.6099049587973644
1450,-0.8405661257533684,0.20855771409875618,0.23228801952882155,-3.2499696720708315,-0.9105881249601678,-1.7681888114771327
1460,-0.8758030340586624,0.1604006384523763,0.2110857593699535,3.939412806412426,3.8939863252290814,3.264551082343483
1470,-0.9007076013377069,0.14397481212259042,0.18319332019237394,2.549439047417262,1.2659933468958995,2.2364160959088393
1480,-0.8855373513720639,0.1585803525139727,0.19229081539876705,2.7472833268365147,1.8685657579334711,3.532118669242928
1490,-0.8718068185944785,0.18036236197686087,0.20808822313370512,-0.654726038778447,-0.6406528690566025,-0.06139090897975752
1500,-0.8634944864748343,0.1957504615878832,0.2236739576389117,1.2314814108317451,1.7038864738549857,0.7851367391418893
1510,-0.874941793471816,0.16928616364184168,0.20646304061261694,-1.879942230457517,-0.26964749475996397,-4.171930575575132
1520,-0.8724320501819528,0.17538094999424222,0.20969635580918977,-0.06703005001465567,1.083271241275326,-3.0685390095275165
1530,-0.8568280229063656,0.17980401006138091,0.22229658573630795,-1.74793379627936,-0.8429793581999447,-3.9870891121611667
1540,-0.8903026225626441,0.14970430823665454,0.1942006401548894,-0.9621026931972377,1.1352956179570572,-1.0540820545071434
1550,-0.8910323708371382,0.1466575082964892,0.19978610579669245,-0.7392686850139836,0.25601086215884084,0.3176608975934648
1560,-0.8810203215870421,0.16910757531852166,0.20647579367751506,2.955886025987993,3.142783693438223,4.249240636695012
1570,-0.8923035785066078,0.15509311156465241,0.18502515814070705,1.548927610076221,1.2247221123585537,1.155041534038288
1580,-0.8883091715514075,0.15314763962489802,0.18814640575498517,2.1616885520306184,2.8728456147446835,1.909254862436466
1590,-0.8646919978215769,0.17353558033649763,0.21661230055214217,-3.118298934172608,-2.7520123161743295,-3.1082562126354922
1600,-0.8861078736891922,0.1532871206183926,0.1912073397275575,2.5497500295782887,1.9923205048506905,2.9828094487819623
1610,-0.8594339219087133,0.18044260497247547,0.22481583370224903,1.0228452002207362,1.8569984231402688,0.41986895251354306
1620,-0.874068306261294,0.16975583117508342,0.21005667690729962,2.668710340757029,1.3845807328163282,0.6533831742100575
1630,-0.8740869965497018,0.16472701662793143,0.20740108221247305,1.1851900207621469,-0.7451897122973509,-0.2073228577539087
1640,-0.8728737346986157,0.1639705171340835,0.20313492871796462,2.7559026802472557,0.6604034019783065,1.986678257416571
1650,-0.8956075950585264,0.14825981583538073,0.18442797889408516,2.106923666083641,-0.6736809232335234,1.2214478982295
1660,-0.8869568113317412,0.15743878208454765,0.18988653282034235,-0.4035343919819483,-2.6314148076518866,-1.6619329106129697
1670,-0.876766019986027,0.1562610591951815,0.19338233810084765,-2.431332957801299,-1.6564611494443207,-2.0595145465538365
1680,-0.908170230775705,0.14306807004035643,0.1839658596626918,0.1171373230772525,-0.3624650392421546,-0.14056012379860844
1690,-0.8816599591513874,0.16123818292179123,0.2000965735953992,1.2104192042428514,0.6097305460474364,1.5292278705951923
1700,-0.870330650450075,0.1745600831404479,0.20840942396414683,0.6667388674473324,1.080122499142094,1.8618192847105914
1710,-0.8543597898301989,0.19117266672161945,0.2291733467711391,1.0086936743318728,1.406350728067348,1.7470243799277427
1720,-0.8748263986676135,0.1707123753232429,0.20921053736966222,1.2031854328218066,1.1069479811274512,2.0303478489935984
1730,-0.9040515959381072,0.13833396185570426,0.17499152548024596,2.362271260929941,1.6346697066948406,2.9949692556807026
