time_ms,ax,ay,az,gx,gy,gz
0,-0.8768961029273289,-0.005010463659225049,0.3262309232863708,0.7337302616411179,-1.4380417704570534,-0.6387044211720455
10,-0.9055892577472786,-0.042926080394902796,0.29713848204355187,4.775950188129232,2.2450550180021986,2.6422972782719745
20,-0.8759796334880088,-0.010350366033606407,0.31896323820328965,1.7147267769595258,1.2699322809687932,1.0192221982999703
30,-0.9025301114867148,-0.036415791890948485,0.2933427132857772,-3.5102346190567006,-2.7565284305429314,-3.327862858495467
40,-0.8823436855572465,-0.01615796589533743,0.3187427756945376,-0.049579059805491044,0.6523731991618681,0.5406658166720852
50,-0.8793786811461285,-0.009964088840679298,0.3233966529771844,1.6580107044238013,2.0923368734547063,2.686830053519512
60,-0.8777284037056604,-0.0051525155258091565,0.32217658663279136,1.2760808714831895,1.975484849818375,2.5681004904393854
70,-0.8982844136010616,-0.0333352869418946,0.3026477192974625,1.0797429549176085,1.5153170154112883,1.6400494400876946
80,-0.8572884686369908,0.007807495082799189,0.3412933272907566,1.140612188474625,0.15038508707164167,-0.05167115745573925
90,-0.8801143454341371,-0.011244091544467299,0.3145490644577215,-0.8584158378608753,-1.0806477908174168,-0.5486326605553498
100,-0.864366944923224,0.0031939137814829405,0.33488497005419665,-2.369622559196877,-1.834514438745861,-1.557873206061918
110,-0.875105289998093,-0.006200969366423089,0.32800973293974683,-3.219228226029786,-2.4285507331937217,-2.6886731666727743
120,-0.9121853201771211,-0.03993095288193287,0.28869133128214747,-2.071758572688416,-1.321508956560578,-1.8847005759944957
130,-0.8875281424361583,-0.015612995273913355,0.3099183784928334,-0.7736659900984141,0.03687578189629892,-0.6480849238881038
140,-0.8764492224850965,-0.004210949464225075,0.326701077088893,-2.6985801069157596,-1.4470221846010123,-1.9032232636499287
150,-0.8751275798274735,-0.003160536088175169,0.3266999540294078,-3.0844974249729136,-0.861293099005424,-1.1401419510424686
160,-0.8879634267456576,-0.021549850840552255,0.3157527680813285,-0.1401168247040796,-3.562772448111116,1.5712951866895475
170,-0.8836592821902918,-0.015128410909640677,0.3274723891055153,10.439877113007041,-0.4398191554876716,11.550425465271328
180,-0.9105901357573806,-0.014120076952348572,0.3221542546357151,12.639002034574721,-5.132202272661945,12.805286975180111
190,-0.9400573279550833,-0.040357766800589764,0.34441767588396704,20.716342000644286,-6.590412251022077,17.8275290850235
200,-0.9858469872762572,-0.11883050867700164,0.385799142270554,29.936761802651176,-10.003579000567171,22.338135371549278
210,-1.0717349158809584,-0.16019254781281198,0.38974073702233614,19.863996688409042,-27.174525124741745,10.883428407296211
220,-1.008604673537821,-0.15577695348217185,0.3952310706649088,29.15581672987904,-31.679162793789995,13.778850056596575
230,-0.8141997961262104,-0.1458118114522029,0.37230222329989215,33.36840096208409,-39.25689412938868,-18.436249567683866
240,-0.7523505384006343,-0.005604410670540478,0.28945760633178197,32.56183665134222,-35.979527542118234,-29.91240750440378
250,-0.7169820001683763,0.1797717842190134,0.2701892070181859,19.106689146987613,-31.495312228314514,-31.18302361594248
260,-0.6791878050788657,0.2836069946547947,0.28882708361147036,5.8677464671883905,-21.598094363794374,-22.697624460897178
270,-0.7087034205456995,0.22052729258277398,0.26241048859108884,-0.6222421058310144,-7.596534527668274,-9.46122234363059
280,-0.7701972725487145,0.11753568701279388,0.2941643760985147,-5.784018086177568,2.9983213423981425,-1.6559309486004503
290,-0.7870784344454842,0.10235414189268602,0.3883650579988818,-9.261083093213767,10.538328993518899,3.360071068365743
300,-0.8798139540652272,-0.0045824583949169665,0.38989329873114864,-17.667764499152888,10.359764609033238,-7.402157827191849
310,-0.8853927034837137,-0.026312508634855312,0.36065021045689566,-14.285181490976097,9.839086204248968,-8.051082964378185
320,-0.8567723803031858,0.020512348667142192,0.332824434434813,-11.42880329462644,9.116578303735968,-6.3164140753064
330,-0.831926136902068,0.06411028952077472,0.33589827601657896,-11.660921150786367,10.342410237173347,-2.198641218774985
340,-0.8552343947610348,0.03503112430555875,0.3636003782704983,-12.3649598800542,12.776186993990983,3.109835345098389
350,-0.9032918844643675,-0.010786448417325685,0.44257038720448055,-10.647268512928829,12.215154381719026,4.126367516968425
360,-1.0039791273965635,-0.0704960218640004,0.4650827707272664,-7.863555085150236,2.1136736247893926,2.6533505579601058
370,-0.8881598949979788,-0.05111118619672152,0.38042339936540664,-9.998986807177205,-6.521401170866406,-5.051946706922765
380,-0.8723335470475391,-0.05432961351689506,0.3749663330914667,2.673240229966647,-8.64488068905466,-2.1745510225093168
390,-0.8700134923872476,0.007233517987803296,0.41781740427755854,7.241277623502602,-5.338130788307172,0.7540569720717841
400,-0.892627971704963,0.02369945261318217,0.34332420650713164,5.852447806813351,-4.9359836422699725,-0.526331478844168
410,-0.8577483955298821,0.016909605060834297,0.3089665620802209,11.415215469996149,-5.714359367634708,-1.9574880584435916
420,-0.8714957231132454,-0.05643203735803107,0.38404229033832993,17.779904433831984,-6.67546941262974,-6.511371171634749
430,-0.8731571739047289,0.06090340563064595,0.23990566416849873,11.5612669993794,-2.696719056007711,-4.708476110168381
440,-0.8682557085377982,0.04082717172040784,0.20418052014842575,27.625989134833763,-0.26398175608535857,-13.618189172152105
450,-0.887433804109929,-0.020711464403412753,0.33061675365819,19.666500713315482,0.6816375734313017,-15.260831254431384
460,-0.8705621873948365,0.0841757980737708,0.389964211438274,4.037233024997695,6.0251968866998045,-11.91036642299085
470,-0.8823268366495118,0.0923882993750388,0.357570102738904,-6.1811957258040975,7.323705207442583,-10.03704310090183
480,-0.8630044592885703,0.019407164838856288,0.37249270751189256,-11.896161047413557,6.557226306716932,-10.824100592594945
490,-0.8945985671608513,-0.04384121676838969,0.3497805423066167,-25.563055057685464,9.922209144174726,-14.29397490437954
500,-0.8920585878511722,0.02127372467586955,0.3455779580192197,-40.170825926021834,11.298010129190718,-17.700564701268085
510,-0.8751185727285956,-0.1393062733467368,0.4111434364952488,-37.558534721960825,8.489350501207799,0.34968744079070113
520,-0.8619958700731819,-0.07061408149231498,0.4238908430612594,-28.50186760171727,5.34917930284843,4.766838315092195
530,-0.8779633389917152,0.042206262809743156,0.4211096042099449,-31.768381144231647,6.743429341793789,11.412706862545079
540,-0.8281528672441796,-0.018395462331495055,0.5024968783863697,-33.99146419274373,4.273702422163585,12.60088474961072
550,-0.845593552648562,-0.1899195040743023,0.4629922880877989,-29.697029238128632,-1.0091880291747157,10.142355193397314
560,-0.8520072846020649,-0.0562755361534804,0.34938547631574496,-20.859725147323932,0.5022629063118882,14.779364729337445
570,-0.8673676747927407,-0.008991259469535457,0.3087308387696518,-5.871185390953604,1.305194981976411,16.188286871450103
580,-0.8803216494903656,-0.07303461528248426,0.3338783392635751,37.06787226304097,-1.8732460392702106,15.090203115750445
590,-0.8880653452336774,0.006733975717300401,0.2975891264002146,41.18931216509207,-4.6497252575762715,7.956809028061977
600,-0.8856729497162703,-0.09368824511659475,0.26281338439892904,40.10414044212582,-2.7931937751549745,-4.675599150807778
610,-0.8624341608328999,-0.20570863045784235,0.2257178391011926,23.81537347327945,2.9014824978094356,-21.311647879877384
620,-0.807007919756525,-0.2515032557041758,0.2110292940810704,8.617528348034465,6.060500593343992,-30.664753311173268
630,-0.8294240519913185,-0.2525909345069763,0.19624798756889086,18.94536743080838,7.14234345993153,-20.219921789116928
640,-0.913959887848332,0.08597638798141934,0.32580345538758876,24.873002731178484,5.772241554408245,-8.924792763777928
650,-0.8979397499610704,0.030851691869102183,0.46091359324582065,-12.10620375688707,18.92790259287328,-7.505181923710537
660,-0.87987324535392,0.1548600926977556,0.26339604697520325,-32.445372224416765,18.263268472403468,-8.759995578726683
670,-0.8962380417710081,0.11237998891220406,0.34069235569247325,-42.26977858025437,16.55878347967084,-1.5050688064755087
680,-0.9437108192072448,-0.09146451126067251,0.632500086548618,-54.73623157609716,10.683758840417337,6.098845572409958
690,-0.91869125713739,-0.2226330998861301,0.7104539139601611,-54.97463067173739,7.392988573999007,13.54286825177013
700,-0.8170596309978355,-0.15607705179258438,0.4399755027995531,-49.63804333425711,-2.8122117968222655,6.11550192542134
710,-0.8827613191941346,-0.13840800594930663,0.2986242930605536,-39.18773368555751,-5.7221267556922175,-0.11127281607938172
720,-0.9066121532499762,-0.12448630565258666,0.27978679070323914,20.012273486724425,-2.0077755307567724,12.071630402917933
730,-0.839080618695536,-0.018564981588111647,0.37695929223267344,24.492154296990805,-10.47137649786671,3.089063970578871
740,-0.872377157601136,0.003548191453882254,0.2995401564452804,22.475674886361794,-5.633784915399319,0.7377954023808332
750,-0.8650927002506709,0.006376969340448695,0.31691272300244416,23.50730320215221,0.4575629295817567,1.8897418748446033
760,-0.903040574311526,-0.04552381576888663,0.3090778482707619,16.97286500711101,-1.9849333896254358,-2.304113824428554
770,-0.9210767765975431,-0.04434990838826726,0.28498706699110915,13.69056834739169,2.096782318517165,1.0908827064407376
780,-0.8871915668930156,-0.011612525822744815,0.3178040353533642,5.983680572002009,-0.323462923187122,-1.0095597280196253
790,-0.8853989719880666,-0.018939406194723125,0.33527037147003913,-2.784564723190567,0.0646768923265827,0.3322549491633716
800,-0.8622630346003498,-0.0028087179766573857,0.3493579278350251,-3.4329558849358417,-1.5133659635291539,-0.08045917532610702
810,-0.9105267272235893,-0.050876997149876216,0.2985045030500501,-0.4950077190454605,0.14008425839625155,1.0166198077505662
820,-0.8676805384423686,-0.0031707426814172445,0.3435725587877283,-2.5091340632814227,-1.6564100801620674,-1.5616470005607281
830,-0.9108634081145554,-0.04745095611243737,0.3047395120997362,-0.47187738578345495,-0.02546325257015196,-0.26854823069626665
840,-0.8789607931011381,-0.024760590747044727,0.33824609661113786,3.5567961669314982,2.707229721603565,2.467622546759477
850,-0.8648866603721641,-0.017631888510084195,0.34796465961360923,-1.3126766563019903,-2.3654170131227357,-1.9997394173833891
860,-0.8737500621818604,-0.026128294018733376,0.3429850363791511,1.5542809202618444,-3.6167659599893547,1.0809566687106793
870,-0.8750772469033147,-0.01974827750989366,0.33335159579533036,4.876512495083897,-1.8421362913484254,3.828078012579192
880,-0.8776942077930548,-0.016241712618839624,0.3409973283418262,5.38539272112804,-1.6726322786482029,4.521644134488502
890,-0.8930034004618648,-0.025737132602241378,0.3273333785729413,4.353876989916483,-0.7292760979696613,4.440600406075244
900,-0.859794149061522,0.013276811086122822,0.35798784109289644,0.00503310599103024,-1.8200682749791217,0.7896471370496008
910,-0.8838068363014543,-0.006693991679699858,0.33326055858850767,-4.732263443418492,-4.1217393375031,-4.282670069781574
920,-0.87268306191693,0.0009212571983213836,0.3420059474227151,0.03811550863539026,0.6239609871001213,-0.4071248847241453
930,-0.88752379472979,-0.03709245680693899,0.3226732993707229,1.2717295499983279,-0.01820800744492096,1.6722507109721907
940,-0.8862880065768411,-0.026952433611096185,0.32152066370963317,5.487878910967593,2.3488467305563154,5.191677176945673
950,-0.8770839442183722,-0.010664286798899879,0.3327637582076215,2.602632892629249,-1.0215724555884482,1.3177574050260477
960,-0.8918762710927362,-0.019412667912977,0.3229852822453074,3.805571796830782,1.9669105805226235,3.1062315691339304
970,-0.877158509403589,-0.004391783451874735,0.34025669782763057,-3.312874566726745,-3.337819314803768,-3.025141834800509
980,-0.8702898680184398,-0.0045642086043341384,0.3464119660786187,-1.0583734134572749,-0.17905879496092392,-0.13752544314672083
990,-0.883614673357984,-0.025858410415925237,0.33296458076394064,-1.7680741261937059,-0.5059602564241958,-0.8258987485001623
1000,-0.8882601351766933,-0.025169817110478006,0.33102795921009726,-1.3501499464423372,-1.2824823268664864,-2.6173567386123
1010,-0.8852066557264241,-0.023446842518927778,0.33058907896679235,-0.14760301969086775,-1.3953685871653252,-2.5323518408723547
1020,-0.8865527947355692,-0.0334173520023319,0.3240847911118775,1.233437174038518,1.0373613894741958,-0.34091703760750613
1030,-0.878036769210277,-0.019093076792565347,0.3386240248731029,-0.20331894304348141,0.31176953711347344,-0.6602014781308752
1040,-0.8866807066238492,-0.024273632566333248,0.33220264930383747,-0.8750401652972197,0.0421822851830144,-0.05059618823572366
1050,-0.9013357670792652,-0.04136999081437348,0.3141299265717824,-0.5020522978582015,0.6096746277342487,1.5485222373049907
1060,-0.8931108551254,-0.03184062250513223,0.3213891784173094,2.7208020366344994,3.625286286181951,4.805597554647843
1070,-0.8712978600906358,-0.003618172170707444,0.3430416815215539,-0.11620076137979218,0.14942536596119171,-0.9839600608560035
1080,-0.8761875430306612,-0.01375399868999543,0.3375197799801268,1.0968605694785794,-0.2709391229902036,-0.1984078881057394
1090,-0.8779194588112609,-0.01233970682974785,0.343517074024348,4.754536780057522,2.4995588543074905,2.4963599930973
1100,-0.8720427941023315,-0.004977740192677967,0.34348023419288165,2.479339449406393,-0.20806732270534067,-0.07391241803256154
1110,-0.8717291822020321,-0.003826706950938754,0.3436786645656649,0.22334894707029518,-2.121520564733374,-2.4888027567099273
1120,-0.8648309255409056,0.0028661898457853704,0.35305060225207247,-0.6661230062771186,-1.9103769105428114,-3.2384673863133857
1130,-0.891699641403822,-0.02612015890911112,0.3219101991553225,0.5374765685223843,-0.037652360723355094,-1.4420630270774069
1140,-0.8989361029127974,-0.03467987904343124,0.31414633753070614,2.7485665824740106,0.45292898578801843,0.9541951947464532
1150,-0.8615359114500913,0.012986227248907377,0.3456777377369503,0.05853404338210044,-2.488362171833425,-2.2687731258056623
1160,-0.851566578311169,0.017734823457469403,0.35851763907321527,2.2189441206978033,0.9064112246031134,1.0999959361038942
1170,-0.8988980546599897,-0.037243142738681616,0.3140673555300007,1.6754327629259016,0.9195650155311459,1.2997288599349142
1180,-0.8583178418467982,-0.00034935585498756597,0.35836816694558676,1.2018371298981747,0.7937204920417787,1.4381421660445974
1190,-0.8772267000505432,-0.018268833617413,0.3414855762242517,1.4909291394719726,0.9762323488351717,2.0136472194423294
1200,-0.8849202882244133,-0.023838597759652823,0.3321478461821229,1.9814500053018014,1.298675618596351,2.203463441032384
1210,-0.893274135799901,-0.03238239088443888,0.32143818215396514,-0.6603371038095044,-0.07855118681914447,-0.8568852700741912
1220,-0.9027934393310872,-0.0358381552681993,0.3156038780921435,0.8902431445551464,2.2119475422637915,1.733032095671447
1230,-0.853824383791267,0.014731352055784437,0.360458387323049,-1.4376102281589112,0.9745766169664409,0.6277753169010996
1240,-0.8909924377932,-0.029703909226435656,0.3211626630057157,-2.3242852270642897,-0.855382638691923,-0.7314604034660407
1250,-0.8863849349607202,-0.015310072745789069,0.3306837103032213,6.203953927056082,5.0297638153463495,5.8742659444210386
1260,-0.8799315672126581,-0.0041474511762548865,0.338128901711028,3.5320612467330315,0.42337714913266977,1.8585352602551763
1270,-0.8557644442152258,0.00758799621313044,0.35355011101924544,6.232729629676002,4.044262184179309,4.73267096865019
1280,-0.8864792196960528,-0.028699284066213672,0.31450587607308345,-0.794383561860561,0.3396424692434768,-1.769627106420842
1290,-0.8565949140310177,0.003080968916035459,0.34861712378140114,-0.06551859056252485,1.4391152905442886,-0.492755169390072
1300,-0.8604505501562758,-0.0026464273531412903,0.3492740921108488,0.04403939790093769,1.3327261662163081,0.16119403934012744
1310,-0.8773185263720448,-0.02146234173199174,0.33902033737244114,0.5912840203261271,0.9516845651175161,0.7400867624127444
1320,-0.8844667614086652,-0.029943850450689743,0.33034423568292426,-0.08441183433507116,-0.5930586162845186,0.14608488169764988
1330,-0.8829432965650825,-0.023969761045567615,0.33048395120759383,0.5981572716022698,-0.7581433950442595,0.37430704901092504
1340,-0.8779818804053735,-0.010213391649730477,0.3335511545432561,-0.8796827399619556,-1.7257779500786878,-1.5695210553912577
1350,-0.8598065637249769,0.012004650906669821,0.34382976737275095,-0.5158053287009983,1.8253546806309962,-0.3743660195803673
1360,-0.8824765597238277,-0.016143809797592494,0.3419352966308432,-2.0249741629452203,1.6490932742414932,-1.314401329405858
