time_ms,ax,ay,az,gx,gy,gz
0,-0.7945899434047882,0.14251998825714685,0.2784645345641054,-0.10988138429487049,0.36608435808956197,0.16175040439701105
10,-0.8165941481316499,0.11569509218170464,0.2577385067537517,-0.5024611581928173,0.7450417549112359,-0.5711459417920841
20,-0.7891547947004408,0.14179819247292,0.2842353241768364,-1.650650343694457,0.008050237590375375,-0.39422535062818304
30,-0.7786244617276383,0.14972259764568782,0.29695784763641,-0.6877171355215942,-0.8000602442069515,-0.6197433315895711
40,-0.7725114070786393,0.1571420644786321,0.29804479467895356,-0.06600757207263364,0.08786329547126337,0.3580502803643446
50,-0.7697702440871547,0.15912155754494683,0.30242642491170285,-0.057504543753362614,-0.5495053249307077,-0.2534947406800223
60,-0.7541537586912758,0.17774047011367444,0.31862423566594944,1.3849609991562297,-0.5271462042002876,-0.4993236672385134
70,-0.8003757381268508,0.1343013955946211,0.2772524363625111,1.9242326404208547,1.0424436411068863,1.2722752736947416
80,-0.7910124770896331,0.1422256214784069,0.280405763183142,0.6992997288137534,-0.1202741218300637,0.11470830124704912
90,-0.7673936352295431,0.1640146086767068,0.30261606567376476,0.18712089102831703,-0.6309079127309678,-0.578338676751166
100,-0.7625296267674695,0.1725207245095811,0.3102664781160018,0.7472463361678378,-0.015206098099429077,-0.7026226677069858
110,-0.7937550850561633,0.14388995424712114,0.2804233979857329,1.0999966033855282,1.0245323192810092,0.6660726478875822
120,-0.7843087173396569,0.14181203482604543,0.29194563431682047,-0.018279817440516544,-0.004160241728083269,0.6268822124667075
130,-0.7682567679548236,0.16012193246608883,0.3108347422235711,1.7422590679082803,0.7051077410992673,3.617644178666575
140,-0.8061577184202396,0.12985429954779928,0.2845523867531095,3.380266850770022,-0.20310629313189044,6.018520037342171
150,-0.8226088936734466,0.11543036947240547,0.27419566411979585,3.3632300387890663,-1.6528245178928012,10.626423532033424
160,-0.8117876878243118,0.12996259883076944,0.3104701232005784,4.0490180491933225,-3.22237154817756,17.270883200790102
170,-0.8579651317162472,0.004199145936322884,0.35906251188573024,2.777138267915327,-2.2262298486631327,20.987144878150907
180,-0.8231299407554166,0.1062481271170396,0.3802125597413888,26.94974908045893,-34.365964078358324,-20.1215023969784
190,-0.8436034996343226,0.13841940241813466,0.3480766740190464,27.41579963277649,-48.51589124710287,-30.264772386178663
200,-0.782911442395724,0.21671504718793402,0.3356303121240475,29.178002042984115,-49.60711298240831,-18.967999737944233
210,-0.703885507238516,0.15504142240683666,0.33797965198948765,28.220056051300457,-47.40778286516589,-18.492028188245122
220,-0.6625380802024461,0.12382727019309508,0.3887773117882418,9.543922603413643,-48.155192907271726,-24.89879803369963
230,-0.5848758297883436,0.2736927615864901,0.32456541968899294,0.9139094084417709,-42.539457323605866,-33.24739537675095
240,-0.601903265404529,0.3405457608524136,0.3774080586955253,-5.426237844867987,-16.47721672793591,-29.5945560934729
250,-0.7310265099045108,0.3439537936508924,0.38192513358466296,-17.71903875195581,-12.157548902107122,-22.118379079214186
260,-0.7872474375382672,0.24010487435619504,0.38711050829196186,-25.027271744508088,-8.135875364842994,-8.798115520429208
270,-0.7884726568645354,0.16546613215052294,0.36137107212778596,-21.759509387892045,-6.365025248312122,-4.603463396270412
280,-0.7925720873217019,0.18938695978430656,0.3324824621723669,-20.377771850845413,-1.7963750160342065,-0.3984404459044393
290,-0.701109606457028,0.17710990241624255,0.3604371836299959,-21.918238783277644,5.441198402870009,7.318314139095385
300,-0.694283055191701,0.1525761479795852,0.3882705770113662,-22.480715065428996,10.074473479769305,8.7266164712045
310,-0.7240728885502283,0.1904391120538913,0.3675085898034599,-37.67121425760271,12.54687186342643,10.80471837311252
320,-0.8091166711524823,0.035853090305474025,0.4369794116553499,-30.81945966932979,7.34243711533311,9.143314174293415
330,-0.9355278482103007,-0.03838669364302335,0.48954526622459943,-25.350825822566485,-5.576118617697973,0.368642181069544
340,-0.7805215876233126,0.07562776775641558,0.435849000286685,-5.821178026193161,-5.469006689228582,2.964149144283224
350,-0.7281619832786971,0.08019676546354816,0.3986610418144789,-9.171584038850526,-12.12285503630375,-1.6711505731047942
360,-0.7645975837042892,0.030137547165916823,0.43760520242261747,-11.840955645805447,-14.993429186868063,-2.5656863958358946
370,-0.7376709274191469,0.044259833088423725,0.5033889011631608,-5.050007641457393,-14.052241233337526,-2.310558170050091
380,-0.7433173617814367,-0.0835587920730763,0.6236602077511886,4.14319339526598,-11.461413057744519,-4.929229222589475
390,-0.7994558543439599,0.1708706631684259,0.17527928740066356,-7.1010771301568445,-11.653616667542202,-17.006811336436265
400,-0.6369999000600586,-0.22686006561724395,0.2305965723434731,9.545809434990534,-8.453052665899508,-39.28016861920813
410,-0.9608382968610141,0.38440581216242714,0.19494899400461896,54.50073118812995,-6.242616342277703,-22.729579208965845
420,-0.6557909439813175,0.3279661348132957,0.6066189161493163,54.70525153331018,-6.733817283972733,-26.944764057300294
430,-0.666070291976304,0.041362062986576964,0.654728439957412,26.090301375053134,-1.5311107394021923,-28.861968258596523
440,-0.7321710200244465,0.1306359027720713,0.40217198563218387,16.276480923650112,5.720172727749972,-21.331645222558162
450,-0.6965888821648764,0.21939102137227076,0.5346186535621017,31.279058021989265,19.25108243901424,-2.6375872238754923
460,-0.6855873268397584,0.14133162055422327,0.5775907096537038,41.01813829530874,33.63396102443076,5.697276705798114
470,-0.7454780656395057,0.14011926734310912,0.46858982852689035,14.391471855912103,34.43948437280617,12.776080677972823
480,-0.740115924512364,0.19288524711399865,0.2538260711947773,-1.049904600632897,37.147203322628975,18.313447216388074
490,-0.7972836489897751,0.17305607112254967,-0.15481429141440006,10.258818019288798,35.44448922117758,25.6841322276365
500,-0.740332955581564,0.20626179937117664,0.3538367390064164,-6.37993974359302,39.278527451830925,27.901548855260195
510,-0.8687134516073266,0.45667862911424945,0.9761223989241095,-35.218576233370314,34.40620133051061,37.27596724524982
520,-0.7669838298218571,0.41941444280825657,0.7553427310626247,-23.146297886233327,20.244961370783564,33.82871571442194
530,-0.741821143916908,0.12006261498289775,0.3956627800074154,16.192491001335025,1.9767919116248727,19.069295216770797
540,-0.7772079266703673,-0.15662095178639474,0.6077912922736504,-13.652312765080314,4.473670246610261,22.46087174083643
550,-0.7590671267762283,-0.16654403065433518,0.4267337917157979,-15.494955387126414,4.345073330726704,19.718872834535023
560,-0.7938732565713504,-0.06423672499650782,0.4145962644938913,-7.5799572115350164,2.2941406085499576,9.065283970358113
570,-0.773981073590926,0.09946225197399305,0.3575764739513038,8.261645889682699,2.9857083576532792,9.523716768524194
580,-0.7339040626266917,0.11759072602718892,0.32478754756702033,16.23793504004367,-12.342836208885421,-3.3822390630196137
590,-0.7710772172150937,-0.024933412013622078,0.44486811134010823,18.356916228307945,-12.350953330999937,-10.29017655836583
600,-0.8057442254088129,0.05342500583346953,0.20750465213902794,18.020902326653708,-4.774925174358585,-14.947501753950561
610,-0.8152702949625074,0.109546150034946,0.3434402617813552,11.829313324423385,-4.899532654052312,-20.920702508855438
620,-0.7991585381146469,0.16615762227493858,0.48837915595237713,12.072511544251396,0.884126325699017,-19.94550392775983
630,-0.772225128252143,0.22428181698618646,0.30415908121654733,16.800684599475606,8.122798812473373,-10.375715918381523
640,-0.7925967088389011,0.008639420359998552,0.13291108625643278,18.320608097281937,19.661589337092618,-14.063734215001984
650,-0.7972513847963001,0.10014202334736051,0.1145654720943143,17.292705952238517,23.920751614834067,-12.897268307702811
660,-0.8275372719926208,0.2352118958488908,0.1125722405045535,27.051216776333966,25.233783290427578,-1.036750432944467
670,-0.7678030608979938,0.36294815915420126,0.29326159386189,22.859863028049862,27.53180147102448,4.9313033384312766
680,-0.7618965885686336,0.3123648070662602,0.020246900495621854,-3.7239529363746873,31.459074067208057,9.726699073922802
690,-0.8889968185928517,0.05394507839801414,0.4110663181305606,10.848073771620424,21.165933180575504,13.190954690034813
700,-0.7109688724918979,0.2864302099416711,0.8918376516750031,-33.22579510586653,34.25177923816426,27.897378397084694
710,-0.6964093835485017,0.36497864343174247,0.15989393398606738,-38.137393849184114,17.414654452085763,20.90292615028009
720,-0.6166082445267073,0.37647944522409715,0.2272087313810226,-70.39112005736727,8.562068916695985,17.746367808303994
730,-0.7833106547093089,-0.04584397120306757,0.4079448393266763,-68.89972940412707,-17.99744323883,0.31748569082716904
740,-0.7821896266862952,-0.02095339576034682,0.2573259874191516,-37.76130039415667,-22.642646089155317,-5.288745572134579
750,-0.775395002413362,0.122403554952804,0.3109848773301005,-38.30374342851247,-17.773925547389737,-4.829015114777562
760,-0.8032499451852104,-0.017060481674356448,0.2660214419549015,-35.742732778150966,-17.80864104923792,-3.2112901950992483
770,-0.7780993973530028,0.0005441211930201986,0.3038981552279571,-15.044377168447964,-11.839225627631913,3.691774864652501
780,-0.7478470664208946,0.1596943556053222,0.27091208197853717,5.516164472602479,-5.257415797114868,6.344194282668545
790,-0.7780203013246572,0.17438058819803628,0.28986647786221403,2.3900344225437458,-3.180851783932418,3.24025549330561
800,-0.7977260649050898,0.14862073319913155,0.2712130095577955,1.25625953001681,1.0679242571406964,2.8231667480513734
810,-0.7806268820361261,0.15143836478087636,0.2912236543428981,-5.596188791418446,-3.839295539224739,-5.365050582734426
820,-0.7880169068150779,0.11236484837089666,0.3004949757496823,-1.4401422538306212,0.05630977595447806,-1.8478122614642274
830,-0.7802746198346641,0.133357831463831,0.297992866102695,1.5060830419001154,0.6485273590352684,-0.24846601844997523
840,-0.7696945693784442,0.16101373197881172,0.30901693191903035,3.402166096476783,-1.4971677021188687,0.07202269338807854
850,-0.7884047508367146,0.13806933617291514,0.2935044389566072,4.065917296351474,-1.6857657890131783,0.3429328987437368
860,-0.7587905129142833,0.16385191354742812,0.31865772519377544,4.627863207001038,-2.0629734035663905,-0.18319751513341587
870,-0.7584669093509073,0.15669268781492388,0.3165429703182278,7.241579502149004,-1.1188382890145556,-0.09214097192212006
880,-0.7621866057327885,0.16196222728384682,0.32521288304533585,7.939617729460094,1.4966711300223727,2.9014896945340123
890,-0.7956650638074644,0.12492501585981623,0.282500424841056,3.935604058538227,0.36372627504829635,-0.27247364444876926
900,-0.7823300795324938,0.16310047481088752,0.30435094992409345,-0.14775733443702643,-2.2890609871924434,-2.758271963840318
910,-0.76915626569436,0.15389231962936034,0.29832094710180895,0.7184058650348415,1.163822339420576,0.9029646425947037
920,-0.7691521335850687,0.15964785042775034,0.31118945120972064,-2.8472915887437082,-1.5258127320950639,-1.2098306148170384
930,-0.7872738275600241,0.13025043414418078,0.27813883687625796,-0.93510444592826,-0.26773125105300666,0.336545384897015
940,-0.7693664944108838,0.15398527043123938,0.2987268119124044,3.249959175301031,2.7339279378545362,3.454133705574473
950,-0.7918133955811137,0.13840236880021917,0.28294111533125615,1.6660552673638704,-1.4355021091185522,0.1804023257826859
960,-0.7675531099460737,0.16117711644508398,0.3094436934866594,3.23669300315194,0.5804629541006103,2.647227218799606
970,-0.7716789242281371,0.15744518535694885,0.3022601412332411,1.705928048536098,2.099832012339749,3.946876153517435
980,-0.7775541552607602,0.14854595557918365,0.3033433259893509,2.9535520844529226,3.7346364806788244,5.087159630101454
990,-0.7706778671865275,0.15872432072108295,0.30065947659413256,-0.36319072995470303,0.350391154800481,0.7601636436634631
1000,-0.7871339642049313,0.1424168043413552,0.2828441653287786,-0.6780240369470582,-0.565746240523923,-1.555317748293966
1010,-0.7810010889194451,0.14265742160037412,0.299257510426741,-2.160567795461746,-1.5249126255101273,-1.0343419055634009
1020,-0.7740896899403957,0.15129893034570122,0.3041313390679382,-0.8625268600669938,-0.3815818749498012,0.7131164437573647
1030,-0.7588895834598205,0.17491776969525985,0.3198684428342618,-0.6155362909399509,1.7413967028491744,2.4529440343270794
1040,-0.7898221034104234,0.14451193947589153,0.28431570136658285,0.49909891309620225,2.8037037796923014,2.819739231369013
1050,-0.7913509230653855,0.14563004212365172,0.28087055519918397,-0.9421225214046902,-0.8232421806323723,-0.5767668740370815
1060,-0.7704240032788449,0.16075599080608757,0.31164946983160163,2.2710437462098856,-0.4575891144462416,1.109562607363392
1070,-0.760356741970486,0.17206298965331634,0.31834223499438113,2.1348220061368886,0.5992945656980883,2.1021169937191875
1080,-0.7734555276139065,0.1604528089801889,0.3002078264437166,0.44081264531414854,2.5986092725029506,2.170189096809421
1090,-0.7849593192544096,0.14980591063178653,0.27800600657649793,-1.6880101254909836,-0.41378735638461195,-1.395837778192967
1100,-0.779219156284694,0.15083866274175572,0.2957285241850792,0.30851020376912913,0.18180233700559537,-0.7020595374048493
1110,-0.7824286717487621,0.14817662447145954,0.29179049426118625,2.56731106890138,0.3796454767305024,1.9928724072317248
1120,-0.7727941103045534,0.15570550962365928,0.30176002064111324,3.8721289644983834,1.3733493522960594,3.5348905423367016
1130,-0.7952935494780388,0.14078309758417903,0.27763753234453054,1.1261667698249695,0.9038137622718594,2.17363534078076
1140,-0.781496105047312,0.16297421180536978,0.29937342177010284,-0.25355324343204855,0.22476330425277746,0.6765310331844194
1150,-0.7746381978060718,0.16789967825800697,0.30332462944876015,-2.232303259162165,-2.8377434389249734,-2.8185887259269187
1160,-0.773348533686938,0.16017321307847288,0.29570175763073975,-0.3494153956663569,-0.4814629542592787,0.265080510290319
1170,-0.7652393305785643,0.16267771025260172,0.3086904355170254,4.056447435456851,3.372808044659449,4.73287338817875
1180,-0.7696448783781741,0.16184767570219608,0.30577177928800553,5.143983449200184,2.88140210723341,3.7867963124926147
1190,-0.7494718629339606,0.18233840957953135,0.32985684913962215,6.503350574850913,3.251581772680021,3.5495796305591414
1200,-0.770433343653708,0.15888417885350767,0.29646355539151026,4.620111384619603,0.9693055623268954,0.41232126472744013
1210,-0.7544006310063136,0.16454656009863142,0.3429432031737339,6.218725103019262,1.4443387953470177,0.9369079413772031
1220,-0.7802370718419762,0.15723600606080632,0.2944299236386477,-4.27890456219192,0.45350942787535786,-1.0189882680032976
1230,-0.7987981140548391,0.12776281367201425,0.2679512555510081,-3.701786444869059,-1.6375208865336606,-1.3141723417189717
1240,-0.7719615582885749,0.15541531263154182,0.298899433583548,1.0204028496116964,0.5590669339532535,1.7588449967207553
1250,-0.7607298264891503,0.1774215501622091,0.31465767266641975,-0.45927073059452983,-2.502979733633317,-1.1511732205261413
1260,-0.7680208817460875,0.1679454785811666,0.30776685394080305,2.730906475920847,0.5032057185748136,1.184659540751635
1270,-0.776521437616683,0.16375839508837517,0.29681559836284815,0.9044636432141471,-1.1123180444061702,-1.5371995954632383
1280,-0.7695213278653088,0.16500772299843225,0.3061019484693742,-1.2859492259562422,-1.7943377639745108,-2.1840407642667095
1290,-0.7776588042449446,0.1500988184223178,0.29571939117571766,-1.1685523062335843,-0.9785755093475113,-0.6698189264293519
1300,-0.75406709177388,0.18587968770778035,0.3224731226598889,0.6004508270343165,0.33350320480690976,0.25399451988995725
1310,-0.7571345531982518,0.17258668850748582,0.3100443475846907,2.413959628120792,0.47718268399509967,0.8691598520162731
1320,-0.7679390153344771,0.16593668190438776,0.29897984354430257,1.047319910038416,0.8310235750329746,1.1700922135693967
1330,-0.7807934955274776,0.15577439992975312,0.2939315329717828,0.28828797163854347,1.1305627123509685,1.1744764137814143
1340,-0.759694125143424,0.1742963955878763,0.31744853890993946,-1.131923429287716,0.18940851514840001,-0.0692449557516362
1350,-0.780069360935467,0.15488444299745885,0.2940881551189432,-1.2141578850720012,-0.15063623246021574,-0.5634579316075146
1360,-0.7611879809100602,0.1715091904559678,0.31356417347865206,-0.6009588689604006,-0.17713742924103204,-1.0133835376465732
1370,-0.7895233648450645,0.14829446296762483,0.27544694364351835,-1.2692163815549922,-1.4029857400647332,-2.1140726181203027
1380,-0.7866563614780261,0.14300185487633413,0.2856726955658583,-1.132284673543863,-0.4683136969002277,-0.6179419562750526
1390,-0.780582983827973,0.16208209273605279,0.2985325868727234,-0.04496950284113849,0.1147071724682508,-0.10953361250500615
1400,-0.7811434895572438,0.15294745921262443,0.28608240799222334,1.857949794340088,1.17448356558695,0.9310950501589275
1410,-0.7507083771582852,0.1856212255102374,0.3153509757640526,1.0292111712872214,1.2437688007432917,0.7230752683021093
1420,-0.7759822846807274,0.16236318973951414,0.2975195627211767,-0.6064319708503079,-0.5111102670093769,-0.9508581961292896
1430,-0.7776083977114701,0.1610169186172288,0.2987570017938071,3.530088414729349,4.020782748072068,3.6638661744701997
1440,-0.7733589276488061,0.16559554560978823,0.3013570854872482,-3.7633954870344666,-2.4208264048062866,-2.2493923707714165
1450,-0.7791434268106094,0.15798719237883593,0.28746730901932105,-0.36767412766044894,1.3690880702518926,0.8850643196845128
1460,-0.785583680779093,0.15406078681173938,0.29148423627779796,-2.001643986849708,-0.9227768396747557,-1.84970727358884
1470,-0.7869788952649207,0.14673999372215477,0.2896216054468041,-0.5531018448762115,0.13210065722072417,-1.220690812494152
1480,-0.7950882760688925,0.14093572286662825,0.27668922203231616,-0.9410181560831679,-0.2083818342985359,-1.1285788394798506
1490,-0.7713609001118535,0.16932837547196483,0.30464554200298577,2.342486357385692,2.5020806644042004,2.7516714857224427
1500,-0.7757041937484642,0.16432123015717062,0.2918265737153676,0.6206571089680593,1.48011436378467,1.6331625090903672
1510,-0.7724650038783362,0.1671748976003899,0.3071109206256436,-2.5193204800061273,-1.5415762246481712,-2.234519641894952
1520,-0.8020676356839919,0.13492397817152324,0.27643927956613684,-0.5066700860676043,-0.19316914423988168,-0.8590980782703657
1530,-0.7738449390013952,0.15673805280525135,0.3004162384574317,2.1530469028529633,2.8616324756602247,2.340474352872518
1540,-0.7489442084739986,0.1821952634116135,0.3150707322067661,1.323395119596015,2.41647568231432,1.893154306295075
1550,-0.7778736221670352,0.15806469161670395,0.28929405459646124,-2.5907392054596867,-0.9236836539338377,-1.2614314096149237
1560,-0.7737515248706173,0.1658088532164577,0.29864942973758984,-2.3247191817521653,-0.1955269988945686,-0.6413956996722067
1570,-0.7854664985085971,0.14569103648851256,0.2782869473842638,1.0399882370743239,3.3628019554689184,2.7205816914027534
1580,-0.7605806532330183,0.1737163716013321,0.30753266010250835,0.37400180978302944,1.5268788064932375,0.8192732457348088
1590,-0.7753183340664601,0.16330279679831883,0.29554819939622207,1.9798580496203337,2.3194062609314887,2.2730853677652183
1600,-0.7664864128733813,0.17102223118280274,0.30371511737425116,-4.197527275646175,-2.334601290455174,-2.602558492508964
