time_ms,ax,ay,az,gx,gy,gz
0,-0.6918774240968335,0.05415526111556009,0.3697147940264721,4.714121172157556,3.171924376041272,5.0502666055902825
10,-0.6978852484829644,0.05650669719219202,0.3642383735117863,1.6312828544330698,0.163865291594552,1.53971276364357
20,-0.7095703777463211,0.04055331970509127,0.34795545764651403,-2.0752960895060895,-1.7528616164804538,-1.9754454912879427
30,-0.697845069748664,0.048824819090732906,0.36335619646191136,-1.389225548900102,-0.7245593119131998,-1.3574026273647293
40,-0.6815403975725897,0.06637574468380433,0.37895677962452873,-0.33569964293157595,-1.3714310757009331,-1.2040158600044923
50,-0.6693367752082481,0.07268323214359919,0.39010775800581277,3.3949678243217143,1.301011505620327,1.4510884572270348
60,-0.6793369160844543,0.06946499886313436,0.38185022818605363,3.2482883080258587,2.470367537335326,1.7892776408225037
70,-0.6949151430147155,0.05100113046100681,0.3604732132646738,-0.49077924563174447,-0.6302533659561665,-1.452386221268588
80,-0.6895237066964465,0.05380750512202673,0.3677698123736246,-2.3903536804994383,-2.745371733628019,-3.044429474353324
90,-0.6899443721710057,0.0535281621921249,0.37159898555449455,-0.07151095470035346,0.15179666659974028,-0.5879574477439194
100,-0.6922776349500187,0.05763789350418069,0.36718118612762296,-1.3220240486221746,-1.3572527422442167,-1.6107482667307358
110,-0.6799870321222774,0.07317194848963114,0.3828799754463243,0.6987379625014541,-0.06111324098760508,-0.42636336175686296
120,-0.6616725266961366,0.08209586132523701,0.4041088577774774,4.234619771094027,-0.3600274564427943,3.4065986299245745
130,-0.6696691985404101,0.07807211289384332,0.4088905611179746,19.61873989684793,-4.134660348319573,15.151465051739898
140,-0.779183482273836,0.039065300981614176,0.4686354483934812,39.35477619073968,-4.550055493765489,28.184340660784958
150,-0.8607535728004763,-0.11281994273929079,0.545060638713179,49.71630182941114,-15.619178383287426,34.5268245868472
160,-0.7211683376550706,-0.07968698467952474,0.4528580579106278,57.75614679432183,-32.63394309878013,21.071991655795475
170,-0.6173171486429014,-0.020612648094793847,0.4212170357186984,62.83666652106403,-40.724675311906296,-0.17178836270309983
180,-0.5799189426101151,0.12261382210331205,0.39140381940035623,-1.6631792172200806,-39.71874999558164,-28.741421744382826
190,-0.6179422668719644,0.17983289494525054,0.35870951698928416,-16.033574957073565,-32.87274088075528,-30.167191071855676
200,-0.6115162617749438,0.3454830420898745,0.32904928363553543,-32.87005635777114,-24.059591506075357,-25.04507592331753
210,-0.617577287810483,0.18046653893492226,0.2957385067006647,-36.87211995184237,-8.723036195791407,-12.396142878681875
220,-0.615764362444594,0.11478271267055502,0.3602457575653235,-22.58004502074813,4.7500192776514005,-6.120961746559693
230,-0.6908908623232752,0.07629445022353122,0.4354971153364192,-10.703043639772352,-0.3271451397930881,-4.593556558000495
240,-0.6234849652066733,0.07495330533017884,0.43382840799607686,-1.3545003092369916,0.9484553582661625,-1.7087986374542383
250,-0.6171980360726649,0.08736742800926846,0.4525910408322703,2.8414450727574345,2.018189450075784,-1.6821026592471076
260,-0.6587045502512484,0.10010485975261012,0.4362888463232502,0.9227736069220701,1.3167407316346573,-0.4742433188050059
270,-0.6745199093214463,0.052155233655413226,0.4069768580087794,-5.5441897645491425,-1.0549991604449653,-0.3423240298299508
280,-0.647782829190864,0.037867241853749886,0.41657536747728735,0.022758108435928265,-1.067356901770552,-4.67637586226135
290,-0.6195835507161632,0.09879405458917313,0.41047665133247796,-11.050250145186178,-0.20752758838723395,-7.322064274505881
300,-0.6433712630948218,0.09241771220871403,0.43186661223265943,-14.152420020630462,4.451190988252604,-3.449998416539863
310,-0.6604149638027579,0.020718518421224328,0.4550149359834724,-9.043692837980736,7.037318465914481,-0.5498531992974591
320,-0.6603406011723894,0.04213762908242478,0.47264613628854224,-6.627100264622025,0.22155568958537974,-5.235812770355621
330,-0.6793366397641908,0.029887078411521863,0.42500010129574856,1.1824576819520214,-3.5865782421026355,-3.8506946169667207
340,-0.677424596262512,0.03270544764498124,0.45431393813262927,3.4856823405813615,-4.569417704843198,-3.7970597293908033
350,-0.6683480782575127,0.0666706189923756,0.43586973203300805,5.804757586955605,-4.108631078791296,-2.9579004905572823
360,-0.6256383600828744,0.0367903549565466,0.3855334607306602,8.628426713559886,-6.8641207234050885,-10.630181954049178
370,-0.6686602878086548,-0.028340541539021998,0.4520191859755715,11.292871778168859,-0.6692086045779995,-3.7942412389537807
380,-0.7147081332168076,0.03914914619683588,0.3146487990008515,6.035660493076385,0.6077791113532978,-17.582810558707795
390,-0.6767669203335496,0.04169936803801848,0.41458198286532466,10.402131342637018,1.6077137091649514,-6.130274358455904
400,-0.6699372319405583,0.0537808136084622,0.37176939186726893,-0.12301799253940948,5.28253244302819,-10.017238368054386
410,-0.6876141778128034,0.05716879017008686,0.3886978503527419,-10.659326148191012,7.2177234843390465,-7.985754809814074
420,-0.692700985331754,0.10118951480999441,0.3770556109040119,-23.072072417949496,7.329988561666532,-15.47318364090078
430,-0.6122759054878842,0.016636319267258132,0.4617667332555782,-35.21718745358385,15.30627921671165,-6.260845381952267
440,-0.6871045767127979,0.09185722943394518,0.40327817450260733,-32.25878797572465,14.072269551166466,-1.1421083748364023
450,-0.6470153845736926,-0.026477542142252126,0.5172461334384324,-26.916628751864472,12.738443442487267,6.57527380418558
460,-0.6208741824250232,0.04271320646752759,0.500936696596833,-18.34758973503251,15.225549339006186,16.7449897052352
470,-0.6644859695056178,-0.14460353124645153,0.3882641087836749,6.205139743682568,2.702450038021037,2.4386941640969395
480,-0.6450024208343014,0.20546229934252003,0.3089630428817522,-26.721812169049617,3.8094755757566783,17.284779230904988
490,-0.6719758306327687,-0.18552485373333966,0.4258687391792049,-43.80972308673458,3.11037176001709,11.131060766689334
500,-0.6614608973080774,-0.10401434443632922,0.406426035200869,-11.356651137027203,2.07136492499221,8.910472461731068
510,-0.6793537809128042,-0.03332124903686028,0.40525315337316553,2.5304550090028513,0.946096422416016,6.313576165695017
520,-0.6314874371836902,0.03344408587965109,0.4271802386385809,16.740223453519214,1.143784085711744,6.91165252396435
530,-0.6545475173618219,0.0226592511031294,0.416126518881286,25.755221424354104,-1.2211572775092778,3.2185310142219854
540,-0.6812623181029478,-0.03076008165423034,0.3915401229798975,26.239649754462903,-2.6868562247487953,-8.352531439646173
550,-0.6922231364655943,0.06770515371798161,0.380873527220263,20.23776683501132,-0.46940998389193833,-13.72444211360776
560,-0.6854399620537086,0.11349024896603761,0.42520700046317766,31.677409668572558,5.285186686462636,-7.967237783038142
570,-0.7077058013544619,0.22461607248690968,0.3372507654438454,28.536809208061662,7.6335397578766635,-5.604673043706349
580,-0.66171919397927,-0.018573373186172113,0.40651880036571036,-3.0959232365326046,10.61788421558268,-14.619138151745092
590,-0.6698502314532702,0.09809264928088295,0.49801560645889237,23.813053372603527,8.96270974143979,-14.26648302897153
600,-0.7432254606127627,0.008782890223156516,0.27193179687473,14.404578404220722,17.96235703085693,-7.292029923887758
610,-0.7748430541644048,0.13799570216297719,0.18201268681419697,25.386981086427888,26.081075616420673,1.58843882333325
620,-0.6985892870379072,0.1829722602785517,0.26528211016199366,21.336648322087036,28.416820959743973,4.881465632885929
630,-0.6439299496569767,0.4373440120865374,0.3292917479715901,-18.888136365943986,31.3936168027088,13.96383437201188
640,-0.6413900137971724,0.10806170925426514,0.46666061857301777,-39.08252382129178,14.261597046009122,7.078628123030431
650,-0.6174275406135574,0.02574783566529317,0.49055493175989173,-37.31976863318373,-0.3591140477154512,-5.980506944812475
660,-0.6219372366182292,0.05104148361755273,0.433183901335976,-43.99888518227637,-1.252505533635948,-0.1132547716412069
670,-0.6850579740542512,0.024748313073803485,0.47927231653667834,-31.35822348504811,-6.9782840316512305,2.2647363550644064
680,-0.734376190963614,-0.14297081634422634,0.445385134787435,9.12977310493309,-12.284432587742678,-2.910390610934923
690,-0.7095042076602556,-0.0631603405667726,0.31934138736150064,11.039447637854039,-1.165077543612306,-2.3576045728596515
700,-0.6850115979562711,0.030845500198178256,0.3681452690761603,8.897373034701939,-2.9151902451209626,-1.5268437237986658
710,-0.6817120582692275,0.04443661714313351,0.3801342635524176,7.166574539439733,-3.02040832065269,0.37106478819668154
720,-0.6640059816337895,0.04849006228843111,0.39907849890653824,7.621234673407138,-0.20344740372905035,2.9262214144420957
730,-0.6874562504601754,0.045588700884204095,0.3728538803435651,3.915827763692528,-3.0016866482662783,-5.438961694259808
740,-0.6739825794785383,0.04407114126968323,0.39415628856517615,2.1789061100054963,-0.3969084942936028,-3.569476064788131
750,-0.6956861599503839,0.016748882922944457,0.3776210176682212,1.0008859528512326,1.141664218281241,-0.15947537935264045
760,-0.6773347153187433,0.02990418230942723,0.3923882740756554,9.269533145499175,3.1075601628913545,5.3214263960694375
770,-0.669908934345609,0.06383401920909257,0.3937194503302262,13.129667225667394,1.212469946579903,5.036033304929045
780,-0.6581609496228522,0.0724733335145718,0.4050276797486571,5.0991297922373695,-0.2812630616426219,-1.25608871563195
790,-0.6768555358544224,0.03942247343680449,0.38739012375901777,7.285403263550496,0.5106531602563761,-0.48262546586399246
800,-0.642639243926529,0.08297240281646517,0.4184047493868467,5.333441250953053,-1.971419322354713,-0.7707765105053348
810,-0.6778670119815804,0.04803421682180014,0.3825681470307944,5.229182654375016,1.5499798060278198,3.8863038855862584
820,-0.6649371194341844,0.05618846305178478,0.3991470397757546,6.10903465873243,1.3024626446460301,5.470065151634952
830,-0.683136524891332,0.05577538871355643,0.3788797178206952,2.635448722419783,-1.7831592259076645,0.7147563106912496
840,-0.7066966964186983,0.02912276233225534,0.3616443057397156,2.368428152897065,0.9918096141577959,1.4821972040023828
850,-0.6806168895615395,0.04798907046228923,0.38532059698346877,0.22721944176213893,1.1515079312892644,1.5589342065483545
860,-0.7094091832284432,0.019069072728467033,0.3558398648273564,-0.6322283069089507,-0.3036189388351158,1.4165743917706546
870,-0.7005397936117334,0.0315633795255397,0.36672887404772464,2.502388968938863,1.2684305460640803,4.2925917397314315
880,-0.6617911809799788,0.08326842066949913,0.40072383198942724,1.7559400099290259,-2.1466545104138537,-0.8796121626630355
890,-0.6847929716162635,0.060799632670844435,0.37896473894822524,-4.610836917063953,-2.9652743299961877,-4.703154710567549
900,-0.6750773843402684,0.05163626861794456,0.3872022347674637,-3.791390856653115,-1.301719340773463,-4.104701976161565
910,-0.662562413165652,0.04968111307042118,0.406045632123468,0.7066789985841178,0.45465362457274994,0.24777907275338257
920,-0.6663212804038822,0.05841473171980064,0.40100304298919937,8.850455030305927,3.5502717624288653,5.4056264524023705
930,-0.6694382574738569,0.07086821215084871,0.3951803332348712,10.516686725623948,0.5471753719420979,0.7544454082062082
940,-0.6903061560706588,0.05238398320463785,0.37893395053299345,1.7211443754628126,-3.697160740060865,-4.8934239574971805
950,-0.7100167219498912,0.03136177051028927,0.3566490834124406,1.5465137260735746,0.2765180882076941,-0.8611915631901376
960,-0.6875504927444982,0.04889675472071086,0.37107946073307885,3.508701286666247,-0.6830838463404223,-1.0898168023236043
970,-0.663665020645613,0.07025141360345863,0.39954453110294785,4.349166105451719,-1.1158490564220058,-0.519215226919836
980,-0.6646892454026017,0.07030386928160244,0.3995205550255707,0.9782348961637966,0.8261949783000615,0.15607080571093357
990,-0.6690342819761352,0.06985334738804366,0.39618665222615446,-0.866432816690607,0.13307082058724906,-1.4181069125053496
1000,-0.665892143300474,0.06255305669791623,0.3968209207903664,3.072524831151799,-1.5955444674704808,-2.50496489065873
1010,-0.677406638598436,0.04946776011196668,0.38311440094365745,7.833882208050655,0.5037955199317788,1.1223998895392986
1020,-0.6749122293115225,0.061608103646174146,0.38874135382621267,3.7027247136621413,-0.9353287127483558,-0.1810993744104661
1030,-0.6997387462647696,0.03345344926807986,0.36465965117375004,1.2261421862093629,-1.3517516807086396,-1.6515690809311865
1040,-0.6504737287827936,0.08837003656798363,0.41444862192496223,3.331281309132031,-0.3743938259164864,-0.876869698944142
1050,-0.6913662741011488,0.06084854061006632,0.37608713797922794,-1.0756131893725307,0.07920030723637858,-0.09210986401427124
1060,-0.6728778257431549,0.05910902248173246,0.39077891956151956,-3.8677769970335407,-0.010188353757534407,0.04457501609992731
1070,-0.67436556323102,0.06661160375842855,0.39239585105482105,-3.0593131428092155,-0.9380400218124076,-0.1477750372228943
1080,-0.6642654327486784,0.0737846542077283,0.398020135067369,-0.6524814173852633,1.7095152780187188,1.5000795077679634
1090,-0.7032850545984991,0.030704862310186976,0.36272464202077037,-2.8034434691827577,1.0903562532645215,-0.13213950620883336
1100,-0.6667481047265627,0.06565083939752545,0.3937243042634491,-0.46711585735483957,0.8898103992197406,0.5249267253408392
1110,-0.6918903558266795,0.06062941989937448,0.3720160358564084,-2.979519759038287,-3.508635388437081,-3.1029555150245467
1120,-0.6737534660291914,0.0564484237591078,0.3888306959273894,0.537018976777474,0.0649859323938134,1.313911546097473
1130,-0.6902082397672643,0.04987521179900478,0.37623080919762936,3.8514513362852583,2.517699036497119,3.5606155823541275
1140,-0.6695724115503754,0.07822831989444555,0.39274305247098945,0.4075141896748249,-1.38419502461613,-3.0127917658028363
1150,-0.6620535832165891,0.081939433184425,0.39620162331801745,1.822439344984761,0.025013634183053857,-3.2491039644404784
1160,-0.6521894819763966,0.08891397068305622,0.4109552268906549,-3.838800702101687,-4.001252697516026,-7.394690839582237
1170,-0.6812259717223637,0.04819372388432683,0.3781500056916034,1.3109197868320375,1.1305122036615693,-1.6297866347966639
1180,-0.6677967928056224,0.06715189927651034,0.3975861768748956,2.5474583351666378,-1.8930689502074314,-1.997798329290947
1190,-0.6585475290030749,0.08824989595303437,0.4086602662653648,14.126965651875423,-0.542745633968687,1.4559456547045597
1200,-0.6544522809990555,0.12133005403555379,0.41584408408838985,16.82255659100388,-1.2449750256012204,-2.8825821852373017
1210,-0.6707467021194431,0.08957230640555361,0.3912042048249081,6.038523760324658,-5.1968084559711265,-11.534123248718714
1220,-0.6911795175142746,0.041930025236792914,0.3746555509755379,1.6792484908426384,-0.8837496976592609,-8.256028998696346
1230,-0.6618002313048873,0.06911474853951043,0.40270718036019926,7.118469611552707,3.161864112457008,-0.2147564751783737
1240,-0.6681360068706029,0.06549577621305794,0.39340209234219625,19.19991986569832,2.5507155439878475,2.707928027872128
1250,-0.6470395318761311,0.10632427386856005,0.41621370117600176,15.830164620803057,2.777803461794569,1.7770111804818962
1260,-0.6864988406840935,0.06749251903631082,0.3788066614473749,9.581844295479609,-0.09414965436584377,-2.7324650622252027
1270,-0.6766349790489371,0.0757834766370906,0.3869390247098281,12.816589243499081,1.8610115254782955,-0.3743248625060527
1280,-0.6767904859223386,0.06527084642675393,0.38515739978465524,20.18421660627315,3.522073667097927,1.8164749218386218
1290,-0.6390490695547646,0.10969246120660955,0.41714016339509447,17.743976855275406,2.7080709045684976,0.32162319601712963
1300,-0.7029356959958043,0.060300380082662544,0.36410708463318137,8.017042046136222,1.1668298991880266,-1.266330606326578
1310,-0.6666657529760175,0.08814767941245961,0.39783144753716343,5.136207764447219,0.44358057459697053,-0.825091833990049
1320,-0.6905342928923077,0.06294142755261774,0.3691359450130212,4.297794913669975,-2.464790866923789,-2.8302351005403192
1330,-0.6955694427894051,0.06297775079875052,0.36751777882345565,0.042230401791717775,-0.14896586127241151,-0.59921310108788
1340,-0.686973172843996,0.07865359019726549,0.37363119323231636,-1.476121582946117,0.7628333855582419,-0.12108204985658166
1350,-0.6548262405693683,0.10485664838553306,0.40363650547055624,-3.098624271082793,-3.7234251920801857,-4.367203550691933
1360,-0.6816429738681169,0.0763644460633407,0.3843035361918644,0.7341523595746731,-1.167766372196653,-2.013502754596773
1370,-0.6759735326073951,0.07695299465532772,0.3887253669134174,-0.2622212186411626,-0.9318836015826354,-2.3356578552497895
1380,-0.6666554722585406,0.08547275356948471,0.3897918639754822,-3.1487439183094508,-3.4610670419269143,-5.734042850519243
1390,-0.6905584733014861,0.05790335344803928,0.37770341127531254,3.385993426266496,1.20261277758428,-0.5076071448453667
1400,-0.6673737775843085,0.08791174942374484,0.3975645891391581,0.25746343818031164,0.021724133512736776,-1.3950949199280247
1410,-0.6605361098683062,0.09563444598839459,0.4017644040729713,-0.4696624830258769,1.9578685093594665,0.3045512023922117
1420,-0.703181459386485,0.058338513040931225,0.36329653702689885,-2.974171640144279,-0.950377604536921,-4.033610078248367
1430,-0.6587462488588791,0.1002440759616118,0.40469256762504996,-0.24703398388544717,1.7384527898190067,-3.7500191068911395
1440,-0.697491511007485,0.05441700473013314,0.36584783867159765,-5.428215830054664,0.4629512081186664,-8.636911855592617
1450,-0.6660321991289703,0.07555928382912182,0.39762730329454116,-4.366619858547792,-0.7653786731693117,-8.902564395798105
1460,-0.6796574873872641,0.06480303716758039,0.386219148247451,0.41619877512465786,-1.7669139114002752,-8.682634433741873
1470,-0.6735699233816818,0.0734691661684914,0.3915265631214283,3.8575952428094906,0.41188894094249673,-4.849627998313561
1480,-0.6739290300977053,0.09058382540370684,0.38951762270389895,1.9635274923586745,0.7535800825584169,-3.756767412068189
1490,-0.6767264016056996,0.05741435221511319,0.3866084415846976,-6.292819711990344,-1.9335925895138952,-5.329245398884844
1500,-0.6677435607323557,0.06471252088984966,0.397563117729586,-3.80943293591762,-1.3094687844873891,-2.414736352632745
1510,-0.7114489682524001,0.02107138885510003,0.35079004531801683,3.54346360906565,0.5117909130496071,1.5926496640209198
1520,-0.689504352417064,0.06028705423852278,0.36220951420129416,2.0148082817063786,-0.5341985155814001,0.2567620423036168
1530,-0.6418725776444237,0.0978775572400473,0.4158929825229726,-1.1283091303648276,0.8014595646201481,-0.7009480248462046
1540,-0.6834929239496175,0.049916423031555066,0.3785636379275904,-2.206078636747142,1.3216699771473077,0.3063384765510495
1550,-0.6845988196814305,0.04980868744107435,0.3822806036983175,1.7881715388793404,3.003596547663264,3.3773979157127982
1560,-0.6867439521529382,0.05138508956172946,0.3747624297290679,1.595482344631013,1.7109962480949163,3.082483063487407
1570,-0.6846986729308002,0.05731325714842913,0.37615017599619716,-0.9450761459262385,-0.38515492567817255,1.0629232160148587
1580,-0.6981834690417872,0.04185732672205111,0.3709129295373817,0.5736107402881561,1.4794431343261756,2.292481626181971
1590,-0.6749376750752577,0.06281337905607366,0.38872372829973273,-2.1189508165204787,1.188746676544962,0.5172941409383075
1600,-0.6787126638795532,0.06039755408717044,0.38179441125848873,-3.504996856747736,0.17414836135745188,-0.7915913949763995
1610,-0.6793401163990637,0.05744279079359319,0.38285882966587564,-4.447395222877243,-1.5120762767069666,-2.13590771479849
1620,-0.6782888050918283,0.05506244331787957,0.3857992388744288,-1.1272037342177996,0.045659938323570626,0.7119734547088767
1630,-0.6711895046900174,0.057596049818677914,0.389468184387869,-0.03067471464520244,-1.2093279352651405,0.9891296267265035
1640,-0.6491504471665164,0.09901422623959569,0.4170377561693672,-3.4103779300056414,-0.03844169063769032,-1.2205611448683338
1650,-0.6776131851943002,0.05885006912767672,0.38523277839828757,-5.243751173179748,-0.6809776698959185,-2.3701115514363145
1660,-0.6728495202621966,0.05881828495706004,0.3879848677428973,-3.664018314463469,-0.4091967417470748,-0.8354630619328469
1670,-0.6610969948593046,0.07096073429810565,0.3998731011153215,0.5135295757393251,0.7801613597808512,1.6109560929556148
1680,-0.6756694915118965,0.05849023740033328,0.39051109799640094,0.9813190783706403,-1.4474025113867068,0.5946251870192396
1690,-0.6615930561196046,0.07771724877846292,0.401209850083983,-7.699685107707871,-1.6152727508273206,-3.2233752105009366
1700,-0.6790739369744867,0.04335620759170191,0.384939053249428,-1.9287133104991485,-0.0833415298562677,-1.7484223275386586
1710,-0.6812401169908595,0.04364364908038709,0.38137997044009714,0.2536937539839361,-0.9955205000844771,-1.1806893133929868
1720,-0.7471394777212612,-0.017057294957489387,0.3210622512139579,2.9714603651603,0.0744681775323541,2.0170302786574634
1730,-0.6590124395511825,0.07513702530544102,0.40389797444202613,1.5512270071962382,-1.5399082350776938,1.3841833272392532
1740,-0.6890883190126236,0.04376904197733408,0.37004876509531603,-1.6168139358111464,-1.086170695750028,-1.7209914112222853
1750,-0.6860629691240023,0.046345513576347086,0.3735696584113766,0.16924711992121266,0.2685863257869583,0.20442872663484993
1760,-0.6837065551240833,0.050171343644899,0.38377689242693613,5.18154775822382,2.3299870217883214,2.386825115144411
1770,-0.6783394168758089,0.061419627646860375,0.38668406863889404,1.5161560331971748,-2.188243803519146,-2.1320006615278224
1780,-0.6586172945559533,0.07873987814319715,0.4024008869506527,1.1346100917324788,-2.0525271177867137,-1.4096266072680663
1790,-0.6370313204464593,0.10415681860378345,0.4343089424231647,6.172616240753182,2.267704222066844,3.576628717858485
1800,-0.674035531877528,0.06300656077846134,0.3882814459404508,3.900373521595374,0.2409056923370233,0.011274525136849067
1810,-0.6812886888470558,0.0684550105258561,0.3872722395802171,3.76787342853552,0.5494521305088864,-0.7391986983226062
1820,-0.6811197265132226,0.064996107447399,0.38019104319251645,-0.5729858594063828,-0.30781769642889145,-2.1772238029471165
1830,-0.6636667511026635,0.07212250055989762,0.4005951562934252,-0.6458192886200025,1.489232645539145,0.5422019741202773
1840,-0.6945500473428308,0.04075312549855703,0.3758342628587243,1.4638244758132986,-0.769906491223452,0.8563616024218208
1850,-0.6783659289679325,0.05494325259929368,0.3786453483312636,1.4667968932972468,-0.30304939598269454,0.07327833977863818
1860,-0.6749022815256407,0.0662710767387747,0.38800330707047215,-2.4176508646254327,2.472633883541961,0.8123518132217975
1870,-0.6590182108587155,0.0804941893900544,0.40647536733346296,-3.2364943761911116,2.95615409907119,0.7385151160961829
1880,-0.6893114500957999,0.04224026637275436,0.3735101721939443,-1.7373272915059803,0.2011179707731593,-1.897007285065693
1890,-0.6847350354556042,0.05276501271450991,0.38266332831574934,-1.6290176696356824,0.6459745576030919,0.08155862836637202
1900,-0.6959344970006798,0.04314894353359488,0.36692759725243246,-7.730143015257359,-1.4383708042181933,-2.4717751111339346
1910,-0.6772802103661921,0.056562927676597395,0.38683314955750847,-2.846301939803772,0.5535247450000662,0.02056485441435435
1920,-0.6559116138795958,0.08225340715993945,0.4090541647736568,-1.3259229911983672,0.27522558899789723,-0.6894953746058884
1930,-0.6834249001764053,0.05255338213715411,0.3766056153925754,-4.157239575304254,-0.19448296948464144,-0.9652151886267493
1940,-0.694057546773424,0.03975259330965792,0.3650529276634836,0.9011053619194167,2.398794967518125,2.329224758474476
1950,-0.6915037760588839,0.029832567161028868,0.3671338702872943,2.1957630790620564,-0.39340134334941906,-0.4922668512676443
1960,-0.6884578774624013,0.05114167863440396,0.3764973560056809,-0.6656671193084137,0.6219150596438319,-0.02122725691521843
1970,-0.7185111941706248,0.014478540852176543,0.3448723402037002,-1.3704322687649224,-0.09519602276051331,-0.4603046432136433
1980,-0.6544689754505691,0.07534165788389159,0.4085083560261784,-1.7105848752951323,-0.11747231575286088,-0.22099884724918767
1990,-0.6703777008520172,0.06140039012346257,0.39491015227522674,-1.5757142579253003,-1.1631016442800535,-0.6482481885865689
2000,-0.6748627730852033,0.06511909411147493,0.39991902175652844,1.4905165764211363,-0.39076012206528243,-0.28555913526203414
2010,-0.6633946382574777,0.06947295477056137,0.40076069892224525,-0.7920686259186355,-0.7726167561100056,-1.62778717689922
2020,-0.6766815242961648,0.05250109451872112,0.3824622203149078,-0.6737144328143756,0.3573007096627778,-0.675753646686579
2030,-0.7133252028741927,0.01648426362475218,0.34954467342263595,0.8764936136821837,0.5978112183053149,0.26094126342526813
2040,-0.6903155253058217,0.04553902427561096,0.37368468316022063,0.12540798427520028,-0.18806980208825053,1.5366883716290212
2050,-0.6891854584244229,0.04483418735247011,0.3730368331031409,-1.126510876627398,-1.9491907523832934,-0.47189358913364887
2060,-0.7047778385321584,0.03768701446066451,0.3554042769859575,0.25754571089526934,-0.05728253222585801,-0.8196545881066706
2070,-0.6683758157096074,0.06591697321154726,0.3945691434228809,-2.635303995254209,-0.8085590747913574,-2.7435758618155246
2080,-0.6899215795262201,0.039875325099912776,0.3721447417633427,-3.2739223822558268,-1.6933819849281555,-3.838642889182394
2090,-0.6834027669618827,0.048424656834646765,0.3804859680682563,-0.12080963763942888,-0.4253813940707351,0.1338486335794602
2100,-0.6577365986362008,0.07568956606536373,0.4026217986675569,0.04313581811999345,-1.1490474422082249,0.8947328222251694
2110,-0.6773004969888073,0.05533439100044103,0.38601506568438226,2.144995525973506,1.3713014601772104,2.080915839763399
2120,-0.6918640541660157,0.043229241597623105,0.37627093562984615,0.1685862109435492,1.337608419218257,0.4468686659014076
2130,-0.6681909528059157,0.06355308365614576,0.39713410726726744,-4.09922567088268,-3.903506223781234,-5.19271859681052
2140,-0.6393230215681882,0.09021194992629689,0.4224472908217801,2.541269361043783,1.275046747170078,1.8860302281047296
2150,-0.67414463940271,0.05634089940551685,0.3877330055363516,5.271277919880542,2.5808320316384874,4.190834884996729
2160,-0.6811184718310949,0.05574594438603084,0.38355019531312956,2.931988242645187,1.534980507377118,2.1853843283777725
2170,-0.6920981714131155,0.04037878461473267,0.37182928598568543,4.430784657217765,2.6725176873123746,3.04497722573185
2180,-0.6734176098107002,0.0616143687862806,0.39073965811847633,-1.782735755181394,-1.186053636820598,-1.3996265419299456
2190,-0.6724492213167768,0.06240528204130694,0.39220422918967796,0.3620248875610431,1.330952179240362,1.847044761017716
2200,-0.6922941129043819,0.038242711876212386,0.3764274396494751,1.2333069018193812,-0.9939974462900035,1.1337186226280909
2210,-0.7082596138486845,0.025830148172116003,0.36006981390089454,4.036523556532596,-0.21686959743817014,2.5222426389521817
2220,-0.6604921986323625,0.07910533115342892,0.4077937286351373,2.2657644591637274,-0.24541748236073574,1.8804077242629993
2230,-0.6936420816666482,0.04749915922003168,0.3719737138994821,-2.732484840502302,-0.7805704118903136,-1.1858960294876841
2240,-0.6663815832057559,0.06881855751967778,0.39961769263585467,-1.3711972921097342,0.3264688278890829,-0.4819080385548296
2250,-0.6604335374529983,0.06693228473286716,0.40195900925315275,1.4879897344371202,0.791641650916735,1.4922102344638164
2260,-0.6936834667334156,0.04165229042313591,0.37157681297720196,5.40478585017679,4.658048362876634,5.60185484562502
2270,-0.6590926159409921,0.07378696914926994,0.4003661494935406,0.27122688680928214,0.23646006402731556,1.2557064151381494
