time_ms,ax,ay,az,gx,gy,gz
0,-0.6799683403476523,0.021751472664827253,0.7222081739439279,-1.8409879429286167,0.11964510941751894,-1.66497994280552
10,-0.6884332857889062,0.011789584518590971,0.7117542867091622,-0.2588509336564546,2.2052829249317774,0.857857179446034
20,-0.6892840178309964,0.002749589844348689,0.7099768825201123,2.9905682469058408,1.123318148694589,2.656584013880676
30,-0.6892382692819997,0.0031120809554183964,0.7117871933584425,2.462456758244224,-0.3631743805532659,0.8791116959183702
40,-0.69229941151549,0.007644357751980162,0.7089614143254658,2.800604467296986,2.164813775059703,2.71285856315747
50,-0.6761940690893815,0.03385801200977956,0.7254897906111638,-1.075357791490827,0.22391296251603576,-0.1341093852070619
60,-0.7015461255968505,0.0035115909870241124,0.705536920599765,-2.642507579631214,-0.12863023158817427,-0.9273142501376506
70,-0.6518714591780472,0.041542646464540596,0.7514262241263236,0.31258932183364363,0.5544772241435864,1.4388239801860685
80,-0.6805348688826868,0.01174331115853673,0.7210567864164187,1.2413334152794089,1.0837582818230553,1.9392366735062951
90,-0.697459491913651,0.0015051640758162476,0.7032968561847786,0.899565472125257,1.3884483151140194,1.444361680356132
100,-0.6987194007573309,-0.00010902675233409251,0.7003253246244159,0.9091114244889956,1.8892561759517168,1.0422998977956919
110,-0.6555069228480181,0.047710120676730985,0.7504108375592018,0.48232325019675115,2.519818065055576,2.2714455048822373
120,-0.7001256149818432,-0.011206111816156425,0.6993039311251896,-3.1185512777312185,0.6871396812739541,1.6470077297098733
130,-0.7054641524482613,-0.01474034695803611,0.6917357914160562,-2.263962697245881,-0.13030431725746036,0.908089419245137
140,-0.70595894841221,-0.014552998530573968,0.694673015299844,-1.7537282390474205,0.3950579596284005,1.0025332557694693
150,-0.6887210433832869,0.00881675507348147,0.7073243566770688,-1.488978712135936,0.733733181071798,1.197678430768914
160,-0.682652956485366,0.014348474532982693,0.7275662867761616,-0.5316616327605759,1.050587311831549,1.3733781865116101
170,-0.7066260030609788,-0.010022901194530401,0.7121454484584776,2.6976847778287047,-1.2026637157624274,2.1995048409482933
180,-0.7165366143992618,-0.004534715827104602,0.7312534278059457,11.952927090140573,-5.804006306500016,1.982532719389416
190,-0.7595325375540022,-0.013033991749680694,0.7824151527032482,36.512411009063996,-8.60750162535102,7.779317422393225
200,-0.8106141917282478,-0.02454986842447682,0.7365718873801828,54.167588120425854,-10.441519033314279,16.367967521197333
210,-0.8428720406751768,-0.2591099256925945,0.9166520279637872,35.569847712714974,-27.28396778821327,0.20892024658198505
220,-0.6439130092339512,0.019192991512860136,0.7260034576482158,18.68077395492496,-25.10122084412954,-22.60347195058873
230,-0.601659323739826,0.055965582688935325,0.7267460466019082,31.32790791472505,-23.89930834385252,-14.87657727598497
240,-0.5186042960309608,0.11751653463077658,0.6901427045860478,29.38150553657106,-15.786165535855918,-3.802627557505737
250,-0.5091028237194836,0.0948584852365344,0.6914272105528189,18.255005549290996,-9.193496782924399,0.9925654239689853
260,-0.6016568934461194,-0.023301575099166746,0.7132800383713673,12.904794955358863,-1.9103660918140832,3.546328076822711
270,-0.5892321400924135,0.0941075478011145,0.8329144061987849,-13.871373587701877,-5.845285198658156,-12.676550526688857
280,-0.6722390036671297,-0.06500768068166864,0.7937714612175133,-40.25098113612548,-9.523622128144261,-31.539641795714445
290,-0.5754639851738826,0.050742588197609836,0.845463320974301,-55.57069954300782,-7.578691232099866,-37.6266393613629
300,-0.5512484655157996,0.19123727477381774,0.7799368004808989,-57.34145883189233,-18.587614562177254,-23.673826091791117
310,-0.5399261457388213,0.23180437429000011,0.5765980115432857,-52.86426354773761,-17.067548333269357,0.23921522205498413
320,-0.8099183622795899,0.048015900994034605,0.8222258020227693,9.817492123077336,-4.927335195459175,37.52757925606079
330,-0.9219824009229349,-0.07160367075158372,0.9292388494665974,-7.568425204473314,1.239602947119431,12.450590108419618
340,-0.7411638005806165,0.14871137804440804,0.9085252001319494,-22.696348208162835,-13.213522506902937,-1.1603147737000503
350,-0.5049391829440208,0.05862123759222968,0.6573568055177241,-30.458025646545757,-10.952015298904422,2.5632089268704332
360,-0.3530798955466171,0.04022882971239618,0.651978022789478,-39.76178342975844,-4.603347062525937,-3.087852294526852
370,-0.7803942863491485,-0.326110881810906,0.8076108782778892,-70.97608711934888,14.763654759171324,4.473977938240327
380,-0.8648667335013211,-0.2661994460053391,0.9044223380564748,-37.13215656717773,0.10831943487756934,-1.8339004259066183
390,-0.5684092337421525,-0.11430317448064073,0.7578023630584392,-32.67349216738294,-8.935209226108165,-6.077173918436334
400,-0.7028659746718271,0.01697494916970663,0.5643214921326001,-31.078151642860774,-11.327513893285516,-11.963011147923675
410,-0.6960113780527023,-0.010978847614674016,0.6850569209570884,-25.94966396456911,-12.156979617084202,-9.016442008650797
420,-0.8038334608773855,0.1541087681592258,0.6426881828792266,24.909584173006458,3.16058022092185,-21.892096327306664
430,-0.7565247383364389,-0.14106947410501566,0.7254832174808227,23.832889659456704,5.914790010236335,-30.24348768538084
440,-0.7060598740887808,-0.08585494658894541,0.5821208857149648,43.98783450190597,9.142583300201373,-27.51486927500235
450,-0.6665902493823301,-0.10285104287243199,0.6449772517807091,57.718941774114754,11.503595860501006,-30.86760145781512
460,-0.5931964264455143,-0.030240678761222904,0.8842724294234746,60.164894842525705,14.529705312869593,-30.83894404086082
470,-0.8603027477931322,0.26355240919860895,0.5768482595577947,84.6141925645076,35.53846876700611,10.146909967059035
480,-0.5306852122542762,0.20348753579122317,0.7602271956850877,55.01992624844631,29.50664670755811,23.23312543850326
490,-0.6380036035390161,0.039571284196553265,0.7854853864525394,31.38498777067885,20.033764640742227,23.94707493712789
500,-0.5788092968698453,-0.01775118221786712,0.8283104772075006,20.03362138275701,12.853832148558848,25.365910629318773
510,-0.5660127350300515,0.1094067209889804,0.575956623897008,20.81087351518586,10.568955470491948,35.3834141027918
520,-0.6734220952600198,-0.2237011823373734,0.6900492464535868,3.622844466093303,1.0265523417558877,12.938754022826574
530,-0.6908758854449258,-0.07867112255916009,0.7115419194471315,14.768862772851152,-3.373839398515779,2.154603573738071
540,-0.6695251484818808,-0.13934176566135065,0.7243456887154818,35.92696564058859,-1.480585989744843,4.0330576715639905
550,-0.6114508906195869,-0.24092559716595394,0.749397002682508,34.787691457381854,-6.708583349911093,-12.43945341952804
560,-0.6924608373320432,0.028903584836583302,0.7055467842607758,29.243636068119645,-4.625011539280515,-25.301805821930657
570,-0.7454358783150975,0.046248309971589865,0.6894455225624202,16.73024181817299,6.4585210127919925,-22.7683954051106
580,-0.6962162564661438,0.3215421996741004,0.7647219210008237,4.811764444361103,5.713523770987358,-21.666848476970223
590,-0.5958697040430361,-0.02950350842550679,0.7839946208979393,-22.534671282739374,19.738763436421817,-15.593879418674593
600,-0.869866526698378,-0.07633497484247412,0.35233794836180493,-20.84860117572978,32.090428541603046,-12.21672267800759
610,-0.8697648143110205,0.20573753427312771,0.49567477817515615,9.014271166759553,36.05369567531505,-6.252163315822516
620,-0.7740019384487586,0.12595962528072968,0.5301331494681715,8.77117367536173,22.028912154427218,18.572940149015665
630,-0.7540374702858756,0.09216969380706123,0.5533886516181539,-9.131627509293178,18.881217032275256,28.87245870147827
640,-0.5568153911804545,-0.15916609668942563,1.0311351369419886,-21.630150138827634,5.2132076395572255,25.690213284009634
650,-0.6789372261421455,-0.3229379897338778,0.8753730485536882,-46.03304259395037,-2.5285735718469926,30.2704655039901
660,-0.6050363180505287,0.025923109361399497,0.7713426351328014,2.487594354221911,-12.333710063778721,34.004890727409915
670,-0.7231344615855146,-0.06298865582151182,0.7053761170740032,11.472589698865013,-6.35304743855119,4.1198108812967735
680,-0.7363185325154642,0.024984157054443096,0.6645795505270776,2.001646309821162,-1.0910979474579547,-9.78140256758156
690,-0.7022886112225053,0.05498252439460295,0.6922001560478483,0.16661953196695467,-1.3417904275488521,-4.103916430545935
700,-0.7179418550817156,0.032581705368400174,0.6855366954856126,4.754254863532341,-0.13755913610562842,0.8438350365949046
710,-0.7352057919186394,0.032542308176582505,0.6729449252079824,5.293598868452388,0.35913037679407905,-0.11651909166554991
720,-0.7063475521986078,0.06865413151605342,0.699077705481936,0.48281292603307735,-0.5219262580637294,-3.8686890476692244
730,-0.7312394822511067,0.023819375287862862,0.6718380930828195,-1.2270280153906392,-1.0597593576372708,-6.4196059480347
740,-0.6999355583166951,0.05920193612420133,0.6968516685664182,-3.4487635193707336,-0.5553542586909479,-5.677604900223434
750,-0.7145084534978624,0.039676533121734,0.6788759187588843,-4.876857026631301,-0.7665267079276714,-3.829978916030397
760,-0.7035216916957684,0.045264104052955376,0.7022909074634127,-1.4661722822138792,-3.2704894242435296,-2.9542728259069975
770,-0.7171261431149304,0.04180839140374687,0.6826912477632177,1.425294863676084,0.40865818627457906,1.314687409933466
780,-0.7015213127035125,0.06342955758795056,0.7016033835328047,0.45361183322712395,1.369603932544344,0.9733859941218845
790,-0.6979851145884436,0.058338823707987215,0.7061931537278774,0.3877094797481928,2.86629167010954,1.6744204137487764
800,-0.7115543403407727,0.04129465266480252,0.6809708180157242,-0.6954986004943231,1.332028615792442,0.12205227005233565
810,-0.7091160836842215,0.03856383209271221,0.6903544309070881,2.44536806885357,0.19193091102466195,-0.7492952878166373
820,-0.7131231829774196,0.04674466962910395,0.6853796951839121,6.271243118245323,1.9756431279256625,1.8297776763606142
830,-0.6866820259104747,0.08070756944409022,0.7120831539888103,-0.8661750215605521,-1.3454628672713427,-0.5599367736725769
840,-0.6932874150776649,0.07348526741272111,0.7155449533449192,0.6074012668569031,1.640925826190077,2.857000387471444
850,-0.7096120207715929,0.03763501793963099,0.6928132932993885,0.4182630175378717,-1.149439702348935,1.3648270775741567
860,-0.7039715786796891,0.05124434709983822,0.6965834158197893,0.6813264847003608,-1.679428718617884,1.3075615018649402
870,-0.7090607463276505,0.052767409996427546,0.68946861619196,1.2699205082692646,0.9101435008345737,3.3812747995353076
880,-0.7078917464740121,0.05984849162007464,0.6921410161047324,-3.459833763962321,0.2740574083022471,2.5569548807574884
890,-0.6885332035218887,0.06722644045984374,0.7115774192527287,-2.5380221138845767,0.37637424859171853,2.185705935795802
900,-0.7142242677642289,0.04148316490916281,0.686779599733876,0.5796759359691458,0.6026768907191571,1.6943683916564676
910,-0.7027003958932063,0.04959005234455486,0.697871021078601,-0.4303021973160315,-0.7882660661476284,-0.18671863571358904
920,-0.69458785817833,0.05977408936457235,0.712396445922736,-0.5561947830788672,-0.5394897294418062,-1.5506155620325175
930,-0.6993540922903309,0.051574086437353533,0.705818610094494,-2.316581267902273,-1.0777716068851269,-1.7693842975244924
940,-0.6927184924908827,0.06112270695596326,0.7047837632712219,1.3556540589827009,1.2697982661097316,1.3347672128529218
950,-0.6968626332266671,0.05926278203110284,0.7087137228398265,2.6661810314010728,1.240041477767533,2.1164242203232075
960,-0.6930118438123143,0.05954624688859897,0.701412479166943,-0.14055146386599904,-0.6918924522019377,-0.4581405130506541
970,-0.72947233708334,0.02085022885334815,0.6767107328861655,-0.09639683605500322,-0.10020704974429563,0.4491431954932334
980,-0.7195000039118424,0.03459634427085502,0.6844091904745293,2.8837741623448223,1.815859685943197,1.961088403660518
990,-0.6975861173065393,0.055993187484420975,0.6971397810908052,1.2786734863321976,0.08098364423966492,0.00731870673959828
1000,-0.6967317871519086,0.06407588688174376,0.7040578190318738,0.509340967609611,1.4429293042018034,1.5902262909434852
1010,-0.7206133363886756,0.03735726353187519,0.6908665664295867,-0.27567107568095783,-0.67118663814477,0.20282091096097055
1020,-0.6799678063258565,0.08030090652829416,0.7201463644521463,3.2827386291321567,1.3810162302995972,2.30681814540747
1030,-0.6967547389827058,0.06127348869796523,0.7013500067538581,-1.7386585835200947,-1.9569397963388226,-0.7084175469290606
1040,-0.6927671004810934,0.06612642988190814,0.706815254256518,-1.1014738279096843,-1.3451140552088798,-0.13126699003544207
1050,-0.6909100751406952,0.05701071154489958,0.7120708400584741,2.277051772726974,0.23932518648585438,1.582176743520094
1060,-0.6876257889321752,0.06804326429805452,0.7109699364843816,4.769653922921994,3.7121387563725983,4.389895382254587
1070,-0.6894992141825866,0.07346761021703353,0.7145292238559161,-0.21431628927702434,0.28202851677449703,0.7308934661006401
1080,-0.7063956566698785,0.05695995136665729,0.6951409209669238,-2.229786454372165,-0.3558049958108601,-1.0157556315110203
1090,-0.6847787105648115,0.07208288614104319,0.7123725971963532,-3.641949656969781,-1.2521752146112402,-1.0522322260472121
1100,-0.7107707774215932,0.04881669801314244,0.6970198175786598,-0.6707717647799118,-1.7334796187407566,-0.985331673570277
1110,-0.6637769826619249,0.10175692351534849,0.7433768538244844,0.3866400461115034,-0.94032673114387,0.6249437326830063
1120,-0.6972889928438573,0.06369436506110633,0.7025728933451302,-1.6960776328332496,-1.8859065336999077,-0.05344933329903778
1130,-0.6882689959343373,0.07771162178961345,0.7073627704378591,-1.0495977961946243,-0.5774612019042566,0.09510634645307692
1140,-0.6693593494123988,0.08575977073240956,0.7291298400727209,-0.834517765917228,-0.12382707318648722,0.18812255006338408
1150,-0.7243653695906597,0.03269161087438073,0.6738671321550607,-2.9666589956864535,-1.5683494980944626,-0.960652295644713
1160,-0.6838762632495775,0.07558291125375013,0.718127523463851,-1.9528057723914636,0.06771546705674547,0.10429273635363179
1170,-0.6964702857700079,0.06413398559081308,0.7029397358175166,-0.962759115668662,-0.5413680838291061,-0.029427028424511947
1180,-0.664947959448727,0.09349087331385139,0.7402516311797502,1.8503587479458443,0.34420154408508447,0.9624830264783494
1190,-0.7046773745512398,0.05056056462223102,0.6989909252426499,3.453467580663129,0.4889575244468364,1.926810193170687
1200,-0.6876880502254581,0.07584441452803266,0.7107036974099961,6.939818217144927,2.635634778169084,4.584245589376389
1210,-0.7091877435942202,0.07040743716072875,0.6997263758557513,-1.4085532431688859,-1.3159986109387958,-0.7258026201105389
1220,-0.6906754650791377,0.07395886316525536,0.7103134483995398,-2.845224229746995,0.46666393873802814,-0.1488910334669114
1230,-0.6817762117293138,0.07349953232038073,0.7160338090383815,-0.5176186240333385,1.2291631210749039,2.2646114061502725
1240,-0.6957746051447107,0.05770419807501098,0.7025930358728024,-1.8180155424869746,-2.8627230918873106,-0.6173035215263196
1250,-0.6877763294916062,0.07013339516875311,0.7076309976522579,0.6795396489366571,0.2152397714583263,1.7805636833070717
1260,-0.688204474112507,0.07569547317817676,0.7121457348081793,-2.1384208409096845,-0.5092147817514265,-0.4665531583998989
1270,-0.7023788591250103,0.058596106419552416,0.7011381394470254,-1.491969492570141,0.7692126105720488,0.2747521828295817
1280,-0.7252106327374048,0.03641576081112328,0.6790954916235662,-0.7374829334074683,-0.692690341441523,-0.016679208028722692
1290,-0.715952581588457,0.041673534780717655,0.6856772277761295,1.587100576907191,0.4540567265079959,2.136903228314969
1300,-0.6837535014474936,0.07730020190572205,0.7193691086491988,-0.45753468710508294,-0.7860627317233984,0.1699860532820773
1310,-0.7023191278345152,0.05684340047773753,0.7010460778933348,0.1405079232588322,1.803922880312655,2.4244305315495622
1320,-0.6865330765511949,0.07333233560541674,0.7148699355582604,-0.9056590278907977,3.087561423657365,2.769188243933396
1330,-0.7119980095397267,0.044545813474649594,0.6950364857008237,-1.4971995430086396,-1.3435219172784911,-1.3133759954559927
1340,-0.6865302620835096,0.07420847190162964,0.7150441007617466,0.24214308808439944,-0.3790075318142611,1.0086526847138821
1350,-0.6850107669075898,0.07395944106898085,0.7199062055595661,1.454499503270475,-0.46489735443549984,0.9689648894450538
1360,-0.7060126937988136,0.05594649117114295,0.7001180018005674,1.09044292642628,0.09343404352401827,1.004800599217168
1370,-0.6898269445127975,0.07032831090075185,0.7190102070038052,0.8670254726907023,2.3721394515208645,2.774341079719141
1380,-0.7122453988096065,0.04919971099330221,0.6881867134292289,3.4340328563634435,1.0994585220317823,0.9494604004071998
1390,-0.6920642437130338,0.07237810188680943,0.7041359662442197,0.2542389304041355,0.5946675011841954,0.1790092626327175
1400,-0.691329493714011,0.06614158182961245,0.707749632604781,-1.0132622413269203,-0.16722265802236855,-0.48227045708544425
1410,-0.7196065274069489,0.03248663117798148,0.6814732685746915,-2.2880061469176836,-1.5877399550868105,-1.2038209539371294
1420,-0.6875908902920157,0.06572766044582169,0.7107863745011627,0.1007134342788858,0.5209278736505893,1.0609001352598442
1430,-0.7096577987924311,0.04890138596182658,0.6925996316496733,-3.546567206369467,-1.0140387470888543,-1.239327911215408
1440,-0.7091339722870481,0.04703343007406683,0.6872277165547128,-1.562575326288087,-0.4221536124812526,-0.40229082420688655
1450,-0.6953319914921452,0.06239273892219683,0.7071719250355978,1.7980372966424492,2.2460195799314318,2.5989555714681054
1460,-0.7104174870697586,0.04560288822003,0.6938851823795721,1.928289880308342,3.4233351860237944,3.9104595752882956
1470,-0.6920565406052882,0.061111436851667825,0.7088187534311892,-1.5935073819989238,0.6588873694741506,0.9703332558506982
1480,-0.6744501515877454,0.08175202272172012,0.722628382697031,-0.7507764255062328,-0.7268353701911117,-0.03641564817099907
1490,-0.6906802483491074,0.06582445462975736,0.7092534039054509,-3.589979099209332,-3.951283203752744,-3.32267814701574
1500,-0.7328707162903819,0.020912290584491053,0.6627522620627594,0.17876152704004628,0.4752309595360561,1.247125990253839
1510,-0.7231752157618418,0.03277282087728638,0.6752243427074903,-1.0721834646340085,-0.6205457150917345,0.12074711507430314
1520,-0.7275820993985977,0.03267395510794287,0.6777723745543516,0.31622734385925755,0.40095197819416223,0.8065393551757107
1530,-0.7127402622227116,0.03681514516115732,0.6889264996099913,-0.8956561340349678,0.4163425283559162,1.2444496275114987
