time_ms,ax,ay,az,gx,gy,gz
0,-0.9415476024061525,0.17845233820631645,0.38241677461986523,1.7126145167053868,1.957961214510682,2.002425415700675
10,-0.9512149981300637,0.15770919327979044,0.36766650839549353,-0.28323458588589046,0.8441316834439595,0.08194636098369468
20,-0.9520417617179395,0.15697470936073282,0.3679202463164637,3.80532338301222,3.8187401200555326,3.2788089714618334
30,-0.946431185688768,0.17030249078539433,0.3762624469589252,0.8831269810298559,1.1607825627466144,1.2064260543607743
40,-0.9610893655137722,0.15479387170383652,0.3668591943533607,-0.6612566266674662,0.48382643190580293,-0.2130136798796164
50,-0.9390764388474062,0.17147814767089223,0.3839885931208808,0.3179890378303678,1.7157560649078667,0.7882339633660641
60,-0.9104969994478053,0.20206228435808307,0.4112539169515808,-1.2397872311959601,-0.7036772981968892,-1.8098485231758001
70,-0.9066215761338413,0.19686376789117785,0.414648370895498,1.5756389686077437,1.8657596089557071,1.0011521350697379
80,-0.9493010707892013,0.15653886290678948,0.37822766384382306,1.6062674358079239,2.2662373843872636,2.275658119011928
90,-0.9284243508726362,0.1934654144904631,0.39588367159867127,0.008435910855805362,0.6322559837899335,0.7892370448292494
100,-0.9410564177279443,0.17238545257985882,0.3833851069037079,-0.030194068798230833,1.0541110286049094,1.1018156447953342
110,-0.9421880559160325,0.17570214398044187,0.39055584657925585,-1.7265587496796395,-2.4445742365528993,-1.861856111615793
120,-0.9440227809756244,0.19779337795525248,0.4305548823645556,2.210942234273593,-2.7815397064630893,-2.135153253363603
130,-0.9794215243053308,0.16938804845242902,0.5197219929946593,3.3860085206411505,-7.626928102825762,-3.336712553475256
140,-0.9388441255018768,0.1066411682428463,0.4944779901456175,-3.382725685537194,-24.105591815808992,-16.682856784555785
150,-0.9543575992999417,0.2073658211423645,0.5645337980275517,-8.73993881631162,-31.086843462669957,-15.04282291653147
160,-1.0574794843947424,0.20756588127737252,0.7795882461520551,-0.7919244941242322,-54.18962587567374,-6.262666176287514
170,-0.8083851468266817,0.22581857107032213,0.2890718320710689,2.1130313023838627,-65.8980852534247,0.2956224363483142
180,-0.7207502388493208,0.23094065692273047,0.38391246914820837,9.572286955050737,-55.62175463486453,2.0998164299667206
190,-0.7238705559936339,0.2305041999210658,0.3087815983258515,6.712239453893965,-43.4438007517281,4.153471496200171
200,-0.7416164731986025,0.33014771793826103,0.3034885085482398,-5.8872461505792355,-21.765122856671102,6.557256470556564
210,-0.8296272098667073,0.23469177623639692,0.39365971205099604,-11.280205114011075,-9.169210581862032,6.55432658192398
220,-0.8807460932937128,0.06808896615493146,0.4461877998787433,-28.135977774986,5.386873133702761,-12.777325169445046
230,-0.95634050478008,-0.013022440172993853,0.6242474521005119,-36.48328600750868,11.424433936684931,-32.77322378370228
240,-1.2780651270707293,0.34064801927684485,0.5543401608480769,-27.352598004447252,-14.692334882823507,-23.553944723527316
250,-1.0217214637201546,0.08993671782011707,0.5422823469971746,-47.84012768316262,-21.506615482633094,-25.616649643065593
260,-0.8528778848604033,0.06492804885315283,0.47830388983275585,-21.003437954037985,-27.177469236768424,-27.522716975876186
270,-0.8897278270287818,0.1896873699575692,0.049905893043063296,-17.149142710245016,-32.386693457601666,-15.722439968953946
280,-1.105303316690905,0.22761913138422615,0.09015425646258889,-27.5600454339935,-25.7543026861674,-17.2381812197133
290,-0.7609366348467371,-0.1715349127445243,0.687949693053168,1.7377090765813643,-37.09532478346152,-18.444183168364383
300,-0.8156363421020566,-0.13905488828661544,0.5803572007687607,9.634843765046108,-28.43179582137746,-9.70540034721376
310,-0.9074301801228907,-2.8593293911516153e-05,0.52642684942911,-28.718960484851618,-20.087576618265395,-16.181935968778465
320,-0.8704315155799389,0.09758464711939915,0.519581649389142,-23.98536716701673,-7.6032090760142115,-8.33613477971856
330,-0.9248903073061937,-0.006370521002030728,0.4693459473779926,-7.691544954166602,8.536665946655315,-3.905653422826961
340,-1.1654124487489306,-0.17214415327389043,-0.06205316882851771,30.18796747436333,40.45938096587332,5.293880939299127
350,-1.0019376137821772,0.08024088680405968,0.261179751111602,109.26442679170161,75.22449695341413,24.1799196424006
360,-0.8883875495969481,0.5073401244563415,0.32835800608730514,90.63484327594489,83.74155835215544,25.254240878160623
370,-0.7761045306607011,0.35400160946540976,0.9630935538016884,60.42824428487117,116.19653589125348,58.606225071986614
380,-0.7930868112200105,0.19940769791124616,1.8465967798978524,4.165370953372865,93.8459815573453,39.59061609240803
390,-0.8338288932776031,0.17823233639095054,0.6217811559511752,1.8578359842832748,41.58061591622801,22.924008532165853
400,-0.8047692224580636,0.2042982156610283,0.43459803833565924,-9.015202327638491,21.011127351905433,8.215759201931942
410,-0.8643416526207296,0.007930908916823375,0.6694519007717542,7.598969593563219,6.157346800844482,-0.9431378039696766
420,-0.8955664771526838,0.04067591409520868,0.6089074287879106,6.308342415945553,4.838185989294488,-1.9850809271100323
430,-0.9565062390226043,0.11367189806895614,0.4423604422900441,-7.064939255686024,0.24381856602087937,-4.740424015376501
440,-0.9632940334639394,0.12524598700741643,0.39245989080673,6.649505453143401,-1.8714257503436744,9.766345143748282
450,-0.9171618635282703,0.2147251536221872,0.4144247171247677,13.837473348067823,-0.8928355767986975,12.746797904118575
460,-0.9359728060564253,0.23827978817489612,0.38316410585620037,11.163039146932723,-3.82319319828684,4.298985260058518
470,-0.9484873565552218,0.24106323572554406,0.38307808816159983,13.095842725723335,-1.6551985738980801,3.561271758415617
480,-0.9742106196753529,0.3938009079947181,0.3617619918036367,10.088874785657175,3.1676799914518794,10.205773313125842
490,-0.8664228051803687,0.45047032801973136,0.32092916952745154,-23.73426260711132,10.835998228223982,17.312456183960492
500,-0.6592310067084847,0.38317117286284114,0.24424502396741227,-57.93527183276097,18.701173467000935,13.101655805331854
510,-0.5986403244052855,-0.01566261762541592,0.2282888630315376,-61.328083108540966,36.412511377041255,1.8146829234080877
520,-1.3302576353128719,-0.7034799091551986,0.38441666911659733,-67.69733654436655,-2.351088985808738,-37.357389919461895
530,-1.0944795894530914,-0.4072206010329727,0.38485053148151366,2.9422695231187754,1.508167989840273,-41.53832347584668
540,-1.0293646684615347,0.25876905491129043,0.7692788599802332,57.64943869924691,1.5804581749254212,-28.490634921962826
550,-0.9893077194836558,-0.4589678136555283,0.21945277589070025,62.204638473944854,-1.1407536380392767,-6.1110278945176795
560,-0.5614977180742555,0.7057750434545025,-0.220819017250802,21.453846815438048,6.460006983770324,10.612133315710627
570,-0.7712061244345788,0.4276848778655292,0.3026747266562825,36.09917479987952,8.742881676582273,25.17868383669252
580,-0.9678752401569934,0.49050266527370606,0.24467322291894844,-1.4930972013215915,13.739777186946199,38.02736738370879
590,-0.922630911709872,0.3582967024774763,0.39395468822186785,-0.4780053260288123,8.068380485393714,24.81334899109468
600,-0.9121634107005377,0.21923733484670502,0.40490253546509936,-6.7852535870880715,1.045914332645952,-9.79022555107385
610,-0.9269136698086519,0.18115256496246604,0.39833663164050354,-9.539822866952397,-3.090027468860252,-21.370688375751417
620,-0.9501862991688125,0.1332353492024615,0.3740247270835326,-8.99371686989889,-3.302415314243702,-15.859995500949331
630,-0.9407347293583672,0.12891874484797058,0.38637346064311057,-2.7490988302226818,-1.5489014255177345,-3.977999543254951
640,-0.9665103626733205,0.09863285581532685,0.3662883174235884,0.20537685128436411,-0.7254822819191746,6.411392243312939
650,-0.9507739743679817,0.1485712533449084,0.3823467016769118,0.427846081254212,1.3989365509549976,11.020027894409496
660,-0.9328523380738122,0.1896698792146661,0.3997267032093137,0.40716690279827283,3.9590673420302225,7.501818909692414
670,-0.9493648348845212,0.1784317294284052,0.38489876789432714,-0.4073164068677302,1.847302554606845,1.84140892006599
680,-0.9508170706446878,0.17394334483738658,0.3752978737901851,-4.793735006222047,0.2524251746186421,-3.393720632763744
690,-0.955722938692421,0.16634377478757084,0.36531353201190914,-4.871522848948857,0.9435961425660601,-4.632424026831086
700,-0.9377202734574043,0.16496601264557414,0.37308399266858483,-4.07081323420151,1.3962784866561053,-3.222278840732132
710,-0.9199818408040951,0.1820043390729586,0.41345512260748646,-0.5571898990826586,-1.7614561933387645,-0.1629899436892528
720,-0.9112946670982507,0.1936729792195304,0.4202653885433471,3.008317356030011,-1.9462273782270234,1.4661676055045185
730,-0.9436511402321274,0.16350810543172478,0.37729395323013565,6.335132867762516,-0.08095408866071453,4.902322477856383
740,-0.9317042456870573,0.18924517108456676,0.3896996889037303,2.3251941289214817,-0.7237236652391684,3.809081210561348
750,-0.9559711794516347,0.17394548818574146,0.3788021829138515,-0.7350229979141086,-0.6178854619375487,1.100900663220385
760,-0.9332742351483192,0.18733067028009867,0.3960953867144104,1.876518498639243,1.2794717670624176,2.3710824524130723
770,-0.9383627334993773,0.17495271286675013,0.38953196068614915,3.827595135147688,0.9967793785692446,3.4551614215963813
780,-0.9244014765927623,0.2034940238455751,0.3973596654844488,2.750556595188527,0.9066157804255147,3.40033567363147
790,-0.9530280944119759,0.1696844597662236,0.3681667506435893,-0.9700097047827578,-0.4908242652593964,0.7527155063841299
800,-0.915833538404607,0.20552281097898542,0.4065755617249182,-4.330541315043222,-1.2901576562234287,-1.1897468928309012
810,-0.9488984393564023,0.1786012016575835,0.37469161519085076,-1.1275390292036012,0.4111979954309568,0.22017188508797303
820,-0.9336149914354629,0.1729150675615455,0.3831736832579023,0.1546853427531416,-0.5438590176321383,-1.3452037334040243
830,-0.9379517714442503,0.1956176987521632,0.39289528139182994,-0.6151627048877345,0.073392958950352,-1.4947325587179352
840,-0.9628837393393429,0.1688913058055978,0.36425415689340285,-3.3989651240215024,0.5251056393542978,-3.484025076192719
850,-0.9127046042967076,0.21496919399766432,0.41816103714346037,-5.420342791753081,1.2204154887718268,-5.075428126914543
860,-0.9387871916954919,0.18157220646797423,0.39213763486776415,-4.570001423905843,1.5307657966064099,-5.2954096309121645
870,-0.9532890778714003,0.1493026385815243,0.3731162039242257,-1.1750208201884607,-1.3993942152741035,-0.17979688907247637
880,-0.9589452945502693,0.15213313016657526,0.3679947086272865,2.2707073427834965,-0.2704074986789398,5.5044258303620595
890,-0.9207335024453954,0.195545276643387,0.40317793157057885,4.318264728274547,1.4232947411459724,7.051566823964139
900,-0.9535062355558765,0.2052843731165295,0.39264657194430785,2.879411830924063,0.42326020347571036,4.128560737955342
910,-0.9367117354066157,0.19373986423909448,0.39933032271994273,4.14161130762268,3.9834167938454588,3.554349920444604
920,-0.9320512265186585,0.18807219054621194,0.39332479582697055,3.2057498901734696,3.6347988423754973,2.6276528173492846
930,-0.9483785570873217,0.16491296797230676,0.37857770395009177,-0.07477736088814135,0.24733792771207375,2.2403975320154257
940,-0.9383082072771268,0.18221582696125338,0.38098147332361126,3.0112757531563084,2.1747178472289512,4.017514445830669
950,-0.8898669044851405,0.24061410797415936,0.42062733379564105,1.9434902089830561,0.5311152664417951,1.089113251887107
960,-0.927403871555243,0.2039770199549944,0.38922654245661137,3.787931752176811,3.5364125141251535,2.045535874090864
970,-0.9401674024228969,0.17769865043646244,0.37977205750795995,-0.9513760330691766,-2.0838743039483756,-4.393682299507278
980,-0.9404187628243823,0.17197758510314254,0.377014575031746,1.7993154068571355,-0.26208926081653283,0.30096917195361383
990,-0.9471329093338902,0.18102028199628553,0.36709266857927875,0.9673645939272824,0.8849606250252133,1.492500782321309
1000,-0.9214406845379952,0.20684905889851507,0.40403263356200986,0.2065786231228514,0.2777731796512761,-1.0317929324907547
1010,-0.9405437499552902,0.18551815350260642,0.37371077331795094,1.0643124233093353,2.0318880154489047,-0.1952920513977492
1020,-0.9414541476476008,0.1817688296703531,0.3745736733322371,0.01123386380182223,0.4936442638362399,-1.4319217514506284
1030,-0.9643647226721199,0.15321949005608698,0.3531243262087415,-1.4302328170728866,-0.9185987736861625,-1.4409543938142644
1040,-0.9487932466688332,0.17645727658020874,0.37015955747452106,-0.8751724518066684,-0.2527798509808066,-0.16730868975458602
1050,-0.9320412497571994,0.19584234324014063,0.3886373421939137,-0.9924065748288152,0.33938793842031845,-0.4299725033479086
1060,-0.9548072781224614,0.1633437850629587,0.3608840140660506,-5.082638086839756,-2.6179884165767855,-4.299474019384322
1070,-0.9387418897181051,0.18225460498625443,0.38231915364170144,0.38928147530626145,3.1139237509290205,1.3344768810756993
1080,-0.9398011537677089,0.1763582250629107,0.38226239003432033,-1.6279916508974202,0.9883860897776533,-0.01204891502968608
1090,-0.9127127264169935,0.21133626069630865,0.41289345329877086,0.6900245159405527,-0.029182735210793703,-1.1014821561127217
1100,-0.9464519433557443,0.17429925124651235,0.37573669820660904,-2.579782467636582,-1.2200347886649432,-4.917618840939763
1110,-0.9368431888865003,0.18806458991881586,0.3811841276706117,-3.9351901336970068,-1.3559292121413131,-5.9380198045711206
1120,-0.9294179672743924,0.19294523011350126,0.39208809711114895,-0.7720963625359218,1.9955246934486088,-2.165594135932314
1130,-0.9627506930903937,0.15206309310659966,0.36293074374262635,-0.46111694039615614,1.449727136842314,-1.1025741341217659
1140,-0.9493504390596857,0.16173103215299936,0.3714236340248851,1.4529141099029264,1.5345143924035596,2.570934034299305
1150,-0.9337985633575403,0.18690374372708432,0.38972832250184447,1.245616694918278,1.7156586399646931,3.631429713787956
1160,-0.9715002408418364,0.1536877913880884,0.35007967924517996,-2.3916372506850827,-0.7303221043954483,-0.7052758666899935
1170,-0.9566038914223529,0.17692369529942287,0.3590681890259218,-1.658744098434441,0.8248162921074066,-1.1916528280424667
1180,-0.9090383513365342,0.21019034285951352,0.41218109043982926,-3.085553864501927,-0.8744412881919111,-3.0375288851054556
1190,-0.9377571593087711,0.17135911346171404,0.38763670817818574,-1.0942897848346833,-0.546535987293625,-1.3530299777184585
1200,-0.9677232038623632,0.15483789478966783,0.3587530278850021,0.16999429139476402,0.45963613493118716,0.9531419374535051
1210,-0.9504670492763518,0.17675215226565447,0.37561579264394324,-2.639957197883052,-0.3439985693145702,-0.37119174197321436
1220,-0.9446489570282429,0.1830845113492669,0.37846779574311057,-1.8104741254254715,1.1525457404175161,0.17646241180611755
1230,-0.9255333575158476,0.196896403303738,0.39897585290020127,-4.95721904669392,-1.9886633602172674,-3.09196511012966
1240,-0.9396760898544485,0.17843706573091295,0.3941106167235349,-2.912670557157583,-1.4723222463422334,-2.011482153885198
1250,-0.9477780529224415,0.1711469433120419,0.37632473250026466,2.0044924171010017,1.0558486301148935,1.3595371378109016
1260,-0.922284594107162,0.2024435757457197,0.397615502263221,0.8041287835741264,1.9793231428843363,1.0218211619054387
