time_ms,ax,ay,az,gx,gy,gz
0,-0.6872321738542684,0.10026122793795986,0.7092191279765688,0.8648169248769432,0.8391468530692915,0.8164695770447208
10,-0.700774914342634,0.08910227529784859,0.7024119115592097,-1.5463880389069506,-0.7084486491226779,-1.0518037191439664
20,-0.7146347019609673,0.0773468016782529,0.6868682482704842,-0.49331690839028897,-0.11141674629282583,-0.4767562993081811
30,-0.7093980079434451,0.07245003157465267,0.6869379130307992,-0.24671201837501855,0.22294774071601733,0.4522859656554816
40,-0.7100558355739824,0.07329378868152221,0.6883834744199651,0.5180690579240879,1.2948795384758123,1.8533551530407295
50,-0.6925443041174854,0.09672640439222865,0.7086625697792411,-2.4398167618315423,-1.0786850249397917,-0.8434877761821828
60,-0.7339456612684526,0.05922749188792703,0.6703875162447995,-1.5311351638154527,-0.3368724597243073,-0.4341583686979452
70,-0.7156074760154203,0.0754794533920906,0.6931874880457937,1.1809830718390995,1.869233659696598,1.8003241298602715
80,-0.6939474041403614,0.09162170359746176,0.7126525615042889,-0.6990777810156823,-0.4378723292019712,-0.3291197664740283
90,-0.725268075007026,0.06011417509856997,0.6731028386101834,1.0840813163449181,0.10230919001909033,0.5599827256892509
100,-0.7127392044092996,0.07451624173286904,0.6896207023620005,-0.36931869852855037,-2.309942561998419,-1.1718557978804307
110,-0.6942574294883765,0.09084229398093163,0.6990656182660013,2.1855674183651175,1.224250835316829,2.354497580970466
120,-0.7211664756075764,0.062164379029417925,0.6814302478638611,0.2915196066346687,-0.29293324614442035,0.7052660695344464
130,-0.7039532800680813,0.08652849623763435,0.6974139777113235,1.8048362672248541,1.5798688324117358,2.4934014227367767
140,-0.7243767690745759,0.06575502785249325,0.6857073476370722,4.966582640859955,1.0317083897608723,3.500931096222266
150,-0.7056880353370477,0.05923929169687491,0.7139558051938403,5.619841294083798,-2.270045356044199,0.336527345433534
160,-0.7332391718716638,0.06823687426008374,0.6927661991529785,6.375875114840594,-0.19759536417148238,3.197090887892229
170,-0.7177605421922328,0.0852421082323062,0.7271242092957042,-4.213186403320878,-1.6635784273506569,5.3218869739330845
180,-0.7198663225746416,0.08153373450080023,0.7151326767813758,-5.226045214439772,1.4899808513989368,10.771633116899304
190,-0.7453005021730874,0.12308553440689386,0.7538564520690962,2.3882282307139,1.223545758130823,14.81430687284645
200,-0.7552743254928942,0.14366426495642556,0.787703558314229,2.3848786840782514,-13.466818588437457,6.995864375691713
210,-0.6746952859118848,0.12972521172238757,0.6942546163874527,6.665885656319028,-21.953995529050378,0.33161960707481053
220,-0.6750902693965382,0.11637091628259323,0.6912844243499363,10.54955018332818,-20.750088925763045,3.4342163410768656
230,-0.6673616147988087,0.05760055778838061,0.6752843111189651,10.97518670049671,-20.665410664589892,1.9439300937443622
240,-0.6509581438026064,0.019633500693775927,0.6949369270541995,9.19370465093418,-20.58928750672096,-1.8272207119011503
250,-0.5740935234962045,0.08667321212611183,0.6952480922176003,0.8552350198869558,-18.988134457076534,-3.336123754258626
260,-0.6143030342982683,0.10549926948094913,0.6474691414541309,0.40436497320214815,-15.06764500898662,-2.485150479369581
270,-0.6470291249551553,0.2702982119289087,0.8782523537282803,4.537938960140002,-12.991422115662127,8.360247513659276
280,-0.6517804731480399,0.20120832729751978,0.8896890982502655,-7.617015932789391,-19.95130107823569,12.265338405473532
290,-0.6569077699198839,0.11200408515140972,0.7640188884510078,-8.509034085216378,-20.582497729613237,11.051551526686177
300,-0.5945475542614849,0.09582213396981674,0.7628405084815004,-4.7387692768867185,-21.04713763206334,4.464310127381321
310,-0.6020330695709536,0.07600883654676091,0.7425828433898559,-22.32185487475455,-22.332119628635798,-0.8000175541333419
320,-0.6134547407280952,0.1787826583586869,0.6963210440833052,-33.188564465619216,-15.422103742806085,1.060578718907759
330,-0.6025943577564081,0.20516221515429273,0.7011505619416561,-6.196093546801184,-9.47079716180891,-1.8818749803185106
340,-0.6364886254326074,0.04899629066775613,0.8118130345183979,-2.4950596015876614,-6.845439784934606,-4.350405500564251
350,-0.6977799835803277,0.04006664959974305,0.8188918570210963,-2.9388035753415145,-7.285431742056158,-0.4084964026818412
360,-0.6957942789454223,0.04276685386900171,0.8119770153716778,-3.11870615195499,-14.964620368289111,-3.962064218732695
370,-0.6517862061958348,0.048173129676706984,0.7797823052458582,-2.9401581369400263,-15.892586603139016,-2.673993902244081
380,-0.6483130536085988,-0.1268572648992257,0.6840567446199365,-88.90862166915475,-24.916770908810733,-1.201941110642211
390,-0.5678559956509304,0.016741586884873295,0.7315711966184649,-30.865847858517814,-18.38655388293812,-5.502274863979739
400,-0.60484928564289,0.05081777680670463,0.768795002122315,-23.395190994880643,-11.950845598091721,-6.560288676597167
410,-0.6796910648895514,0.048912047592067256,0.754953118324488,-33.836851859088,-10.750059537715524,-8.117149719825903
420,-0.6391059470373776,0.011435909359415537,0.7753915629408443,-14.492633656707493,-9.472962539923255,-9.075778134270283
430,-0.6582021066529821,-0.09027435197530385,0.7568241226860634,-2.3013678241148012,-9.368624038651507,-9.74273430305255
440,-0.7036696706840682,-0.03606468967086356,0.7617133471309404,-9.516417361926601,-10.437589553008154,-8.88439451943681
450,-0.6999570398732479,0.013800799879329445,0.7440155004728912,-0.16396535125528544,-10.052545493954748,-5.229914100525706
460,-0.6296385115253261,0.04279953245194458,0.7872797612257553,8.474271935249588,-6.948852769446394,-0.6559404088896098
470,-0.6383434920244052,-0.011862296970297554,0.7296823004051513,4.927435703607049,-5.292891826048501,-7.6634156130906765
480,-0.6248798779507458,0.014825371373136786,0.7737184689274955,0.7165988014303419,-1.4637642463507259,-4.158228318401878
490,-0.596960357465894,0.0706280773503606,0.7326180604013846,-7.163829824800821,1.652268042173206,-3.5637982629820906
500,-0.605678084187571,0.08207655459529159,0.7151928355578605,-9.603517832171114,2.164102990576673,-3.388262788142042
510,-0.6547833577961703,0.054030051694367684,0.742159114322446,-3.592528367508959,9.247784103220887,5.462815491216883
520,-0.7018140699392885,-0.021843455601005916,0.8681903136799322,-9.14873740125919,2.7430799369759504,3.7301336526228517
530,-0.6125215834489272,0.03257962698514574,0.889190863554551,5.706182218649742,-0.7472091836165113,1.7769981112893296
540,-0.5972552171213805,0.04557590773180485,0.7969253421823781,28.032956228733624,-2.8177965737205466,-0.6951082618666216
550,-0.6317279240765322,0.03621893302579311,0.7829781646246988,32.71438971603231,-3.0399042618360763,-0.5977727703314344
560,-0.6672238222257154,0.013138474814689518,0.7575091987070224,19.066410391421464,-2.3620799126950742,0.12355100666900848
570,-0.6147374585331299,0.03454904209767423,0.8012283337966611,14.050879779077842,-0.5963133987124731,1.551234060001563
580,-0.6222820215589691,-0.0005939996660025595,0.7863223580473131,23.57186656991443,-0.5991503886088928,1.190035011268035
590,-0.5939776133454562,0.03989039064847426,0.8218110541530207,36.81451891539871,1.7586181302204689,3.1542745696493726
600,-0.603141529508606,0.07837087045627956,0.7872179657948545,31.20289463090839,2.6158420625650125,-4.112911793537137
610,-0.664305054788319,0.06552483487307419,0.740958585005622,1.302539030464623,2.8904895576656804,-3.234226388384212
620,-0.7325651680084679,0.05144932544796185,0.6600165892570783,1.4794539770164081,5.62631204683545,-2.5098850442294878
630,-0.7370788266401734,0.06355824797912779,0.6561725056021133,7.721431326568544,9.264912576700079,1.1359248114975302
640,-0.662161214284337,0.05825865264647542,0.7740871778170952,10.340099654562582,8.114480717839648,3.4299353515982647
650,-0.7222362771765606,0.0978403112862762,0.6421433212659504,14.416674345992455,13.418471069446397,6.275831128080984
660,-0.7170766081580413,0.07799420856500365,0.6378126914147624,23.88084556565424,14.536196271657898,3.4493575622370174
670,-0.5777007511806,0.03951034665639352,0.8416997813668676,25.295088162330895,12.69588080389099,-1.8329371177383418
680,-0.7574209148436315,0.00988433912976931,0.5992406226919018,3.4746657006927424,17.416018736152377,-3.4073223061924383
690,-1.1423122020999845,-0.0810780891764459,0.08002060117821726,-13.771391964519296,21.015207421651052,-3.267091058149793
700,-0.8081757029641248,-0.07029452055359517,0.344108192448928,15.021686778190167,18.160770518722522,-5.816104634991978
710,-0.7896016612009257,0.32075062944753674,0.8255984060849657,51.851404580157464,29.454602672103285,5.0597937508750235
720,-0.6482944149550887,0.143132953718736,0.8339364974623777,7.965172751716859,19.38920932118929,3.758334173398775
730,-0.7295920718531881,0.4637896114724418,0.9276022934932538,51.51073182719295,20.405454574402157,-2.1860304315491526
740,-0.7335872440965909,0.263200665796562,0.6888644428384337,33.101647513320756,22.158468999030738,-2.9544763406394345
750,-0.9008142650644015,0.14856576043518022,-0.01188271987420091,31.439813157249944,26.185461663319668,-8.702611825261206
760,-0.7737992506150547,0.20328771382327895,0.37777920775330615,31.98916930791376,18.07827967831466,-8.22701970350927
770,-0.6754084211269712,0.24740969592866147,0.5167037387687544,6.975265560278493,20.460232630073573,-1.3610968756475874
780,-0.9250607365257926,0.12617160818849155,0.043411966056617735,-12.65139598237814,26.244738007263482,-0.7216215365165803
790,-1.147358138106033,0.13590031934269042,0.05478981963653415,7.024300660866098,24.34049019570297,-2.049627049107601
800,-0.9553333200438989,0.3589966999253283,0.658626611807323,31.778840347552595,19.546488691490403,1.9722734501078873
810,-0.6922525468077808,0.28872850740711425,0.7947333341864002,15.603555455330227,18.207324398476647,5.634833350391566
820,-0.7239360893503183,0.16589853140782673,0.6423360503929908,-5.514131679245888,20.510410646144948,4.925445571928257
830,-0.6555839224510701,0.09685998066074206,0.5840765749260378,13.535966441696809,10.658536256088485,-0.3745067843351896
840,-0.5549175618266896,0.14198739229349455,0.7966787457373148,-11.247994745077353,15.771223178733107,5.513420386810666
850,-0.5934327686047913,0.1469127630881056,0.8014915660857982,4.634060045803398,7.932952064466608,3.4855785911087263
860,-0.7105927307157742,0.11902840002346823,0.669134589843423,-12.79783472769614,5.66585540435381,-2.504683062980024
870,-0.7105593940231139,0.1058553036232289,0.7289133630813064,-7.937959255856394,0.8012335422218566,-5.9259920526354755
880,-0.7340545564153357,0.07435529765584004,0.6920514888046667,0.9298708070827868,1.5619158220297191,-1.6463084167327267
890,-0.6900568847835294,0.1330078196064988,0.7079376389975434,0.422135916976899,0.15839327589463426,-0.7143437210812671
900,-0.723344599179909,0.11800324037197259,0.6693404437766102,0.20023026108716435,0.41802960562844405,0.5190250966876184
910,-0.7124101986153816,0.13676195919357514,0.6795184950491667,-2.2531960232079555,0.2851577554595973,0.238749211673154
920,-0.7173993351878536,0.11886237187038712,0.6789301239163914,-4.888256515621418,-0.745566946532017,-0.4347863865469702
930,-0.6988706640318172,0.11966878880053024,0.699312327080078,-0.9581495354676504,-1.4723565871454485,1.6636660897963744
940,-0.7147193018159081,0.11021036476356375,0.6796722809276271,-0.8845893467578017,-0.5882715469509172,3.1239197238815373
950,-0.7359958287417427,0.10365519713890078,0.6602336879057707,-6.127930898651666,-1.329206944139539,1.6645477680193372
960,-0.715408830388491,0.11438252325276885,0.6705345921389558,-2.6049804943554333,2.551830964108291,3.9217404328218133
970,-0.7150721186387284,0.11670411528020996,0.6842277918061206,-7.4374741587805175,-0.49689129802626597,-0.18013984392546956
980,-0.7092256780882403,0.10758789371989537,0.685204880040306,-5.051611573320429,1.540912472667034,2.132938410500809
990,-0.6907456962388926,0.13098194507353306,0.7046858762558391,-1.5433982309126146,-0.5623215449362794,1.8817355784283663
1000,-0.6970154259328919,0.1360814143628472,0.7052279754841526,0.9155518749833466,1.1228044130290802,3.281986397219668
1010,-0.6863722213780074,0.15179510787041056,0.713599583917647,-3.3164315510001066,-0.1461062642346327,0.8732525883917965
1020,-0.7334198290326472,0.09808444178104513,0.6618922225461261,-0.17510647957759495,6.0061533002339065,6.52713295902184
1030,-0.7082901808780253,0.11590140075485633,0.6877193604435752,-5.909179809339767,1.282612749099195,1.9857940116221822
1040,-0.7084751368925031,0.1177415175141417,0.6882164470088308,-6.4280361108702255,-0.49872422451128995,0.9008600070988342
1050,-0.6969878681031434,0.13020159322357883,0.7013013759154862,-2.791604664716871,0.9586207677408114,3.231537008067918
1060,-0.6987962454738275,0.13576530553522573,0.7019189970905573,2.149824200066716,0.2403696220506104,3.334934919937855
1070,-0.7177822712514357,0.12154594281357214,0.6707763922366916,4.698657699113402,0.7089213622180526,3.0934849076142372
1080,-0.7007257629106319,0.14796871593372848,0.690145537805329,2.0180395484803273,0.7078115717393119,0.7767079850750814
1090,-0.6991032240590921,0.15150494306296863,0.6947071187935963,-3.1573784672851524,-1.3280664064761818,-3.467880973736418
1100,-0.6880388547110182,0.15451309478712877,0.7083057418315456,-8.344284095968867,-2.7712486894034916,-6.648332182784788
1110,-0.702360874121758,0.1321327154270222,0.6970749326176322,-4.815094518416312,2.1976100329568373,-2.0683373363445368
1120,-0.7111875170945539,0.11265051556039858,0.6906464234804037,-1.7018981779258662,-0.17113570885673332,-1.213410647871735
1130,-0.6975420423723527,0.1269991195731732,0.702522813848681,0.29333440259656185,-1.2574727605656757,-0.25712949566669185
1140,-0.7294825129451618,0.10277854559783434,0.6711079628756127,-4.265634702746849,-3.7541132319700754,-3.38632392908516
1150,-0.7167894777271874,0.11692344117847012,0.6853991691863737,-4.078806936803149,-0.957153717743431,-1.3520061557090393
1160,-0.687412651193738,0.14008615313432665,0.7115171232758783,-4.171593687386365,-0.2557283414469885,-0.8620556261808303
1170,-0.7144129949232538,0.10566729257023241,0.6854996421938858,-2.6779097395839746,-0.05960342371596053,-1.3567149684985227
1180,-0.6932708006488756,0.131904549398786,0.7064621981306101,-2.3407344327660775,-1.2516963429533163,-2.658901707319301
1190,-0.7445706060190227,0.07326355633031865,0.6465112746781685,-0.0947449741417512,1.1417259147826275,-0.22154126297327426
1200,-0.7219363331506975,0.10888840416109975,0.6697240364346083,-2.269183560917419,0.5123780452724552,-1.5044174748619852
1210,-0.7288363954462002,0.10119193269030186,0.6698432160028299,-5.406486022156411,-0.9093524973656246,-2.72686736687797
1220,-0.6981036395807723,0.12816629014823125,0.7056185171617239,-5.951665997993016,-1.0770569068339144,-2.1242074464145446
1230,-0.7128962934078831,0.10806328844675003,0.6863399987125639,-5.9979617201921505,-1.638186169125269,-2.1500640120686443
1240,-0.7102849768873855,0.10457798614941519,0.687694750868413,-1.0626754478633842,0.2312621854894843,-0.0579367866450764
1250,-0.6862621242773098,0.12101741058670673,0.7019937985234062,-3.268837304517718,-1.570263519689165,-2.8099236918667527
1260,-0.6823997470223646,0.1260549929996025,0.7099828683260141,-0.6096406685917919,2.180214422905442,0.21161577642440843
1270,-0.6961545957433974,0.11961010230291752,0.7110332164602826,-0.48958996885278205,0.5167317002298857,-1.134272935089358
1280,-0.7008315041139791,0.11392656933477202,0.6990325850141322,0.45007648123529015,0.3937506115030293,-0.9762007001927704
1290,-0.729773790929993,0.0831012979898733,0.6640467611409812,0.5964677328439572,0.5694813188791951,-0.21967352892721703
1300,-0.7099697062298091,0.10640230405762627,0.6805496823402923,-2.7854818580482963,-1.3839391937823535,-1.5475721197005652
1310,-0.7148754701803485,0.09279928740209722,0.6916847265883342,-1.524533129397656,1.278920318094525,0.1243398713065782
1320,-0.7314423218974848,0.07822214159253853,0.6739172801327675,2.421092979501693,0.9839117906463849,1.709066549066748
1330,-0.6859325929131678,0.12721298352985166,0.6973433265692114,1.351489215515212,0.14788576960604163,0.8893178176369081
1340,-0.7144526490560852,0.10336652242280653,0.6869505554410033,0.8157170461964924,2.527271798631481,2.141839726759072
1350,-0.7232446856696503,0.09132822064952471,0.674422245047434,-2.1691574943914644,0.41080976186635043,-0.1737813832888965
1360,-0.7042982647451375,0.109465104614005,0.6932449029874802,-0.12776789242149844,2.1230476405042475,1.8457938312580386
1370,-0.6723179960824817,0.13768371121853637,0.7251692344458445,-1.6594665013570284,0.7642755636829379,0.7890268778805926
1380,-0.726641054663793,0.07886518122825192,0.6681206260092967,-1.3380215519732732,0.5419113175483367,0.9634898967451865
1390,-0.706839239764656,0.10046024387240941,0.6900570750858113,1.4545400446343146,1.384621607643481,2.4095074935536998
1400,-0.7084531409023568,0.10327564461748938,0.6933803949120777,2.4885707578903875,0.6551976313395331,2.2009724866945946
1410,-0.690526508340658,0.12251563447729402,0.7133134841897151,0.9798311505242521,-1.6668973975905346,-0.09959721111307696
1420,-0.7108375507042735,0.09998723097187011,0.6819154250885539,-1.691006886285234,-2.9879220835516542,-2.1023094604444337
1430,-0.7219044056896736,0.09548430388934931,0.6843042535308382,2.159228345932,3.7208384408370905,2.836855243267278
1440,-0.6932643291143917,0.12535351123225522,0.7063300710057923,-2.8994238623017914,-0.5097667499755147,-1.408757692042451
1450,-0.7163849130240513,0.09557961708447335,0.6859068614210028,-1.9303574232044685,-0.4944386469939661,-1.1821858215605956
1460,-0.6831569780799361,0.12404892799694896,0.7119164684483995,-1.4777881206635355,-1.848146038160571,-1.5748746795476194
1470,-0.6767529981300193,0.13497533259953046,0.7204787855043908,3.0101996183719115,1.5874676549509121,2.5487195211410523
1480,-0.6875005154364415,0.12480608417127839,0.7120591383008393,0.467942285221727,-0.9279260795315976,0.02393178243357985
1490,-0.687338793783004,0.12632816424609838,0.7099848174385208,1.4888879937410218,1.8296328459309716,2.146637037124683
1500,-0.7224105051024041,0.0934848617660586,0.6734279613569037,-2.049640045263899,0.7028735146923663,0.3068127696531918
1510,-0.709052143037973,0.10374158687596838,0.6850255188926787,-2.8437657476072076,0.8208175694046969,0.09879686076364047
1520,-0.7101032627134529,0.09735590384752392,0.6805565579536068,-3.2768877158719136,-1.1378956785878152,-1.4952427171094729
1530,-0.713844179168258,0.09036175346642572,0.683600503226043,-1.1158455653806136,-1.8337597402128638,-0.9762187726513596
1540,-0.6878632126535474,0.11032073695478187,0.7153339308331337,1.188955928548176,-1.158346935273575,0.16084689216700143
1550,-0.7030067160899668,0.10618674617728366,0.7014034131775265,-0.968955772021618,-2.9336564714119877,-1.7922445113018675
1560,-0.7276780599016278,0.0777488247896682,0.6755719521499338,-1.4361027764552818,-1.8742975291015616,-0.973914486010919
1570,-0.7137587192538498,0.10035111140895754,0.689384102676913,1.263932731540171,1.8337582193279052,2.848699338771863
1580,-0.6864126977751828,0.1318054426370837,0.7156026591888981,0.6632236221687953,1.9030609531265776,1.9827633752116443
1590,-0.7033899085975914,0.10845164781023744,0.6972584019753273,-1.4861520751568236,-0.7974002685272211,-1.1949451250056957
1600,-0.7159398464279435,0.08620056066738557,0.6885463274350543,3.177087862373162,2.702454071695997,2.8375554854528686
1610,-0.7285313657720535,0.06860307560305313,0.671370550506264,-0.6294792407270757,-2.0750745040244607,-1.308894283545147
1620,-0.713132512107492,0.08671454340349913,0.6804110794570017,2.056666352971042,0.5091364433551684,1.6324656000509479
1630,-0.698654587125337,0.10882344194797641,0.6983763511732096,2.993064421509243,2.1425906683337455,3.25582958451126
1640,-0.7201081039601672,0.09340375500857265,0.6812064332021855,-1.511951838246207,-1.554340229205461,-0.9892579422949979
1650,-0.7081259610154027,0.10448558662657881,0.6959363836759579,1.0123722613809205,1.5551360486625485,1.9580860856362667
1660,-0.7114424307611038,0.09510104118644153,0.6958934491320942,3.068098594742423,3.153933696233215,4.090651704682329
1670,-0.683409611147214,0.12427041582948693,0.7109231811651395,-0.5857568420089008,-0.3408263482910555,1.0504002109167945
