time_ms,ax,ay,az,gx,gy,gz
0,-0.6837330645892892,0.19892703513285234,0.32086280150699736,-1.874876781658563,-2.0920811348834136,-0.7433984660000403
10,-0.6772122648280059,0.20710595719514954,0.3318571587757794,-6.1290099869641095,-3.5351536403220463,-4.015089371817143
20,-0.6781522573214357,0.20004826304531517,0.32607257304213555,-4.065599731244101,-1.5710601827029071,-2.2024837121744127
30,-0.6940428307014079,0.18488049110082988,0.30976387318119936,-3.220940195216725,-0.6813332588059361,-1.3911980324287572
40,-0.6859982138578393,0.19785684107987933,0.3228296148788109,-2.842853913694327,-0.8599180599118875,-1.7761374555453069
50,-0.6827135234642916,0.19734361005639722,0.32324649455181975,0.3712340946592824,1.7865585686742045,1.244428076255789
60,-0.6544915235543006,0.22249870529674232,0.34700528151248394,0.3873406227648347,1.1894694704894526,1.2829835488903343
70,-0.6685011634916082,0.21310553765674736,0.33781950530161714,-1.1808192551183554,0.15853826971421142,-0.4862996650342124
80,-0.673755543448528,0.21001043106910244,0.3381852647955348,-6.963284816828985,-4.687918257726787,-6.72219666076067
90,-0.6650751712766022,0.21275095712804795,0.34213366664877604,-1.6030957288698466,-0.6691799149349021,-2.3039661883486415
100,-0.6480658820781503,0.22840186496710965,0.36073531082603105,-0.8381134788653997,-0.6433034910879074,-1.9934881991166489
110,-0.6530314728947768,0.22562298006955156,0.3596818043171377,-1.4627563190166777,-1.9401340884924556,-2.3372156962530557
120,-0.6964415881050088,0.18034535684848801,0.3106708109307979,2.8237839821265567,1.0317206037494913,2.1001224166371357
130,-0.6922459979696968,0.1879140323703931,0.30471684573632407,-1.9727893378371892,-2.17376381431305,-1.7727350760421565
140,-0.6827257358172397,0.1979938246009306,0.32336323399752986,-1.3317239456096013,-1.1592376207424164,-1.8049202910437268
150,-0.6941308632280752,0.18394694799612507,0.31164511281859764,0.45550581474349544,0.8955862565294115,0.025155858930507535
160,-0.6554743617591695,0.22336734337110534,0.34929024401813824,-2.121868897051582,-1.6686496150206152,-2.198763696609859
170,-0.6683852395328237,0.21202818080674654,0.3375023668799847,0.47218331717240397,0.6988264712746248,0.5871812716801486
180,-0.6632483529052181,0.21514230435232115,0.3431379912615483,0.834880449115884,1.5185442007128573,1.3097893331343156
190,-0.6518854550952697,0.22609301275845772,0.35355025298290377,-1.4521206383209406,0.21143807267703266,-0.8039304426436198
200,-0.6957642576003144,0.1838926934443392,0.30931056259358874,-1.9027411838084414,0.21027275940046358,-1.198150587111526
210,-0.6760245054995974,0.19832067432447592,0.32960128489980106,-2.6065586486745542,-0.6926468136907703,-1.0338246200209813
220,-0.6804058304560651,0.19668863367608563,0.32211696151959573,-1.193240391021061,-0.15881642677485902,-0.20710706317377603
230,-0.6788087241782369,0.19894279782695617,0.3201013496441124,-1.6604242790451433,-0.9158299420050683,-1.1184062431443533
240,-0.6758565737867251,0.20195158880946243,0.33242926653324284,-1.7225854343864406,-1.1633683441737528,-2.15907632125852
250,-0.6640226116399214,0.21357636016931034,0.3428971817234552,-3.134671783385005,-2.2155868378990866,-3.9706492791429855
260,-0.6782896956594672,0.20117135740614592,0.3290638791036269,-3.3819548546243015,-1.620190960830508,-3.994463142589695
270,-0.6557850295496177,0.221733144339627,0.3532284043007323,-0.9833903368467981,0.524729456627728,0.5043228165522536
280,-0.6745415648392791,0.20153270355811642,0.3375989588827991,-1.7939423728558048,-0.39553093963340313,0.6293548119474563
290,-0.6893442576020625,0.18844296428440746,0.32083445029899477,-1.5727953174512495,-0.08093326769797136,0.5250071853198934
300,-0.6589978952584539,0.2189869667309859,0.3476534393454627,-2.2369347186672526,-0.654542142501136,-1.1227837603341309
310,-0.6665230886746544,0.20997983194447362,0.34061353230480074,-0.39574743797405665,0.8080862044131243,-0.6334756142197604
320,-0.6821306697711602,0.19417860430761874,0.3250816310944041,-0.6745889535194101,-0.16506178483798306,-1.8105936605608608
330,-0.6571844970070126,0.2158479202467661,0.3464548623123825,-0.16551998120041556,1.5177076958519984,-1.013708550570259
340,-0.6799152040340564,0.1951162847795547,0.32467668418277784,-5.291712221854034,-0.5211408388030756,-4.968915068310517
350,-0.6471741569973364,0.2281692014168622,0.3588635555852738,-1.9576340194075987,3.1246663940989223,-2.572479466635003
360,-0.6795126614740595,0.19259780692904233,0.3395986803206611,-4.995172598882355,-0.21431932296189662,-6.714471414638965
370,-0.6501577263796638,0.21791615903209885,0.36515525259698656,-6.714833864946941,-3.761751337706585,-9.633593847451035
380,-0.6683587639200149,0.19955114760785214,0.3427356677489829,-1.6290139677603341,0.9642439589289821,-4.286731409999943
390,-0.6774261186854074,0.18838533873334065,0.3342581367846798,-2.049131033673006,0.16310377368263357,-3.6605005759597806
400,-0.6835278254468701,0.1844238359028673,0.32591860814721757,-2.047445846523754,-0.19180871538275976,-2.7517814497403728
410,-0.6969268288484667,0.16891956259435348,0.31271506039950575,-3.426057259242165,-1.7129859518758974,-4.152521132669474
420,-0.6627060611290572,0.20309192631918901,0.35165043169653926,-2.4213684237522406,-0.869411714731013,-4.026753944747334
430,-0.6630876937259063,0.20929279465826184,0.356412638092119,0.10843876467050972,1.716655753323328,-2.802101433606997
440,-0.6866560947865149,0.1843795307300792,0.3364957514780297,-2.4455224614056443,0.6162460989216698,-5.936824848668743
450,-0.6852902069562512,0.18255436737593453,0.33653621389021937,-2.7488205975458264,3.2830312795307464,-3.7565502139639753
460,-0.6697279789303777,0.19612905037406902,0.3579191376558776,-4.298479538953465,1.0098380068351984,-1.4419248462733578
470,-0.6749845339484342,0.1609101047235133,0.411554109422394,5.321457595522692,-0.6715083693745569,20.90516089585102
480,-0.7004366697921862,0.15560665563595288,0.483346225424871,1.2439479904757433,-3.2438219171075358,9.31197583984889
490,-0.7700749426560358,0.23353984785891585,0.45685871131956735,-2.050034034501264,-15.47282920111704,-1.3082274964079028
500,-0.7119184272935297,0.22247784852969726,0.41728062554065254,-0.6605499910600636,-18.921978761916957,1.2934982990759896
510,-0.613145835627969,0.132930296443756,0.41112786789237904,-5.608700105222492,-20.704063687331562,-5.573200199583212
520,-0.5836343426438692,0.0841061131603571,0.38228148772086507,-5.11673154635621,-16.349509342354423,-18.989209128115167
530,-0.5815850802202623,0.22843445135322593,0.43793720437964256,-21.3872361375232,-20.859464216791007,-38.50846245949836
540,-0.5712135832935904,0.2768894644173109,0.4461068015388415,-47.46883734488153,-24.89304652720772,-53.812430308236856
550,-0.5205089339147576,0.17961702404966387,0.4119702164722863,-50.54989386213182,-10.982866684620992,-53.651383888257286
560,-0.6121944895968019,0.19538535824231434,0.43679825414591505,-53.143761483564724,-12.937113793294674,-60.54833295584068
570,-0.6017189532634486,0.18876379083527567,0.41385267647120694,-41.89809737982092,-7.343152088410142,-48.92933966705233
580,-0.6112997180912572,0.20809026034663214,0.4197165531212426,-37.72966402703531,-8.415177632227024,-40.155709466754594
590,-0.5998553929402232,0.13392349653963817,0.4113362165865631,-35.29889994248879,-5.10281697328578,-29.393456745017858
600,-0.5617335765525631,0.10569030759798084,0.38350424871303784,-41.52195619809668,-11.094442978709045,-19.549542910465384
610,-0.5971648112294803,0.020061935792594486,0.2824104321612977,-39.29221914088361,-6.360831487563528,-17.818188212772185
620,-0.6186694580081707,-0.011154106062213315,0.31501494071035446,-41.54228947151049,-5.484534898736138,-24.532778636792102
630,-0.6313270201996445,0.012178525577059266,0.3435487033170086,-39.85385485902682,-1.4714755071420855,-26.522683908116996
640,-0.6765175800122477,0.03965435117493816,0.33839380326051194,-37.13472870290623,2.4521416871769137,-24.505014216020893
650,-0.772787066693466,0.06694005453054674,0.32746198622052025,-43.846777913697856,-1.1200249278121663,-24.302524499487955
660,-0.7607406461088394,0.07887009513212263,0.3437176489193948,-38.406234437995,-4.606093168378221,-13.473554548778116
670,-0.6712289648224654,-0.02525142912870785,0.2660857165445598,-22.638770415978723,-8.541728849677394,-4.690498483924973
680,-0.5975329671016151,0.011615383441054476,0.1993113266084021,-25.90729856999295,-0.860253015326301,-14.535626333423991
690,-0.535894671410813,0.02863911942313912,0.18661676818022604,-21.88038733008846,14.144799095271894,-16.340442975558204
700,-0.5855546140822689,-0.048601882157919135,0.1406997639799379,-20.767333518906614,23.998591502960195,-20.70084598562511
710,-1.6308335443882134,0.035488973877535156,0.9042418268064337,-19.545637865404586,2.812709051012191,-25.941382552338787
720,-1.0277033039201613,0.01688303031685774,0.4018330711502872,1.184451179997164,13.560609826663175,4.651181007888415
730,-0.7620862997374136,0.03601715187595711,0.4118111037414173,1.2159308694041302,10.387124863236707,-6.255279379454869
740,-0.6954505110580523,-0.07095614413705731,0.24608835314599364,-8.028348361885184,9.605566466218278,-20.66578315233701
750,-0.6906225470061563,0.01294523212731306,0.2607797696339794,6.985885605622494,12.501670450766468,-17.40973914151864
760,-0.7220932776967647,-0.06597359118907599,0.49306594735209897,18.899015994714144,14.841988317224713,-8.882700112808612
770,-0.6920516913431208,-0.12946958163629047,0.5531890301042856,18.854895941552428,17.525145824519235,-2.529492173432751
780,-0.7507696433447993,0.042433193946299415,0.3954787730568309,26.7027522067107,13.816319925001546,3.081936947376933
790,-0.8741322137483712,0.21488646269283057,0.7596300072295045,42.5777174923662,5.966855704312979,13.9716628294276
800,-0.9379097708431055,0.07911339584793245,1.089087673569763,38.107574289319395,4.24805962529386,21.66983451709248
810,-0.7882130606295255,-0.159446179479883,-0.9293171383636969,44.99769131607504,8.218419795707344,20.1899614495051
820,-0.610809171276611,-0.0396660922028175,0.3411327642196877,-22.697503012417773,11.176736079591631,-7.252345653459547
830,-0.7244752977103146,-0.13732805522633315,0.590901545271837,28.810047775542714,8.956224415987254,10.263638145108196
840,-0.6290252144961482,0.21608178490834382,0.16386900477545155,14.480571490092768,5.506479501011729,9.509683696552525
850,-0.6246526245282801,0.3692171724889847,0.7156300390674845,48.88370906760722,1.6272762816751463,22.71499178968182
860,-0.6192684628409797,0.40755730356194975,1.032113862877045,53.48420488300774,-6.559994601288872,21.608980931359124
870,-0.6026568142795042,0.3500878744495258,1.2444332650780632,34.17173796379398,-16.957868953965512,7.631777311749657
880,-0.6216294469702383,0.06213662501436053,1.0053479207191993,19.147489076336417,-20.945201167864678,-5.957116026065155
890,-0.6491807204593855,-0.04739353922873498,0.5163811559351273,20.298855202839594,-18.699626192564384,-6.669742993488374
900,-0.6168274255019424,0.17021920436439167,0.5249235410839598,17.398483971493505,-17.465584091716416,-3.6789544542864707
910,-0.5373097716053268,0.12366009253679888,0.7699880889562598,-17.95509428491604,-15.803066022590809,-16.46471711513906
920,-0.5935960886479839,0.13017310682031236,0.5907483451624949,-41.86648926761478,-8.184538304050118,-18.703497126961356
930,-0.6759409454494189,0.03272900794737749,0.38282206500548527,-9.27655085352025,7.53329607130955,-4.954102990762927
940,-0.7008822848656249,0.015788782528714723,0.35296259641669586,-0.9473474556282078,9.382938901938523,5.35117435594169
950,-0.6953747284913742,0.029594643044638054,0.33996110768160565,5.695698905009345,4.045451682753188,11.398426472760642
960,-0.6968057747343898,0.04022480361595187,0.3332925668208785,8.516758615276714,-2.0662602169868256,14.483742107065428
970,-0.6959703814133965,0.0681929865710566,0.33337112232848215,18.13427917956239,2.006596256050451,22.455258189616345
980,-0.6932412102600445,0.07459456434204373,0.34659609624425647,13.27277651673078,-1.4498943839397107,17.24123412953803
990,-0.6697841233742364,0.09557020646188404,0.37979729384712385,3.429982480778641,-2.621878311041631,2.9019375096028477
1000,-0.6761441425650296,0.08440144664398123,0.3739047869214053,-2.267495351022721,-1.1196148281543081,-7.204078464820038
1010,-0.6571038488436141,0.09157138387445517,0.3889494574557322,-3.18374145151013,-1.2990324835873939,-8.768346940105978
1020,-0.6555902823389951,0.08586736233281635,0.3894487357627655,-2.206144501526959,-2.3984756770384807,-8.61037150249443
1030,-0.7168983614550326,0.02346806960645064,0.330997899245036,-1.0725535550939058,-4.215386168535334,-7.798603272128574
1040,-0.691028172206253,0.04691731233129118,0.35963940407642325,2.4218243299386275,-3.674801928358977,-4.665848291796682
1050,-0.6811903197382407,0.06531048662408573,0.3758418353144844,3.936031447111393,-3.8364133037090746,-3.222752751322572
1060,-0.6952710467923666,0.04629615961677167,0.3512179004329356,0.0044162757718977375,-1.2594910040012834,-1.2308123144976144
1070,-0.6858504995186945,0.05912587222680709,0.3665205769148296,0.3161549332225562,0.17394717315690644,-0.5109756996892747
1080,-0.702338896529529,0.03797689719863084,0.34578987871842437,0.9629329654819558,0.5344439222846434,0.2570326229674718
1090,-0.6569868309031233,0.08061460458507706,0.3949546667880452,-1.4000576673223055,-2.9424966279264386,-2.130047173636788
1100,-0.6917965727728638,0.04401789477551438,0.35884317604868443,4.803097099813488,1.6463985799686234,3.6844853140650384
1110,-0.6928824300811822,0.04635066754506375,0.35660289072391216,3.0063431536811698,-0.3133971500075894,2.3579878445173126
1120,-0.6696074361503174,0.07379248492664466,0.3801455744229019,1.3670649390974368,0.364263398615461,1.3649684832751574
1130,-0.6767142049723591,0.06394367628871343,0.37299937724812576,-2.02177055105203,-0.8110896944662362,-2.052156402470045
1140,-0.6662809288062148,0.070170209221389,0.3854973353879142,0.24993869380306669,1.2642809791214755,0.766446603725218
1150,-0.6749278273716361,0.06552058760578738,0.3733848858054513,1.1190660272895623,2.274995514091547,2.916683430329211
1160,-0.6843188513461705,0.061498410419776404,0.37227724880734553,1.0563792535697172,1.214151169030919,2.9292236731504433
1170,-0.6432187435633501,0.1098168878199816,0.41033228005636385,0.7880584796073,0.39542505755700574,3.38933251725405
1180,-0.6740164688026083,0.07690515025266755,0.37167268170501616,3.56613663596712,2.700161307084302,4.899978871186489
1190,-0.6846436680724746,0.059928720169036616,0.363549617886687,1.6664535030626948,-0.4646911543064979,1.0419325371030086
1200,-0.6535717390856984,0.09101558788181277,0.3970589419934579,3.0595807623296323,0.6738445939126085,1.555718976272967
1210,-0.6781457143538396,0.06574946316974986,0.37483640664155926,1.5526276558758176,-0.5032405416430945,-0.042164090898385354
1220,-0.6764400933444605,0.06587578732093653,0.376423511873898,0.12569649603758987,-1.0165834807454233,-1.55869497004681
1230,-0.6734133091708712,0.0701799535225377,0.3807297777481879,-0.012058837828030411,0.03141273058443783,-1.529544271617583
1240,-0.6897525194714028,0.05425244329635648,0.362930617952742,-1.3343946758962655,-0.8362481521551801,-3.122225624125433
1250,-0.7057755926022807,0.03300828823836713,0.33940511634889303,-1.081561727299852,-1.3293374320690026,-3.361763738754325
1260,-0.6333965914767612,0.10141615131187873,0.41147117953149026,2.177241627960671,0.905401582268174,1.0992416540859913
1270,-0.6708883108566757,0.0689318122697091,0.38622626808966415,0.1215750095768513,-1.5252611751916945,0.363049610920988
1280,-0.6497172107334066,0.08700664332011977,0.4102080594294736,2.2808205003047117,0.4462484646466556,4.295917379979272
1290,-0.6625373174302032,0.0785082872472867,0.3997488055393469,1.5847166398774286,-0.29333965061227274,4.609852682427908
1300,-0.6337575809804777,0.11536731291973211,0.4238424791664801,3.307438189334861,1.980749963204067,6.479469228474195
1310,-0.6909141121152859,0.05925964151865179,0.3598405701870611,-0.2239195448537501,-0.8866699880518123,2.331234149321719
1320,-0.677596981166892,0.07271604329446305,0.3713885561069507,3.4634846269359096,1.310838715104698,1.7985475699483378
1330,-0.6647251739975525,0.08300481228338304,0.3862777699855886,-0.6046920006825038,-3.4918661045097243,-4.368496579928271
1340,-0.6530897965147118,0.09152285891389587,0.39860808980844775,1.5264627782727498,-0.9396548850754561,-1.6735632334819357
1350,-0.6702384345277269,0.07177738448914907,0.3803859841527511,2.7767287360445554,0.2875271807127064,0.6604096087019046
1360,-0.6693502858475452,0.07117162407093652,0.38050086159113794,2.662661736122427,-0.04029809785901792,1.9917750999742376
1370,-0.6833674739561031,0.0578097112137441,0.36717037580330814,4.474503124997355,2.2538658787301857,5.757710576640592
1380,-0.6742185818146448,0.06970535059010616,0.37782029005905954,4.575402295463427,3.208362918890301,6.65886828568918
1390,-0.6518414999267909,0.09862364408033615,0.3979999257104607,-2.076152964345054,0.4084687018318831,0.765862846440172
1400,-0.6865394053820152,0.06698759968793289,0.36612743409194537,1.9158543805971644,3.376045430115113,3.8728056660352768
1410,-0.6731153065016915,0.07794753785138504,0.37619358437421474,0.08780287553756727,-0.7337023195172242,0.6389429932105695
1420,-0.6743042237907021,0.07765304440080574,0.3826132684107255,0.6748119626728393,-1.4867344793924102,0.4361369666716546
1430,-0.6930289233032478,0.06077597478596027,0.36332464432663086,5.15174253949259,1.78444487883309,3.5777053507788894
1440,-0.6554307326158992,0.09902851465462838,0.39367956642392865,4.199490096511887,1.0497448046884492,2.187132486483316
1450,-0.6565875777711033,0.09950783980951755,0.39095018952940336,0.2556859550456807,-1.7906922859493903,-1.319795371503439
1460,-0.6967712516868003,0.05844828157460297,0.35235947585340915,-2.1711225654446062,-2.3077226834104803,-2.490009299922821
1470,-0.6743501741806286,0.07865755653534619,0.3745493998562319,-1.441321296884907,0.6115787626996266,-0.10009820943854653
1480,-0.6774580483406182,0.0727289648360058,0.3706724156282722,-3.213457669703613,-0.04817593536550596,-0.7886348141733763
1490,-0.6419648152881204,0.10474262871354113,0.4076643617450871,0.016882570844430234,2.6027231546738467,2.332135851749702
1500,-0.6471752529714706,0.10309672077877158,0.40462874301663143,-1.5839118010397395,-0.1775865708441193,0.08678641370855816
1510,-0.6920073531296308,0.05823935991835706,0.35489748927143416,-0.2614147203251097,0.31337156842527886,1.6296256360863008
1520,-0.6737459269336314,0.07700617684394902,0.36937885469126297,-2.2755128218912484,0.5097001106794731,2.2494034229139483
1530,-0.6821446852922498,0.06809609615686715,0.3668507461854053,-2.6588069001767534,0.6613286144107519,1.509019887121839
1540,-0.6908967990018609,0.060872443755617026,0.36385171422155643,-3.314532340627971,-1.0405129652833185,-0.3125138830930172
1550,-0.6777552328208424,0.0769964703665092,0.3743822710060876,-1.3705785105640755,0.9618571661294476,1.8463871071155038
1560,-0.650261512201815,0.10483666110433554,0.39886948387559273,0.6992992022287497,2.7020968871027273,3.756491108683707
1570,-0.6862508548994237,0.06705271168623608,0.36289213382780094,0.9177369996286824,1.5783658564994179,3.818060262456545
1580,-0.6725173190962599,0.08233915387759702,0.3755003787907973,0.6127512415833838,1.5027737995804002,2.5279831980997294
1590,-0.6631378757569933,0.09267734616334998,0.38525131044505934,-2.726345076189042,0.1233591165850731,-1.906252845239659
1600,-0.6739197406852498,0.07839370908643138,0.37715826189659674,-3.1359629883366895,0.6973796065449203,-2.617534427167915
1610,-0.6730384983139007,0.0773891522440927,0.37543850986070676,-4.598045736196946,-2.0075107845846096,-5.075796054567668
1620,-0.6807744398182666,0.06768580297170035,0.36579235086710965,0.6102902663213783,0.3556681753297357,-1.3491295422137666
1630,-0.699877650910906,0.050551581703465034,0.3490711893142732,2.6178351455330673,0.10251696287935116,-0.01523799396089165
1640,-0.6953308208471763,0.05486215263358479,0.35769924045926094,0.9065195382143978,-2.9705369127658448,-1.7563913415019705
1650,-0.672481105591476,0.08193087103724397,0.37445925927016754,0.7935072643198382,-1.1753870432555202,-1.8867811096201401
1660,-0.679060055457204,0.0742757839438815,0.3713640678057747,-0.682075342025151,0.01493273344041246,-2.28999222127113
1670,-0.6737138427587092,0.0762144941548063,0.378747186561693,0.0701356741058608,1.545383570852568,-0.5860318250549765
1680,-0.6758769099029615,0.07526223991598219,0.3765238458600533,-0.8217309540862457,-0.15698661431643668,-0.6416529294957692
1690,-0.6940846262081525,0.06224301434637901,0.3588461406774349,4.795609608516307,3.4959767915201247,4.885389053072987
1700,-0.663860496722591,0.09416836496190442,0.3871971113122789,4.477440063487898,1.9392997272121373,4.627844977257672
1710,-0.6760084014321802,0.08183475451817362,0.37350230955628433,4.060920983639948,2.3350151542653883,4.027302949674274
1720,-0.67536636488014,0.08365902446193035,0.3764747541158522,2.078470167141722,1.6914832728719347,0.6555036538109653
1730,-0.6601454025258854,0.09524814828323033,0.3902514077121339,-0.4071608845763679,-1.1201697368564336,-2.48998224804517
1740,-0.6618070951302788,0.09444645251506228,0.38629087730607164,-1.1352913873635462,-2.3921683936037184,-3.763637051848886
1750,-0.6777915021408092,0.07681357138556667,0.37771725315224813,-2.0493022364579923,-3.3236424496273216,-4.4961721165939785
1760,-0.6814789635931449,0.07283284719782045,0.3722854100175515,-0.009857838703454691,-0.11348625224925965,-1.551186866704213
1770,-0.6612707805956537,0.09254214288508823,0.3873129704373613,-1.587965675949535,-1.627044551125856,-1.7492637677225298
1780,-0.6711926588419364,0.08489899289542677,0.37256973561376516,0.0963174668480913,0.11931285131345998,1.4935271980959437
1790,-0.6804170608987788,0.07684792879056226,0.3700863371633647,-0.7442368466034366,0.01680327240265299,0.3683209086903235
1800,-0.6622341840225584,0.09539180689377882,0.3888504224807816,-2.0510907409033194,0.5341583120318381,-1.0570164060217953
1810,-0.6765193188650713,0.07912405835838864,0.3730635691029465,-1.9005909463201272,1.0303655041930306,-1.4854573903367625
1820,-0.6555703788902325,0.09836157833115368,0.3960476871986114,-0.9306481528864006,0.5927800934706591,-1.8693194399378392
1830,-0.6978702577027349,0.05611273525650443,0.35557316512715303,-1.4118765661282242,-1.559414305116666,-3.4566654075278045
1840,-0.6641330193421284,0.08913355063775638,0.3891809421797899,3.05610979555338,2.320425190065996,1.6327014884980742
1850,-0.6744833296200812,0.0779063387406933,0.3792299723685357,-3.860569875368056,-2.759066736262039,-2.2917338520901884
1860,-0.6601945560992197,0.0898859824020158,0.39208132124069117,-1.2245763805940664,0.26469184261724354,0.7197750382059199
1870,-0.6501403459467552,0.09872373655032399,0.4021879537029588,0.8574276576091515,1.119327872494008,1.6113944156671154
