time_ms,ax,ay,az,gx,gy,gz
0,-0.8081219536509152,0.025657186364203156,0.32417500519549736,-2.84348841285283,-0.848214870683575,-3.2852496071216484
10,-0.8368630461932692,-0.008752703997203445,0.2968042151223578,-2.272245198648881,-0.749468600699934,-1.7957463164875902
20,-0.8008461761631214,0.02671031326847628,0.3245470292446048,1.6444315763060025,0.45955918800670575,1.8869557966950268
30,-0.7894577757521657,0.04342259566994405,0.33522578808277326,-0.37908098856373573,-0.5954463515013734,-0.5323290364075475
40,-0.7820086186521991,0.04007067956712904,0.34226671343696125,-6.539126490266624,-0.8479164779835937,-3.987733350348015
50,-0.8038633712887566,0.023291184679961323,0.3235593151300779,-5.552527861769155,-1.6745062374619568,-6.526201273938512
60,-0.8111923775348762,0.015890921891534224,0.31677633583209436,0.4820886483073934,3.1380565883344587,-0.8629895169497912
70,-0.7985653351331851,0.02193939089490039,0.3269399430284388,-3.0010803911058623,-1.3135662903613208,-2.504340912489545
80,-0.7940124094084755,0.02939122603966045,0.328369186656884,4.147893984992322,3.1472384173202803,5.436835478150558
90,-0.8037806462985234,0.032893011814138604,0.3158246622262016,-1.4103391647192147,-1.7577258258963468,-0.37660590829604335
100,-0.8145658984210842,0.02201472441520192,0.31664678825524606,-0.8371521560185136,0.08849168352621242,-0.7930976546230946
110,-0.8168370980358906,0.01893394619878946,0.3130935433275416,-4.515782960911269,-2.1471386485301034,-4.302936677611349
120,-0.8162077036975791,0.012322970188258977,0.3146733360338393,-4.568938354665046,-1.7003101222349941,-4.205588222972107
130,-0.8016956898908981,0.022369947541854156,0.3270339489826088,-1.869313080686187,-0.02360192687202184,-1.3868366736925517
140,-0.7930735423010807,0.030386809680848,0.3281396327945651,-2.0488830307963646,-2.2001185904001863,-2.06445585169111
150,-0.805815328178681,0.021028848799916212,0.3158431566688133,0.23474068566444872,0.8914269945127204,0.12122124569237591
160,-0.7897116886065049,0.03796458225602868,0.33618433036672163,-2.801680692613332,-0.5703143892371076,-2.350084516458166
170,-0.813512046979769,0.01365499229847829,0.31252113826096556,-2.3388382697059544,0.2248551901970599,-1.2204598962773519
180,-0.7903132804395624,0.03580694118063433,0.33416352170783997,-1.0442868162095653,0.6258181241502282,-0.2986392063040393
190,-0.786286466186956,0.03890674333726022,0.33766177442090284,-1.3983537978458136,-0.6092099650531857,-1.329207974192531
200,-0.807081891522225,0.018700976174380983,0.31843710676256604,0.8816522742792772,2.2479459640724193,1.2528380885247807
210,-0.7848109135433411,0.039101235703677475,0.34256313732064175,-0.49953915032734364,0.8638469810617659,0.2316085458208253
220,-0.791193956153117,0.03397352988254701,0.33916571830543324,3.6319485517366816,1.5721225737171298,3.2672499389046044
230,-0.8154448758571848,0.018831848250325585,0.32543999314477245,4.020127367842079,-1.4318235396009,2.3240630785203176
240,-0.8223729614336811,-0.003719555072921807,0.3287448829374848,3.3638873359845656,-3.2886038785544436,1.2215603485616353
250,-0.7786036530699356,0.022329600268012034,0.3776908639330155,5.96830459387478,-2.1672002301045383,3.6280091570185595
260,-0.852429267389105,0.0519219519236486,0.3993088332154715,9.80379051598367,-12.634740875424002,6.518720489424776
270,-0.9686422912434385,0.02254553967784438,0.4071353239122235,20.636563001790073,-34.693903585738035,12.482061460113595
280,-0.8332829148892195,-0.025782661329342975,0.3892990773682448,19.315662605949377,-45.29548290276446,5.905592805107831
290,-0.7081221399015579,-0.05270976062818995,0.32099153799527536,22.472555242094305,-41.34472229732631,2.059905982826831
300,-0.5661711821782651,0.003931575013439568,0.21305288422934668,20.448359095618173,-25.50837032249036,0.34002738481321115
310,-0.5494154707357813,0.07742853225958841,0.2699013337342276,8.584231378596664,-8.239459419593295,1.8563158974677183
320,-0.6774651453574917,0.09908090673159586,0.2750390213385284,-4.485944633605531,0.10208110828476924,-1.8849691569493436
330,-0.7608744348202853,0.0650588920157008,0.33512055654852013,-14.531449353408094,6.534152993787433,-2.7690166548683712
340,-0.7056991731020537,0.10117151402718119,0.2686340053058252,-18.835699239858783,17.57773289342036,-0.6481373633931137
350,-0.6756749268457669,0.10528472103176781,0.2746811574510079,-32.16361406868203,24.45096091018811,-3.5460355110038826
360,-0.7588968700391447,-0.002266994770759919,0.29920594419005686,-29.997486141504062,26.21750196977606,-4.81702921726579
370,-1.4827857066760017,-0.267231663558062,0.6878437740532519,28.750225893132033,-42.29390892800314,-11.554977251018402
380,-0.7953509128019106,-0.039901934575717404,0.30525020313342655,-14.927227644660787,1.9167508847962957,-9.61586320917318
390,-0.8222393044146811,0.07052273424486316,0.29111691208853946,-7.5277290149842235,-10.797906249273408,-6.1749294566365345
400,-0.7739968983711727,-0.062315471425671246,0.32368836573829596,0.18737773608291208,-14.327231599152114,-15.057003075818466
410,-0.933354328944307,-0.059502923313061416,0.13621196768101695,63.5797253881123,-28.334269215378335,-17.153174997137196
420,-1.0926256230214777,0.35823723616919906,0.4864254072174348,89.25850015206571,-34.2522549415881,1.1573826458029859
430,-0.7518018715663892,-0.007070152039540464,0.520430064698403,36.35201192882701,-19.705780973230727,-8.298913217621415
440,-0.8018131995920409,0.031629376171321825,0.378360596331551,2.4467608499304436,-4.45583861344215,1.223120681932063
450,-0.8079200454015676,0.053702938866632514,0.3400209004462054,-8.08086620629109,-1.3961056577220656,-2.1684026042254514
460,-0.7974366937787468,0.034770073824411746,0.3395316364843882,-9.557903329963708,-2.7267230999603673,-6.060749772877285
470,-0.7907046026685408,0.04593753604552464,0.3387419278936811,-11.061645178677717,-4.121996442619607,-9.264339180980805
480,-0.8588688971599326,0.02515739836243421,0.1753940975939451,-29.63630205084512,3.1120676289683473,-18.03323246709806
490,-0.9295778470681983,-0.022888004142100505,0.23345278522238455,-27.71591493107625,21.875106949475477,-11.2618181196693
500,-0.8629872541189071,0.0003262127208616683,0.003046366698074972,-27.408182807339955,40.181048042575654,-6.908227161637205
510,-0.8097843242705989,-0.08263594472636014,0.5673321332377284,5.023173110192026,33.63157659206706,18.700193453947666
520,-0.8134501337295199,0.08592322139859555,0.5315737073664859,31.92341927139428,35.75496939742,37.644818631059266
530,-0.7128927592362486,0.20978569531742064,0.459146668507371,14.356008942292714,34.5937296792711,19.40688832365464
540,-0.7403870586479591,0.12505805529463876,0.4245918534556469,3.9039138711095562,22.563067307966147,4.095497248823641
550,-0.7789593948763446,-0.0061708391508982306,0.4527271880970298,-2.932182906543484,13.747011291230981,-3.3760809689926266
560,-0.7188962706419554,-0.0047212774331548725,0.513146016614929,-5.30081519132433,12.759367413087674,-3.964441833715827
570,-0.7982026059537979,-0.017774919271989802,0.3648911770651302,8.265895391691643,1.6471462587523749,1.994089778102519
580,-0.8233645608443193,0.013246456590235416,0.307461137180162,24.41810641635914,-3.1875602906485745,11.509185695070272
590,-0.803645971836595,0.051843862735447055,0.3216361011875868,23.86841289489803,-2.9888405955516544,10.050176202815708
600,-0.8164114684337249,0.08128345870231357,0.30633753806558023,13.490264710991887,-1.6745181367775601,3.4841741432354354
610,-0.8310725358877993,0.16410752725409825,0.32399012328920906,7.0715774699466065,7.797148670187973,12.548647622942497
620,-0.8394553280081138,0.21286942693481736,0.3727633503287967,-6.491080163938263,8.936238331909534,26.4556942431099
630,-0.7108065756395239,0.16414198798911675,0.3681810054937063,-27.320543122703413,12.57055669567862,20.67471163115858
640,-0.7601463914818183,-0.01699481624823365,0.3423911056566213,-40.2524536247817,14.716141039495238,-6.921886959191341
650,-0.974543885369306,-0.1668183376060249,0.4779428110441853,-26.179021151910067,10.16281252998483,-14.30680155907493
660,-0.8280851266948116,-0.18309981252338775,0.3216169345755985,-3.5309568948517236,7.72679679438885,-18.581627542140126
670,-0.8069182871610628,-0.15796707394703885,0.28762299690631293,5.8367124857303825,3.838128314306539,-21.136687542237375
680,-0.8752274264779015,-0.057611894010347234,0.34242940791338866,25.67227000783574,-2.822677019102853,-18.661359524645754
690,-0.8580586176950241,0.07726304704410766,0.4614259032455388,76.13252550559277,-11.699818262439798,-15.380876332546187
700,-0.787564450162785,0.2796925351896073,0.25523619756519483,49.849846162268406,-5.637534093370677,-3.0040591434946995
710,-0.7539899244777974,0.06420856969161377,0.18802968236510662,26.771422461572815,5.106402547103645,5.9409182884837595
720,-0.8984924945039968,0.5571367995433377,0.28097524835428817,10.047195447196756,0.7699597338831561,21.18828246865996
730,-0.8534499315441705,0.3041248955519886,0.2652674995638346,9.778848520137723,1.9460202195908969,21.542066866820168
740,-0.7863949549551997,0.08017729321271487,0.33935916570440194,-1.898195484138335,4.610153186356394,7.864883377560686
750,-0.7859866317330174,0.10928028256282321,0.33787902634849226,-5.471318467498461,2.752333766462007,-6.923009063211363
760,-0.7824572841217361,0.0621247318873807,0.3315432934339485,-2.593460361163703,-2.704889234559748,-13.546556400238696
770,-0.7880917271263238,0.03240328673845593,0.33064845158099093,-4.49178149131534,-1.797042737028236,-11.27180416598255
780,-0.7923074185420007,0.027542928034147787,0.33804400132401524,-4.565770426209653,-2.0992309508867932,-9.160919584657075
790,-0.8100129678157012,-0.020500065742122528,0.3111685182277568,-7.1120486969214065,2.8177640978393392,1.0637649182580797
800,-0.8161127276466442,-0.006615593361368432,0.31606663113939965,3.5136634994628215,0.2665821466916497,11.68578132701912
810,-0.8220987359929295,0.008604742154632295,0.3056227910150173,2.4934143454464257,3.5081805086937248,16.960315242962604
820,-0.8051766535808853,0.025700392871342445,0.32127239908647837,-14.466666664238764,3.4610258212580596,-0.10101746597139505
830,-0.7940362487386206,0.057084043237768,0.3300006553383136,-22.607576215203846,2.1670087061107814,-6.475609703906559
840,-0.7989319249119367,0.05562250657384901,0.3229209969037918,-26.36883202419243,4.592384272033842,-6.534251610334968
850,-0.8185419882482657,0.0003979476840584289,0.29293100871025857,-33.104463759382355,3.7968790178321914,-7.496011833520093
860,-0.768443988390409,0.04311299147287074,0.33973278507831656,-37.51423264242066,0.636005891968517,-6.120598932021186
870,-0.8176136694032453,-0.043181700706715245,0.2914515146044546,-31.095415624574454,-5.951366058820884,-2.2875733058677405
880,-0.8236830201861275,0.0030227217172534362,0.29498374380323217,-4.916073075102716,-3.613268630039262,16.00330645878737
890,-0.8064407875797139,0.04186256596075978,0.30835919985094706,-4.146029805366275,-2.976464438132286,12.035804033928658
900,-0.7847217352451924,0.061145995844624115,0.3339901876752684,-12.188940702812696,-1.9056987888418901,1.127146042801903
910,-0.8006846147010219,0.02091368235650259,0.31871091031209187,-14.114404518824095,-1.7088912140086336,-4.764080758387655
920,-0.8087650015325755,0.008786785267345023,0.3175828355465725,-8.894161469763084,-2.368025458650575,-4.684707515633351
930,-0.8174504194278882,-0.0014405023933101897,0.31054490570672777,-0.607445014073427,2.901302400871137,2.1699394387651827
940,-0.8181630513610656,2.923770951247795e-05,0.2971792532810547,-1.175521438866225,0.3367338880581696,7.226040244802037
950,-0.7905470537727977,0.03701336718685316,0.3237499076103557,-1.059093672348945,-4.194246346069424,10.085193803876233
960,-0.7888827672614976,0.05215487532285648,0.3317467247624257,-0.7980191357662587,-5.2348235052221215,9.60236888777968
970,-0.8113727639342657,0.034923601774711314,0.31553575580879095,-1.7665083974996798,-1.79710921647778,8.563929010559187
980,-0.8009453913493351,0.037315649562193125,0.32129568688843363,-6.228641222278027,-1.8752705673751267,2.641043802683785
990,-0.7886048176501051,0.04116123428966935,0.32471779479756474,-5.310301880662321,-1.0448237435492078,-0.2942352206872294
1000,-0.7584422415884182,0.06588188177555117,0.3593507521922389,-3.584078549381382,-1.4696703497341002,-2.5051630137616856
1010,-0.8111276582437942,0.010645062633321928,0.31193920654400803,-1.433505325499485,-2.1065629948840066,-1.7842679949971143
1020,-0.8099140833805017,0.014309030056486018,0.31438441718780485,3.516484617446434,-0.3353125932803326,4.226925397311569
1030,-0.7969019348765743,0.03629580987791344,0.32740734359949564,3.325568074327296,0.4056575778754178,6.559503223928678
1040,-0.788162734812406,0.05444191990357399,0.3358772983194381,1.2338601769988633,1.8448521582602389,6.461491732493036
1050,-0.7859141056358714,0.05239431125289172,0.33438758951206804,-2.7227892391390585,0.9235974374730382,3.2303519311807594
1060,-0.7874838333969156,0.04443573533613978,0.3345293826051357,-4.290064383164183,-0.5466696092483407,1.6133246203153317
1070,-0.7864245176820676,0.046325453696536026,0.3401198734847028,3.396712528038612,1.6936113682433933,6.267361739486331
1080,-0.8141222556773134,0.022277506557451594,0.30975759084979504,1.9333395401887334,1.314771141624094,5.414803048184731
1090,-0.8101432428336907,0.030825824760026467,0.310474543616449,1.818329451310419,1.735957418230186,4.818101678745653
1100,-0.8159411527152113,0.025799712334207983,0.30893660786687305,-2.397171570343151,-0.4276986845122417,1.6924439346150084
1110,-0.7973199245158386,0.041866000410331936,0.3246974174418959,-0.912496678841876,0.28545416745598173,2.240742478332825
1120,-0.7853957845035004,0.05635978637366428,0.33391461508937426,-3.7252332183303163,-0.9493812913307053,-0.241611008144865
1130,-0.7866553392010859,0.039829913269020564,0.33182921999250276,-6.6863061425863854,-3.6921653327076993,-7.423650896376396
1140,-0.7915284197248513,0.049920860970419575,0.3346522108315568,-0.9583247079952152,-1.5792851695300785,-4.976711846234327
1150,-0.7981304927217777,0.03732512448203274,0.3268354894678741,-2.1588583909376626,-1.475500677773888,-6.63362266462182
1160,-0.7999178223860163,0.026642684777573228,0.3125561901771475,0.4182255846953862,1.2425779937452854,-2.7946700754802745
1170,-0.7931254445390411,0.026960611750178845,0.331393844965396,-0.1406823124782557,0.36635903485644367,-0.8283477473151537
1180,-0.8094798266149926,0.015588311298333227,0.3234193307602559,1.791058290693634,-0.5076639714625599,1.584272786147972
1190,-0.7902595292025455,0.05144995298032978,0.33716781979381694,-0.19869983256221196,-1.3697449928719314,0.21952452117769639
1200,-0.7972614452988132,0.04040564165057193,0.3322971091796368,-0.8867959602369725,-1.645042821088348,-1.877389740353427
1210,-0.8258175815268993,0.01922353393387248,0.30547824690820574,-0.7851827586820028,-0.628652401028319,-3.152988911873589
1220,-0.7977450224924016,0.03620532763517665,0.3289214036785922,-3.4017319958415637,-1.7413975624669757,-5.206890609163617
1230,-0.7854557917202832,0.035244039266949814,0.34043496616081476,-0.22332435944970164,1.7295229104700482,-0.5178616663726461
1240,-0.7937637758547073,0.025353668412428986,0.32795300771604036,-1.5737639244592905,-0.2995368874844748,0.17465214981288923
1250,-0.8075563885615529,0.017616008343560367,0.31706423413585283,0.6225782844310959,0.9754258297558158,1.279431679541779
1260,-0.792340547572951,0.038535460998934706,0.33120917818986617,-0.5134954037393975,0.6622344233444029,0.6126454511113327
1270,-0.797426228121384,0.033297857277785975,0.3267128298175393,-0.05951257935462895,-1.3284277566608143,-0.3989136509029887
1280,-0.8122660141925134,0.024474153810711923,0.31332311625106835,3.4995582315766978,1.384939966489895,2.6454505934415877
1290,-0.828052322942927,0.008730334178323074,0.296401908538424,2.023004216594741,0.6941621325839402,1.105561610772215
1300,-0.7924903920300933,0.03880086950133879,0.3312066079451444,-0.1972907676342709,0.0587488474078561,-0.09987929301032272
1310,-0.8124783460496459,0.018807168316951645,0.3146087460307612,-1.1465094003836616,-1.0575823310013548,-1.432034214759725
1320,-0.8465397803614813,-0.009786920232856385,0.2840955454591989,-1.6615972135001595,-2.0658907544495984,-2.519582163401397
1330,-0.8009654749465164,0.0350020156437609,0.325954379957067,-0.41693033234142746,-0.6609882146492974,-1.7142589250276807
1340,-0.795449646223209,0.036204890741118094,0.3302982674946582,2.878838064076749,1.6901231061167192,1.2707949894074215
1350,-0.7950229524139788,0.03553977256251436,0.32958839815920044,0.7562664910065564,-1.5417105809770475,-0.7219693275267877
1360,-0.7963525638487827,0.03832185168449033,0.3300996717227431,-1.2763113787629536,-2.9890073816736087,-2.4064480816574187
1370,-0.809744339642268,0.029373243446401166,0.32128057425457135,-0.5164264997184316,-0.43675748059828895,-0.5428805572151925
1380,-0.7893469752008504,0.04906653795695101,0.3364682486294073,0.8062635476469051,1.935218340506072,1.5492355854204412
1390,-0.7911400296540689,0.039501003515730895,0.32900169113730754,-2.9715821667849154,-2.271301593658701,-2.814478580537367
1400,-0.8014127064288573,0.02473905841416569,0.3247738909651141,-1.474907546779225,-1.4916916994468619,-1.9380437744442032
1410,-0.8134948097052364,0.015846575929928816,0.31765729795178516,2.2243374548853714,1.5829744674031834,1.4947411355266362
1420,-0.792137277179498,0.035084112197087916,0.33516153615131805,-0.9670896932186898,-2.09323036566182,-1.4592202198141344
1430,-0.7976736304969366,0.03206694450635655,0.3243100310543953,2.15644426586585,0.46338997807151167,1.6081382917442806
1440,-0.8059941633528318,0.02888268825778159,0.31121669719956235,0.187485325902083,-1.8948136729779113,-1.3323772137420409
1450,-0.7926908911831366,0.042363391678711004,0.3298339298326287,0.8604851775904402,1.4351190207548488,0.1796608405181186
1460,-0.7857277572730736,0.04783044083813573,0.33969630381348714,1.8364593923412116,3.1322259057021156,0.8489070090893063
1470,-0.8049697885709123,0.024332794823380088,0.31869129394336715,0.8052616131306921,2.029587326543065,0.3838230030015619
1480,-0.7685501684476018,0.059040572812407904,0.3580037480026514,2.219215070775451,2.8832420710592306,2.539487630082078
1490,-0.7876075685451126,0.04386183764601953,0.3411175046077832,-0.023679045839214707,1.0884371020450896,1.1022112359012912
1500,-0.7928093605028936,0.039126768337812985,0.32704279660134467,0.6291011383136788,-0.2558110824872649,0.08804512752791452
1510,-0.807319518374074,0.027998796417855427,0.32291370361847854,1.0429074987841496,0.14135437573177745,-0.7612443577738444
1520,-0.7893540510566148,0.04880264088233785,0.3423106381178111,-1.6260858374904854,0.12675898413333825,-3.0846487524574604
1530,-0.8251247428153665,0.008543249526395288,0.2996672405672136,-1.9161840068480365,-0.04053763322687437,-2.1025478729122287
1540,-0.7859207392550983,0.039528652282898126,0.3416643986790262,1.6715628866436951,2.0498409105692694,1.6959559113074616
1550,-0.8417796127137789,-0.020028700710174128,0.280241032317121,4.017234345990102,2.374068144959489,3.3740829405767108
1560,-0.8225417857351501,0.017004656491605433,0.2995670651670637,-2.9478238835089883,-2.265673578324029,-3.372536910848197
