time_ms,ax,ay,az,gx,gy,gz
0,-0.648698447475913,0.3825505174991767,0.342253812263797,-0.6248810329128944,0.7113196001548276,-0.5283966681198913
10,-0.6589314396208504,0.3413260866978097,0.3390195205910977,9.812450739653649,2.4373720424567686,1.6162878053675958
20,-0.6779777956829166,0.3446718681802311,0.3160939878939822,1.610720084880843,0.0959880513417084,0.10401107578782115
30,-0.6712607502633992,0.3602187781707408,0.3185725986475348,1.4499120800857705,1.4456147417315734,2.209017290873699
40,-0.6623544794524789,0.3687513075410751,0.326668104064385,0.028591887165042795,-0.005220392145399377,-0.9279581164201589
50,-0.6458099050750893,0.38438056797974895,0.34700912857669325,0.4482993074939756,1.2577286194377246,-1.3801299014903667
60,-0.6601573268650928,0.369910300319758,0.335542835308127,0.16156911505507454,1.8008433678182745,-0.4451987363723764
70,-0.6358112953692481,0.3946675714969078,0.35585535480885266,-1.2611013060823386,0.28858433565345243,-0.635663883637068
80,-0.6766109588846168,0.3546943394331716,0.3125615547424368,-3.411528386099298,-2.388209774615042,-1.7824104851199898
90,-0.6424575563838133,0.39281821219462715,0.3487116231103844,0.4661447019566488,0.8131565471817028,2.571303747871021
100,-0.6210857986073214,0.4100045192796373,0.36831020955264376,2.15024803671543,1.473289416575462,2.686756295035331
110,-0.6524454854337467,0.369069902064334,0.3504696335367651,3.306573471946948,-0.2982097708570218,-1.8103697288691702
120,-0.6406859425264738,0.38419101897799934,0.35891732327225734,1.3450898391738815,-0.8141722926750011,-2.613337208804256
130,-0.6733894063521123,0.3560929226716276,0.3205969138304055,0.9395169535553158,1.0741948565534245,-0.15609308672244826
140,-0.6621554649336815,0.3685350496700111,0.327877005846386,1.9625507266191737,2.657019643900991,2.022581795263462
150,-0.6512321004860675,0.38113533765743274,0.3350557603292611,-0.22817447263239118,0.4747308463840286,0.5473062721203906
160,-0.6608635548026999,0.3723320204146842,0.33085952761641674,-2.8952760577540944,-1.3775094613142744,-1.336413802260553
170,-0.6345824833845513,0.39540522153341207,0.3569605220715774,0.07354232388012072,1.1155804161701632,1.153195668493394
180,-0.6453795139094595,0.3829529004455654,0.34516563381841137,1.3740526170465739,0.1582076709303751,-0.5288376294544538
190,-0.6272973988794075,0.40106934200471317,0.3583327760102319,-0.11324345744419889,0.35489829223509356,-0.9654964336208939
200,-0.6555673821600513,0.3736361526193767,0.33208489904105903,0.3944587132793498,1.6413302056222359,0.767010275420371
210,-0.6636910594830782,0.36743389275146043,0.32554087272859134,1.7372268473843517,2.8493782013450932,2.8566746883133667
220,-0.6596252082771066,0.37122431707207276,0.32718448928921995,0.07955152672916932,1.190739644809478,1.819450212861429
230,-0.6597694244322057,0.36689986125792695,0.3271150130783435,-2.0984102764803003,-1.1232164709933614,-0.617485576774423
240,-0.6747542459668804,0.34803943521109515,0.31837837089240634,0.8095189905977827,0.5983695933153754,0.6421067280615713
250,-0.6752613586377376,0.35182912095695723,0.3190709592456101,1.8080623712170905,0.17019846384567527,0.68653864216582
260,-0.6607512758880026,0.3768211561704713,0.330145057106075,1.8721907647809812,1.4634503036038706,2.206695805653297
270,-0.6866484516455086,0.3513085127131931,0.3048177875623941,-5.319128082731124,-3.6618792091791486,-3.2459077142328683
280,-0.6679344459400279,0.3646907800089479,0.3244473547017375,-4.428376146366235,-2.1840332239929676,-1.9752456129286875
290,-0.6624309386861832,0.3589553769654418,0.34033647876667894,4.264561965960594,-1.1712017844475258,-1.0339057676390655
300,-0.6576556484302732,0.370021707894982,0.34256204290020237,6.050252893406096,1.4155560970873795,2.1802873293709157
310,-0.6757963878987405,0.36045038029911486,0.316063866005507,1.2221430800963595,0.7609874386621281,1.7962935295621167
320,-0.6446298755555971,0.3895345472924387,0.3454002958907106,0.17704938660073022,-0.9402683675500202,-0.150824032033972
330,-0.6471853144122717,0.38643570864357263,0.3430325027824919,1.535726849663746,-1.0273349187241898,0.16128814452558127
340,-0.6529013431267735,0.38250451670902497,0.335502483381971,0.7473990399474282,-2.3193539408020434,-0.6618068966942199
350,-0.6696088737950144,0.362657926557363,0.3231947322723524,2.0717178686129505,-2.1287892064196328,0.012252155258857603
360,-0.6185508256249828,0.41331273226099796,0.37485432922107814,5.1335933364228525,1.6469951215878684,3.314820688891804
370,-0.6403485169647919,0.39479161403217267,0.3529188620307001,-0.5889329981966247,-1.547351282976666,-0.8340174644960638
380,-0.6689610305216439,0.36533608535900414,0.32318805747809054,1.4571155427143867,2.7335439498273457,2.5403228019447894
390,-0.6583739396995586,0.3728162136406836,0.33200517143669245,-1.2298635626823453,1.430817741707331,0.5899236032126871
400,-0.639676925242398,0.39035085240233436,0.3490099781565365,-1.222077492906219,2.245455553501521,1.1946514235703698
410,-0.6672270109551345,0.36314711777110986,0.32103624298672384,-2.4281032705828753,1.1144516003529397,0.17415176784426573
420,-0.6621431111582817,0.36687218554734546,0.32804772552559786,-2.4934029019906525,0.03857960392830251,-1.001976515552336
430,-0.6476074016135004,0.3847606158734831,0.3454402337663821,0.4309152527393225,2.709621041503728,1.1649303516672442
440,-0.6583849863623794,0.3836868020226544,0.32545131280214934,0.19013520158752395,2.3583859365657682,1.2453504895551795
450,-0.6701447370649546,0.36718330825147805,0.31678962281079415,2.3313535357640767,4.629423044749973,2.7089336452780346
460,-0.6741214560874014,0.3587625576816136,0.3140929957371188,-0.8260631946385895,0.6979645712742015,-0.8222400317474126
470,-0.6431137997353757,0.3902924730700166,0.34594300401637273,-1.498063682358163,-0.5133052820022812,-1.9469208975001495
480,-0.6513096405882284,0.38473144363848205,0.33771602154560687,1.3038620790760493,3.0521684681027814,0.8046099072623724
490,-0.6497368256387036,0.3921118843412633,0.3433073835628745,-0.5441321533365711,2.6589430198713586,0.43387013966685983
500,-0.6551637242893038,0.3883095687553927,0.3430854541741269,-0.7791515947008001,1.8602061314860552,2.0505574285408277
510,-0.6559930673748657,0.3673014565509696,0.330770183439593,3.473166563992187,1.0495227627486152,4.612739516757624
520,-0.6719549928702636,0.3657980652815229,0.3178010673133378,5.037894387529241,-2.026945228721904,5.127474036569086
530,-0.6666716465068272,0.3708512499573418,0.3248059278714265,6.181587310044692,-1.6364387613895874,5.358111755918639
540,-0.638529093790845,0.3809523386873095,0.341402460537347,11.748404713429675,-0.9971998908646373,6.592748842717433
550,-0.6429787040893439,0.3832809025575293,0.3511354536154077,13.999822771166835,-3.632965409934638,5.2519950312545625
560,-0.6802424697167262,0.3542649112184369,0.3198764852280289,17.769104262257926,-3.1219179056028814,7.816996601068832
570,-0.6437785790803553,0.39919397551575275,0.3557447001447804,16.910102566605907,-5.296721449518364,8.111346124020468
580,-0.649300324829082,0.38876151353498883,0.3575847703474726,16.13225118814336,-16.305375477763107,13.121802978278918
590,-0.6265388564026845,0.3991054691611568,0.3895170850050585,6.045835543933592,-44.74819395506472,13.615499467271494
600,-0.7423877004675572,0.3674644427012616,0.28673809131959205,-3.823639005029791,-36.92435618855428,7.440760313829004
610,-0.7458937620087945,0.3724353277833155,0.45044571648109466,7.120978978377088,-35.379740624319616,11.578429339878557
620,-0.7359124565304292,0.2841959887155741,0.38771647328798725,22.51424187582869,-46.528640956349264,11.09998238347462
630,-0.6486057087966351,0.34185397690076186,0.42680610444889905,26.94208430818744,-52.738516902266184,10.67658210296401
640,-0.5853084485865883,0.4446576841143876,0.5224774020041016,29.95281970218059,-61.542952566694794,16.205985060049237
650,-0.5744124251150254,0.4394711031747625,0.5419766921975507,20.547328305958384,-84.24947182381064,27.680957671195927
660,-0.5576724763835624,0.43167182284524874,0.5163110111417122,-0.5319809825219952,-105.84495187588504,28.680442823305345
670,-0.5625626511206363,0.4419624426096816,0.4329973843194048,-8.598183935293461,-106.10292510908647,17.021384120366655
680,-0.5445911567477787,0.4215161615208345,0.3445928867825079,9.69177001681052,-90.90996528421209,11.705285545170176
690,-0.517259146501133,0.46704368922580874,0.4125995844174745,2.6689960765088867,-69.64695416622058,5.444225867308809
700,-0.5621566426131838,0.5109168023452622,0.47959487303956394,7.455231103617739,-52.919912050044175,1.7120227925860112
710,-0.5409776004683735,0.46407747119413423,0.5417966803350256,1.7670060969871666,-53.097630276493256,1.4730959876025742
720,-0.5377602662008665,0.5015424143489707,0.5096785011816853,25.378982363626154,-45.71750567083536,-1.1428192526911984
730,-0.5848024651463929,0.4942395342680014,0.467304300434322,28.864717666859974,-39.17735358204337,2.198784366530426
740,-0.6381520864601207,0.4629363421641711,0.4248023641823301,19.808172627940397,-28.732817078500574,6.158408054810415
750,-0.6322933498698527,0.46527523552359745,0.42617314548978097,-3.5884441746989864,-12.453221768135478,5.461530210278255
760,-0.5970483910822417,0.46510114260108837,0.4905776878967342,-34.419888582735965,2.693289806541963,1.737743217066423
770,-0.5931857995049296,0.44735316304655937,0.5701227885434915,-15.74325584796269,9.7325888844043,-3.003361745496634
780,-0.5966409333758641,0.4534590650349147,0.5522927437195151,-12.917289245328423,8.968122104178486,-7.225782089080401
790,-0.6484562952585851,0.46104356629424853,0.5331366604399485,1.3106284174977736,-11.062973282546524,1.3163800342692844
800,-0.6923556440711773,0.4567348511671901,0.5125653292753257,2.368809143833924,-4.872800375434243,-4.167303494396092
810,-0.6538231335397476,0.4289423532038651,0.5097538069697454,0.981949653043424,0.12446137549988623,0.8103039544616606
820,-0.577263178664841,0.4243761358315002,0.5588435465683552,-5.4350886459521135,1.941935616177005,4.744209884184986
830,-0.6091646053116383,0.38291378553823135,0.5251114049693456,-26.565084322007618,-3.0505698246644233,-2.814051983525749
840,-0.582689763204025,0.4593233221952718,0.5440238736725569,-36.61952198446936,-2.017066802794873,-5.32934579573635
850,-0.5455296559313619,0.5336999876824587,0.6339099780603963,-35.79142715575269,3.2713659327874574,-12.21640218083882
860,-0.601662085871804,0.5070481544294727,0.8153147251871825,-53.24476987781192,34.76775252293064,-27.32995367776395
870,-0.8057504436191304,0.4856588139811858,-0.07868535417789616,-16.666484536789646,42.688269158717524,-13.327711599536574
880,-0.7995450681679062,0.5906860197244262,-0.11354757777316582,-4.149620448344502,66.72316711851492,-8.357924876154303
890,-0.5408931132160032,0.4251986240465769,0.6932349598130254,-23.04038477913737,67.6735192288034,-22.35614233990065
900,-0.6312900655670994,0.40224154004279766,0.7858132523648997,-19.328044336252,75.14986280769706,-24.50303715553162
910,-0.6904307815847965,0.2804898470779489,0.4343613568338412,-31.454245774567124,93.3390250160423,-33.77723572031897
920,-0.6892668927959879,0.36059248455891496,0.7924824914715636,-1.193652368717688,98.461268023701,-42.60637415270717
930,-0.7219970026494417,0.5210243427331517,1.1407503305041915,57.618474836234604,87.30318904723265,-29.72091467637199
940,-0.6588763350700345,-0.005800621702490141,-0.5438862522888251,11.930210805348029,90.87210682734451,-3.3237887959322245
950,-0.8472461917387637,0.4739526089472655,-0.7478145387263002,48.82553670410764,75.54234106212529,-9.452308204942911
960,-0.4128219403799108,0.5637053363407676,1.3162072526380408,92.27678031823542,50.63032171248688,-20.285834825787596
970,-0.4889763894131943,0.33686284277424045,0.8065594867654229,26.551498279597556,71.84087458976731,-13.260269736748402
980,-0.6640786677907584,0.4320962559763909,0.11795176481084116,15.166626674058076,48.08042370413021,-3.8646279863940576
990,-0.7133726247035316,0.37397588815332017,0.18357843298672255,57.24920913511395,30.397767596320506,-10.894412654248942
1000,-0.6700353988285621,0.3180531564917151,0.37117087085301537,39.499126365983926,17.906953923923542,-11.220557039505806
1010,-0.6551768933562974,0.3959119313090083,0.3897511945630789,-14.5139243411001,18.984755713344413,-6.695030463383647
1020,-0.6155244880672613,0.5164324701790288,0.5693560767345016,-0.02950238870449927,45.850062005748725,-4.195234858633246
1030,-0.6084708791072131,0.42601105252350807,0.5420999000371804,7.902170778432007,25.756829061295566,-5.32410560734514
1040,-0.6334757920194629,0.36406925001873996,0.3909483371033171,-1.0189775992535972,13.536957676291918,-4.098645429643014
1050,-0.6610226385106607,0.351238611675234,0.3332155741057902,5.163631471569119,6.541465090167327,2.9313293097527846
1060,-0.6347311294295631,0.3780904735917024,0.35201658454338536,-1.5892729150582303,0.09089975440552944,-2.476708992698354
1070,-0.6414493167265416,0.3685610654273349,0.3393431666974441,-0.1494372800381435,1.854873434928633,-1.0364345731347742
1080,-0.6708473660784458,0.33524393576731837,0.3074075292571224,-2.844206011605965,-1.5629529973092122,-4.033892660900051
1090,-0.6260304103974117,0.3781025417496426,0.35233168297211964,-0.5156688227877027,-0.7942124378860909,-2.588481948106682
1100,-0.6579689414193428,0.34546227587146733,0.3220312364092177,2.1755716627229686,0.46640456996973745,-0.88505392849358
1110,-0.6442667481457348,0.3577228485955878,0.3386874607136942,2.8056756755490744,1.2433029288455288,0.030345481452946577
1120,-0.6615037539877505,0.34496670351455255,0.31948312715510246,1.8468702634481398,0.7189944741456837,-0.4924136687963436
1130,-0.6516397316891731,0.35375893915281226,0.3326348999591537,-0.6065600660240738,-1.0153166487049083,-1.76438963924372
1140,-0.6592486590617037,0.34989740594657165,0.3274855687122159,-2.017857643331722,-1.020875409818445,-2.412656641241817
1150,-0.6439908800149324,0.3662245248770645,0.3453108606216164,-0.39868718611244347,1.5998895735106449,-0.7725010884409049
1160,-0.6401441765180862,0.36561528142120403,0.3471001824528122,-3.2136036279470437,-1.9779381801157452,-5.095509620918243
1170,-0.6559222937413358,0.35261210639312734,0.33173713642654673,1.4418040912893868,1.6056806642559613,-1.0371286887748459
1180,-0.6591400871749554,0.35026982011113555,0.3280542188674564,-1.3117996697784888,-0.8484522276471893,-2.9402660491743466
1190,-0.6401401814334821,0.3599656285585371,0.3432901789664939,-0.7365133921435105,-0.7110165170804224,-1.8772862783273654
1200,-0.6682320827272882,0.32972924136044424,0.31662886050067124,4.5456007030953645,0.2813968037930803,2.4992012169384643
1210,-0.6344291846852429,0.3765590444920271,0.3506721956300518,3.316981743464893,-0.6469300978325663,1.7129854501120563
1220,-0.6754226899553746,0.3333197599772694,0.30334066291504286,1.1779972748016416,0.13778875521671874,0.6532404504567021
1230,-0.6405505103076122,0.3648849830837641,0.34496725388613747,-3.269621869773089,-2.775843534331793,-3.7624826509087814
1240,-0.6633972187829253,0.3409103323966542,0.31779642678803427,-1.091980711945399,-0.4796907217843773,-1.620195511835379
1250,-0.6592098115408525,0.3435263975554935,0.32423626797316163,2.0555536062835316,1.5913300646064046,1.1825943537106205
1260,-0.6740621448398705,0.32656578793176483,0.31064000000432734,3.942899942229259,3.02989185044439,3.926347092288637
1270,-0.6589837161719984,0.34282515946459385,0.323179409016248,0.2494236110938141,-0.2468668987350428,1.6445094126876458
1280,-0.6519163645359823,0.35349920805165236,0.3299765227573209,3.18878436259768,2.606445622145725,4.386934971960003
1290,-0.6492764573762241,0.35358210861665196,0.3311042393206835,-1.505460420791829,-2.7466208691854277,-1.6861000475159857
1300,-0.6651080433372081,0.343922962476049,0.32160535153080155,-1.0896004145091827,-0.834360830437442,-0.7556729969781325
1310,-0.6596975970090556,0.3476854888406832,0.32596656564984133,0.7507121881675942,0.282640271472971,-0.055780436607911876
1320,-0.6783780221793052,0.3239606881625455,0.3052997087928743,1.6728495377613628,1.4339843086984714,1.2626826978655017
1330,-0.651603703924218,0.3552319707057377,0.33328861998396486,1.1293458724689502,0.11612666949112349,0.7937301128768062
1340,-0.6461847870860401,0.3625745191919989,0.3372513482610272,-1.4881838974037704,-1.7656331497714386,-1.4951186033368131
1350,-0.6439866753788895,0.36515674213297256,0.337967591142354,-1.93475336211565,-0.44018452470171465,-1.4531029901566908
1360,-0.6345791160672005,0.37457831355309246,0.34803073326993866,-5.056168995558321,-2.3287734591784055,-4.411675863384309
1370,-0.6566223538237558,0.34551047555949216,0.32619346519069803,-5.92816157020701,-3.0309276115730945,-5.643754454584164
1380,-0.6492199715941818,0.3422164756280989,0.33541719368406947,-3.8094609409843745,-2.398112474632738,-4.476312410361597
1390,-0.638887384015279,0.3579352087883985,0.34363437861279306,1.3251432413463349,0.8821906780117237,0.136010967326761
1400,-0.6402011583415379,0.36154219617742733,0.3445572940190009,-0.41959883029404965,-0.4266287990798576,0.49487974377748234
1410,-0.6329080845258179,0.3686179227152696,0.34932168934207647,-0.3688074719374579,1.2408613128001025,1.1104718184942424
1420,-0.6221580482541521,0.37787017897629915,0.3627153022471763,-4.57492163996478,-2.4899751159343326,-3.4138178330456532
1430,-0.622878673117254,0.3804664446836642,0.365572019962054,-0.8973015461026781,0.09014774072859527,-0.35891651651473555
1440,-0.6834046763100972,0.3211313342548998,0.3039805599506765,2.587349922508117,1.9298454511904164,2.3736238046803795
1450,-0.6458913715437802,0.3558394344812146,0.33929541310189953,-1.8366410991632005,-3.409105588783821,-2.5862775465562584
1460,-0.6478039509158962,0.35780110796300735,0.34084605365982834,1.5103329126235823,0.7308322245925458,1.2120079206899896
1470,-0.6704368055543696,0.33108745470482775,0.3151610537119986,-2.8554147346305148,-0.015358917796386984,-1.5064250657807556
1480,-0.6349430516503357,0.36639295094530566,0.356997400519054,-2.466099294604436,-0.6453864958330351,-1.454154676085956
1490,-0.6704682535458113,0.330804099734345,0.3153002085283924,0.6205366064119389,2.4819714621872455,2.1507097859532105
1500,-0.640873464894181,0.36265640803415294,0.3411361757164985,-0.022288870143329698,1.5821636830442092,1.9208611720182565
1510,-0.663745729224971,0.33942170927024057,0.3175053514649457,0.6062277008820112,0.7710364291485745,1.8837410477295822
1520,-0.6357864554347031,0.36845926071785473,0.34577212576035166,-1.0592771699188641,-1.852010840131634,-0.3141898939515184
1530,-0.676389093728158,0.3285616266968908,0.30542211126515656,2.043724701404997,1.2876753878180198,2.0371601674801205
1540,-0.6337219884385689,0.36837820753164596,0.3492693745320322,2.120613889808409,1.324398794487339,0.7593671493731519
1550,-0.666746864515928,0.336420422783703,0.3195304551217706,-0.735208248915572,-1.8616618975383288,-1.4155130007713288
1560,-0.6759662617840357,0.3249233772939757,0.3085031557086218,-1.4515672478379298,-2.5604088997685777,-1.2680452461632707
1570,-0.6685640444499565,0.3345806374682815,0.32216442922721916,-1.7162571541454579,-0.9736222340229574,-0.5078988741232657
1580,-0.6458054169608345,0.3609548049229282,0.34439868892402786,0.9169045447304388,1.3902850357966416,1.5245782264670042
1590,-0.6412036680024724,0.3599009702521947,0.34566250896568335,1.996929097072567,2.3564321138489666,1.799278850625943
1600,-0.6511004361868656,0.3481362444946309,0.3346755467539211,-0.6952210263344438,-0.5785008564030547,-1.0008574994124837
1610,-0.6425330769871987,0.36217512882673353,0.34275358408211276,1.9863524666702221,1.2789473673858016,2.2230978800878036
1620,-0.6319927999179531,0.37820507707624784,0.35303423820755053,2.064203142939235,0.780363419161764,2.831181415577605
1630,-0.6567541176191021,0.35160337775423145,0.32979767782635927,0.8637382304864445,-0.6797401857199389,1.0319387268920972
1640,-0.6231967706225688,0.37816464791339843,0.36096893481409736,3.3547544509789877,-1.2919997412643653,0.8360389403732268
1650,-0.6727278006184048,0.3328729354390093,0.3135902217592315,3.8333508837292243,2.0402042144943366,2.20590056519008
1660,-0.6456031723038075,0.3610575139285037,0.3436831296032144,-0.19481621190241927,0.06401644392404077,-0.6877992085000904
1670,-0.671466282493225,0.32996278821345904,0.31299626717524304,0.3481744553748838,1.1060605361462017,0.05085473229532356
1680,-0.6719615620858048,0.3289206378135201,0.3133080294301942,1.6378817362127287,1.3002283954723508,0.9201815965628736
1690,-0.684798294756082,0.31777989996077055,0.3014369215093061,2.725070487610205,1.5986656540992519,2.262264657880317
1700,-0.6511896023985141,0.35039788142984585,0.3311769127487756,1.2967445123822179,-0.2031441792954503,1.0453998670172377
1710,-0.6650981253008103,0.3368446731349938,0.3157301219890148,0.7113014901392261,-1.3139086454355984,-0.1465004438350872
1720,-0.6357138219771741,0.37352557763765487,0.35392821518661816,2.296494757977237,0.3846364471419843,1.04964140454148
1730,-0.6568291823168818,0.34459705995330564,0.3301719818983514,2.9754591536131443,2.328502305478391,1.410367955743375
1740,-0.6640334252346161,0.3385024066908426,0.32152214027408754,-2.1126815409327664,-1.5653273366804616,-2.2622226130715966
1750,-0.6669783558046515,0.3359096660949159,0.3217791271895477,-2.256230674204756,-0.913857320542348,-1.9033359870084885
1760,-0.6407412393516737,0.36076219001378096,0.3477701208491847,-1.0572636914935192,-0.33688865665476275,-1.0097995497952654
1770,-0.6422470276521601,0.3575519884057036,0.34328459464042965,2.163229695853298,1.9255319162808715,1.5943629312068999
1780,-0.6452021297623635,0.35612161068065573,0.3413754012214455,3.3023657195439164,2.7851547320350223,2.6886233247171596
1790,-0.6640417761145369,0.3422784790565745,0.3231847945999762,1.0759873486377012,0.3058155329477047,0.3699116049862765
1800,-0.6526084964329564,0.35586335315169587,0.33068750542385794,1.8255936778255357,0.28439317974786077,0.4522488639810682
1810,-0.6541619422277877,0.34733730348568287,0.33252781566324,-0.05684590712274362,-1.4503713822659923,-1.1093996568417765
1820,-0.6539877967289766,0.3505329412085793,0.32759641377961685,1.253774664442473,-0.9030715810194461,-0.40659337685654934
