time_ms,ax,ay,az,gx,gy,gz
0,-0.9316522834767348,0.7785272761418199,0.8929204782010093,-0.1735776404922149,-0.03893697291257055,0.2234047997290623
10,-0.9390390511189898,0.7663540847666611,0.8861757293667701,1.0117452207819224,1.693125879754758,1.8375604291146452
20,-0.9350618524624851,0.7730187209214051,0.8948856049993408,-1.7885897697712902,-1.156711168384426,-1.7459293953493777
30,-0.9248119661980759,0.7823425742356839,0.9079485948887438,-1.9115279325383785,-1.753643026280339,-2.468304117972192
40,-0.9301552034323439,0.7747872785180357,0.9022926354503112,-0.8363245564156989,-0.7160830225725301,-1.2802294474824054
50,-0.9473905264575683,0.7583949823543584,0.8829405808281713,1.962294276173005,2.5579959471818516,2.280496679541525
60,-0.9372604308538675,0.7750054193563722,0.8963019400657702,-0.3587326088789907,-0.09338520179464191,-0.21056930275795416
70,-0.9442589184548065,0.7703642317351314,0.8880733855142319,1.8907092874189726,1.7571517298710868,1.834704616051734
80,-0.9203472262220549,0.78698081884302,0.9064166717603712,2.8641737866667065,2.51579543602508,2.531904867565085
90,-0.9367222353790504,0.7683753992545007,0.8909037141421463,-1.7018835194338595,-1.8295869517821384,-1.7462105842328808
100,-0.9361599421695438,0.7675860491711567,0.8883321859935223,-2.1786997688389236,-1.4788167791905025,-2.2447731007575444
110,-0.9387001816521718,0.767510141687977,0.8904049870978579,0.1414236388742397,0.6633377504155035,0.24748579629181122
120,-0.9279975348011266,0.7791750246861383,0.8981021675462375,0.9186925520984982,1.027215895771115,0.6580126514501964
130,-0.9265169043985301,0.7810869694234115,0.9030615469811968,1.3060188104620867,2.067429350633695,1.8782166347063138
140,-0.9322745682820751,0.7733394415475193,0.897869021318339,-1.0022018796267045,-0.34193808967671924,-0.5635247670636784
150,-0.9200885876959809,0.7862282792928343,0.9054733282299677,-1.4398349682130869,-0.8805940763989217,-0.9617243486478018
160,-0.9318197666084711,0.7767892885476144,0.9016418515662609,-1.257737161886031,-1.368596031050226,-1.4428935796749462
170,-0.9248906231117416,0.779383737919375,0.9139104194075969,1.8884825335662239,1.2767142470334931,1.2606912384212055
180,-0.9461515180528114,0.7581124914898868,0.8865356224586677,-0.34873710690552895,-0.5242567426790792,-0.91353324314846
190,-0.9210208725935145,0.785508815641646,0.902486630845908,-0.09360517366783992,0.4262012827288295,-0.6252284389621947
200,-0.9352150578137802,0.7649818668267818,0.8943483658551851,-1.7979028187263206,-0.4493415257617487,-1.779309332890449
210,-0.9273591613756568,0.7765945766306138,0.9016083188153797,-1.5525121126857446,-0.5255039902199038,-1.5315386396227235
220,-0.9252814571652725,0.7786791928165724,0.9023771805580766,-1.7798068662998368,-1.2530342436702704,-2.1664518432549578
230,-0.9362480498251949,0.7648386276349474,0.8902228157037299,-1.7036243510000397,-1.5190491451682555,-2.468455892962571
240,-0.9396205524193639,0.7645426282079889,0.8906372436247055,0.26639609465486846,0.8050982997946025,-0.18931458519730948
250,-0.9271513768172348,0.7756774079497097,0.90420152567494,-1.529669935220145,-0.8732300260314708,-2.494840795438043
260,-0.9543616860081308,0.7425371088874796,0.8767714222444227,-2.9278843021695957,-1.7261351908363165,-3.796699123151295
270,-0.9194881294898933,0.7768325555383914,0.902157982828724,-4.582725807039026,-1.1986299329279206,-5.853161986373755
280,-0.925770245568892,0.772263807064146,0.9044972668112486,-1.4005279903486714,3.138050431736835,-2.170543139984972
290,-0.9297238689930207,0.7537284341104046,0.883046229312621,-2.881068270663855,1.1461830987141042,-4.976244958969947
300,-0.9165420527417517,0.7654509908663489,0.9161412149866955,-3.307176327707333,-0.02089783554813085,-6.276649273346726
310,-0.941032582315018,0.7578612418555069,0.889650834837716,-2.57057117562765,0.22370437760702072,-6.449488658040304
320,-0.9745882250754881,0.7129575432006247,0.863579680511719,-1.6518708414723244,-0.6706761856156116,-8.123655294547504
330,-0.9500647110528948,0.6938713298755383,0.8883483643930299,3.6445855370156535,0.767125143759662,-7.81189316264446
340,-0.9396416196227287,0.7230125945041928,0.8981179163500687,8.704051499464825,4.309524001359642,-4.058141251164651
350,-0.9232941114505047,0.736876404739078,0.9109341636883268,7.24825514187073,4.88385373024558,-1.5839619497359183
360,-0.9269088938416707,0.7117651554168457,0.9205644846660884,10.413908641234631,4.25537444721741,0.8310790898433454
370,-0.8783967639739896,0.707175998051895,1.0341058412106487,12.808518066333589,-1.113415565359515,-0.9954346535391023
380,-0.940063868652921,0.7410990328330339,0.8649953739105586,20.714303876434478,-9.690223414088896,-5.102592793067494
390,-0.9945274669404011,0.7030661742264581,0.7484720111173556,21.796969427725127,-15.528888891372521,-15.050584373873258
400,-1.0029866898789725,0.808808001564595,0.7630602520342005,24.943441513437,-13.074835817883622,-15.04637938309589
410,-1.063778404412029,0.9096804186282434,0.6767621090535824,11.015386093688997,-5.180341083988755,-7.346490515091553
420,-0.9335376039943707,0.8151597028829051,0.8556454521017888,11.08264292989985,-6.500253302534392,-5.6532599257069345
430,-1.0930674660722,0.8243416811498122,0.6116194670983747,10.271863717880413,-4.7653692536519685,-5.994788147271546
440,-0.93906700305399,0.7703896798321141,0.8846980610283774,1.9985380928507843,-3.7125208149905946,-4.090913158104273
450,-0.8421127869593589,0.7314361215406564,1.0733888785552417,3.6170055999019795,-5.345793930176638,-4.203342649055213
460,-0.9514891707414597,0.8102984125493462,0.9142903082392639,1.201906093323483,-6.970916386635122,-4.542307843629122
470,-0.9829457008227815,0.7289154945536436,0.857167569006306,7.146507910178128,-0.6094230561485365,-2.8264299492723226
480,-0.9348924383158632,0.7209772948249206,0.9043132352718118,12.404599126590089,-1.1525646746767482,-2.0934718545635898
490,-0.9203053984406612,0.7484687283778821,0.8578046398195931,1.0669523831144112,-5.965310278493112,-5.27819765202557
500,-0.9390835859861943,0.7322373540945191,0.8801217726873939,-10.83029846952456,-7.209615728886069,-9.114062821296038
510,-0.9358806547073271,0.7690291140967395,0.8595362872709496,-15.57016737001832,-10.735590712369072,-13.705236639973778
520,-0.9904300581209591,0.7623191344723901,0.7782591896947392,-18.951972851428554,-8.182888137238848,-15.438828849508038
530,-0.9703851949835705,0.8411989374893184,0.9348319316689788,-16.668914345584177,10.148067026273731,-5.869943102493842
540,-1.055327975853268,0.9338095789617094,0.5541371435199494,-6.067237565749693,23.81235267092887,2.183244982816624
550,-1.0166805515093487,0.7939282985858614,0.633487604762976,-10.432847595924596,26.230865098370188,8.024034292875138
560,-0.7556671597038837,0.547174491938923,1.5466733746866912,-23.375480460075188,27.337324370079067,2.8336735128654666
570,-0.9698019278196093,0.9290654820532861,1.2341969497690657,-16.930359255685158,29.326985065539112,12.365327418933557
580,-0.8426565948129191,0.9514174528681059,1.5571354443811483,-6.897003185628709,28.55574940050578,17.420452057269284
590,-0.9847412873747082,0.796911549874708,1.4639626048098844,-15.109157053102948,28.613487268598437,17.523148127142196
600,-0.7743777367166504,0.7343124459045018,0.8153859898544247,21.306091252845302,46.94482923976023,19.362235478923843
610,-0.8325310536848561,0.612981738248187,1.4457771878505037,-3.7593954456855494,30.19500490896903,15.586351463012802
620,-0.9441656910541841,0.6242028652449408,1.0224754785364933,7.596397600042494,15.8109837586298,9.137397619916229
630,-0.8787244828193702,1.2313110799014368,0.8002615011009622,36.414623573084135,37.719270333229666,25.284261745159597
640,-0.92168102651014,0.804433322730925,0.6278198049425332,9.629967711894263,26.13793492635941,16.31628724826286
650,-0.9865400621913232,0.8362331225954694,1.029642737739058,-4.964619411720193,12.872997156964036,11.522697292247603
660,-0.9818749327390598,0.7021340717684047,0.7161778701964822,3.835050519327685,10.08787896060673,8.0245190495252
670,-0.9501321206586514,0.7059247767284826,0.7373689913889488,-5.942862823354133,3.2430067516375267,2.5450116664771887
680,-0.9574451935135415,0.7130088001958329,1.1068632366725935,-9.153192261695908,-1.9065342468966484,1.4225283632118264
690,-0.9429434294411388,0.7289231675200353,0.9564075585511366,0.15771104036164285,-2.1844350205728116,2.737105475628863
700,-0.9367947350185074,0.760276662315127,0.8838395788471867,-2.8394952578638835,-3.95858391328327,2.315420505178817
710,-0.9181924834516336,0.8131034253775523,0.8786323786000059,-4.9054676575364065,-4.277315857039424,-0.15901213740513542
720,-0.9572357600106453,0.7912568734652631,0.8237189473350337,-4.560184644313708,2.5570029002998926,3.1209679228878553
730,-0.9560277550994516,0.8003801026180849,0.8073668183515246,-4.724614622545186,3.8906326724733855,4.532168916369083
740,-0.9746515713343207,0.8100732714912597,0.7947583780357672,-5.643578187031655,1.1654475801249622,2.7183137968545754
750,-0.9843459812205292,0.8368443554057419,0.805327219833436,-8.843215416828567,-2.5716470976711454,-1.6340717335553265
760,-0.994489198699398,0.8535264382545215,0.7975508572864528,-10.751919689926586,-3.3592524298953728,0.5196645610369197
770,-0.9897378415896039,0.8964461053276652,0.8297420180652805,-31.37247313732137,-11.198930980825976,23.775685385632155
780,-1.0339551396026143,0.6517307240181208,0.6757812050785963,-22.507335638732066,-1.8833764049483057,8.907511931136094
790,-0.9647566753725452,0.6516304103919893,0.7701020143832245,-14.918297260284676,-2.4273108900266913,1.633241675101786
800,-0.9465624413395707,0.5576008604139263,0.8045690658007421,-0.1619120994669131,0.7128868430012724,-6.157725305632538
810,-0.9768008382254626,0.7381012522331621,0.809178862547137,7.027371461332873,1.2248111384535414,3.3592643243664675
820,-0.9586377687699804,0.758949566328393,0.8132657637036513,4.051157672347208,0.04643998229426316,6.68942785387704
830,-0.9908879422985878,0.7509236367635707,0.690415786774359,12.56147745489892,5.785301848967228,0.4800650522531167
840,-0.8080937705289458,0.6698633668946107,0.6601946435615162,19.714260011548525,8.196650971236112,-23.745471344861652
850,-0.7120443722666572,0.36037328890583004,0.6645265690269785,28.232949669606956,10.71964635799205,-35.57778080645174
860,-0.9258272729578318,0.6968550805969911,0.6240303918499386,31.277510565914795,0.9895997880891425,-17.6845643535151
870,-0.8753579210177089,0.5158644469664244,0.5712866686526039,21.15067715182679,7.170230426102366,-10.359283100331984
880,-1.0370468671380788,0.9800263059344945,0.6739830712964947,14.529542223178952,6.504469368579513,7.074120283596777
890,-1.020097540014792,0.8855850760350445,0.7606703117442503,1.747999177329485,1.7449947620535355,2.4922458507596517
900,-0.9554615036187178,0.8249771206549091,0.8737384311519482,4.614668418281204,1.569199157752751,-5.466692744212448
910,-0.9751610873017363,0.8455408166829649,0.8050522857330599,1.19453462775012,-0.12017537730219086,-5.4623286202185835
920,-0.9674538313167282,0.8296513384259545,0.8096547543008348,-4.0689513182077235,-0.9730476636128793,-5.003613408803734
930,-0.9661109076167336,0.8004186067698275,0.8087302947171998,-5.095902698513761,-0.6064830617656459,-4.831975208161953
940,-0.9728283535084261,0.7717182217797086,0.7838799035617284,-4.881546962991747,-2.9180155913041443,-4.163646657953395
950,-0.9962797751783932,0.7569828245646594,0.7760019561458567,1.1681410658214375,2.836133868408651,4.1465932909088545
960,-0.9763822526628079,0.7817804710596148,0.7967382428310403,-1.4675720387256947,-0.06824043373803107,0.5709774740356588
970,-0.9846547073550697,0.7816650326299951,0.7914269891284783,-2.811832356405858,-0.5203811014795627,-0.5757596625301626
980,-0.950911703780698,0.8110440823387801,0.8299077833979406,-3.245047314906716,-0.3880417920943451,-0.6102514680049955
990,-0.9818947923434089,0.7738949935728973,0.7991314998119264,-0.07353386508648718,2.2979027479316865,3.3403463294816422
1000,-0.9813686504091867,0.7800721214951416,0.8037231236076913,-6.360812484763819,-4.352833536037875,-2.760899410180535
1010,-0.9804241160894165,0.7804290256948355,0.8069976131408813,-3.2703663224459913,-0.9975966838033441,0.4253392237627117
1020,-0.9896115479822264,0.7665121614277145,0.7903162108712771,-3.20653162827631,-1.3388190503977828,0.11815100838915571
1030,-0.9800308638315766,0.773536656400086,0.8002115088788417,-2.1694787886560034,-0.5217706098932676,2.2752489711044848
1040,-0.9597229551310824,0.7969335225713632,0.8084969294277236,0.19737099617901954,2.19768643835202,6.9479005321563605
1050,-0.9704609311941891,0.7864598858275149,0.8031561085631812,-1.8707617843328532,-1.33917436571699,4.041183899802709
1060,-0.9882651809492194,0.7782551419404251,0.7893532332154525,0.5849746487515693,0.6152370740645209,-0.8172796992269262
1070,-0.9553220256309229,0.8082005780268927,0.8376986315809819,-0.9668648490521637,0.9407954918759909,-2.2219402772700567
1080,-0.9650511975740667,0.8008205369308272,0.82073766503513,0.7414090757043045,2.372736629877789,1.496085302319146
1090,-1.0002775456041861,0.7624889813912705,0.7839315979153672,-3.1108544577439847,-2.3671209309370385,-1.0324932195298457
1100,-0.9754820691963035,0.795344118816059,0.8107940631075715,-0.4825141832518218,0.41838047940013445,3.28095312335777
1110,-1.005155853518576,0.7783773290887528,0.8084757945930436,-4.950980773706342,-4.879181367532688,0.5356326753565117
1120,-1.0498355380596354,0.7937110096259673,0.8743695032085256,-1.142268043195078,-3.3434950787847058,7.660442409155332
1130,-1.0631319140480768,0.7983037647412764,0.892393500368339,1.5817373962985632,-14.701158075895739,12.619433155170194
1140,-1.0695810574678621,0.7334870579127094,0.801471679422663,7.5044885143136595,-25.68073463545614,16.38593693246849
1150,-0.9886872996434101,0.717796940038564,0.778746435581346,12.724531215697159,-22.800463843029217,18.835198548604215
1160,-0.9428657267561644,0.7391045555048991,0.7690146061073493,14.55787422714771,-21.293660166959246,17.38490214639879
1170,-0.877213806020258,0.8945925847261498,0.810431181875774,11.22956068524902,-9.759480889679075,11.481757411095327
1180,-0.9105360024588366,0.8862162247504923,0.7715287427207866,3.4399129289794286,-1.220244050202011,5.403853665858783
1190,-0.9034629143644808,0.8769023723765152,0.8200405994432354,-2.7807527492303197,1.661914795500485,-0.5798021670780653
1200,-0.9405002579528727,0.8369149913433596,0.8146094837323015,-4.9682539343117105,4.217836574657281,-2.712790387921136
1210,-0.9469712613277581,0.8269875369578281,0.830770417804932,-4.04999568334739,7.501456165936654,-1.4755131172486413
1220,-0.988173138281543,0.7795647555894404,0.8523229710058713,-7.9958596534853115,3.7904558936049906,-6.636925662277868
1230,-0.996170517980861,0.796483659834231,0.8080693369348287,-1.7055917455526985,1.4887168036329663,-1.6604762590955247
1240,-0.9810795976586967,0.8115376595230382,0.816286374613478,-0.3593519529953212,1.2272807147035611,-0.46812024979524486
1250,-0.972523947249777,0.8371806980046144,0.8350475317399276,-1.7893255529679934,-0.11124056675567884,-1.5439430926703803
1260,-0.9670392126798676,0.8256494183197542,0.826232714909099,-1.2541436145287126,0.6987916323264269,-1.183746338171885
1270,-0.9313591530677748,0.8488436154432281,0.8343441292334502,-2.75232041012942,1.5348043920374974,-2.6224047503401855
1280,-0.968141580083216,0.8191603022645699,0.8197366022789679,-1.301730255744984,5.296964994738202,-0.557315780107051
1290,-0.9830649494432997,0.794210472642646,0.8235432820326642,-4.6796882531111725,2.1217168927965817,-3.035017194202383
1300,-0.9799452316735798,0.7976417570462058,0.8198618170887596,-1.14384460071853,4.013726773638021,0.7623493388718958
1310,-0.9676359682960622,0.8085687089604562,0.8370952025613619,-1.7679510166710497,2.0598925099320846,-0.26988033500510583
1320,-0.9576013774134793,0.8310099325539317,0.8444027748685187,-2.2319652699633155,0.2603589353215391,-1.6943533485203601
1330,-0.9394771077399134,0.8492433913654066,0.8386288213586731,-1.432771980963409,1.5334562806413023,-0.1774188730709494
1340,-0.9640192318764336,0.8132528933023311,0.8265182975627176,0.507336111385094,3.0940332938059143,1.6639004476106665
1350,-0.957205139918489,0.8287159262475248,0.8524034204331572,-0.21419936278504406,0.41539472147466927,-0.34811666992247114
1360,-0.9560922508694202,0.8240798579383588,0.82547026645202,-0.09319658186381652,1.0445403583648538,0.03502994427079936
1370,-0.9547147064794838,0.8178241073205502,0.8211033278813246,-3.290881424568476,-0.13221418694437048,-2.0259172459744406
1380,-0.9648678391011279,0.8200398965919818,0.8401438623217605,-1.6447794597687682,2.487749876219682,0.012965767521403715
1390,-0.9702589764727405,0.8188924794587852,0.8149567764697098,-3.092927910858693,0.3047684361635672,-1.9283004924850404
1400,-0.9763859803053377,0.8151962084974183,0.8271615630120329,-1.0314613251136828,-1.1120953095094923,-2.0503033210515604
1410,-0.9393623356469257,0.8426073811142948,0.8394371398803325,-3.6130986605859228,-3.8449285186714555,-4.74452464917101
1420,-0.9661775247420914,0.8227413050223995,0.8068229960984115,-2.062149181066522,-0.5922798144851436,-2.6929762093538288
1430,-0.9890450043961464,0.8000665548533347,0.7938619817081769,0.042706913405718416,2.6463936362934053,0.6976509102274141
1440,-0.939480803360964,0.8414451478338647,0.8528616456419831,-0.36717678831174094,2.13547659268725,0.3928470089219763
1450,-0.9611072142721311,0.8181714396167461,0.8289551211093017,-3.63519934663374,-1.8523807064507198,-3.0080209117330714
1460,-0.9800765591866651,0.7977445844240959,0.8027057901435425,-2.4591457586467094,-0.4039344990091601,-1.4338755862382473
1470,-0.96779741395855,0.8025054090682844,0.8271348984432347,-2.4861127117518507,-0.12051322955439936,-1.76219522695438
1480,-0.9801688823667767,0.7864559187077483,0.8196730406933594,-2.8016032339640757,-1.2634823372471242,-2.8952731371592053
1490,-0.9501655192797634,0.827086390577167,0.843253160943804,0.8732723985515392,1.7252081471528429,0.5550315432671376
1500,-0.9768600241583382,0.7983574427156194,0.8185775996183521,-1.9900853170589463,-2.061922284531663,-2.4147177200652763
1510,-0.9652910645939785,0.8209834021266824,0.8041424010641683,-2.189482050984949,-0.9968879076179306,-1.6700740218948273
1520,-0.9623107613309035,0.8079541414902605,0.8222344869614759,-0.9539067253601015,1.2669374288548345,-0.27149218202101205
1530,-0.9920471446687433,0.7809667589707795,0.7955488516669743,-3.6023171116325927,-0.9864164194536067,-3.017854256856596
1540,-0.9914882193133107,0.7878269104758837,0.8073701379813963,-0.7712041486125423,0.832523474712219,-0.46450952130950945
1550,-0.9840437216127419,0.7935642499128683,0.8167870407702756,1.6971683209644002,1.4964653275111606,1.6517050979431662
1560,-0.9705676678478483,0.8105406204507558,0.8140297560988765,0.15200550815282055,-0.24068427827866973,0.47849874487685823
1570,-0.9694139754856193,0.7991544972675793,0.8005738813232595,-1.8382015673331509,-0.5025511726897837,-1.2670781418421926
1580,-0.9516748912544756,0.8135892438367123,0.8254634552653355,-1.3388337177210368,0.6699527183958481,-1.0557014064997836
1590,-0.9735959752676198,0.8007730719018908,0.8124889197274053,-0.8165517654885924,1.2178988214587312,-0.27098349034708646
1600,-0.9679099171007626,0.8165065305829474,0.8315678712503891,-1.7376444179901618,0.08026318108745145,-0.947150007134262
1610,-0.9987230941323036,0.7889426116304121,0.8111846522981435,-1.7009050382886097,-1.0269170412808784,-1.2870481253572497
1620,-0.9778004721347179,0.7973880314681682,0.8165442379243983,-0.15332004860326712,-0.2812769875678577,-0.18328711398138706
1630,-1.0026400306403604,0.7800784080587767,0.7805657497187,0.22466694475859716,0.7843187728443187,0.1734928165108217
1640,-0.9795226191705345,0.8018807534445737,0.806967047258797,0.4801506156294299,1.2114787798271824,0.5329310034418018
1650,-0.9764276857772367,0.800644491157871,0.8205137995584468,-1.2714342341701124,-0.8566229539423494,-1.0506935934916632
1660,-0.9950910355890934,0.7843033727510084,0.8029934157712508,2.3698524277724893,2.31979558612675,2.571258444607735
1670,-0.9758545812939626,0.7998214913115402,0.8090656145601447,0.43519380820514975,0.36258551765892355,0.5637288700216704
1680,-1.0076919520754288,0.787376849679217,0.7956629803038466,1.5707036792445175,0.614158093046698,1.36755425278719
