time_ms,ax,ay,az,gx,gy,gz
0,-0.8059549215526699,0.010195131705703391,0.6385022993743452,-6.4573132886054,-0.5105927324528348,0.06284959882307362
10,-0.8023180669983289,0.01254944011260716,0.6486488954569866,-2.6117943128464267,2.051717642655846,2.1447484981363685
20,-0.8219654910912103,-0.008746403473158275,0.6288891614921202,-0.8208882413213618,0.3545498591688282,0.6596052317357406
30,-0.8160517438856614,0.0032930847565519096,0.6359932176552502,2.589487141118192,1.4520481174903348,2.493950797139834
40,-0.7851958567769466,0.03723283862555711,0.6673325792514304,-3.1175366200106005,-0.6761256512386209,-2.0400207018155725
50,-0.7775120140427307,0.0430286236895817,0.6615746838291502,-2.5140270258727653,0.2684180060058562,-2.1710432832977364
60,-0.8169211049130511,0.0006988996162147383,0.6314981293327169,-3.2016630541615525,-1.483348318991916,-4.410819522348243
70,-0.8196115999122491,-0.009973475457831135,0.6322105514762093,0.07562329516341237,0.015807244313449265,-2.5571940274404943
80,-0.7880523142592912,0.020290180042562764,0.6605307361876701,4.354976346432064,3.180311346046628,1.7079877443074585
90,-0.79993051710767,0.013745453131818398,0.6456219791512133,2.5269917793505905,0.2767452757473817,-0.12069514222882993
100,-0.7974772416684369,0.02148254578234826,0.6553474687337166,1.882310077116772,-0.8677905857718932,-0.711637579941873
110,-0.7929956510339362,0.028774769856800803,0.6688897654106072,2.947056064834034,0.45071324059500595,0.5815165290824994
120,-0.797397015207663,0.030303117559260375,0.6599764840727009,3.9591687239122932,1.8394681029896058,1.4449825859857695
130,-0.7922032496153609,0.04344110036002028,0.6611571359752593,5.869736390882608,1.7398952280924425,1.0231761752611335
140,-0.8157022780244779,0.032436448191865565,0.6614587137452874,4.564450951614628,-1.4226235360364148,-2.572115776125118
150,-0.7924307531465016,0.07683877833267691,0.7539967829005084,2.188135970092012,-4.553380991977539,-4.302767891380757
160,-0.7722795441320656,0.02687340387508565,0.8629312474355179,2.887990841535319,-17.340673056416048,-0.9202131372589197
170,-0.7794144627775482,-0.14045726139825127,0.877458344494944,-0.5782513282598867,-39.652222442368746,5.640223939321844
180,-0.8015589562317342,0.01108854328567719,0.8130936210073004,2.885669331162192,-44.254046504078794,-1.701995768533381
190,-0.7422602309760977,-0.004444804759155118,0.6139981846063781,-1.1030717628631002,-40.209872692624614,-3.211050771038764
200,-0.7021939150600152,0.14095727039981218,0.5934022489955896,-1.7172161458627544,-27.319283296654433,-0.3213191637414734
210,-0.5686950043831543,0.15758600300927317,0.5978688637596862,-3.7507451180022464,-18.148302088435706,6.692444498158059
220,-0.509031410861713,0.14856194538976739,0.6427544501790822,1.8844256586445631,-9.28135577510903,11.381610646009971
230,-0.8213694602465118,-0.0005744362632023638,0.7452343263204928,-9.165526144968592,-3.5251093317562714,2.6456958775441057
240,-0.8124615880375383,-0.050935913497273826,0.7779816185350623,0.9030716515150455,-4.875821629571597,2.9402889394584335
250,-0.7119133897510667,0.01297366279468732,0.7618956698501337,18.676152332394114,-3.655634092866278,6.593833089396149
260,-0.6553404268486177,0.0621799865081103,0.7462408943281246,29.83083272688364,-8.039157476706851,1.300894796316426
270,-0.6787383593575799,0.07272828727244382,0.7708988248727808,35.78355414340324,-4.513393791943897,0.7993348913392158
280,-0.7272291690453973,0.13552927765247377,0.7867483618798548,19.617150952290373,-4.142325841843006,0.2623230610898959
290,-0.7399348009826966,0.04157358766190445,0.7288686107329568,9.49651908927682,-0.48894952475633185,0.8326231921524235
300,-0.7562269314991674,0.014693455355064288,0.7733830032995133,9.18732878312808,-0.4584819466638028,-1.8391457856913427
310,-0.7650331544218051,0.012819568803763776,0.798137647561835,15.746327735100724,-5.011973068198206,-5.853390819925538
320,-0.7936455727537011,0.019440961510915077,0.6919225024587207,21.972935215788915,-7.275042472747609,-6.669778393486942
330,-0.8139654862970976,0.1939346295022213,0.6335034785000108,24.655894460901468,-9.152297128834288,-5.440449048424202
340,-0.8281725073801647,0.24091988580658724,0.6389569657835481,22.578876914889225,-4.757065570061296,2.270525015532847
350,-0.7629871953848756,0.09556971187818045,0.6205404616687922,1.945162662758461,-1.1822973910929908,3.5198988705365206
360,-0.7117199958135416,-0.021523915694096216,0.51778324421976,-12.778332891512552,3.5163329633419163,-2.375194848476753
370,-0.7346876534371404,-0.1048232331000525,0.4276469660009896,-15.865499621958827,5.97315735506044,-16.128939427128454
380,-0.6815490520515408,0.006477917999785324,0.3353513036460788,-20.320376298013976,17.977273794831646,-19.612208174892103
390,-0.6103725348648964,0.16798402854953662,0.21467443243226259,-34.415519674477906,34.45658871628943,-17.45959571740711
400,-0.6506218191740206,0.048251769419806675,0.258822405917088,-13.522718177616595,28.17922493453745,-12.373046528644254
410,-0.8552797195269852,-0.0909321665285558,0.5188234613993505,98.04139317248224,-60.49486131634309,-3.289741095819347
420,-0.9803670334659579,0.3178008168691671,1.2670449463556346,43.97514971942288,21.219244865488413,4.901357356726116
430,-1.0452973871590634,0.28956978610890405,0.5252753019415538,17.40081219050467,33.62119276993949,-0.9586220803829445
440,-0.8408794967229425,0.3581048332286164,1.19557240505537,-2.8019203614824035,39.71115256488375,-4.733311743802
450,-1.1831352949320004,0.03028504532923494,-0.04156186060652033,8.884688564697282,34.260558302668265,-4.859718479704145
460,-0.8948621639556446,0.12526821125559032,-0.12213597129979364,34.6223840986124,35.906803885032026,-5.335680228090035
470,-0.9413680892911432,-0.16169811707069612,0.6758971964836332,7.449539734978541,23.78271440459425,-2.0556944991708797
480,-0.580762097857236,-0.032521169922075197,0.7420394800038784,18.475517756886923,13.395496284930102,-3.988714680768523
490,-0.46076436327687953,0.1933738344733445,0.4976198776582096,21.662337086666867,13.364388945872006,-20.274747718438526
500,-0.7508735618817672,0.09567832277493725,0.2516566144620688,9.469797463307884,14.959926914661896,-13.59480827446266
510,-0.9928900531389745,0.18001908534722028,-0.12590196074892426,10.527893929221271,14.088476918861886,-7.529532344311019
520,-0.7438054983037373,0.10732810758320718,0.21266617392286458,17.21739863348223,14.0483016450179,-13.922806529068502
530,-0.770674665965706,0.17979011278843726,0.6851096486592602,4.862146221581361,11.39868484829502,-11.16081716334237
540,-0.8488002848472466,0.20089491891397065,0.7530683074220306,-27.275162678382216,5.520443334799964,-11.70965434630056
550,-0.8035505897718648,0.05486481261482224,0.64870872031196,-46.07418184476931,9.731159077776729,-12.142219092223177
560,-0.8237553553272313,0.04736320599335317,0.6270820784484848,-48.56219845577342,14.236789332160646,-11.201580448680998
570,-0.8224132071188136,0.049453327871102445,0.638594767251806,-38.768655815646184,18.463701684125,-8.518373005674242
580,-0.8055848375096815,0.04971784563929088,0.630542674475627,-21.526609856625647,15.900446656308945,-8.925212581277641
590,-0.8086707453788394,0.025188630903050728,0.5972811666895479,11.658493667682816,17.149197145078897,-1.7884629720820933
600,-0.8512754565871569,0.037953494355037434,0.5798587085654832,12.334378695553964,14.493111384565841,-1.6521927191991628
610,-0.8686663809398214,0.08793098350323479,0.5588751454765798,-35.23788099342211,16.496106200214506,-5.4087441198172215
620,-0.8265975884046721,0.05839445682195723,0.6029377499036473,-38.99002893064317,15.167384255685272,-4.498418222252073
630,-0.7983828086805794,0.0768412578886718,0.6711090338869103,-40.92010823017783,8.643868105451011,-3.1671285851432653
640,-0.8430580223179589,0.0075992786311211095,0.5311186542624118,-42.9053212254424,5.935216051899095,-3.7553779863957013
650,-0.861467934781083,0.050957140704734685,0.509226165725078,-22.43283739462278,4.205136912473671,0.5845498143714055
660,-0.8686633614792677,-0.0011425557422697751,0.5204178930029658,-4.45578018209727,1.9872123290719041,0.19619715004669358
670,-0.8367857425701696,0.059937515364321764,0.5807069386897196,-2.4065545316234433,3.828800736827578,2.158622112932405
680,-0.8683737392709068,0.0070969962404201364,0.5457734937226286,-7.576201128419353,-0.10566805682897562,-3.05804970506163
690,-0.8331865285662439,0.05056418145298994,0.5744184250674078,-11.500377697790105,1.4662008312318053,-2.7860320764293203
700,-0.835617038799172,0.03626035289910126,0.5870150273100604,-11.508151245944921,2.760736549407355,-2.1947791762147686
710,-0.8644479402370322,-0.004416023686895957,0.5572337847951527,-11.92335884694378,1.1357196254749116,-2.1928096496577134
720,-0.8266905056577247,0.015246703659452703,0.5815198901094423,0.18546190178883082,0.07185537836183203,0.2752154068258946
730,-0.8244291879405853,0.04034558717692374,0.5910575793308572,17.07574399050161,2.0707419913508254,5.216787035576475
740,-0.8556848017405112,0.03627839491123174,0.5676061441685192,10.610812453515356,-2.4853298333986062,-0.44575719655785395
750,-0.8456339530255385,0.052704344261947526,0.5774649611702698,0.4262579123466026,-0.1513474406766453,-2.714128599617277
760,-0.8506500788568454,0.048905010314842685,0.5792961101387796,-1.6224182976714596,3.037594907329533,-4.0569428156903875
770,-0.8456267872525032,0.04678952897879296,0.5860993605683029,-1.6114983554446303,1.881978964957837,-7.407692848449617
780,-0.8553953544799588,0.025243136277636784,0.566860489851437,2.135078093174387,4.794537935061491,-4.262465293238343
790,-0.8461182668845424,0.03018328595419599,0.5750689528731823,4.941578806864265,2.908797376431167,-2.078947293502287
800,-0.8679951841741895,0.0022868988138863688,0.5528342399115287,7.673096550285199,-1.4365868345555874,-0.12057018815437226
810,-0.8549223181976477,0.01735123665157923,0.5573645899596251,11.464505853214298,-1.5332346295664292,1.9256024192653671
820,-0.847159904503493,0.0382108339834038,0.5748939517466538,18.876297787055268,1.3637962754536397,5.8952263906184355
830,-0.8564245034927204,0.03056129661216921,0.5690943421734196,13.894066168045919,0.804161654448176,4.593065183995825
840,-0.8571320852611934,0.025773003967557304,0.5688558952579027,6.305598296735743,-2.1538785309448873,0.1648035672130812
850,-0.879197446160564,0.019558180121082687,0.548652079775495,5.993374328978377,-0.7870716865198712,0.10725865397743384
860,-0.8542966590852784,0.026792157216997497,0.5523113694017012,4.701166344032558,1.6006516069216974,0.7953718728043563
870,-0.8734367055770841,0.02329184273743211,0.5458560683452888,3.1201530892220206,1.4402236707830995,2.2020901319432453
880,-0.8512529938336711,0.033585258017535105,0.5681767221176672,0.4472018483664746,-2.621562175277183,-1.4071227248331448
890,-0.8266127975402645,0.06714436408361547,0.5962182426608872,-1.065165477454968,-2.411563561537708,-0.5541094866243641
900,-0.8271327608034055,0.05660012107013496,0.5859161994018104,-0.03840680601124613,-2.7037145968086223,0.6414236483230191
910,-0.8427825619098123,0.050361506218560025,0.5799502496140708,1.2756045759404757,-3.3351537211083646,1.4938229965314926
920,-0.8594054107806258,0.04756571307886911,0.5614882854435324,5.784681178959088,-2.3465823288816305,1.0053887283306961
930,-0.8474773753491105,0.055934910409810024,0.5696704140095995,5.6152689511251594,-2.9247212875256663,-1.7002678207243775
940,-0.843558558646268,0.04734800602758529,0.5838762532384771,6.441897529289512,-1.5587704800312001,-2.0198282475217426
950,-0.861184435224099,0.029532155156265588,0.5656182934510305,9.65707291348801,1.7882836657556695,0.09521918399840534
960,-0.863510651479495,0.038524155600042825,0.5513689091708254,8.965910774604183,3.8985688967635896,1.42291319443826
970,-0.8556438927288909,0.045391674808449384,0.5566523598182271,3.4724794109263564,1.7264564830750522,-1.612573303523708
980,-0.8626079287873932,0.03649759334367855,0.5581050671206859,-0.9523167166519264,1.0185847477374388,-2.935063429269701
990,-0.8385466629669865,0.06262270946132668,0.5854332923451755,-2.5010852465050033,0.9209754142689984,-2.458570325596215
1000,-0.8513639251113286,0.04689671940094891,0.567174206803107,0.9420121226607605,2.750711986461191,1.142556597090345
1010,-0.8634042697100813,0.03196531088493248,0.5492708994247456,-5.206012778443138,-4.026143140220552,-3.5653596068907447
1020,-0.8689756716473985,0.01893431492630485,0.5402516624699106,1.0609413369749279,0.6355777186770447,2.5821931231984134
1030,-0.8332256929285634,0.051755480277310174,0.5794181851242973,0.2788114157702166,-2.063504602598418,0.6425599563154978
1040,-0.842429933160128,0.05069402013444399,0.5743236695546438,3.7776390965340374,0.12297732061871369,2.617971795362819
1050,-0.8284505788739588,0.08564605760793029,0.5855013726047278,1.3130315791515512,0.5978367654479527,0.8005717563745306
1060,-0.8401584040767075,0.07836154579368529,0.58254552201268,-1.8603908717651192,2.0441637879967334,0.9120428135114768
1070,-0.8701922857325591,0.03525411968199339,0.550806499322496,-2.5479738945902293,0.6844107772705553,-1.8631319091729375
1080,-0.881265723973572,0.021381687523243518,0.5394357165918927,-0.2743785346537461,1.0174458187793052,-2.521151042646333
1090,-0.8303406363078485,0.07269973338998878,0.5832309300957983,2.2135549225314493,2.5910687387380085,-0.4646663971030798
1100,-0.8369638490217481,0.06783681325173496,0.5752530584606683,-0.7296711734693175,-0.01139031488949449,-3.157987158373297
1110,-0.8679715512000901,0.030458555712236966,0.5515396127146024,-3.0521150462765276,1.568401984284773,-0.5245735523096136
1120,-0.8663695562092332,0.021972089588165128,0.5471713560815187,-1.700822616506227,-0.3349601672088425,-1.890422685003383
1130,-0.8672465790943651,0.03303175093100149,0.5485954996358963,-0.19018391050093536,1.11791366326136,-0.4906091689754474
1140,-0.8581829846593225,0.05057229098029972,0.562091875213268,-1.388482504835182,-0.33407357142124483,-1.8292653689126963
1150,-0.8385882710568002,0.07249697954171228,0.5800560680002315,-3.8959504046626168,0.43549202188679986,-1.7549895312536388
1160,-0.8547359878115561,0.05131434766847036,0.5570713816528703,-2.8764687155911153,0.3948367653895255,-1.9838126222678976
1170,-0.8543689332929265,0.04997990497267374,0.5569009193785188,-1.8577751383322436,0.1299269121034861,-1.9861988674269875
1180,-0.8460838650713628,0.05471111374212317,0.5697801686174588,-3.3206063931728522,-2.5800322181137205,-4.487086461007184
1190,-0.8452559659565465,0.057436227937718895,0.5750993272394518,0.25889577674690123,-0.9240938318993948,-2.443188640208775
1200,-0.8604426382074102,0.044035207198872814,0.5545165199578113,0.23616109525111872,-1.2167400804292403,-2.511933000601786
1210,-0.8694829658688384,0.021426115865692173,0.5346248599645419,-0.3941739741758964,-2.2570038914643034,-3.327111892750752
1220,-0.8892387418000569,-0.005578183210457277,0.5168081395236251,-0.08853047788509455,-1.6041879769521472,-2.0909578366738724
1230,-0.8410616833973212,0.052022091332274936,0.5733540120269724,-1.5947695951490062,-0.8773816080502552,-0.8148601112653171
1240,-0.856892692577044,0.032979211545688794,0.5570486119105069,1.9576304490334873,0.8588784954415334,1.6252513448807246
1250,-0.8420675039510442,0.04449461071936606,0.5719844115439873,0.12804223727969855,-3.2049113055709126,-1.9180299869158823
1260,-0.8274598572208833,0.060604984871640316,0.5811600019388126,1.3411474063756241,-4.316014534483747,-2.854574311765744
1270,-0.8368969196310588,0.06295915456710188,0.5727088532525084,3.2268134665081503,-0.9602722182131804,0.7026415376300652
1280,-0.8662389609516036,0.03248996886074817,0.5541015598030122,3.069813737861381,-0.7049352608961965,1.214867919836967
1290,-0.8615793392235731,0.03450235635852373,0.5647424795574879,-0.42229276461518905,-2.739206622626231,-1.0184176149331852
1300,-0.8489214444996731,0.03671309001235407,0.5640275469669641,-0.6136631287594733,-1.9490923186083253,-1.6530915972465792
1310,-0.8581844710020028,0.04249810329751258,0.5554062016002057,2.3546248705428274,-2.0811391149521468,-1.3381664527666028
1320,-0.8622919566508865,0.045191310839076605,0.5631226376922097,2.7934803833320414,0.8642530262777535,1.2547229761886969
1330,-0.8438809959007217,0.0592733723219235,0.578476505513501,4.109933033213338,1.9115522107997736,2.8421915875645865
1340,-0.8183253522409474,0.07740627476731336,0.600567997865664,2.0332114892247484,0.36451574779867024,1.8304494645112914
1350,-0.8639798556107161,0.029747791647838147,0.5554982929346303,-0.20321886984398238,-1.0463422820664436,0.5643662450737112
1360,-0.8560072096329384,0.03337617545196307,0.5632231534927242,-1.013404610551863,-1.2556768430972873,-0.4229984953739946
1370,-0.8603069800620582,0.03591566767733118,0.5528508681435257,-2.472771593669716,-1.811003173481209,-1.0399962818552864
1380,-0.8460923022352244,0.037184645184132906,0.5726732279170542,-5.308222596868532,-5.411790766676183,-4.329788174136818
1390,-0.8164400479194748,0.06465962951998946,0.606471760050061,0.9410895119797744,-1.3096163579588553,0.5963864376245864
1400,-0.8405694194263804,0.046580776362739926,0.5767944343838217,2.7628888409836696,-2.141323385714865,0.9658976546881639
1410,-0.8212228457464804,0.0708409877808655,0.5923119399891139,5.0824738769745474,-1.8996521911948603,2.3063305079404284
1420,-0.850891495355656,0.04689128038165005,0.5686279555380522,2.962142347535793,-1.0011198106041754,2.5182057721310773
1430,-0.8688351013314909,0.027412487840911593,0.5569207759534114,-5.707352013910584,-5.4005734202570395,-3.558534281949234
1440,-0.85061261741273,0.03949328564963493,0.5734597774101966,-2.2809978431263858,-1.6839438461355787,-0.5616031312842689
1450,-0.840095792444534,0.04375019692653904,0.5804717648324285,-4.104544369755836,-2.83924030932866,-2.206153939166322
1460,-0.8370201434146918,0.04355221436281274,0.5836827311207526,-2.169642999230376,-1.0344337331695033,-0.5509059956537559
1470,-0.8476654354324944,0.05200487179514238,0.5775905070545717,-0.9109911829112136,-0.17714685381878606,-0.058697294054769866
1480,-0.8539451228995738,0.03933790046055979,0.5673459953658186,-0.9936706722571527,-0.61782283385119,-0.8500840443508859
1490,-0.8234761752200838,0.060908635824398705,0.6007983920399869,2.073613493827252,0.8150461220942924,0.44168483661898544
1500,-0.8252631918177902,0.06278949420505237,0.5880654352593693,2.420830376131451,-0.31422549020053525,-0.4116150382887961
1510,-0.8416140927240051,0.051060919008608825,0.5782118838691456,-1.9924253298238535,-0.6129198519859356,-0.4916721969082154
1520,-0.8477166336803438,0.0533117828994143,0.5754609396231103,-4.850033024468971,-1.3597511497168555,-0.9050530216696153
1530,-0.8669140475851949,0.030942531707226228,0.5565168432572827,0.2890832890755912,3.4443835734339387,4.330030237764259
1540,-0.8506019998697346,0.033883887913222936,0.5719535864777959,-6.668249620599037,0.7770533021412604,0.554204414387875
1550,-0.86940149273289,0.02104867976715223,0.5532349970806818,2.3462334382260295,2.925619269335039,1.9513033457591387
1560,-0.8702947867922199,0.0187414497028404,0.547717102379837,3.1295723908596838,2.171761439801892,1.0043222360298727
1570,-0.8429229222634991,0.05222392422803184,0.5759240967652504,1.2744975831175647,0.8918657669817376,-0.25583938587341637
1580,-0.846554830737849,0.05146760719391528,0.575397946081873,-2.425003582887652,0.9134808267898124,-0.8462207624586829
1590,-0.8501421535472853,0.04745741368866897,0.5775689323610486,-3.481255998982082,1.7389610230594577,-0.5234475801924194
1600,-0.8579201113332204,0.03454420647527909,0.5687251791927682,-5.981969138689579,-0.09287136545482388,-2.411960344329141
1610,-0.8692913747936207,0.019409008175924718,0.5546254473795357,3.073250702588755,2.6711920545430337,2.073146129254595
1620,-0.8446115883485198,0.04459183203355111,0.5752574215395821,2.3030747173488875,-2.398234772800191,-1.9096250707162812
1630,-0.8539789088160699,0.04129715529646183,0.5624072921135109,0.7417260284871071,-0.7187976271808343,-0.7378238272463744
1640,-0.8314410029600108,0.06765133368712564,0.5877639529066772,-1.308536865947701,0.22195960656931224,-0.5845323087499237
1650,-0.8529172480016736,0.04269265534985703,0.5690927676801104,-2.7270055515061955,-1.752099735032225,-2.9716282309226845
1660,-0.8249973602372561,0.06843693398843152,0.5953453653423598,-2.324398397565965,-0.9583101618567041,-2.1208337104744417
1670,-0.8241878731193588,0.06472303674561405,0.5937762743654871,-0.9543603998948362,0.4464965823931546,0.3512204138985675
1680,-0.8732691384292934,0.0022984314926388152,0.5387377398602733,0.7585404813169074,-2.4114927392997805,-0.4130842981866507
1690,-0.814171228123186,0.06153200201566906,0.6000427974257672,5.275141856331128,1.3548749439090222,3.0623160986290205
1700,-0.879500952038337,0.006466407164080194,0.5418001401807204,0.6801326882799625,-0.4564360644486225,0.4081697647573765
1710,-0.8301201834802763,0.06164137185924189,0.600022220906791,-1.687684312160704,-0.01962119531965778,-0.7626259019866405
1720,-0.8472239333074034,0.04707927552121255,0.5805427722630226,-0.12437522352383779,1.9598667516946056,-0.4453794678920925
1730,-0.8362355669275964,0.048802253838768045,0.5899445377433284,-1.0250664522192068,1.5064001742426867,-0.8919467992158149
1740,-0.8724349148642023,0.0028308450853014276,0.5420418823339308,1.5317403769755753,1.1112118341846542,1.2767206812658731
1750,-0.8728883892357004,0.013689705212296493,0.5586200888829592,-2.4932847441300643,-1.5540240782262962,-1.1816475598890024
1760,-0.8669212558738864,0.02421386263774215,0.5641280342923479,-2.6191821605299155,-1.1822847324650363,-1.027680155400625
1770,-0.8257661234547412,0.06960926189031283,0.6024534319224742,-0.3709405635667477,1.4581447553020417,0.9852857587328854
1780,-0.8270385680486965,0.05595088098966247,0.5884789186750551,3.109631181282514,4.500080132803088,3.7873917043995657
1790,-0.8284624257661031,0.06146875916085198,0.5906759685790502,-1.476533162436327,-0.08988102742352844,-1.217789923138396
1800,-0.852829931722709,0.03738380424846342,0.5668478496932098,-1.3069606444224693,0.9999247979217306,-0.9631875804423923
1810,-0.8368139331245366,0.0520133826898897,0.5818210186004394,-0.7389992097267053,2.1253106791885523,-0.028958892338454056
1820,-0.8291238688196545,0.05928641234995811,0.5897821491432478,0.6577542052388996,2.421711569182647,0.5212023773279748
1830,-0.8661154825416069,0.014441141136500552,0.5547546944122678,-3.2925153283785162,-1.671821914913759,-2.655468192936135
1840,-0.8671858024275669,0.01136623574144735,0.5556745430594324,-1.5291218856267035,1.2525971930450834,0.8808738317543541
1850,-0.836299408142251,0.04372730743762229,0.5816690100242986,-3.4258483923961416,0.11741986771712382,-0.3346687222043684
1860,-0.8431369931230596,0.03517645384812146,0.5712298377486336,-0.012657057034336394,1.1085144169006926,0.5026874702022688
1870,-0.8345638006265484,0.045911609128881634,0.5842586348703066,2.201617056526712,0.005472130266390755,-0.4095091640393065
1880,-0.8619359503882713,0.022275666361859812,0.560861776958513,1.7556226116781564,0.13581670314600452,-0.015433606605827516
1890,-0.8645398125894843,0.020979410697705834,0.5595934927444246,-1.5799832346799452,-1.7875801789581653,-2.0096166901249086
1900,-0.836022173730001,0.04982080780681358,0.5852466036293947,-0.853420516731533,-0.11965050681697614,-0.19576907933409166
1910,-0.8267963492759646,0.05819252389580922,0.5972942714437575,-1.9421743747750235,0.6177203494606567,0.06502937546190268
1920,-0.8086303983025331,0.07345316710276796,0.6112657648622952,-1.1332228540160258,0.11588529410749804,-0.2868622794259622
1930,-0.834181880551361,0.045610769206060664,0.5773085309611214,0.9986081167594363,-2.3095476664702335,-1.1370400819388933
1940,-0.8235219243909202,0.06412402114228648,0.5940426308444973,1.6271895894211479,-1.6466882545781478,-0.4095524248361979
1950,-0.8396679040920677,0.0488575448270726,0.5794606195520938,-2.282479882555556,-3.027935750438039,-1.7240775623664568
1960,-0.8603792841122284,0.025953994143524936,0.5636784684065808,-3.7365412813428462,-0.7747733586701449,-0.43018592318348675
1970,-0.8413769336375985,0.0436245919745862,0.589989599462311,-5.920317287763031,-1.0370842578846862,-2.0814625102358932
1980,-0.8389513760647243,0.039264438646490776,0.584336425219422,-1.8036436336796782,2.143717512242809,0.4927067655855544
1990,-0.8255446470071043,0.05618589857003252,0.5914088135994999,4.526883949842878,2.6640014060096995,2.190029770273841
2000,-0.8085076143456063,0.07491209682603707,0.6086103375489998,-1.6308355996194306,-2.407723184017382,-2.6063165947859837
2010,-0.8588660325857674,0.02158738098892025,0.5533545006698041,-2.2167736417103114,-0.522486550708735,-0.8461869399184591
2020,-0.838653055491581,0.04179884968702738,0.5868080717917007,-2.458578206566586,0.20521526266156975,-0.5818943733631323
2030,-0.8369031740123589,0.04331784897586751,0.5886763826326825,-0.07325477424602767,2.205722725300576,0.7393321891632139
2040,-0.8271330517219172,0.05179247898684869,0.5920513522549172,-0.38241279175854914,0.021556479147889274,-1.8060907895717488
2050,-0.864618393044194,0.012860519869041753,0.5550823025044859,4.698109138565416,4.253923946768609,4.080136073734264
2060,-0.8487104847935211,0.031697178235411703,0.5735557637047274,3.0973438740404955,2.444887898840636,4.169449744418728
2070,-0.8569115270006127,0.024232191184359125,0.5658941312391716,-1.0817516854423,-3.0221903500963343,-0.9421551827927477
2080,-0.853653982317139,0.02644682679145341,0.5679999305445201,4.016138659467135,1.6148833104384668,3.139134884443161
2090,-0.8409645718608103,0.04248999173812752,0.5807829037960821,4.737991765487887,2.3303121206258552,3.14398342126798
2100,-0.8484162688442554,0.037096287349942705,0.5736333290662738,3.3456282385468477,0.8218209903175545,0.8914778060597341
2110,-0.8308687625756052,0.05322199142865382,0.586695957889143,-0.18204230331812327,0.02028914407249477,-0.7048670543054781
2120,-0.8500117547248706,0.028890428964466055,0.5701563153108637,1.505886277019216,2.590287235403994,1.7529778913437004
2130,-0.8294937239369835,0.052735827264452834,0.5982399322809712,-1.136924329356338,1.1162200077063236,0.5347913164700961
2140,-0.8294171866530066,0.04923368344604689,0.5950537666196868,-2.6806667278015723,0.20926532415623011,0.04847650449521512
2150,-0.8525498451409408,0.02774602826651463,0.560346434001568,-0.15351387516601056,1.5495023970665214,1.1996059376391022
2160,-0.8378968754718901,0.04061201444614962,0.5777180044706154,1.1390622320249792,1.2101954161102335,0.7890239933683374
2170,-0.8353692745139377,0.04977616761272675,0.5799744278299491,-0.40450987740437716,-0.7056802075981229,-1.5799246022347964
2180,-0.8672036473309527,0.01950428749827474,0.5522226467027104,-1.8709410366605377,-0.5856998894393071,-0.7682739920792877
2190,-0.8461822955822854,0.04454863722585844,0.5815156786443393,-2.8963060662793367,0.819228754487092,0.09850506444458795
2200,-0.8751022025799364,0.011015195634993619,0.5421294540911609,-6.239744317388734,-2.230331785517134,-3.58603799123458
2210,-0.8465454357541523,0.024687375866562486,0.5629479457120996,-4.493320264996744,-1.0530440776111396,-2.462895461432943
2220,-0.8341190235392311,0.03616640474074728,0.5816505660661349,-0.41016611433402617,0.10717934230467002,-0.7938190949268942
2230,-0.8033487384886776,0.07487837242144346,0.611200995283185,3.105776504533336,0.813110851116844,0.5870282128791117
2240,-0.845083652168332,0.04072535944844796,0.5750539928873498,-0.2811920357994193,0.14951124990473152,0.024807987788160013
2250,-0.8302477964904564,0.05902813464765004,0.5911835050812144,-4.131830250576304,-1.0030530314861965,-1.3746525812825563
2260,-0.8742580862215769,0.013160070388960554,0.54340912737492,-2.3350835389304723,0.36939003821565536,-0.21337623716094237
2270,-0.8487497517511194,0.028885466162343828,0.5680145818662962,0.8220418293155283,1.2066994332617313,0.8502622766507996
2280,-0.8424756565927017,0.03078216580028147,0.5739164004500271,1.2441190036482717,-0.6588422836261235,-0.26609963651557306
2290,-0.8278219771431498,0.05538171703361461,0.5901531718447702,0.4679265765719274,-2.397083098621213,-1.585972053406603
2300,-0.846246974378817,0.041272256985561986,0.5733524263440947,2.573984230512237,0.8809275889038664,1.7031550034327223
2310,-0.8390537973820037,0.04630461553457224,0.5818806811195004,-2.878637039168679,-2.551145961595349,-1.8157760214550636
2320,-0.8790107363075356,0.011323156970938685,0.5462013645482856,-2.133964274974065,-0.4138532355850698,-0.4439533669112685
2330,-0.8294099284911848,0.05445320858058321,0.5909603004385506,-3.1180540977478275,-0.4087000485674258,-1.1206273350280227
2340,-0.8591105993394287,0.02189295744294943,0.558130219131268,0.15252387135062062,0.9038940882825881,0.46997604365729506
2350,-0.8294121264546,0.0419505111003024,0.5866371874816119,0.7339404682477473,0.033338228970838754,-0.0211838176947999
2360,-0.8263717417420391,0.051606975801426015,0.5910907091072305,-0.547494448273012,-3.2148040527771347,-2.9894908958477577
2370,-0.8248163421672626,0.06489724067281921,0.5969367166693218,1.2423647052973337,2.0454742647367077,2.4713459172752055
2380,-0.8683190206057737,0.024078869073873556,0.5600057826274752,0.12422436605192422,2.082030669206782,2.096082493370076
2390,-0.8587665900643128,0.025310729322265503,0.5668296295814587,-5.715800164889755,-1.9692581734293513,-2.533460764727818
