time_ms,ax,ay,az,gx,gy,gz
0,-0.7122643636696396,0.06348717916720988,0.32296781887060494,1.0306858366139768,0.6963453681012255,1.4807909088864373
10,-0.6860583774455157,0.08391837249146517,0.35256528994352265,-5.444672894180046,-3.43688045137234,-5.427794545357571
20,-0.6777302969289157,0.08633832577723259,0.36366152984462086,0.02197996819074577,1.3040833558316445,-0.5550415880406288
30,-0.7017104692169123,0.06253540794746512,0.3414860534031296,-1.5763108040885183,-1.3054391556704574,-1.9339756866581592
40,-0.6882309679446253,0.0722095446082478,0.35289834733241454,-0.7784517078020783,-1.559315479472263,-0.8409891993850239
50,-0.708541066162183,0.04991575512194031,0.3320344545626372,-0.3255639395091434,-2.1844527235029956,-0.22592759148146868
60,-0.7051782559643816,0.06082374730988358,0.3387782430522588,3.551483646694582,0.712907078246497,3.6005508711149528
70,-0.6964393000109763,0.07450156502744402,0.34487236228933754,4.824569555299319,1.258641822340092,3.9304383338306437
80,-0.7229773688431281,0.055877032966892594,0.3262725430533923,-0.0487055807273723,-1.2483269031794393,-0.7152859411744802
90,-0.6915972077758915,0.07727754028802025,0.3516329526378798,-0.2684024353689379,-0.4212011861951823,-0.2801788626564795
100,-0.7017617746699696,0.0634087483271909,0.3333588434062959,-0.938061041173668,0.07809018869227824,-0.48289818978298066
110,-0.6937508969590668,0.07175809323994947,0.3424223364887057,-3.5137471562936264,-0.8752356059166271,-1.9842605077319029
120,-0.6933427493293344,0.07501908629263221,0.3466995083127504,-0.08658525508747528,3.248298516628929,1.8606171735336579
130,-0.7110049953379698,0.061356575407726155,0.3295792256866651,-1.7755871421317986,0.7565828250767866,-0.5569189291289989
140,-0.6905892243994965,0.08308764166068444,0.3503741238390899,-3.0888701478369596,-2.4438664178812677,-3.115186288017002
150,-0.6957227042492155,0.07044286753876634,0.3525574375096625,2.237974218918308,-0.20621635087129936,0.4251900941288949
160,-0.7142194050513268,0.05242861238232066,0.32616120567891943,-0.737374589601151,-3.677153976101886,-2.117030878455253
170,-0.6986647905881944,0.0764723722861061,0.35236904269732744,3.3292700139105667,0.879999052314167,2.258512562459645
180,-0.7082613178131586,0.09984839895519419,0.3554965406730363,-8.209677479859778,1.5442862959295358,3.849609968693055
190,-0.7120356095050852,0.08989787584083224,0.3752120305003418,-9.767455300108697,0.593797319832541,3.732786966221286
200,-0.7193837246012097,0.06030800187937317,0.3854727759579285,-5.363511104136181,-2.759013709831576,2.5442843874154395
210,-0.7099916928066307,0.06973743325297183,0.3628255539999931,0.03393060221368738,-16.246183598421098,1.5592805015565654
220,-0.6239385800412038,0.14373695701046638,0.3424530168108638,4.557425092779868,-49.25067378412225,-5.445287897699918
230,-0.576404645787366,0.044186796496695976,0.2948468591967035,9.599039001259333,-41.89323745005517,4.332810534114794
240,-0.5851215325379463,0.08216956533921446,0.3794488356193618,11.540446946653658,-37.25053310746642,6.100646837146548
250,-0.6049890638521773,0.0940012220787328,0.5068730235904025,9.12921165773438,-41.743659485886546,8.743388537633479
260,-0.6241932248884112,0.04926330674452997,0.5132056999387694,9.048950594995004,-46.20500201003252,9.630100215063134
270,-0.5895234753991705,0.043396507639423924,0.4367656973773499,4.445894592692803,-51.284246507826495,4.451607959001919
280,-0.5848701369495504,0.10941344263378433,0.3860359329014971,1.7580226024172725,-37.00050465255694,4.3443663204006615
290,-0.6541514567106036,0.18161338013081763,0.40359331836490536,-9.401018320299569,-18.573688083481514,1.5726428466190137
300,-0.6910485967101557,0.13575071265019,0.39539433654878897,-15.572952109531018,-12.992504038157126,7.483568538734042
310,-0.6524940537769013,0.0848496568237833,0.4625375813686113,-19.247595157555153,-7.9016330571290485,7.470689113921001
320,-0.7356489517710422,0.016656929320577198,0.4519650228114184,-16.74899659972058,-4.430015680009291,6.249687166009559
330,-0.7511744409189897,0.02467002375054321,0.5061320589927156,-14.709754981738099,-6.560061811442188,2.6762260693259066
340,-0.7400956176298702,0.0035956309353215614,0.493716858490794,-14.713776894440514,-14.364514277932743,-5.684268624873731
350,-0.6408078460710334,0.01615862882524296,0.39845206492794466,-9.672337396055728,-2.0582531139738367,-5.282972540295068
360,-0.5645466832921073,0.040431735803586166,0.2804176755134505,-12.529319704186815,12.354303956433416,-7.572359002368821
370,-0.5267058491612856,0.10328322457009975,0.3022938565845439,-12.608143572797431,22.295825749947205,-6.05788096843708
380,-0.4933657013927868,0.10155939870926411,0.3001249191278992,-13.610461982495838,32.405704009935036,-6.282984892360783
390,-0.539181569824156,0.08520975454075229,0.26503246163010985,-22.435790330926853,42.30000685554655,-7.67546589014408
400,-0.6268254087387213,0.015447499306504948,0.3465469717052867,-26.410724343954186,50.809793085296484,-6.449927436899072
410,-0.661988173207268,0.059836907565664565,0.5658941925563794,1.3648796574465916,17.367083780808024,-4.520578813387093
420,-0.8144260833594307,0.05766628318988613,0.41203812430946346,-3.7609260405576452,9.859262811347124,-9.107375995113962
430,-0.7818962774179262,0.014076134889479031,0.44864609580394504,-16.579644284556295,13.8560438660154,-12.367268410576214
440,-0.5352655631440584,0.038463742927305686,0.8307508371163452,-14.183806064868142,10.320744239547256,-9.343329278961246
450,-0.5579162135639629,0.09702900740579201,0.7010746237888756,-14.37265590331145,14.490222400478993,-4.194905049535675
460,-0.8270349948178369,0.11225562735364522,-0.30558041986142265,-15.950788159215415,16.64275018290841,-4.760420340525374
470,-0.5721544524521934,-0.16654789762594255,0.5403675439628848,1.3895699215240855,4.796660577129849,-4.854469656225045
480,-0.5089775303318028,0.0299496432370231,0.47514894050413886,40.86443911646671,10.134365919560931,4.143730588306502
490,-0.740821144556575,-0.2393893955139786,0.09456753603248703,9.307463964762851,6.497972148402843,-8.598707393663458
500,-0.8593197146824619,-0.11112016095431908,0.2496743813922408,-26.485529750052798,11.39227105240289,-8.373596988422294
510,-0.8907427149493548,0.14374095804967146,0.18568961133105563,-37.63495686858556,13.231621271297621,-1.3305756262538126
520,-0.9826215643856513,0.03183221389563953,-0.26152076340587144,-40.15320969119851,2.2584813638655783,-6.563905112766073
530,-0.7596391606201979,0.12040335502588981,0.48321017749776657,-27.848133915608283,10.410878675617356,-1.3269145951149357
540,-0.5786876087105931,-0.0695413264208639,0.525375955383206,12.390589189083943,-5.987186322317639,-8.323491141992735
550,-0.7125708389441245,0.12788490525990767,0.538241936490603,-7.904208972238398,-0.9521111676106705,-2.7029632506303725
560,-0.6296789128342819,0.14973133563927477,0.8409302209721659,13.157788934319704,0.5237712752652499,-2.239863690499047
570,-0.4952789057093218,-0.2244248299349702,0.7208926834641513,-13.172682604647438,-12.73510036566203,-18.610254142407797
580,-0.47585640827014924,-0.34288651945436066,0.5848728712306921,-5.512084149692929,-15.845686767498181,-18.894988056069586
590,-0.628151221315941,-0.09921295238118226,0.5102186151501675,26.60679182335845,-10.464167821228902,-8.81034871588776
600,-0.8080507326963104,0.140154009227704,0.2864646313926859,30.268387170761873,-4.03144046658128,-3.1561951426704415
610,-0.8322698135938351,0.15412602341777062,0.008829392931209643,12.740065280922508,-13.362663776681933,-12.318068986076355
620,-0.627079343557615,0.15008169817872122,0.41034912918292804,9.388478825150852,-10.433140853504066,-1.9517998836512405
630,-0.8015680225743597,0.2599505741885596,0.12101571360501302,-0.08392042775944164,-1.0423464944535825,2.719782519603095
640,-0.7332606900649495,0.11707132844332216,0.21555883179929267,-0.15567992012785936,1.871090074821646,5.085658435973386
650,-0.6942166681684224,0.06373392085817324,0.32533683472339536,6.189343637287115,8.542413929632097,11.417444913047676
660,-0.694324306415459,0.06789282232321212,0.3570341049028493,6.5237790651491565,3.122623443635591,7.392692687541274
670,-0.695957255433736,0.05312238949730623,0.34217387454857207,11.481008206581315,-1.4623526761551786,5.117722352614979
680,-0.7115305875564152,0.036844038062689814,0.32637056223171007,7.862818593835656,-5.790208037290186,-0.6683734169355928
690,-0.7062862672986622,-0.011759822852601128,0.42054426571753706,-4.0716388692394405,-4.9377651538616405,-6.390374979077955
700,-0.7669065073113207,0.025165286175860332,0.6675468506198782,3.2544450800135536,11.323285431563011,9.648023058591527
710,-0.7161312507010678,-0.04016165493388672,1.2709641411443209,-21.00190891845241,15.260079050451607,6.0701514484138706
720,-0.7091164453538363,0.09191779892692209,1.0244691642552914,-19.34789404212169,18.910055698961333,10.156582129728886
730,-0.7407939828049847,0.10660484522301743,0.4451631663021565,-12.710465679056588,18.097052399474094,6.6256579300449205
740,-0.7145003534036597,0.06881369674999355,0.36042840579266044,-0.7868345814353318,11.995164091054196,3.9074292209475963
750,-0.6464505401849008,0.01715798252557102,0.36728682962383047,0.7015514360942212,14.295220670915338,5.553342239141562
760,-0.4411457050062587,0.0638480435051171,-0.29692476816157987,-33.53315802680234,31.48434759109911,-3.041617572050239
770,-0.7294940800129058,-0.05415495568360698,-0.15282346297945332,-21.987861604841754,6.817528095025948,-7.248866860072856
780,-0.784961184276622,-0.1432658797495902,0.45901608066008937,24.84281915428692,2.8963729228266715,-4.811572320580682
790,-0.6475060574307878,0.08349383242346252,-0.001075912840819173,37.17134803514397,21.480612674580364,6.87895784706895
800,-0.7568933849210906,0.3243192049551006,0.3809043417863653,17.70812600644189,19.55014683234387,8.216283877059874
810,-0.7898420051355535,0.3093645967923589,0.7930887859968625,9.734717319225526,5.4190929099200735,1.3786443094542635
820,-0.6586642397312316,0.1892362864746332,0.7852132684124132,18.142446019480335,-3.237726184914982,-3.779934882130581
830,-0.6229706759671235,0.19242101072014567,0.5431902489351578,25.699034099154392,-5.497834906514268,-5.531315029461208
840,-0.7343445707321294,0.3170020987158114,0.31761957702418786,46.1759732118727,6.996869696328516,7.758193217013714
850,-0.6752972888657603,-0.19192709707174643,-0.22434916566684424,-26.753701037916116,13.526120748072852,-11.136392744136936
860,-0.5346568868706396,0.10928878860933292,0.4861660366972494,-8.948550713075818,5.128767678353554,-6.350732694047811
870,-0.5693554507463451,-0.11723209322173386,1.4382640081191653,11.689621448616213,-6.676060362577858,-4.765474246859513
880,-0.5874687798252746,-0.026634903394791912,1.7585877518422666,50.985902758351706,-11.635661958791909,0.2949623259277009
890,-0.5621687529850913,0.11241390781237394,1.4636624248737908,65.06167321181773,-5.654320272092084,4.15398853019504
900,-0.5722597668703229,0.025490906764413162,0.9572947155651036,41.913717437860356,-9.072980290207912,-5.096944558527963
910,-0.5975319576661873,-0.020081965885010752,0.5063648414172691,32.88120264471357,-6.818997810935488,-4.021418768536759
920,-0.7049733333704206,0.16094607102217312,-0.2708618386493473,8.781215544458389,5.442720858968996,-8.889611449240334
930,-0.7121279585977028,-0.017329764396436596,0.04893205937755408,2.114688082447031,2.4157965555638743,-6.086186814227442
940,-0.7381928562275064,-0.07850547638440342,0.16645009831418767,9.034086389528134,-6.035843233726181,-0.07385636920011018
950,-0.6598154908771121,0.04662402267548406,0.45912885550248145,18.457485118788526,-8.36982963291918,1.861813122276183
960,-0.6283501713524055,0.09153062243920285,0.5191859534783081,15.924557581958435,-8.453797217237002,2.7877928852615934
970,-0.665115097336397,0.062445615062973796,0.4355161835777937,0.2282901655056251,1.2648168030733906,1.1092915254423348
980,-0.7002735477643856,0.0410605267337605,0.4089570329013193,-13.602138101205956,7.8514498755456,-4.601671030728512
990,-0.6741178711275858,0.04845137883293943,0.4190541133783971,-4.590213374641449,-4.880442046746129,-5.383296282496596
1000,-0.6994820502091827,0.06019231969766017,0.2407869303043706,4.47355960013818,-10.471136436363777,-2.0324084783796565
1010,-0.7286181027441888,0.2416361083455509,0.28908145211721903,12.8165181673926,-12.896396280076715,9.096129845364231
1020,-0.8077778480813695,0.18657090267323723,0.3653746309691796,14.823919954746104,-12.812715189544623,32.28694457204025
1030,-0.821876952484506,0.02787575542396934,0.3587375021018402,14.361828830469586,-22.748902025514727,37.60607372104783
1040,-0.6570988581019455,0.14208256945609093,0.3428616451447183,-3.1469691091305707,-14.961263441999307,26.313828051905652
1050,-0.5739247934391928,0.25605258792719443,0.3196485948621029,-22.476668676106918,0.1852953999574979,18.507008814683715
1060,-0.6492747029910959,0.1712840312700039,0.3333122553847541,-27.928748693488338,5.050292319609687,23.033754927432103
1070,-0.6886561172986134,0.09159480945159665,0.3292045706146326,-33.96534231101542,4.889071640615491,20.705241144463848
1080,-0.6615928982802042,0.07919111617609798,0.3498425339078793,-36.78809768075628,5.079229512331887,15.954531478008242
1090,-0.6274248463841313,0.056774047942305304,0.28677164021439894,-39.299463934382906,9.028882093428708,9.424313098499312
1100,-0.6097526554893309,0.04606401268405465,0.2878221655523908,-36.63893749735711,16.875591794520307,8.935069691283049
1110,-0.6822798814070692,-0.08570140064728098,0.3587498023452903,-15.677224902145177,5.222027250434447,5.527162319354433
1120,-0.7535307462347978,-0.1694050903192679,0.40599092806325204,-10.29385836426154,-2.4440352051468732,3.1472220451323696
1130,-0.663217541747281,-0.09215486126356763,0.4553315912892407,-19.921558256006467,0.36734984315443964,2.539253747888065
1140,-0.6578893087172316,-0.14168446880567603,0.33412738063992925,-21.259043906171676,2.352349614773332,0.528535637491101
1150,-0.7193737608937636,-0.1431723570886184,0.2889459244638286,-14.056633442612943,9.078159309454387,2.4693525312508164
1160,-0.7050978408745818,-0.15740942210089984,0.38487579698350516,-22.096244881579008,6.652471486228148,-3.331599813844349
1170,-0.716644146671547,-0.07827464928679934,0.30463828479733457,-18.470558626587696,3.365305239109155,-9.049202810502953
1180,-0.7039020106897383,-0.09703969068514215,0.34800119339069796,-13.276322450444928,3.0523383866440814,-1.1078866873029323
1190,-0.6869852756055732,-0.3271649105227926,0.36254802316637164,-3.3380093286299424,3.6495331702953617,-3.876929468104615
1200,-0.5843376859454787,-0.6132452190082247,0.2830634860639175,7.69137755317985,4.839747098156552,-23.393719724316806
1210,-0.6515320159143636,-0.5106147804049882,0.14186119206525177,28.72187780283859,-0.3360889924088718,-54.315464049675924
1220,-0.7771747472070143,0.313885191661063,0.2998116520404475,59.62834049992157,-6.242520515711406,-77.62350902795826
1230,-0.6811718600053807,0.04105800394557709,0.23839535066779247,16.177861243921402,-0.7905994053544724,-86.27082929004368
1240,-0.5653359056047376,-0.354060949712574,0.4069125320878774,59.12968881216673,-9.445925650109503,-43.1450428588779
1250,-1.072820119057907,0.7585152363420427,-0.25894149344505957,163.60500335557865,-14.022384048515997,4.406692812986111
1260,-0.876967621975791,0.6861888554100357,0.03114696816474075,60.62110826324351,-1.5198381137867625,29.103515444973276
1270,-0.7499499065633874,0.3752274174425981,0.05384549037704758,12.999768112624759,-3.651130629404058,10.446415520145937
1280,-0.7845986437116137,0.42243042224248856,0.019197713836829302,4.275179528262374,0.4491261534339752,-6.5914186784763364
1290,-0.7037928028106902,0.5649447549978701,0.33908985098853617,-45.679993343787416,15.623983742776252,-10.531743569254925
1300,-0.6956826549266547,0.1604066796396139,0.34840261089616514,-55.95871331900983,20.350264103456766,-33.00444500864686
1310,-0.7468630284121441,0.021711266488053438,0.32340279693544627,-57.66235884199547,18.134458569336612,-49.02434485339347
1320,-0.7087450579779067,-0.044150338959851806,0.32717512144661576,-13.933734967873054,4.19693831910358,-23.54259195215909
1330,-0.699373586803005,-0.046916289306745684,0.320912182420405,2.66848147668295,-1.2833928596886044,-6.135751587511276
1340,-0.6690934383741487,-0.0069793966517297835,0.36333475782032454,12.867425504776184,-4.218960966730303,8.324673662764983
1350,-0.7049440599925151,-0.02683157475509107,0.3381656967407965,20.0195848486986,-5.17490366157521,19.441730320441046
1360,-0.697742752060083,0.00487048713655565,0.3425377473126502,21.772554701408517,-5.996514619219295,23.68200211828131
1370,-0.7250400368556905,0.006114855791672175,0.3104703454764102,18.050206482107072,-6.296008757591908,21.193362307090474
1380,-0.6805693664860974,0.06295960423187995,0.3634959678808705,6.931767847535505,-6.388997976242123,11.390015103317733
1390,-0.6981872208933093,0.021554921939266645,0.35965999110576896,-7.408347672733701,0.17706383487213004,-8.46820603791666
1400,-0.7186937071658166,0.003291843129837501,0.3396180252577192,-8.446864414729419,0.4010719321299474,-8.934638888626393
1410,-0.711156807560143,-0.0074509597070345065,0.33988982572977017,-2.7422089053079297,2.915888632052243,-4.27760184803156
1420,-0.6909244525011761,0.008683725369300592,0.35262495068279276,0.8380457154932404,2.912221521950127,-0.19947183594327322
1430,-0.7009237260671519,0.006397682951634842,0.3393919541333106,1.4880841682397856,-1.0090729682066992,1.0551289620844366
1440,-0.6722239070365461,0.039600118307595064,0.3697951455380507,5.3245474503877155,-2.9334043760940935,4.1987834103190576
1450,-0.6798013945012605,0.03160740035003855,0.3673411035513748,8.94932931544108,-3.276253824157288,6.951003071592412
1460,-0.6691879034319025,0.056311971415214074,0.38480187616723505,3.7455293463648656,-5.622903761265569,3.177919124616684
1470,-0.6724361507085955,0.058318174110902156,0.38120446743486597,2.3361875709960027,-2.9489579971638875,2.6198655190067277
1480,-0.7049977960845352,0.019347039987841298,0.35289082347653805,-0.12881001757839594,-2.675975513689221,-0.03495719527311536
1490,-0.6981687131017728,0.03211013303698655,0.35929473833073855,-0.2821026227086502,0.28963223409434397,-0.127766633994277
1500,-0.6879017871674725,0.04287349198420147,0.3649483313049752,-2.3725005024308077,0.9436046312478581,-2.6004034429014338
1510,-0.6804932535278457,0.0474391156044351,0.36842326782771706,-4.930405996070389,-0.49714755851045433,-6.220342989022232
1520,-0.6673969173435699,0.05412283374572506,0.37961839710977613,-0.8115419921433631,1.8022825568427807,-2.884155252210125
1530,-0.7024145447767393,0.005445704018492148,0.34460411572106087,0.13275596205837914,-1.5576340057646754,-1.3479524427517082
1540,-0.7263017175858111,-0.008429772389884287,0.3337619748862554,1.6487844305191082,-1.6151143779852597,0.7443150256602952
1550,-0.7059541680906082,0.007401496153391305,0.3472671092753435,0.12446752936161515,-2.6696028141293535,0.13302125536883472
1560,-0.6645442694692331,0.05031218771442704,0.3893470887509517,2.6253466413445947,-0.21057339954626308,2.832511735338061
1570,-0.7139271483755393,0.008523732443968295,0.3422567129600757,3.2303216464249997,0.379839980591707,2.314023091267818
1580,-0.684036077926126,0.030525664340847865,0.372933868715821,0.5573107158402664,-0.5546992276536842,-0.6697554264807191
1590,-0.7055979030682975,0.001203048174549028,0.35321428751688866,-4.950322538998495,-3.650003089681539,-5.400403539777032
1600,-0.7091763925753143,0.004566482578001987,0.3504287517380573,0.9890116695818543,2.808001782017057,1.340004195199223
1610,-0.685692067510595,0.028597317643493325,0.3647121951123785,2.4186095523288698,1.9360532401344162,3.0309296716148824
1620,-0.6956712631086998,0.008780668596331143,0.34721861339456017,-0.5134629235746169,-2.6221690315847783,0.31065467894608423
1630,-0.6623725370595569,0.05101806105689509,0.3881705568936391,3.29602277642759,-0.9723862347376766,3.2109752279525026
1640,-0.6795235701945975,0.04227144937374938,0.37507549954752545,6.108152407812033,0.17463999097108895,4.961655990452181
1650,-0.6592930293650241,0.06221820292616894,0.38847802422042543,4.889784966482535,-1.053421276236053,3.3379278615919157
1660,-0.7050683025126716,0.011573989530753694,0.340492346957146,4.173356186552283,-0.5273258660892901,2.965339674020227
1670,-0.6619685935079126,0.05347110108008062,0.3853063857694679,2.884042493516647,0.2271504536260623,2.8468764829790203
1680,-0.7138665430217722,0.006505642596780468,0.33348511152763954,1.8980393899990244,1.6004792120731355,3.33235922564746
1690,-0.6864058266518395,0.037103503448022324,0.3741127057493166,-1.4371176409508093,-0.16939191455640867,0.14984459594938482
1700,-0.7095052066426422,0.017030687676532992,0.34957014071647396,1.8240633945355473,3.3330683940025763,3.21224572534255
1710,-0.6774161474223813,0.04167304345076284,0.3706023372306311,0.18659763683332325,1.3092922919428571,0.8975443588787533
1720,-0.699220245430187,0.02396528138462114,0.35521882507568453,0.8337894489108726,2.2350428511804297,2.0292370949242593
1730,-0.6948541584041422,0.02813877939618183,0.3649301173245716,1.2755894790744455,0.2008275577958436,0.7005761503924784
1740,-0.7045242418080648,0.01698848895730294,0.35813294528383505,2.396771741819825,-2.0093092290021506,-0.6163236834862965
1750,-0.6893456564034453,0.030907147088376448,0.3721115087553742,6.4191652948857545,0.6526045357136834,2.5268541437480785
1760,-0.7126795033101337,0.002420325840182428,0.34079646108985456,5.100350009537475,0.6219928324680662,2.1989184471991785
1770,-0.6679938547163761,0.04680806580631399,0.3868207865910943,2.2939133733081,0.7447360709985656,1.8582617950732934
1780,-0.689608525756054,0.028383104986191034,0.3654580372415946,0.8192948134395238,2.1828319489919106,2.3781128756554786
1790,-0.6801652854646325,0.0445732211972355,0.3765387583470509,-3.16514176230871,-0.34070516453458977,-0.8141588538700322
1800,-0.694863519004508,0.033873127402668235,0.36304701544366236,0.8227694088830295,3.348159464557135,1.9068552434104613
1810,-0.6808432915813459,0.04374691434432906,0.37298931883158476,-1.9787473176541934,-0.8053379637222227,-2.5858809090765886
1820,-0.6858201905994502,0.034690891178859345,0.36763637907929814,0.8139818689268199,0.6147522173853326,-0.6131978815332064
1830,-0.7017301812331277,0.01722745151207693,0.3574397508660268,0.5176827752182216,-0.6650627718298019,-0.7568460137905246
1840,-0.6814905402967223,0.030110218259061253,0.376642801717371,-1.6536903613739193,-3.5405086935064363,-2.3950293325938667
1850,-0.6793280650702506,0.03439992037348954,0.37234415325391856,1.1030920970921705,0.11049678256621101,1.83085777395385
1860,-0.6697107954949896,0.049176355420003856,0.3915935077732465,-0.7928275462397314,-1.4897556239443768,0.17302186745967774
1870,-0.6710211062572279,0.05430787667459483,0.3831418411977574,-2.3775400008232657,0.672947467539589,-1.2981701624176607
1880,-0.6841991155725821,0.0444791317773877,0.36816878764088246,-1.4650940005334125,2.9071006613355106,-0.9846990015422623
1890,-0.6769302812184178,0.049019532709802124,0.3758617017283739,-4.7178993695585145,-0.9526568456250728,-5.07598411759742
1900,-0.6886349512608849,0.02737024475179344,0.3604580727177448,-2.8117617440588867,-0.793044330529709,-4.343648519842946
1910,-0.6909619530713904,0.015434848987777383,0.35625171598438743,-0.699363118886561,-1.5201360978472571,-3.8030474748805303
1920,-0.6868608397827979,0.02502459917439971,0.37394636447471363,4.461779346577882,0.49230918770158894,0.3989568626148237
1930,-0.6933345067525829,0.022082992381518365,0.3577909910534405,5.428009487279338,0.9865503152425862,2.083848950160767
1940,-0.6659812581866927,0.0631802892202511,0.38778089714403874,0.5316251216919881,1.5510604615959975,0.6099092409545834
1950,-0.7000427631800126,0.02224737401858457,0.3538354903876676,-2.097004427750568,-0.10049340963800563,-1.3578091488729482
1960,-0.6922827176265705,0.025832570777197222,0.35880593661204696,-2.0878240833500215,-0.457979196611073,-0.6932655712220757
1970,-0.6985363078268535,0.017320460252268514,0.3484774706270197,-4.620239052957609,-3.6575669415581937,-2.6737889315350083
1980,-0.6952651078912616,0.01935890102771351,0.3477326825611466,-1.5663589476094417,-1.8088304759199842,0.14229667152316283
1990,-0.67473011682803,0.04375155257566712,0.3677405534141823,1.950934182454497,0.2394062270619146,3.0259268959751724
2000,-0.7103058387098051,0.01242260606430709,0.3420971031680179,-1.636388198013922,-3.3695123514902408,-0.3484279492729947
2010,-0.6841052552959878,0.039558068567188714,0.3666856420415662,-1.0434560446495293,-2.277248076346156,-0.8585522904988719
2020,-0.6930344825101996,0.03283341960996758,0.36282561469274144,-0.7527231435400721,-1.0761266312719093,-0.7301573930744887
2030,-0.6897601233246752,0.0345753437899964,0.3614761451430978,-1.2244815493839576,-0.26640183608942103,-0.31268239889783217
2040,-0.6828771345080159,0.037426473437602165,0.3679880908644554,-0.35606523038047033,1.1366047049391497,1.3240763232275898
2050,-0.6799549962455977,0.039811236805663376,0.37454159586073865,-2.586172191577028,-1.0415822134746957,-0.6630605067239205
2060,-0.6963819816858113,0.025598913378069767,0.35892467370206343,-0.41674800002204626,1.1548272171485114,1.5793635498918375
2070,-0.6967278967007993,0.023911275909631175,0.35557481463471197,-1.938508171922216,-0.8930227075532965,-0.022271399209029985
2080,-0.6629824316715034,0.06034207403843189,0.39082969576484433,1.2004832855491583,-0.21803822057303024,0.9659002063045432
2090,-0.699590756969264,0.024762867716963455,0.3525604362843803,0.38323660939977167,-1.653949108682547,-0.48227963402188445
2100,-0.6929017071075367,0.027798882846239367,0.3554214533049106,0.12307576416493637,-1.6348931765762793,-0.6477661257852992
2110,-0.6701651859805303,0.04834655251558584,0.3781508434450387,1.3547372027352624,-0.5005374450602671,0.19071294358492874
2120,-0.6936481595894356,0.027113302172559355,0.35645377496610176,3.474202097761988,1.648688881217212,2.153535658715036
2130,-0.6652502524380223,0.05790984926630777,0.39031592912646235,1.3743711589752996,0.07256923359009981,0.32721153951328463
2140,-0.6921514492902674,0.030486336625867867,0.36748337210282184,-0.751399052684706,-0.48535475207823403,-0.9797401996649673
2150,-0.6831014422911619,0.04018367295829539,0.36644802638455093,0.7934891665266643,3.852838449402969,2.207520652848867
2160,-0.731712828729351,-0.007611948997796825,0.318355932284625,-0.7618308205077025,1.2545818550446797,0.5157886154309909
2170,-0.6853786647051244,0.039741465250775654,0.3615829217762085,-0.5511071899674308,-0.06671535522899005,0.39989835252582706
2180,-0.6848909582552045,0.035672103587024544,0.3635770103082924,0.6278958169514709,-1.9287771802917457,0.1382368496850602
2190,-0.6939872884978148,0.02914366652423232,0.3568358017308624,2.6828077031072453,-2.1713525393522133,1.0959430948700513
2200,-0.6805445981769876,0.04683045344839511,0.3728059306601873,2.7120829872222023,-2.9847878782634,0.7071157292559935
2210,-0.7050642642738446,0.020026551223186986,0.3467449952961918,1.2795425424487177,-3.016082173350987,0.18923116522130617
2220,-0.6788064257780353,0.03775874961725782,0.3671472215751951,-0.9123796151128876,-2.32439517192918,-0.0819001694929401
2230,-0.6789287975668333,0.034149211129281425,0.3701254516384194,0.21829327407258742,-0.6899603536329704,1.265087387839511
2240,-0.6716843956719416,0.05054860865531475,0.3893490212472295,0.6868340303365029,0.9967721961355556,2.657662843626511
2250,-0.6705519667632924,0.05375045371301472,0.3881745162610038,-0.45500488845522535,0.9587263201075386,1.1105033728220097
2260,-0.679991130794252,0.04749430685530151,0.3795612583245116,-0.8787596503447079,0.9835098885994213,0.539866778359877
2270,-0.6826713606526565,0.041836500835146236,0.37637682982074633,0.5558138046158019,2.0913557195796892,1.5439610143181224
2280,-0.7149388372365605,0.00759931412727529,0.3436430119855336,-2.156419264149233,-1.6926397244080444,-2.104872638988634
2290,-0.675301396421339,0.04966010496099656,0.38420220748708916,0.9035683254165663,0.6176868717783743,0.20634896524715576
2300,-0.6972540589392979,0.02825691154928442,0.3623258902617264,0.03650425008486835,0.3149555420332535,-0.36089936223927666
2310,-0.672371292086043,0.050045798085595554,0.3844456128137943,-2.156765336067349,-1.829458319119179,-1.874927131240251
2320,-0.6959988484520439,0.024692092193109152,0.36069754707262747,0.9007936733881318,1.1464909761959063,1.2229678416032579
2330,-0.6794265538608022,0.04470014542290302,0.3694798837799686,0.3459902634921392,0.26548418142033214,0.44751024396636646
2340,-0.7003252467185954,0.02411969312308048,0.3494944748726139,4.905823645758585,4.540940954295451,5.005547362143395
2350,-0.6802252494164179,0.04190810903190659,0.3720858437657086,0.6623244450209268,-0.9496294850622798,0.18297791173939135
2360,-0.6835563471034225,0.035096184173606604,0.36771333901928305,0.6089803809486194,-2.0115430022850065,-0.12791008808409254
2370,-0.6621710179792283,0.054021646886201105,0.3875598708211716,1.3522063509885065,-1.0224175359612908,1.4159272880461864
2380,-0.6823082593919757,0.03560635801230247,0.3713702917532452,-0.28714699721732284,-2.2272731476542633,0.577740912900611
2390,-0.6787142655711694,0.04689384547821432,0.3774267921816382,0.9943361329740301,-1.2208216724810101,1.245409384843409
