time_ms,ax,ay,az,gx,gy,gz
0,0.08202433198750725,-0.00046400006605501476,1.0380178644139328,-1.763743671080402,-1.6704355601170944,-4.042616198996568
10,0.04387480308183467,-0.04211025154801569,1.0034462588847786,-1.031736789562227,-1.0227231421329124,-1.5145291173128395
20,0.043803715388562335,-0.04024328521747008,1.0039892839373183,-1.2676163812176149,-1.2483309815491896,0.10204686111976166
30,0.0930687946828209,0.004838739529901544,1.0474802790039093,-0.5881901708508674,0.5499824763686076,-1.875276027527571
40,0.055697655286169025,-0.03222751641048418,1.0066114585413755,-2.174448899306353,-1.1581082619488205,-3.972593207175192
50,0.034398505561700134,-0.04597522367583631,0.99982054471492,0.343033585710926,0.567149104795276,0.8667877732400879
60,0.04349693554830049,-0.04112016358735969,1.0012869836732416,-3.555315008305565,-3.6097763456105074,-1.940947146871416
70,0.06152504776149912,-0.023159109431635603,1.0219278202867639,-2.233108074220818,-2.0746694700250403,-0.9436608204209336
80,0.05303834204636986,-0.027874628142965693,1.0084370066595583,-1.7116786877475874,-1.4820021860724677,-1.6874720626978519
90,0.06677767958403867,-0.013229253226348912,1.0221027786080463,-1.0583488648029846,-0.9968733282591353,-0.8182832498133419
100,0.05368856324630118,-0.02641915628877315,1.0108154239083396,0.9740990846737161,0.4907164523923766,0.837336695312852
110,0.03688007715964279,-0.048874608059613966,0.9947201321101906,2.8901469566875613,2.2335685151932423,2.1178114815333675
120,0.04992183784052834,-0.03142382942340086,1.01403285089437,0.4467389742384561,0.11721027637736445,-0.0791769557809978
130,0.05928029053463482,0.05371354681859314,1.0551099442793885,-12.053349336542178,-6.289307276147999,1.4358219577901359
140,0.0624116862360477,-0.021064271027602804,1.0103413852707142,-26.288373862400398,-6.7112916213636655,-6.586516272453873
150,0.05485263288493298,0.0896624408023634,1.0775130932352128,-36.77609800742917,-3.508354048379432,2.574170714860955
160,-0.06507150359926707,0.2282367173726807,1.325018625168385,-52.232036977806175,-32.88908645604655,37.18649458711298
170,-0.16716797483675386,0.21176633397249212,1.538833462309813,-54.11098913408108,-98.44920643356214,70.25134355518563
180,0.49978722077463583,-0.012419537986248886,0.5281958035796754,-48.285671400550704,-53.6962957823658,41.97119692134448
190,0.4628728082464976,-0.06256174994931285,0.6262082867243143,-59.47294139120993,10.372419948477438,25.307677769592466
200,0.21845964850258456,-0.15036469501449698,0.7888385334392468,-71.99038213958204,53.26683754956858,-4.948852838673377
210,-0.02250192751909389,-0.1260997769650593,1.1120076118619393,-63.47350108029241,73.30126009120083,-24.921629492295864
220,-0.05875206970956997,-0.10828540628912568,1.136538192229066,-63.39250543835439,69.00004426029703,-40.844964540411596
230,0.07158514025580075,-0.18814499459677936,1.2045956375633395,30.718099727033923,7.549309956966302,8.334336702279266
240,-0.05275354912227906,-0.3209542013958739,1.016322624398414,12.677191299948365,-7.78134443230778,-29.123060473308012
250,0.15608610032682363,-0.11197218421666258,1.4214002373629553,12.659766836459573,-35.06227726222578,-66.23124315935706
260,0.3487561199279401,0.049709375048763875,1.7198090972515006,17.531040016760613,-46.75399783182493,-78.3692506672822
270,0.17135505411191337,0.4191750678854642,0.8436875015760394,40.58797083679229,-53.69509326508152,-52.2277611874881
280,0.028855906565409404,-0.057136287269851496,1.0563167092682577,16.842110724137846,6.298644310311253,6.107601930633664
290,0.053453035973510976,-0.05414840547743799,1.042569881013497,-12.176514698058504,-2.2143965841007263,-6.961752293433848
300,0.06690725971992109,-0.022432857851776192,1.098423482465409,-36.271140036245605,-9.532469508812328,-17.281519394812292
310,0.0858894851747953,-0.04530184483037279,1.0229908912551016,-77.8611967247654,-20.614837520666,-38.860871525942656
320,0.062082267491795406,-0.037597065235017046,1.171863683462403,-26.09105156302022,12.062500458767195,-13.260786408381275
330,0.011461658043381766,0.018889582319212526,0.6708589203508174,79.75185899672634,55.522617603743996,35.57333816894468
340,0.1468487060014844,-0.016151270108733906,0.900668136395811,67.5707503090498,59.068955770619326,21.242127705431795
350,0.21870923784608254,0.16250193852415112,1.3618943991403742,91.5975558197042,69.11714683843502,27.490618460067715
360,0.0817233003757519,0.18239344061521226,0.8936166911833114,63.126967442535545,41.111566537470836,8.579859422956183
370,0.13218692294949827,0.5277255174769089,0.3937146821827048,53.82537913563768,36.51471567860237,33.91369053024395
380,0.1204387023570624,0.039504361738022555,1.1231163521707965,-16.88111829103425,-7.069355771032708,-7.025159831539671
390,0.07518532394685253,-0.0027948840563250914,1.0266594966923686,-29.369770496962484,-4.899499289121555,-18.251698197611816
400,0.22659899750069723,0.5234631827970136,0.7895719775494919,5.6756960909223295,22.55450705384009,29.168700869237057
410,0.18934596052297892,0.2918840181454264,1.039554339236924,-19.258456537479557,9.430760762373078,23.37763864635729
420,0.2670082287189839,0.27695607201538575,0.9995887924567853,-13.607691758166343,4.072002796772422,31.01875707014488
430,0.05123758444998406,-0.18557646584578694,1.0065051085126688,12.254390118755278,1.0525102598745715,10.068174525481743
440,0.07622058863674604,-0.15266508970557935,1.015016495577358,51.379049304303294,7.269749446656074,36.79233865648935
450,-0.04775884278718641,-0.25383827272991316,1.0494826474489753,46.877180217035914,11.856465720448888,14.57930705109967
460,-0.044271866058813066,-0.5020864747717289,1.2150105257112216,30.84952630655463,1.7854123400935111,-40.980923985742145
470,0.045712179467190986,-0.4363715760826005,1.131476340824496,74.08253299905316,-14.007857969761014,-67.40554510753455
480,0.0907173748349148,0.23300725244816,0.9782632030976308,49.03100241405175,-0.02742291310079037,9.940655160382168
490,0.0925010263378235,-0.014482905458037125,1.0119871222100862,8.182616051629587,0.9299105664580414,5.870109814457135
500,0.042661609529093744,0.00985556311486879,1.029177698175143,1.891184707020528,2.2659724001695007,-13.02906830738157
510,0.05820652698224672,-0.022349590588728634,1.0405417090336628,-6.040937249881743,-1.7742409659536296,-7.679049043268682
520,0.07588229494255944,-0.0317249492808873,1.032081932094932,-6.418686496965161,-3.9456360908328074,-1.747954148590749
530,0.07685493132392918,-0.018754827100460482,1.0339780397620821,-0.041669073859440964,0.4886989353144573,1.183132173906542
540,0.0723758881379881,-0.02221124831779199,1.0468512952725972,-0.7029368689597973,-1.6897978499821087,-3.438921260146823
550,0.042788115888588836,-0.044195507371876844,1.016558822907615,-1.420501184077083,-1.5140589160984814,-4.199125465659835
560,0.06821036856142147,-0.03628958249642755,1.03063177154712,1.6821395182518386,-1.548830139238282,-1.4471156329269932
570,0.060951541443988094,-0.03583101303137585,1.0182658942489624,5.339385667946321,-0.919499789686115,2.2540358952701594
580,0.06180735707980088,-0.024710195647707076,1.0220560832757606,0.9908686782946782,-1.5878241046613362,-0.2431926761038928
590,0.05586187479471678,-0.03916036885880986,1.018743386064437,2.764494830318914,-0.15400415450345473,1.5056627892718057
600,0.06060011030812269,-0.031299683415014795,1.0229470617974894,4.24078609463795,0.04970361565594056,3.8786899282246408
610,0.07718439651086531,-0.011781337064828631,1.0432227509386376,5.953418846532188,2.7615936817744893,7.352350714533896
620,0.07061106655976376,-0.017772248979176574,1.0361713796516399,1.198475600489998,0.0954040126147006,2.0901798586736664
630,0.062162734208688404,-0.030500270761377617,1.0190850849039235,-0.38222582548036343,-0.7312075947356904,1.5574699793351825
640,0.07924069693129127,-0.00405825628380211,1.0356976519275576,3.270084589263456,1.256967994005977,5.2814343574648515
650,0.060770505983436134,-0.016537632033173072,1.0133590796067955,2.3398596582209805,1.9250285570196635,4.031568816751931
660,0.0678247336707506,-0.01065560789526617,1.0263063499575218,-0.13094909340306327,2.5541480184186076,2.6023900024293782
670,0.05908123249818582,-0.03284839231899454,1.0109693392595327,5.8567877183501365,3.361727876475916,6.721372809012584
680,0.04591433828515404,-0.03553315746093369,1.0010073002796338,4.299592526251328,2.3921638227489153,5.135515833606066
690,0.07454654862251806,-0.001450997752326896,1.0303036952546354,8.46816769549665,8.795772849561025,9.41743380963801
700,0.03756960022367418,-0.017502981613749104,1.0097139871046727,2.876957845168149,3.6197960448131603,4.136761756226093
710,0.05878893127756533,-0.010259023927129275,1.0069302746144944,-2.3030595692613316,-1.955717941984301,-0.7111004356583224
720,0.10105174289303352,-0.017681375443891204,0.9968413132006776,-3.5157000788239894,-2.617269953264608,-3.6017715717602985
730,0.05960159979838764,-0.052468365002892495,0.995332844093675,-3.0085800184758344,-3.3337590550008933,-4.208337373414947
740,0.05362944510387228,-0.035237640668372316,1.0060286590285745,-0.8547186831747422,-1.414602144685424,-2.3460392376822754
750,0.06781510864622496,-0.018492535113993052,1.0289644579478576,-4.371962804066683,-4.046352105257942,-3.7302116596424564
760,0.05913383247235393,-0.041254079048963575,1.0181217204333415,0.8567378645815075,-1.3631668256914637,0.45942491013551356
770,0.0497694940792284,-0.02067263198196806,1.0058141777359202,7.208542058040836,6.97486550568815,4.349631403391198
780,0.04573855559755139,-0.03249127043217291,1.0030628437894684,7.731668430364629,5.404620211459764,4.581836210837634
790,0.0668780694813018,0.0018666412485415246,1.02070961158063,8.222766341059303,4.310886204519976,6.925400902606717
800,0.038279552906268166,-0.016709346603837757,0.9879469623191707,6.484642500224815,-1.0153983091934577,3.0223237906759
810,0.05010239400989612,-0.0039962109708227105,0.9989345025284401,5.9699179422464335,-0.950770815416556,0.92316798112117
820,0.062000120283328464,-0.02929787975215873,1.0183869995258694,1.552418888359251,0.7158201371801102,3.5294310714377284
830,0.06701091647810115,-0.005137351863082453,1.022394371647144,-1.61529019198053,-1.5385174691572203,1.6698092728963818
840,0.04006579567187204,-0.026471204384176862,0.9933532374922238,0.39231091133161944,-0.6899084974226943,1.6108896248087552
850,0.05475362186615444,-0.006474896789093061,1.0007068967391954,2.101780408754462,1.1897972489424016,-1.1156964518402548
860,0.06547540395984125,-0.002813453873484407,1.0192048401725735,-0.6617405816080455,-1.5369837713157026,-4.834383498788554
870,0.040803404062737005,-0.03353580554607775,0.994900224140218,-2.422820961275849,-2.4344653867394874,-2.653541723582897
880,0.03658868561604427,-0.027545888987197266,0.9887845255099333,-1.2595377427977195,0.3570222242945241,-1.8709991871325642
890,0.05864267611610863,-0.01749499659674037,1.005717154880811,-4.634021781806723,-2.0327064986587167,-5.025390015347907
900,0.05546591419271268,-0.01652900928115273,1.0066310732796686,-3.028781961959605,-1.043363342025064,-2.508164501081234
910,0.06495499783757315,-0.007830129187712628,1.0179412617791121,-5.152532218667416,-1.6912027313467208,-2.059123918107142
920,0.06329761424706341,-0.015614908679513853,1.0161389245848766,1.0633482582059681,1.0856012123180345,3.1322583767451224
930,0.06734865620172881,-0.0017836232770371396,1.0242813806349922,5.309094494029765,6.312139815568951,6.309122986027862
940,0.05942770836900593,-0.012780757938537788,1.008020958886643,4.187238516818293,5.502955008613611,3.984091784274446
950,0.07663486251698555,0.005695137708113378,1.0268649846018167,-2.6101080031621184,-1.0852979133020484,-1.3001183860105958
960,0.06425904432615134,-0.005065453718034631,1.0160044412560107,-3.3766862436598317,-1.5512866380665162,-0.7930474544814923
970,0.05477902943548853,-0.02133361194012224,1.0105916674492839,0.23320270398234066,0.7578102491218478,1.0537559609872416
980,0.049871383887451735,-0.019620015938609625,1.0066224333394163,-1.4207712509227326,-1.2108581398069698,-1.9433159701758584
990,0.100879063984748,0.02646934996991558,1.0467766900221163,1.7261222190176662,2.1571185622597904,0.41039326893033135
1000,0.057327167294198386,-0.005398466648913749,1.0100816263778185,-0.8729229241879043,0.25970648775838784,-2.4995920718792015
1010,0.03629680483783663,-0.033541174660752515,0.9867225130301696,0.5539031906904741,-0.4849043243865834,-1.8396589497929803
1020,0.08060339850889722,0.006722970856435464,1.0276964753166364,-2.1527911139757814,-3.214004005127715,-3.996855285076246
1030,0.03962210594430859,-0.035222328325477885,0.9959424694169237,-3.007678364056222,-3.3887586383526456,-5.988509707897917
1040,0.05376219014186999,-0.021158888243528684,1.0054515488488642,-2.9853201728678815,-2.6257833466669167,-7.049993384157115
1050,0.06663696364081416,-0.020624237016944318,1.019938496651943,-5.025513486362503,-2.0371998679426593,-8.94685571534
1060,0.05574080383568866,-0.03541990798114771,1.0093187026841854,-0.1638186501437615,4.706247587450236,3.157223716674328
1070,0.03862489468282028,-0.036140479922754064,0.9979080812413704,4.6051357896355105,9.439635887380383,11.160296740083158
1080,0.05048230416464233,-0.016608025374184356,1.0030784986213725,-0.10451794328501812,6.510529083066299,4.587663113861437
1090,0.06733737296561824,0.001235439111070066,1.0206814165733737,0.013103694319538839,5.134173139756474,0.5386355795970372
1100,0.07752738320960798,0.006899441042758612,1.0256389932666707,-2.196231541647607,2.2040380834604427,-3.1185329216036837
1110,0.05068494131045878,-0.011094232233996046,1.0035480804112211,-4.539456998141321,-2.155436464818515,-3.500192379232251
1120,0.03624441166850979,-0.026114102374410128,0.9837000478242033,-6.645077591533949,-4.564133072189201,-6.692625628665703
1130,0.05496425181975091,-0.02757774573701492,1.0053728725891145,-6.447893028894631,-2.6789953974650507,-7.138629869941369
1140,0.06063494059708845,-0.022793425357002246,1.0184971724512888,-7.539635957200721,-4.323959468310374,-6.445049660192713
1150,0.03837705406858353,-0.04601281400819609,1.0000689612045937,-3.1201133107498453,-2.2896334013936332,-2.466376902840791
1160,0.05976227873054425,0.0014492133544524357,1.0222714658451726,1.6079009536181357,-0.9602546624157641,3.121483677024707
1170,0.06392413308799257,-0.009049989219692613,1.0136029830067779,-0.9126675372277051,-0.7537062126864427,0.19010648811128328
1180,0.07802351220694123,0.0009942524559401686,1.0369440735521978,0.5987151963749827,-0.4951189295059355,-0.8916188199314747
1190,0.07155021170262445,-0.015727124510884823,1.026638460248861,-2.320434964625482,-2.6990511535386306,-3.0353339965697095
1200,0.04867760627784033,-0.040792002285437855,1.0030545613269937,2.1669857851584,0.9374342894103562,1.984410719978225
1210,0.06784208359219808,-0.008942599041970714,1.028238043940539,4.238196025814949,3.7739634883796733,5.2587937720522415
1220,0.04740872387577956,-0.029448722521334847,1.0115075119342383,-1.5361422961035247,-1.7926183922817498,-0.42180421936741985
1230,0.03268301353727209,-0.050575288330948924,0.9936432679200587,-0.3800441735660085,-1.7929568197326125,0.03687166968905231
1240,0.06599764884310624,-0.02368397776370112,1.02132270227481,11.201121356802778,6.7740878056607325,9.854309343819187
1250,0.03177362986483797,-0.04928300189863784,0.9886241038612492,7.0538275807911175,0.9172316725582403,2.8910814453139277
1260,0.06019337243550807,-0.02150761136553461,1.0088991762877617,2.813833404805861,2.6896241539633787,1.2987950461451558
1270,0.08100452391043399,0.008404246343545495,1.0358450416719478,3.870124746168211,0.5420710390963097,2.9536715244806393
1280,0.05153328543623114,-0.0031590821175795755,1.0078977440196097,3.416255904549884,0.4499545552734523,2.44580104237556
1290,0.030602138384322096,-0.027203691745098797,0.9827252526117941,2.5137173891672626,-0.6645948337166264,-0.4875624794436313
1300,0.056465994120477855,-0.005210254725449333,1.0030793060969587,-0.7654696788203996,-1.7752477373880997,-4.178572298100523
1310,0.04634236030798178,-0.025710902105172774,1.0002040256624942,2.0171247949050155,0.9313302155834564,0.3605713032216096
1320,0.0692993225566838,-0.00780823092336249,1.0123030934226027,1.7465185800304397,1.1123920345972058,1.3532648725759238
1330,0.07577289024940302,0.0035269091940127954,1.0248669618601915,4.225395886088528,3.160783775837697,3.810972641320092
1340,0.0610316705453155,-0.004964556294164222,1.0045864311028838,4.9302116457218075,5.313171527487379,4.961982212334741
1350,0.050092855152268446,-0.008428531728389883,1.0025091598326463,0.15162396218889285,2.8408605204999966,2.528691305273317
1360,0.03238213235493739,-0.023021415901047414,0.9763954689550618,-0.9009811203391207,-0.7445190413492828,-0.15241713937748827
1370,0.06740139283350421,0.009010676114560441,1.0094032641769055,-3.751882044042226,-4.659269223125526,-3.2689101242603744
1380,0.05776071985100253,-0.007154307556581325,1.0030186576209597,-4.2403741236022565,-4.518672746097396,-3.7600354138783647
1390,0.06289653120969768,-0.0011915093243496733,1.0113608670554517,-6.884781664045041,-5.532115483751891,-6.230857465208652
1400,0.024822476271312295,-0.05432178753730986,0.9825754389926302,-4.574582418903475,-3.965812528148582,-4.276233743448365
1410,0.040146447555886824,-0.025031375260071972,0.9837734867850125,8.00922274577092,7.650072537442643,7.3315824380555625
1420,0.07285550797972971,0.017045200149971566,1.0162384019770796,-2.127648527527684,0.3306207129021719,-1.6431204858114503
1430,0.04255484774657404,-0.021944745561787368,0.9861855407285389,-2.0676070882972746,0.6341682527946109,-0.43842251850975833
1440,0.05678805472927857,-0.014219663489060338,0.999630783498638,-2.3420105306073697,-0.44529623169832644,-0.7169479848248146
1450,0.0417732344134602,-0.02910277626772349,0.9913243242980655,-3.1415503451104003,-1.7603955822447697,-1.1808708763532982
1460,0.05578647830885947,-0.006219185895447525,1.00060588536761,2.5539369248152,2.7619703560603517,2.2643568926178883
1470,0.04828619900605644,-0.013356864899054632,0.9941371643371415,-1.382630605690133,-0.9001866592921383,-2.422861244043786
1480,0.03195861931411374,-0.029159887887589386,0.9838455291691875,-2.4918853461290618,-2.92878988696652,-3.76227432945815
1490,0.07376968878465893,0.008357229689587362,1.0278727694659608,-1.9057160807495528,-1.8665394143682117,-2.796557155011119
1500,0.054045137293065974,-0.015401662039716213,1.004886110906691,-0.502130102116376,-0.31264089065821565,-0.4677173431293764
1510,0.06982237551105136,0.0020143324085252993,1.0216690311362513,-0.49337601420953175,-0.03190636909551617,-0.7082163137861983
1520,0.06328834117825387,0.0019232419977743727,1.0139650258222352,-1.8319694274730483,-1.2111996688768776,-2.527613012314145
1530,0.06557523779615815,0.0010380060534790504,1.0190284964818048,0.47958841674470776,0.98362394564554,0.21179762528326984
1540,0.047026740074492035,-0.027539327269271097,0.9952762323095827,-2.6497317819597708,-1.464010405602224,-1.6627552761300968
1550,0.051664668261267394,-0.030094008863990034,0.9954229740624431,-0.6224884643175375,1.0381551906858868,1.577494359746913
1560,0.03331496339163872,-0.023341029523702334,1.0007045029983592,-1.828024927100332,-2.1752168722092646,-0.31053909159359216
1570,0.08726670007330321,0.00929990939347285,1.019762455586561,0.0761349986067642,1.18858362655786,2.4108600142369636
1580,0.04008585934195798,-0.03567129259123885,0.9832720592084889,0.6726907446139535,1.7556674174585576,1.8463618401266928
1590,0.03948081826826066,-0.03301072285386708,0.9820178255391041,-0.04226857657987659,-0.7040857807834309,0.2307469360760288
1600,0.07739835869020512,0.008856577544987575,1.0273428466893717,0.33860930145183804,0.23569545978194106,1.1770150485441282
1610,0.08242919284889354,0.013478886124413132,1.0298416253140652,0.6503932948436513,0.8024741893337091,1.735022666371527
1620,0.05450593072035938,-0.011181588030725345,1.0053867964982237,0.7660951116436006,0.6637749734843683,1.8858527735399926
1630,0.058859019946276625,-0.0019161449476502706,1.0117381465023405,0.23348143152248885,0.5897661491106723,0.6377434620036009
1640,0.0695478728670817,0.004016872056733616,1.0203407620679241,0.34435437587262796,0.9797767364271528,0.5838629297597392
1650,0.06943274272876053,0.0006399406183988272,1.0177493803238042,-3.239866946150432,-2.362139693200288,-2.667629507109609
1660,0.05129557120655439,-0.016080901788975626,1.0009358860569775,-0.6793758872501321,-0.1488378043527125,-0.4234878674400666
1670,0.0574709214448442,-0.004731402866440144,1.00742707362841,-4.531224644852339,-2.476394535146434,-4.125394373487578
1680,0.038239352616711034,-0.03525471211659065,0.9804284403179924,-3.893358484423771,-2.365632685264861,-2.9806581040885742
1690,0.04909417824481892,-0.02174847617017185,0.9931291973940675,-3.4932247343790808,-3.0398650070324065,-2.092299896842102
1700,0.06908680723815845,0.002638689293072453,1.0145818478851705,-0.7755006531589037,0.12122221222113161,-1.5396152185398562
1710,0.07384761906459869,0.006275798963773508,1.0272071742518791,0.7840620815862052,0.4056445317179268,-0.7279151415427692
1720,0.053182807149282474,-0.011879703983547275,1.00105380368053,-1.5098682869527982,-0.8961877120556168,-2.2407668302590906
1730,0.05742671871098994,-0.010109884191953597,1.009966813799467,0.10524915803455182,1.2082408651245058,0.5637481589233372
1740,0.06374815987865651,-0.004733453858740591,1.0206571728172942,-1.8452806363125707,-1.51532129516291,-0.4847488901460266
1750,0.052339780678148255,-0.014929374720710684,0.9992040398332771,-2.4809710994597145,0.528338576958741,-1.3813003612314505
