time_ms,ax,ay,az,gx,gy,gz
0,-0.7746745061907697,-0.03988595973461161,0.6579409307504518,0.6911377423680617,-0.33278226869807714,0.9236961275313907
10,-0.7642346538900082,-0.028012015415392465,0.6607448608104556,1.357318035803473,0.251835348726147,0.7564259970124338
20,-0.77112385307143,-0.035175564009047214,0.6495215591472845,0.16711199878822147,1.7713556613047337,1.521477873677211
30,-0.7640697330809982,-0.029743946322069413,0.6659634211779714,0.3002454593751551,2.8467921125629942,2.377370782725568
40,-0.765042646554562,-0.027111221868976337,0.6712416010371253,-1.1533624337473944,-1.0413764529227005,1.224842501355111
50,-0.7800584611736058,-0.038477159746329856,0.6550584596263755,2.3175652107154305,0.9611517405510747,3.2390003164060945
60,-0.758544223609938,-0.014146019859969503,0.6703185996097876,-1.5770998179177307,-2.7208939715272495,-1.7659540205871873
70,-0.787313155268136,-0.04962863851619399,0.6401749462038804,-2.2894511425212247,-1.1092488054603546,-1.7779320535497622
80,-0.7729764636371558,-0.04020624205386847,0.6603787922543796,-0.8644312124762819,1.062532234836619,-0.5681371212694503
90,-0.7512828385486088,-0.021571385116380744,0.6791105984747234,-0.4103758451339573,0.548927268009741,-0.2671398619616496
100,-0.7696454493256166,-0.037398655245788226,0.659685932728378,-2.3004466304574906,-1.2684599972519,-0.6200777792519419
110,-0.7684041931999663,-0.03798121872967449,0.6618533660253813,-1.104514833094669,0.41209289383683884,0.7180161268166014
120,-0.7731281380038065,-0.043526539305893244,0.6566496082682265,1.106854692690736,1.7316790482271185,2.383292992529793
130,-0.7769519319038188,-0.04025897002031199,0.6606078142703042,4.6238522629465475,3.6824350798075134,4.180612644610742
140,-0.7621385003149818,-0.025675697130690855,0.6701440051332224,5.164335612964523,2.5954855581610823,3.2567695644219947
150,-0.8067237364590387,-0.05412848223194862,0.6462575319996888,7.274208297771887,1.966747120718027,5.403516152048949
160,-0.747276988029092,0.07586454172596244,0.9289654763489852,-2.85674897263793,-1.3304849790834137,8.688451318489946
170,-0.9368661988845866,0.030293688530417716,1.0165306477774048,-5.633984135467984,-26.507040389790863,5.2046467016405575
180,-0.9786956505730565,-0.1657119175291898,1.0122991686207516,-1.1485212551184079,-49.87663776135502,0.7148829173973721
190,-0.8706850939759945,-0.29144004660340345,0.9453061473315194,-1.5371398362009074,-60.81810497572195,-14.56830068876726
200,-0.8871532838068997,-0.3104611979374248,0.8328310931647008,-12.77182108501461,-68.43730262206209,-40.77909209912802
210,-0.431738284601712,0.09606859213277241,0.5213392323569411,-11.013370546824516,-37.32053571712026,-18.392281853220624
220,-0.35481313375140283,0.16948873350531474,0.5238489814138718,-13.630259415253583,-9.791140069047456,-8.27753912092901
230,-0.4884362874811412,0.2725407138016125,0.6154339088138171,-20.88973607006809,12.736894597996555,4.770270594103511
240,-0.6367941691329425,0.13423137903355975,0.7517059402419014,-27.18875611470929,21.101285632886427,17.941817110795487
250,-0.7231489497851303,0.07751434612447328,0.7720255087388119,-25.309481153437652,17.200107457960883,17.051005872327934
260,-0.8398990814359507,-0.06767747330528995,0.660819102301676,-26.7521481716601,16.64898916181816,17.806399172076805
270,-0.5852949191647596,-0.10944812999566998,0.5717726150532741,-27.93875912170113,26.054778251248027,7.961812830697935
280,-0.5534484728487671,-0.08169367972104685,0.5546969302634199,-23.91822694140707,36.12692750743887,9.538417845420204
290,-0.5998245855270665,-0.0701786936990633,0.527778866212279,-26.53484026283599,41.72251990103515,9.890492377294862
300,-0.640597429706075,-0.10159191939304878,0.5993944985799009,-24.42362100026809,49.7907297253422,19.151659108856776
310,-0.7048433017600609,-0.2335283871972568,0.6462364950243402,-26.41163872722803,45.77454167971832,14.186093873410819
320,-0.6963959834017193,-0.21740774338199015,0.6194492702505024,-22.012975695306917,45.154577654995705,8.459944640081341
330,-1.070048103395336,-0.4091239571632004,1.1769176826874497,52.67032080384909,-4.379365033004127,-1.0534413971438519
340,-1.514193812368231,-0.6355028932748085,1.6149229985147728,111.94917117822513,-69.02514783040932,5.170337151838137
350,-0.9051531385142768,-0.07275853904102386,0.6887677073027583,34.41606843394367,-12.750673859125824,31.763880600246996
360,-0.6827241753500636,0.02716263707944349,0.6137840424758213,29.509581651881238,-10.890092236470778,5.919754582404487
370,-0.35192276449829973,-0.6201607510043113,0.6096212684498094,4.830500977865604,-5.38516494291459,-18.753221680169652
380,-0.3884528491590158,-0.3782301370785723,0.7805774736076571,9.990852886542548,-2.6458564179091875,-17.39934116985906
390,-0.6288449951203966,-0.0035747186952197404,1.09068627040444,8.679116488192921,0.21504250078561737,6.348579934928067
400,-0.5031820627842296,-0.22738246193576592,1.1750270615769254,-19.22101492050202,-6.4605090820059035,12.065763327944438
410,-0.6280504482788091,-0.3344748811204724,0.5988660169423748,-0.06496309278186574,-13.835708323615426,4.680265400073331
420,-0.7907327183381478,0.20952024341780745,0.6661463789653573,-0.017772235845208484,-12.791593991945131,4.480952142513065
430,-0.7486851579174222,0.15474890339475822,0.7045820941063867,42.724636040009365,-17.51176366840531,-14.524726051722377
440,-0.7326271813853925,-0.16448616549662443,0.431147614828513,33.28681640643506,-15.723315261764132,-11.084742623822097
450,-0.8910193499957011,0.15982803577967775,0.3319513062915872,18.457138188971488,-7.04017422860661,-3.454027566372741
460,-0.9029124252778069,0.3609380410872114,0.7532244493071141,46.45339350695792,-10.529197678615118,-2.881813085466862
470,-0.860577103987571,0.10553705268284265,0.5168041291169087,18.10510343092015,-5.69334834930662,-2.5746785931735965
480,-0.9038056851839075,0.2654469246362713,0.5281777744546589,31.49689601569421,2.2360067193483015,6.923328811925398
490,-0.8755262776683602,0.16742224151412793,0.5074930697237725,9.765749930938892,6.642750508179223,14.859775789512668
500,-1.0243529397358258,-0.05930406459433438,0.34173123676982364,-0.9586229822471656,3.3673346596609672,-9.227396033089772
510,-0.9895574443182544,-0.06215770684162374,0.4271168890204114,0.0022921993076874814,26.05095253548438,-0.5192787447925776
520,-1.384655898613606,-0.1028780412448224,-0.8196870304977968,-5.007616392334652,40.09328696189587,-10.222015434561618
530,-0.9237750210310215,-0.1475445717053343,0.22386072377329205,-10.283226558922266,39.01531559636869,-12.425454151382405
540,-1.1857938876891483,0.36194388820403706,0.6284070759936681,20.081940592922177,34.22599664398265,4.486121861729454
550,-0.9482424852478963,0.16206556314307335,1.1707545429332373,8.659454264232199,30.01448406373721,4.076923787152006
560,-0.9194865629437261,-0.17956832884981802,0.9981464453764433,-13.575663242448973,23.897315499458138,8.752855725486407
570,-1.0746169404645665,-0.248122481952388,0.3966201955436328,8.39326194564974,21.804788165799124,6.979867141091478
580,-0.9838785248499172,0.07606550830367848,0.12399025415397513,45.4867232812768,19.060493504125397,9.638843535894878
590,-0.5815009984766412,0.1432669932844003,0.21760638085043058,19.017952315497126,33.519511852343605,10.510453613437384
600,-0.5504505186592356,-0.15499444605751586,0.3486505934300001,5.455687187360728,30.67150540901738,-6.230487303136368
610,-0.619896774479174,-0.15154446524666898,0.9673112040688795,-2.290826012381081,17.881871492449182,-20.39759852857669
620,-0.633241602287629,-0.2076041748667908,0.7497482410665154,8.754986384772474,9.620338457744895,-19.22812959861801
630,-0.5842690688486778,0.12849597308741187,0.18067557281742194,1.2146000709479357,7.744891690635388,-11.649232218724787
640,-0.49243423900792,0.04497116384505212,0.8525150158554431,17.406189873768795,-7.633126132823333,-10.686878530318383
650,-0.6559465624908973,-0.05414636962859142,0.7951809510525788,23.43850853954786,-10.617074904108463,-15.108156665599505
660,-0.792615925773477,-0.017594390014173022,0.6616895900970544,25.81728679890089,-2.6454198802095847,-10.984433570431555
670,-0.8595116690099612,0.18810442910798836,0.7770264396262622,-17.02649978558077,8.486707705116267,-2.2020777577656387
680,-1.0066652516985453,0.07998020744105631,0.8574093801800968,-4.605991096493286,-19.109089042548838,16.256597732806107
690,-0.8465517369092902,-0.10989608873574348,0.640211697516109,10.684984882346694,-33.08296775887558,32.698199896310754
700,-0.6312224168995285,0.012902262931493016,0.4239588004400747,8.94491987094703,-30.3093279813412,32.79089006589156
710,-0.6622615552409097,0.2519057448746991,0.46181323483516146,-9.08402755667608,-13.966806287372322,39.23957994409868
720,-0.6736796090363563,0.3026300013501504,0.4290519008445098,-35.73102988997145,-3.804956550772734,42.3119942446877
730,-0.6595118265488901,-0.08388714867908736,0.3619626264890102,-54.7328981647808,40.903812034180895,29.505336566708113
740,-0.7428856588966283,-0.20902187451060417,0.5452364915841503,-45.59917327090025,42.05926839068481,13.153926134368573
750,-1.0656953820836246,-0.4097435637336972,0.9658949472275521,66.02433620082644,-40.55284625942085,-25.38286713737591
760,-0.9681873573997035,-0.5584642018405659,0.4358928118935914,-20.748561891340366,12.871486268211589,-3.869298462716664
770,-0.8170835047399634,-0.31023196877927695,0.43498511190767547,3.7176738670288865,18.88419974684238,-10.574358280051172
780,-0.7121948453031598,-0.5780917233732268,0.43325318497502374,1.5127919993030239,29.570205571644927,-35.84555190636754
790,-0.5247173601375634,-0.5789827552560425,0.523275507527243,25.20101127529585,34.22780768564083,-84.10964246452001
800,-0.6190270855538517,-0.41948889522793664,0.47442263051357314,33.49978982258986,30.14335586857407,-67.52486525043706
810,-0.4718472020500109,-0.053188219747293486,0.2263917820786698,62.221493598232186,22.838601944147225,-59.90423049061698
820,-1.1444048401221494,1.1510120786301854,1.3488030133629816,104.57343850251002,8.359009574718407,-29.69378878233008
830,-1.3380458368941708,1.423424675907187,1.3133645476119706,98.28141445859906,7.368752279506978,5.0956286491846825
840,-0.9209354274313699,0.8127111148187885,0.5571238677749937,37.3056990667701,5.138264471660495,19.0233461743021
850,-0.8664424115099771,0.025667732476122133,0.5223210897356678,0.5370433544196,-3.5772765606172507,9.253136763744319
860,-0.8526379486518054,0.005151753743340195,0.5448656244098898,-11.435586001564662,-2.1368527369086543,-9.64849985826486
870,-0.8438656222416872,-0.011747267771942519,0.5439884245292447,-16.707835467084145,-0.7145792502607867,-18.864189695598537
880,-0.8417431808920219,-0.03887399310562971,0.5457361613930062,-11.195942426641052,0.6976413694691728,-18.018882785686113
890,-0.8465422435944158,-0.07666938121195725,0.535439219949258,-7.15807223305344,-1.953720570671944,-14.734587172982392
900,-0.8063974268134164,-0.030270097478097197,0.5792130665579891,5.8040733295929146,-3.778923865456443,4.9836568329512305
910,-0.8398720464738787,-0.04207436564089194,0.5343138937029948,14.616408652323377,-2.020063168073132,16.563186510846823
920,-0.8236866851544798,-0.0062029872743997495,0.5445166015262816,7.592161260655345,-8.5153073412439,9.139587202914537
930,-0.8388544914856809,-0.0043024194956088205,0.5374861300262163,3.6849852582220017,-6.310278723989139,5.487906717148946
940,-0.8463922359022628,-0.019057276844230867,0.5479621814893201,-0.4978491322689431,-6.13123054371152,-2.196407989591151
950,-0.866238102012626,-0.04470830226781546,0.5261439019830911,-6.293722081866548,-3.681618733118597,-7.769801708358115
960,-0.8461170403698846,-0.04689948577340375,0.5475765793134646,-10.177744539686081,-1.638425937171104,-15.265151179263672
970,-0.8659625111911733,-0.0861217125978673,0.5128031443657476,-6.106317808768032,-0.764238215062293,-13.161052060616319
980,-0.8702499239270386,-0.0985021741945262,0.5032101282088398,-1.5516120480214866,0.7506370017042169,-7.929539524131664
990,-0.8463389415911481,-0.07952782970415212,0.5313482212050742,-1.133016950944527,-1.2194116168376938,-5.361954180280996
1000,-0.8508273292832832,-0.06602741483386441,0.5375624785265616,2.1123841874774345,-1.2907299992119654,-0.19446452206319575
1010,-0.8472446284761175,-0.06035229765578322,0.5462322182792975,-1.7532535090732073,-9.02354315738778,-3.7773336162688307
1020,-0.8374791930144057,-0.050556168186826914,0.5554777415261872,7.499262298724139,-5.025870172095033,2.079946649528525
1030,-0.8426433534096225,-0.05098716929235534,0.5536108011620469,2.6396033037582267,-4.846585729067859,-0.09837994299747077
1040,-0.8208734606431022,-0.0375384074421302,0.5763229811540842,4.28505262362036,0.16770580887590736,1.7711536164123716
1050,-0.8532381126210933,-0.06877340867713425,0.543563531433942,0.09279070571539139,-1.5040548426244298,-2.0107744123174167
1060,-0.8391741355242632,-0.05365965514104107,0.5449251261100941,-2.423465329466345,0.17310593371716432,-1.8946400834130768
1070,-0.8185842731918944,-0.03067175613796842,0.5657308590057296,-4.9764981600194504,2.1836815741515387,-1.4754242300955251
1080,-0.862101056695571,-0.075967196819702,0.5255637690228965,-5.16103144062199,2.2885524438926703,-1.461486641158738
1090,-0.8250828934745326,-0.050144306525033426,0.5623245314517282,-4.155715631139921,-1.4977581665260504,-3.272815706338145
1100,-0.8515547222686825,-0.08393691072192312,0.5322228469613147,1.929589035065391,-0.44861973571281544,0.47277159842850536
1110,-0.8217434538420915,-0.054638736621913694,0.5676451138860283,5.554339251031973,-0.9315218020452403,2.6680026919147783
1120,-0.8340274740786249,-0.059552388440042625,0.554014802709671,6.838419104692607,-2.2940807796550375,3.3172755475511564
1130,-0.839451044020679,-0.05012721914210685,0.5502433212814954,6.716827219363407,-1.082595261512017,5.25441883464693
1140,-0.8517867171686222,-0.06511167889274279,0.5362375526745331,4.379051371022187,-0.2346896662834106,4.438669601806092
1150,-0.8292091704358441,-0.03135459246018779,0.5698604566627895,3.4244491967214508,0.8453389800170423,2.24065134631034
1160,-0.8709233446481159,-0.07173735247952115,0.528201704323317,1.2493105865501457,0.2790018049347424,-1.5955307781800978
1170,-0.8333005157074989,-0.04068968992357584,0.5614799917583306,0.6508094066849102,2.088888053144662,-2.574086069305656
1180,-0.8261445477581932,-0.04827873354587589,0.5661661926167922,1.4138593898322096,2.6783932013343117,-3.3943645096357873
1190,-0.8680702965971835,-0.0882942965281669,0.516939478155353,2.0011645763636308,1.2799825349523863,2.0494238897962593
1200,-0.8305615513703293,-0.044429350646926206,0.5548798667458568,3.2044051244876135,-1.2020523228836835,1.8995466686194904
1210,-0.8409917545979714,-0.04292071001806054,0.5567777099120721,9.682630925475573,1.9490272145755867,5.279087429495854
1220,-0.8185365905633695,-0.0186126661770443,0.5789309400221844,2.4495022879428374,-4.523017959361587,-1.7511432083247516
1230,-0.8384420438781659,-0.05222441422987059,0.5563326473133385,2.1374148166261353,-1.209394582835201,-0.401433528878341
1240,-0.8401008930193334,-0.0481051651237835,0.5524889882490036,3.214659211905893,1.0245269988911614,0.6692981822969178
1250,-0.8454837490667054,-0.040952132509641935,0.5399965992642158,-0.0209446849841044,-0.804127855286472,-2.064472341267286
1260,-0.8522165766122359,-0.05808295665094976,0.5464764871430127,-4.021067698680244,-3.885978515502021,-6.259376490913832
1270,-0.8591839733954915,-0.06471273294285902,0.5339761773547639,0.8885923868160374,1.8284894520229975,-1.0657936842043525
1280,-0.8242940201792444,-0.039623157892123784,0.561558020006669,-2.623635589348152,-1.2627883573274556,-4.050300811365572
1290,-0.8499668875090377,-0.06586311812473147,0.5350206589815415,-2.213241399441751,-1.4407768154515637,-3.7897253901614874
1300,-0.8501196556030799,-0.06004662964967435,0.54183574623942,-1.1848081183469676,-1.4277207747055483,-2.311414815267069
1310,-0.8363907442224758,-0.04003520494422118,0.5565059034732176,-0.05164941600477069,-2.1575799685856993,-1.016727726752921
1320,-0.8374137640150698,-0.04513080172030323,0.5555634123677826,3.051686612438228,-0.8228797157954941,-0.08598904203010171
1330,-0.8512163456751282,-0.06385392767931969,0.5406427346883286,1.853029372364555,-1.8926614527379493,-2.062254758596816
1340,-0.824036616066148,-0.03513426535313379,0.5702418380853638,5.018220704567869,3.1586453755342454,2.484748853116426
1350,-0.8340698965022811,-0.04660913568077307,0.5551144779102221,0.24010728299838735,0.06809020710862312,-0.2208241909431336
1360,-0.8403405560077873,-0.049662277679738624,0.5487900261994128,-2.1368419360182576,-0.8249583525088864,-1.9883191826116373
1370,-0.8412663235583951,-0.04886892345979298,0.5536683219079137,-3.204017423202154,-1.9644995251591362,-4.3597869539894925
1380,-0.8301531889625233,-0.04660223809975309,0.5599807617971434,-2.099194295804086,-1.717909346732383,-4.044347050334976
1390,-0.806295849308337,-0.024891869846279405,0.5842409093815961,1.8110425709465139,0.629333009774703,-0.3132379071400726
1400,-0.8534021586280525,-0.07767098631140791,0.5290133555868181,4.948601770665457,1.3106300737240277,2.0219555473650153
1410,-0.8367118699527261,-0.0631032758430034,0.5468342080341266,4.094980728633835,-1.2793417094605513,0.19420054402761588
1420,-0.8521651848563966,-0.06965702032350671,0.5407991898003125,-0.14856526459562336,-0.0016828027623432273,0.5713454328906179
1430,-0.8213153817173605,-0.03582236947111649,0.5705564598180558,-0.6264759677424485,2.253948650933254,1.6675064080766406
1440,-0.8272248006485254,-0.036415944529178464,0.5631290427312954,-3.724484291159213,-1.05591412161424,-1.113626214630434
1450,-0.8371855140514699,-0.059302975193596855,0.5446349647861184,-2.5091820669091915,-3.1554010783742865,-2.9210014171965213
1460,-0.8689579491614658,-0.08685694233846561,0.5158399307985435,2.8507543818556718,0.6894330394312036,1.5961784260821001
1470,-0.8276611256039,-0.047627251881632436,0.5564787037731769,3.9037090701749007,-0.053358998431639604,1.8556949062260935
1480,-0.8250607012522281,-0.03404953894945166,0.5630364773386879,1.5555375209170519,-1.860472798000026,-0.09266772380955057
1490,-0.8458940526435451,-0.05814387828139247,0.5483655717378683,1.2697093401847255,-0.8051153001901841,0.2866313743025295
1500,-0.8412724287171242,-0.053854427427476745,0.5542255457397273,-1.979053728941207,-4.395938586070567,-3.683119219423126
1510,-0.8334511797483364,-0.052324642972885624,0.5618923529074861,0.8435587166003096,0.0849582638086912,0.1973304195649468
1520,-0.8178882064012892,-0.030369222531669203,0.5756460900406067,-1.8549179235160227,-1.891167213514393,-2.6445103521805193
1530,-0.8332761101448817,-0.04935563857526492,0.5583279032813548,-1.9522573637692788,-2.9120075132234966,-2.4238489544402944
1540,-0.8295981702688723,-0.05145870307844562,0.5667378306227406,0.5894025038463229,-2.4958256425977243,1.0037693273124795
1550,-0.8492865752527029,-0.07124868992561142,0.5440896241847218,2.339258395695828,-2.7923200677798015,2.176200301568683
1560,-0.8467219417666331,-0.0649385068864459,0.5471462245871314,4.263840086684977,-0.9565632635887327,4.343416738277751
1570,-0.8447319628887534,-0.052630139791539784,0.5580602649371255,4.3749961498185215,-1.0285822096566966,3.3630702248491575
1580,-0.8383176397116767,-0.045157887512365824,0.5625443136126375,4.41113747254403,0.17276325837950512,2.6855870801880304
1590,-0.8469553411635036,-0.06168722531724932,0.5413041101346501,2.916049294935713,1.333150207246959,1.3713838661808504
1600,-0.8207281270552564,-0.04016549276917878,0.5670588032118505,1.5480590344303988,0.7827922567586253,0.2404159254075673
1610,-0.8371531533773073,-0.05646906819192718,0.56527992575955,-0.9303957032942314,-2.148521141314286,-1.718611156909312
1620,-0.832086733082879,-0.04707895203991933,0.5712686998869968,2.2029499832290385,0.39448647216258265,1.4300027849537273
1630,-0.8417676773685618,-0.05493755363374132,0.5571119041162903,-0.19790529184056926,-2.0505084473619535,-0.8990207594347552
1640,-0.8284246229271399,-0.04524075163242201,0.5665535261737114,1.8839170802548793,0.7132198581961621,1.7780881622047597
1650,-0.8231798921013163,-0.04446470525232714,0.574352495948323,3.983809130007237,4.475414100478218,4.656011468108874
1660,-0.8241227247313007,-0.035396854530454984,0.5750095486095043,1.4671356416142218,1.804771488154722,1.5819978972696773
1670,-0.8293042201798891,-0.0356228286111763,0.5606522081724328,-0.6569215293058547,1.140205066822045,0.6365985392387812
1680,-0.827040711672673,-0.032591057427869434,0.566867551552632,-3.7375481885046478,-1.2324303798287526,-1.496671092950721
1690,-0.8434300906804738,-0.06132928437365903,0.555777023550433,-3.276148074968731,-2.024739518550038,-3.151623964050869
1700,-0.8522375456050235,-0.06810528289886399,0.5437589800672066,-0.11558096680031693,-0.4843640548238617,-1.6233100061528196
1710,-0.8376754714409212,-0.056152506011495115,0.556563183272518,3.911569476914664,-0.6437008334437887,1.4367702870380583
1720,-0.8395657078249207,-0.05714935521470786,0.5597304363734157,3.9618042437196626,0.5380550179516668,1.7796364260295379
1730,-0.8204740184187553,-0.031066826035435292,0.5818249191445254,1.005261436621276,0.922405210568522,1.7132217626068127
1740,-0.8257674782092962,-0.04062665030545045,0.5685874707348844,-2.290277335191689,-0.7115423539185445,-0.8070770693287324
1750,-0.8485231889937833,-0.06048428381718732,0.5509958235986165,-3.45793342037706,-1.0361188500603358,-2.3706562362707704
1760,-0.8341081604093115,-0.0477589902872672,0.5616794129907389,-0.7096724300241917,0.2406783589966939,-0.7762758277887084
1770,-0.8325866433910831,-0.049102416269538526,0.5583095064903754,1.4935396433375974,-2.094685439713598,-1.020407911716253
1780,-0.8216022412152734,-0.037706673635610304,0.5690145123869554,2.7785860349990745,-1.5935253061116132,0.129142176623391
1790,-0.8114491519451841,-0.024248107572036944,0.5878438641775585,3.546574447817287,-0.07808076483184578,2.1110613050306206
1800,-0.8483013790404048,-0.06279971841418582,0.5525540322939035,3.0191338983798763,-0.12558639208942668,1.788807090576598
1810,-0.8083220968393825,-0.02069775228998556,0.5872640221177,0.3331192345336158,-2.0671637084880468,-0.6905278631048724
1820,-0.8291404656462512,-0.04636236648539963,0.5641599066089252,0.08201345803663679,-1.1608368597977716,0.15033143626663276
1830,-0.8022508527749688,-0.025711643439800768,0.5926522955535416,2.1240156357480693,1.6376690891005197,2.960152541822323
1840,-0.8358703952071395,-0.057267243003161675,0.5615708224358179,2.247563067277137,2.1101064093503563,3.402866703923233
1850,-0.8433436845971733,-0.054079393275389846,0.5585437860018555,1.5899203656888083,1.548177574825935,3.0305526624078167
1860,-0.8416450525500793,-0.0505351525542784,0.5594206877464841,-2.3899130756376845,-2.2875224204692697,-1.40941626493392
1870,-0.8455210138352455,-0.05893613004539891,0.552486714199175,0.1637025285631123,-0.011495821542498477,0.46761590782139567
1880,-0.834005250542318,-0.048670695563050384,0.5606456601653926,-0.5104884702785153,-1.0121476100153424,-0.4795682569499691
1890,-0.8337155216037898,-0.05198985217556727,0.5619413266762753,-0.7306890408056406,-1.4589505524527948,-0.3925430369488687
1900,-0.8150849670712441,-0.03372190515087572,0.5835529621434299,-0.9325902647812082,-1.8714960905978737,-0.36087590715541185
1910,-0.790684198017657,-0.006178697838576934,0.6058263624277456,-0.9376069862363692,-2.305590578604436,-0.1295721792344955
1920,-0.8113776256754548,-0.022454006876136936,0.5921833354202243,0.9506026412159809,-2.1992630101589703,0.04317030849643777
1930,-0.8289653490055515,-0.040379816770231745,0.5765192804845282,2.928762894710219,-0.33182381847296183,1.3987849937166783
1940,-0.8191150264604043,-0.036542864445064396,0.567952120810194,-1.02506347359879,-4.37655063429724,-2.0589245517489125
