time_ms,ax,ay,az,gx,gy,gz
0,-0.7339650121835197,0.13085518629658008,0.42271097696631493,-0.431038152342696,-0.2698154697194325,1.2473718796026718
10,-0.7419091204324625,0.12257010180775706,0.4145938485625573,-1.1574070170153516,-0.7293636231215345,-0.07122221901446912
20,-0.7527669535631838,0.1070543428330489,0.4093129702282213,-2.298082279056982,-1.444100567676933,-1.9067358639823837
30,-0.7637506533082304,0.09912095968879465,0.3944414632421379,-0.8966625804665624,-0.1042606840301733,-1.4320516747164076
40,-0.7205069905849536,0.14320695431296843,0.4332386645922563,3.975922436923295,4.314417457642252,3.044700682253083
50,-0.7545108664735557,0.1072308539528683,0.39955627742438976,-0.27753339187858866,-0.4618953746118081,-0.8823071977565282
60,-0.749193254747815,0.1147420213115438,0.40613196078718544,-1.978720429097401,-2.3792464520216234,-1.97414044993223
70,-0.7121080335788081,0.14927647097807223,0.44382729210780664,-0.038880535745840716,0.023511351179585027,0.676259354781094
80,-0.7318317287782399,0.1283451422437755,0.4319543927055387,2.093510058281615,0.7593035898803974,2.048689704273463
90,-0.73524639465439,0.1317158240682166,0.42425638744192573,1.3744572681923688,0.24136359829459836,1.615166925759494
100,-0.7387772974313827,0.1249418288470874,0.41826068933518584,0.47800235744522324,-0.12353088445681054,0.966444129169974
110,-0.7590382662321314,0.10153998429925414,0.39614021016617923,0.2602433988650942,0.13426248827285303,0.932204708263543
120,-0.7420475612846956,0.11970481955695694,0.4117448455846154,0.15732974822148216,0.002003092104221088,0.8156547352090824
130,-0.7266291423575986,0.13686435361236712,0.4283641394699116,-0.3989111090496782,-1.3172549885029878,-0.1051468947809504
140,-0.731728209365144,0.13128200670716775,0.4276443815603505,-0.2562063845288194,-2.4272304659386092,-0.3126560062666133
150,-0.7270381398237582,0.1279442238556128,0.4401476561208967,3.7192058555489798,-2.547211779109219,5.03360292430879
160,-0.7474525875348096,0.11241122277008878,0.4166651308155488,7.3124322416990175,-0.35540212118414644,9.838423713897159
170,-0.7281936014813262,0.11929165205902485,0.43621308195450653,7.133058258780463,0.8593743986011215,10.73892469739585
180,-0.7237913451413567,0.10573470828985088,0.47438019596733433,0.9440661769019176,4.50426939426566,13.521249246483041
190,-0.7032341613144988,0.08790105631695642,0.4731002364163405,1.5415834132270188,-9.400387807544355,0.6405655473832461
200,-0.7059598683712766,0.09255287289364235,0.41254335341096154,5.918168020360948,-41.586588484877716,-29.79780686357875
210,-0.759046104646755,0.20600291691085826,0.4575709527948839,-2.1239001561713646,-39.78278719461406,-27.02378194762969
220,-0.7221362029943581,0.11537981342661317,0.4234838304977454,-60.66756726665813,-77.58619619580472,-38.67332630288586
230,-0.5927974459076517,0.16699653340168968,0.33528227262955396,-46.4207210379642,-67.76363256574763,-32.430096900029355
240,-0.5952885679109278,0.11778578910781896,0.35100542821941927,-18.787555060462854,-47.330886372589,-19.698770929639295
250,-0.6734138977544909,0.06735494422310917,0.4218645878764868,-0.9509559614363788,-41.37258312389574,-17.57664782250041
260,-0.749992335088022,-0.008623916763047404,0.48752621777554234,6.515901449939687,-38.494270524568485,-14.607883592625088
270,-0.7404664863927505,-0.04147446456845637,0.5383623971754466,3.675691981976339,-38.72341218558308,-14.60860114343538
280,-0.6977341105463586,0.0369765497990197,0.5046824172295129,1.1287774967142155,-40.32317575431088,-21.954788120648175
290,-0.673989031894971,0.13084523975555273,0.4098653402892622,-15.852978844222694,-15.650030128420754,-20.938808284257945
300,-0.6853432419587138,0.09804457048150203,0.5102988967514788,-21.329553374434262,-10.508625889840387,-17.48721128827046
310,-0.6920775151043093,0.07234904689975971,0.5287734685340666,-4.541510152575897,-9.723453369064783,-16.996741285320304
320,-0.6469067847161841,0.07114388683060738,0.5349672590830638,2.732788953266459,-6.575117695016147,-14.9914997780752
330,-0.6527360955677278,0.0879834102781523,0.46785500042702155,-8.75580021501629,-4.310661435623205,-16.195209111199183
340,-0.7312137333689466,0.13875648469660012,0.4552528087232891,-22.04392680525683,0.6089762088504633,-13.665741891268318
350,-0.8429172167372911,0.12553965191102381,0.5737014443267371,-19.65143606529522,11.618808354395293,-5.820345021126357
360,-0.6789811923548713,0.05281984370316445,0.6373400074322789,15.276539601025549,51.461980044201596,4.089937635587684
370,-0.9310743966214753,0.054514828168281584,0.37191290153663015,20.31614125510917,94.78362561144893,21.85059349040995
380,-0.8688275826876284,0.07539628576849024,0.1623077847122776,53.456123167006524,143.38299856883245,57.786857888079396
390,-0.6362719804494814,-0.2001451647877419,-0.18479695220223397,83.30050040459884,153.62328987481345,71.8191295529899
400,-0.5682465964470245,-0.14068620115039646,-0.3523015387137699,101.21869057459206,119.03915478690197,48.55049582967085
410,-0.5768936956494972,0.026091455100172287,0.20873438489567916,53.13631688183574,73.71419753564322,26.07608078930348
420,-0.47318107357784656,-0.10145980210328756,1.1704989958910743,-32.87580994895896,54.425902976185604,43.73195822451052
430,-0.7235844456064361,0.13661472909984032,0.43973278107606467,24.188049602818545,4.772496305768161,19.983506132848945
440,-0.7163231330934615,0.1812854902100619,0.42571002226934035,10.83290043618355,4.499006341851822,13.304716071419435
450,-0.7583061620190477,0.17676636370245957,0.39849381310426635,-1.8578891576677363,0.8870398422950758,1.5687305301932295
460,-0.744655816533475,0.17176605649458673,0.40873339687184623,-7.866349848495805,0.056902557591187564,-3.076759816363497
470,-0.7117768446502127,0.17183159882740143,0.4371678720464797,-10.428867910072062,-3.471784717515087,-5.814391456957036
480,-0.7249440661946429,0.14233893475875786,0.4262779310353344,-5.302832505124958,-3.3984626458652056,-2.9561063736788804
490,-0.7048968809886678,0.16354686309684285,0.4513570277854249,-0.9242251564340377,-2.9123943682915123,-0.800434242692995
500,-0.7293357756621053,0.1423540643963464,0.4307222975254138,1.7316614755553128,1.2960980794543189,2.381417626055389
510,-0.7338465658003548,0.15559809744627523,0.41427722643548154,-2.558203187231586,-0.6738438561813482,-3.339493681510792
520,-0.7731181304180172,0.1135068226519427,0.3456517164055998,-4.973046957567939,-1.265447729000082,-5.493884013854357
530,-0.7393472130005245,0.13806697034719004,0.39579193270330115,-3.1919535264686183,-0.08204279962331817,-5.1976145258299695
540,-0.7408599459302285,0.1314037520429583,0.405994522342757,-4.26802035711399,-1.591631537011954,-6.680196721699321
550,-0.755997531096839,0.1162569981424645,0.39020648994894824,-1.6286267492534532,-0.2930247427125705,-4.455501874233923
560,-0.7234611890696047,0.152088060016318,0.4219882521072927,4.005104418019325,2.786526003550696,0.67202205365935
570,-0.7579549053937431,0.12310396890747854,0.3898686315429624,0.6945917745322312,-1.5489799754182054,-0.6621251779843891
580,-0.7585961329144267,0.12325523615582848,0.3919174576274511,3.474999131982221,2.5371407277340876,3.202041833990286
590,-0.7296774054168416,0.1594720000773595,0.42723267207617377,0.31375016739699646,0.33064331479769105,0.2095717287569272
600,-0.7557404874891317,0.12975032660120295,0.38644333538263587,1.2001759394324456,0.36294064139891513,0.3233500595052732
610,-0.7316221034468937,0.1492282232752133,0.4051183697772592,4.505230839642952,1.717867721425716,2.4787243021015692
620,-0.7479257899683454,0.12231253098966555,0.40011147946443004,0.8718923416031612,-3.4791513665296687,-2.638415153605652
630,-0.7454553182531605,0.11796191386481038,0.4114813393968797,5.810455028301993,1.682629443133677,1.7519116132534103
640,-0.7270972756950727,0.14912298327771958,0.4172208076434073,0.8790460872741386,-0.9264682922284051,-1.4429215957001311
650,-0.7425428787366952,0.1376040595676608,0.4003069923373092,1.1597881428208783,1.9484739494534504,0.14314813707694873
660,-0.7340171764374438,0.1571661099657127,0.4118044209641127,-1.0723974570236094,0.5355845560467448,-1.2274099455663119
670,-0.7355418923937258,0.14441731651241263,0.4138896728246202,-4.475856175119116,-2.498622816473968,-3.616024320151748
680,-0.770681120922849,0.10465998248398731,0.37574319959231767,-2.0916197674957218,-0.40385693349047225,-1.0284013319733776
690,-0.7392398194123619,0.13934564187979478,0.4059541790750666,0.6224475275934709,1.893863205834925,1.7448674479456874
700,-0.7143853396977976,0.16918255146408617,0.4339781227762215,0.3994196784601301,1.1713641640729555,1.8573982686477783
710,-0.7493058099682549,0.13668956255129688,0.4008463616609333,-0.45781913792491963,-0.14745251990513608,1.4359035981264228
720,-0.7461303270562466,0.13943523680323008,0.3996462353430195,-2.221461877884672,-1.0470085891302268,-0.06989183312079761
730,-0.719165740522587,0.16348310155822948,0.42520606180593185,2.7113247868084485,2.8827684178987356,3.445240605032049
740,-0.7356847627803674,0.14826475200247682,0.4109601051513641,-0.26827294132480806,-0.6543451832234666,-0.08223092605321569
750,-0.7196563674651287,0.15864870944477877,0.4260590060344715,-1.0329738470753287,-1.0045278269232136,-0.7927966134860023
760,-0.7396632738486478,0.13846311471306086,0.4086196289982019,1.8419247881409646,2.151173507171438,2.1102767036361136
770,-0.7414050944018749,0.14173404085223054,0.4083050732430304,1.0987574794431396,1.4562103530553605,1.2003921064731289
780,-0.7682901303593968,0.11759422137354418,0.37710597308770144,-2.2665480168954746,-1.606355445049888,-2.3069813936667702
790,-0.7360622301313152,0.15002840410833948,0.4093032372821468,-4.564940060275763,-3.3580492112619487,-4.449248737710911
800,-0.7245424015033058,0.15703399737323595,0.42419747682699016,-2.1424993008814917,0.03879161394721631,-1.1633518622602756
810,-0.7628016542156499,0.11753602325405708,0.3855721579162974,-5.572193342068505,-4.449454730411954,-4.981448279835461
820,-0.7443512675973304,0.12808892360935073,0.40423777738438715,0.45243818012877746,0.5475978566364569,0.5501890914698526
830,-0.7229659413074218,0.15175694021974132,0.42427059433967895,1.7232819485939208,1.11495357476134,1.546411063963692
840,-0.7450454260995119,0.14086487909750678,0.4046838260936839,-0.7610705072701259,-1.2013052021037154,-0.9876869751596863
850,-0.7348877060284499,0.15649025387431542,0.4186407960950893,0.4146302833837273,0.6792244273736369,0.16564986407500992
860,-0.745435436815315,0.13575856978250855,0.4010352665338502,2.364959527999516,2.3356099672118846,1.8188644771533573
870,-0.7567772846674644,0.12501700035025903,0.3950735258920452,-0.8400265857682031,-2.2277817771401995,-2.3029751036231936
880,-0.7623456300759901,0.11507791973116954,0.3860726959121858,6.37205802325045,3.4249531733643774,4.378203805487554
890,-0.7235385020025009,0.1490721973714085,0.4265546931528863,1.824381764002859,-0.07376169282795586,0.8632784350503564
900,-0.7544026265214104,0.1226288427094024,0.3969860593387543,1.900093258397065,1.502648485414962,1.9377718688475365
910,-0.7272648295626273,0.15768103230181196,0.4233736628969176,0.06239983560707507,0.912996611358255,0.47205853178672047
920,-0.7493906923320699,0.1376455659208814,0.3989593180333419,-0.5244207086062476,0.9445176538249014,-0.21928903857747217
930,-0.7198186565237848,0.16137947633335803,0.42593872588823084,-5.1750350362434885,-4.184353614892831,-5.135564024172035
940,-0.732965140137152,0.1452230934572728,0.41268358970729885,0.5760387411849097,0.5867270266986253,0.06981617206281943
