time_ms,ax,ay,az,gx,gy,gz
0,-0.7761082606140618,0.5800873054630166,0.6057308648664262,0.16691150572815577,0.5563954781459505,-0.8530209395299613
10,-0.7760217090524292,0.573991186707819,0.6002658605407464,-1.0420881073720816,-0.36710800366296803,-1.2431808405299531
20,-0.7989337742940358,0.5654197518267043,0.5818374048034773,-1.1900575924404118,-2.215602652369796,0.05522336724737653
30,-0.7590067722029827,0.6076027576255839,0.6227922189788054,1.4723051494984136,0.25311157044565036,1.6207728646130939
40,-0.7790876375331423,0.577288588785845,0.606609218618184,0.7220316956557752,-0.06273635936906286,-0.14696041407480798
50,-0.760439470164948,0.585991601697751,0.6209006940436128,0.0030045282529050366,-0.2926469814058169,-1.32825143690638
60,-0.7423467588647295,0.6044227168243298,0.6340393027877748,0.4595803072265817,0.766860831723589,-0.46083477794609395
70,-0.765594907327705,0.5861379092126152,0.6135847850537619,0.9169446292105399,1.7326762726820204,0.8109376018069924
80,-0.7735523555827817,0.5786225895931637,0.6026622055092234,0.5483829696468576,1.097208697571142,0.7265358091121342
90,-0.7730293520920895,0.5719574536663953,0.5980315872802854,1.4683691464586868,1.562817494989581,0.5005625172658767
100,-0.7801774033453144,0.568086061868805,0.5930416738466722,1.412443502778579,0.2436561442540286,-0.7006043478755488
110,-0.7518377947690454,0.5967038274144155,0.6223796241811694,-1.7872261214496823,-3.4871642290449856,-4.0989492692470995
120,-0.7411844738683825,0.6084344214719367,0.6388003307809991,1.425938262716691,0.20926824452131476,0.0774613200235954
130,-0.7794111499339538,0.5761951517719104,0.603134815093576,-3.160526272269078,-3.3243907231343233,-3.6779889709881157
140,-0.7865261112190756,0.571876627405749,0.598218580664335,-1.9499744865647863,-0.16662928806948574,-0.7045393680728178
150,-0.7738533820854182,0.5853686379389982,0.6204032115986665,-3.5232946030306636,0.2698951911666445,-0.13172737586676841
160,-0.7869593352613286,0.5757447067633356,0.616945180158092,-2.026880690081529,2.1192730431208693,4.062764205427161
170,-0.7674507322094543,0.6032215679065427,0.663344513258868,-0.14992779882529855,0.4048112096495086,8.800007417542691
180,-0.8330180687716978,0.6149020838690299,0.7633775693446244,-6.267607659965538,-12.528764273588843,14.881438010925313
190,-0.7881534351355192,0.6073467387875704,0.7687520414934915,-10.150503166624388,-31.41947799249158,17.74051983722642
200,-0.7658321153922003,0.5610742552795467,0.6659674331342247,-9.944463272651232,-38.272922146469455,15.646848731517416
210,-0.7159947447375019,0.6006246896608232,0.7030526699057129,-8.279301162258442,-38.808765997402496,14.324810332898517
220,-0.7076032342873088,0.5756788359579529,0.6495308466149123,4.781119694296699,-34.675744812571956,17.797275882426018
230,-0.6690483490875964,0.642843412916737,0.6704047232539216,9.21523108236588,-30.140357224886703,17.61907057765539
240,-0.6693177354066722,0.644163901124682,0.687832909843964,8.388584840396357,-27.90225105500455,14.78559615726657
250,-0.6670857290398629,0.716342263558734,0.65187239800235,-10.235014721367147,-11.476896119934075,1.7341861564774415
260,-0.7377401494799984,0.65891274810805,0.5994279642474977,-25.360471537010003,-5.691146473694913,-5.741781926094233
270,-0.7449432550223873,0.6182371037744765,0.6853448968091589,-30.164264753397255,-5.786210320805047,-8.92695163829259
280,-0.8007228299901888,0.5372262888752773,0.6419126884979948,-23.524013529171928,-3.569677350184807,-7.77888459178647
290,-0.7849608466871358,0.5682409545085081,0.7303753925923229,-17.25463346279585,-4.347843798746251,-9.847268253265833
300,-0.7525579928886118,0.6084482327986045,0.7605216490364375,-13.099046853400637,-11.001266456833553,-11.391765678967413
310,-0.7599109526764491,0.5999150749434822,0.6240718102257894,-13.68361743403085,-6.679752902165345,-2.9529961355877115
320,-0.7326988413553867,0.6114134457580113,0.6914240644531052,-9.4682381830886,-5.067397714321233,-0.38965273712248233
330,-0.7583625091893809,0.5663663460402104,0.6294964304910858,-7.951471678300376,-4.056696976635808,0.01802422028899233
340,-0.7098436610206482,0.6147775750630644,0.6810271199087206,-9.733611790529611,-3.973010100595291,-2.8342658871554094
350,-0.7156377490370064,0.5952332128518852,0.6079141661053885,-13.358365023751908,-4.2259638995829185,-8.895621642632648
360,-0.7124500036814199,0.5877318459203714,0.5405503714922895,-19.31889247560998,1.0634069949551934,-14.290421196393865
370,-0.7852924778727133,0.5464041195816034,0.6730718140093297,-4.11089956835732,-2.6711319736468617,-15.275248744016151
380,-0.7398301223578856,0.5755399592876393,0.6937416794952647,3.2986863508230293,0.0493954177235616,-6.630374391233223
390,-0.7812902652409537,0.5066970446692264,0.6488077065504865,8.371636878534597,0.7862355765186826,-0.10009749681779145
400,-0.7445767103644335,0.5235052644235025,0.7017330362201509,7.295133020920927,-1.4400687381166355,1.4365436679371577
410,-0.7605088158389208,0.4998567702145014,0.6805961976951641,6.249754236921901,-1.8840686688242767,-0.3804826220066647
420,-0.7391706936435811,0.5147401944894279,0.7603730812447749,8.350592884975987,-1.9294071892172164,-7.813609652696672
430,-0.712237173877451,0.5445893229960651,0.7830200475132792,10.333926710692964,-9.75047045835634,-12.038860102797074
440,-0.6771851256890794,0.6240493573305053,0.7419670788891837,12.877202612358136,-14.770212041607522,-12.477456267974782
450,-0.7843234365790716,0.61392206757332,0.8076468931841279,12.140992701719279,-18.594078555180747,-19.128908565054846
460,-0.7307573044451836,0.5485165243716289,0.7514190319223518,-0.27524734561360764,-13.395167046180282,-18.91928951601334
470,-0.7328901379508017,0.6150772834135202,0.6657650709729178,3.9677170104276107,-11.120271390133919,-10.682590785343207
480,-0.746496981505778,0.6424617213078551,0.7179319215797234,8.571533615110788,-8.451797532634034,-8.723845942466207
490,-0.7547398263136115,0.6039523819372753,0.6432024134515516,5.0389045374597945,-3.985341901212432,-7.82477965087096
500,-0.7677013027947731,0.5726982564124855,0.5991324316978772,1.8376907651312744,-1.3671981784275378,-5.13997230254145
510,-0.7613600928872826,0.550747839443403,0.666002202876982,-6.455751824415637,-3.777418079881771,-6.597372043733747
520,-0.7515471447050045,0.5496672202991666,0.6559305988260445,-6.140568007132324,-7.756343163372503,-9.685526462982871
530,-0.7627857176373695,0.5802820161374019,0.6250045603423512,-9.691248566903955,-4.734931910510426,-11.06417733734596
540,-0.7879785966185561,0.426607135305912,0.5704876274649087,-16.961266906033057,16.392272123164958,-6.012822058272505
550,-0.7938870118143159,0.40893081049556385,0.7202389594199439,-14.15146977499453,32.17723829768465,-8.103475670931665
560,-0.6758968442300756,0.6035113866457875,1.0090246823409763,-24.14229926702711,35.49208359364724,1.923797689181076
570,-0.7176446842186254,0.5091475821152066,0.6929294336289661,-9.152296449343428,31.03249625394075,8.301969248309172
580,-0.7137264123750203,0.5173811853504456,0.58946682258055,0.28772628840167513,38.22037930682791,11.043614518516637
590,-0.7815445937173031,0.6108117626537303,1.54838005584001,-26.843651631348795,31.354207962061935,5.5045800733488415
600,-0.6710482171540064,0.7182491200570712,1.2282491524350412,21.194323809839826,33.570831640648734,9.221363582831504
610,-0.6937009133384576,0.6040981763447365,0.9555130803558627,22.659532765742966,42.104343816933316,19.48815628542136
620,-0.7589230939329966,0.45926599976524957,0.9321751313984757,-15.352221199502253,35.15777434224866,13.712071568275594
630,-0.8351060233279745,0.7918286913130694,0.598347234938366,5.580010573627885,36.23166227336844,18.331597671187964
640,-0.6796691123076429,0.8501821620677424,0.5656426742340097,26.572795991972708,26.428149659107817,10.282795461838685
650,-0.9016137503298519,0.5221447156278726,0.6135917248398562,-2.398774534425981,20.843875088065154,18.43837213678579
660,-0.7035509045998035,0.7228915014944979,0.817040296207961,11.985969504822712,15.07254566710214,9.717233894134614
670,-0.7467295198501362,0.6315268567830552,0.6957945012499906,6.067761143426517,-3.0017317118104305,2.5636047929276793
680,-0.7948939136739547,0.5574278321671478,0.5548490596608093,-0.8950019185346754,2.0539488075037204,1.6216169933706452
690,-0.7518130219250359,0.5579027789526299,0.6571564011922508,1.1792497070166037,3.1466166170705616,0.8102215171523466
700,-0.7731967310062555,0.5576533699066544,0.6544564367963704,1.6544946466180008,7.540241324819435,2.5289564326841374
710,-0.7614850152157306,0.5809006890884388,0.6382526009829927,0.2881083006199381,4.040132235134302,1.80449440050618
720,-0.7946338735610975,0.5787535553875738,0.5789395607220903,-1.4919842946911337,3.7737940529236,3.8259189779285765
730,-0.8093137965903109,0.5835512794355965,0.565040810542838,-4.803388610384152,-0.6911252213197554,-0.7131794369634923
740,-0.7829340150348764,0.6158488696969742,0.5988941404184638,-2.502082411063518,1.0571082621469183,1.587734595568229
750,-0.7660461272239087,0.7009665549041088,0.6003075187620485,-6.402813706433692,-1.957095814369783,9.449142853038229
760,-0.7910659999596974,0.764046969503482,0.5187736116346914,-18.614580276616106,-9.587232422812676,23.995131843579646
770,-0.7857783430161882,0.6594437719528576,0.5088791238478403,-15.415617190746095,-8.372221659349256,21.002069550457207
780,-0.7874034078497955,0.5560923779269482,0.5424039854722286,-3.726361738675224,-1.4135799315440962,9.184302132596347
790,-0.7673585942673281,0.5228965785202233,0.5978655780547902,-2.203990257655743,-2.0534264676338703,1.7550609073895875
800,-0.8078068579834676,0.5230934759763821,0.5721182375411031,-1.718157985155652,-3.7369474930692768,-1.0023104848029294
810,-0.7698712986439826,0.5616591213567649,0.6107374591055676,-0.8202808182712263,-2.116537416351316,2.1124232237616343
820,-0.7788563301362508,0.5237378426514392,0.580724034165782,3.660004606280199,2.6259964295214715,2.9702564172692183
830,-0.7970444696733848,0.5533440930172625,0.5942726782059284,13.44522113471694,7.324629379910711,0.31473955343953874
840,-0.7584861955319905,0.5659204197132086,0.6791611709443723,25.09631450834004,6.5087946530167695,-5.887294156126081
850,-0.787358905397829,0.5777635199587011,0.6904048378091634,45.239833011583386,8.570221907578883,-8.305450427247267
860,-0.7655437535472155,0.5236308984265116,0.6049495748952758,20.870387594999087,5.572597794956179,-4.341604417984453
870,-0.8122777109854125,0.499054826967809,0.5053276163030536,10.429670526794043,3.9828117404846735,-3.7876052277526178
880,-0.7909926698971083,0.6408212228806395,0.5883887894252589,12.454257796786242,4.9016816861730135,0.49199949109930347
890,-0.7991785324425427,0.6017632441754468,0.5891554254528324,1.6772159156684399,0.9350566239465381,-5.595405839785453
900,-0.7636800150393108,0.6048382704875855,0.6020852600163391,-0.10867275646544372,1.1045356853042891,-3.227407773013997
910,-0.775263929476559,0.5893400748307834,0.5962786765486162,-2.7454412441438896,-1.594757875602688,-2.020252988071012
920,-0.8122652436399298,0.558240292064657,0.5731001745736001,-0.5101397090332542,0.3718004901911185,3.0278970666695653
930,-0.8071371812606917,0.5704134377014628,0.5789791082664933,-0.5268674002216729,0.7145538624031404,4.029364911486354
940,-0.7695437701084208,0.6024955936291617,0.6127583825844152,-2.7975011437570476,-1.5008060908449643,0.5769235618323603
950,-0.7714246021100433,0.5910328065164743,0.597442335291734,-3.727611960832371,1.0331826066225904,-3.0307185478303333
960,-0.7582048959638293,0.6076755532747927,0.6194627720864329,1.1659029811039212,6.126847124128075,2.874201561855374
970,-0.7846448795664125,0.5760171005567258,0.5876902056745337,-0.6149089329790534,2.8805562437543717,1.5725390085632995
980,-0.7706532769460498,0.5904207382639637,0.5907083938186954,-0.314904978432911,2.0571647172930554,0.8914102022015963
990,-0.7737961801283869,0.5860069063643953,0.5850600843217192,0.4075757436954198,2.292102196780377,0.6092051487896528
1000,-0.7784617691522462,0.5891630313247403,0.593492184880678,0.34062007136908123,0.5030559394657784,-0.13581020137057548
1010,-0.7707924337655044,0.606634694779393,0.6065871682847779,1.5731552405215052,1.0749505553560164,1.8436177938029683
1020,-0.7854361392110343,0.5735372015460759,0.580020329472781,-0.609261040816062,-0.7652988251235598,1.0088591287479411
1030,-0.7751026415497161,0.5931487506260451,0.605062774342103,-0.24958081153549816,-0.8011238098122471,0.8987709353434338
1040,-0.75673046758821,0.6098346070697256,0.6095690695563007,0.5421304107063478,-0.16020502552259897,1.705894376776077
1050,-0.7473576693547878,0.6206930353293569,0.6148231835538462,-2.0545296071600783,-2.2275422669675695,-2.033682813798779
1060,-0.7893056023431906,0.5743914098479487,0.5684578313076527,-2.073336760040613,-1.2484216041932463,-1.5946215405466218
1070,-0.7679946913061688,0.5969193441144989,0.6126208373929253,-0.4282093144626635,2.315634449079537,2.7850489065841844
1080,-0.7625998245936944,0.6025690364400355,0.6143804390133248,-0.5354927694989865,2.3109611913180896,2.6356153649263208
1090,-0.7743790623809553,0.5893257780483091,0.5954734465173744,-4.0255308063238004,-1.80138416871873,-1.6815968628902087
1100,-0.7755124151133471,0.5895671375823611,0.59075805727674,-3.0471470346230403,-2.012772614670742,-2.278317411766896
1110,-0.7650547056189015,0.5932360498805743,0.5975599714240454,2.4766721932546862,1.9883136500346235,1.7934366453416115
1120,-0.7602387351047397,0.6046231776926919,0.6171054711985953,1.6622648959787754,0.631817100343317,0.8901221967961455
1130,-0.7830367559864833,0.5851664866909742,0.5948113557650808,-3.098784035772622,-4.096591107280325,-3.220647481859904
1140,-0.7730058264168798,0.5961263206504188,0.6054342388125211,0.7824627305902242,-0.2437634056861755,0.46273127200517644
1150,-0.7739631188964596,0.5992714323763991,0.6030612411467372,0.9720881410108002,-0.3533576221644593,0.1770018954612252
1160,-0.7824199365602169,0.5917931574171195,0.5905469258630937,-0.31681849693246344,-1.1865043025060074,-0.47200224498505206
1170,-0.7857879355547183,0.5863810137745016,0.5863454162179068,-3.889419478698965,-4.165912908401411,-3.5647836593925173
1180,-0.797097977981129,0.5800117687957317,0.5818485226684186,-1.7097995361246492,-0.388685930473022,-1.6339052525372617
1190,-0.7752782099880792,0.5977480574362449,0.6020061280767511,-1.230547359447014,0.6916959996374719,-0.7389627859595421
1200,-0.7774375674806608,0.5952955652441259,0.5997464769864856,-2.5989402216048063,-1.182625495270778,-1.1045994786985633
1210,-0.7807241106654628,0.5884292665806713,0.591334555867089,1.7914361061188366,3.3376404082198903,4.194577443614452
1220,-0.7926208194776725,0.5793163759649441,0.5768664380306879,0.36786486550553876,2.067013430873462,3.038472177360095
1230,-0.7672123830358116,0.6042840317724606,0.6057171746435112,0.9672579982091434,2.3724051546603158,2.8881372165704358
1240,-0.7954319554746463,0.5674852178262533,0.5750702830507939,1.695635919624916,2.4761706751749966,1.4475443738672709
1250,-0.7745032239396132,0.590662801311866,0.5963922587632263,2.28367720589237,2.285720607272288,2.4006512985040698
1260,-0.7701857966937952,0.5891793427315123,0.6057392151584188,-2.601925669369422,-3.1243628091015063,-1.697851476756977
1270,-0.7774995189658294,0.5929253086163259,0.6030744684327364,-1.5841199564184256,-2.139417439441251,-0.2654421686616466
1280,-0.7802787775159634,0.5959791468219922,0.604121158942018,0.7107008747927266,1.1719741431969215,2.1540028458899814
1290,-0.779054953203306,0.5886864253817232,0.592323801169214,-2.282472405340296,-1.770844260112298,-1.8768826752796965
1300,-0.7867891353369362,0.5849945139844168,0.5892275114660637,-1.8828375495954628,-1.6764154714140749,-2.381622253452873
