time_ms,ax,ay,az,gx,gy,gz
0,-0.8571265706310164,0.08301296511507672,0.5815350650073968,1.2468838743849802,-1.0988419762546426,0.001887311081260279
10,-0.868619870280989,0.06544106198636872,0.5679890890481312,-0.08779620490780182,-1.7103862998637336,-2.1651781130348304
20,-0.8860027737237538,0.04661184237532431,0.5400619499387457,1.248430847280104,0.8594479639419667,0.3633551378725954
30,-0.8820566809429065,0.05490626830001346,0.5465991154234808,-1.7387302444142234,-1.377126962283925,-2.037042215442285
40,-0.8890029536341286,0.05060829589943857,0.5403284084865656,-1.6556826050514954,-1.6461785285286135,-2.08690949143429
50,-0.8690860463421624,0.06839454812878766,0.5630985536108527,-0.8164923993399165,-0.11881717802347032,-0.24114971582989908
60,-0.8698572503422359,0.059415160519777396,0.5575313948978239,-0.343812194848784,1.6645141113037785,1.2841681670328775
70,-0.8678326641560835,0.06796471909291314,0.5579988203526879,-2.21752230982029,-0.47112755684545393,-0.7860477236300488
80,-0.8740990593503322,0.0612859485879002,0.5525380219361647,-2.7942828370723003,-1.9978358457431713,-1.8149710464116189
90,-0.8740357836708863,0.06293875502055109,0.5528279845115431,0.7437005176354485,1.6301027493233826,1.7332870033966445
100,-0.8651006708214611,0.06790346711602913,0.5652250234344263,-0.32183300778838797,0.8143767298598712,0.07584954217447637
110,-0.8632097062260803,0.07001464036369374,0.5716912121855459,-0.5231572868247737,0.5883821886688807,-0.6558840812336689
120,-0.8540836843660121,0.07901681406222508,0.5768307597027162,-2.5402569780142708,0.036360560110274,-1.5402121611431259
130,-0.8589831838062955,0.06773937060523974,0.5705565477188683,-5.30339595158698,-1.6779811858937972,-3.1081612230856726
140,-0.8786308637198419,0.05067930494849188,0.5568222246994442,0.33467940884800096,2.054223452475411,1.5277111190446768
150,-0.8611920500584462,0.07921454022875221,0.5886072526989109,-0.5984243835531399,0.7905082725520193,1.167111336714035
160,-0.8932651896185821,0.04781127128250649,0.5639919937537319,-4.748278192906417,-2.9843213994528117,1.5165298846052542
170,-0.9230529780987392,0.05149452757072986,0.5544522802146153,10.74738031670743,-2.4310296033493204,10.158109236324224
180,-1.0639219044669035,0.09178794110544435,0.8597200508838392,-4.300313552536861,-27.509390241478954,-0.6090596997414541
190,-0.9746082286797708,-0.1469869604865261,0.8290509918077101,-26.619764726275164,-48.11889801499298,-14.121193755945617
200,-0.8384178799310702,0.026252603023100254,0.6307002894663634,8.422485437755554,-54.28083202367058,-13.442105543762292
210,-0.7958524335559505,0.1429885446845278,0.46684779393624426,-13.478281133386778,-48.298049713680435,-12.575558152640141
220,-0.7162455981921654,0.04200502348229367,0.6862151032129933,-14.578432321396834,-46.8496761316314,0.4204041116653747
230,-0.4954198088674425,0.11480106713937059,0.36463136578485406,-41.209973505583015,-25.288757766132523,11.033398212609738
240,-0.6149309456709741,0.18474306556550174,0.39843006275064935,-40.40367812507945,4.620600770125172,6.809441391422339
250,-0.8070229562023064,0.214924592492602,0.5617884161935303,-39.51372021463873,11.174304072216088,7.231124696458713
260,-0.9120223266607175,0.156403253150909,0.5879765337070089,-45.57241486943603,13.280246698518646,4.530912295742624
270,-0.9753902406303796,-0.0010301982875463977,0.603125922910072,-42.826370202100044,12.839299737075141,0.1016030824848263
280,-1.0194169784987197,-0.05962464872119611,0.556366955000921,-31.744730025077168,10.94347885846774,-0.3355360558115703
290,-0.8954600704545999,-0.07833897714841014,0.5105159721416649,-17.547236197223896,11.663245166156226,-1.1161311769431062
300,-0.8666193013006854,-0.17900797842210558,0.4268434843693341,-12.842093979243732,12.346794657644242,-6.981855425425782
310,-0.8817016786984225,-0.09805565005757728,0.5571710730719545,-7.4788288600977655,13.7898073545288,-2.743036252781192
320,-0.9221486067700065,-0.10116989720503447,0.6351769889288081,-3.0358636098550518,7.607053494411277,-0.38887259587937706
330,-0.9913699265626319,-0.12659340034463987,0.6751352673307373,9.068862878418328,3.766906367606579,1.7608100639527082
340,-0.9675740283295622,-0.07627489664355604,0.6875536058981071,14.186842341013449,-5.378451579199161,-4.723827077959167
350,-0.7748160891074469,0.01570893183021996,0.5321192475433054,-4.551600652947765,-1.8017306499224333,-9.135329015377398
360,-0.8010166825705579,0.10556603022887284,0.5499929650397317,-9.582098133456707,7.053148651726356,-5.1213896121145615
370,-0.876058285326793,0.12468790600706525,0.6057775806063185,-11.673345453682606,12.657782978220853,5.200944862397472
380,-0.965536001263533,0.0017767849145591073,0.6253734106522497,-7.823910831331449,8.585079319213163,8.51705273681193
390,-0.8801799619215026,-0.007186746695807749,0.5950671474011312,-1.0787757062666277,6.0800084039675735,8.107883782923045
400,-0.7877465613278309,-0.023145926030408492,0.4775663594705532,-6.776832663049159,8.81520315598967,6.95862445066733
410,-0.9334569630377133,-0.16962781063471502,0.6331449774462932,-9.268779992903395,2.2461691830747235,5.825552018909027
420,-0.8239259551683519,-0.02528228432606419,0.6382339052596752,15.83593195495418,3.1806596693184916,8.258367615150261
430,-0.829484487504624,-0.09941362562594738,0.6092484616102728,7.7414196399941915,0.30060807012668883,10.013627409904426
440,-0.7459950806111054,-0.12608497200538055,0.7891031143141187,-5.97523700081965,-9.526272575746395,3.1942960813709127
450,-0.7657906604097263,-0.0498124642120029,0.708706268388535,-32.26777606660601,-16.514983144874865,-11.811837548647027
460,-0.7975329810053482,0.1667350089326158,0.6133766115675917,-15.513641949375286,-16.87616610995208,-18.901112105906385
470,-1.0172741605641187,0.2977321516567186,0.3879250696164026,13.060081618100224,-9.387251887682694,-9.420788476841455
480,-0.945835769510872,0.10524588734486018,0.4265275851071464,11.005072158943994,-4.861532937570061,-9.365491260549494
490,-0.9075496163546598,-0.01289347217543011,0.5287638280423732,2.1539776564474726,-1.1495717308216145,-7.6314496121850235
500,-0.8678483029782194,0.03292234096466023,0.5590503918679176,-3.7020489043980715,-4.819340198668148,-10.95773326111005
510,-0.9662358442722916,-0.015076610972513949,0.4382277561363647,-15.752652844123697,-6.5494053003046195,-17.41967967795212
520,-1.1215730277040992,0.010222694361322636,-0.343144303247176,57.97982565570885,35.03695212917251,14.361724197763552
530,-1.1924592282137016,-0.08975778709476255,-0.7421766901019485,86.30736619772404,52.565851786360184,26.636313985533782
540,-0.8541417747565824,-0.05824621363575212,0.9094950345355075,56.23449422859901,32.7699000487704,29.646786832225732
550,-0.7386050115067764,0.17931130605356152,0.513029244655172,94.44667332422317,35.037345195228596,35.77054891202992
560,-0.7660042481841057,-0.28710595149118884,0.5681497151073286,47.899951319180495,26.915902591112406,21.6826736756882
570,-0.8746262991687813,0.08591059216032916,0.3570603700909918,0.4422802497921845,8.171003267057142,2.8070632512720097
580,-0.8648826951455875,0.07349656113473604,0.5723248744798567,6.26222505401926,-1.7331057505368606,-14.207061194716713
590,-0.8704576572728574,0.05777112129859297,0.5902885105012178,19.623911261017636,0.16243211511425487,-9.831362087252957
600,-0.884226005609811,0.029946831153040324,0.5753479087172516,21.55262303743831,-4.17676767649345,-0.888215213416133
610,-0.9319325994626816,0.07367058617189787,0.531177715781326,25.459660826009603,-7.1888307254510515,9.687845073150331
620,-0.92492011646144,0.1461950394190674,0.4505579663424892,-3.6445284053417235,-7.823098062067454,1.9184503821131025
630,-0.9944806006113527,0.1836696069518614,0.21201945911270467,-5.827860531542143,6.935432372330517,4.384895806945741
640,-0.4930955853239944,0.26611169547128966,0.29441892607516706,-23.242135413315534,12.694783350323222,23.526408209343092
650,-0.389107902362938,0.08009361727578723,0.32558721655855166,-60.99117635036682,33.033601030188464,-4.575174857833547
660,-0.8106285994414485,-0.14743749665269584,0.44430252439877305,-74.57804727035398,29.26815015090717,-27.898032963397032
670,-1.0728311985399182,-0.22950034545090173,0.47281001767348957,-47.0078303861721,2.9118029667746805,-34.19496585849071
680,-0.8231960632919579,-0.3321589757792296,0.568566898483755,18.049698448543587,3.6588702481097877,-6.313433490954858
690,-0.8976881075508483,-0.05925549526495928,0.4528914399140776,61.29275903171339,6.7297985180686375,18.998859289835842
700,-0.7012204734533486,-0.17905545952419558,0.2346645084688264,44.09377792546452,0.2346030341544414,2.4729593822098805
710,-0.8088943868142295,0.2080078127245045,0.26052693236001306,42.83731813874093,7.474853115577696,31.764654828354253
720,-0.8795552591499834,0.8565313786924658,0.4806995753043752,50.38332791203102,12.829320445446887,49.04048132158945
730,-0.85085949998077,0.4509414771755249,0.5490715507791225,7.552157373568273,7.859975188911588,7.147183974302237
740,-0.9036446736153867,0.2259340004691482,0.5045750458549217,-24.5288898134633,1.5923070942275581,-34.70466854766067
750,-0.8713968719813402,0.09824484031417638,0.5355678111103414,-36.17083463306731,-6.343576823740454,-36.157829688592386
760,-0.9074552081888348,-0.0050585126231124326,0.5173938402220075,-20.829556220258983,-6.4772304073896105,-19.415741194361857
770,-0.8995786675503212,-0.0009581811366894781,0.5150916839703691,-17.339637379027753,-3.7851104858623583,-5.419250588764359
780,-0.8856620550722561,0.017241132959542205,0.5356888991092127,-0.963816521928025,-0.20991319721063062,7.940678699658733
790,-0.8733125497663836,0.053686082460455246,0.5478827039570411,9.63130989460087,-0.9896312471973003,12.848725714632495
800,-0.8733975194847949,0.0924195767592416,0.5564185739945215,12.083755625676103,1.3696992450019114,12.41765036919689
810,-0.8860447699199003,0.09708288658185361,0.5354068988802976,-3.067561106392569,-0.41723818205975505,-2.1980058189375704
820,-0.8925450579324634,0.07581912666719269,0.5312714921686795,-9.105836454077282,-2.7023003293001144,-5.299544359151279
830,-0.909253028988201,0.029509086822060923,0.5090632796398434,-7.185297710099813,-1.0797959673066246,-0.6495699940968678
840,-0.876611032552718,0.0692963213507373,0.5419821480464889,1.0118602874339022,-0.15229412549254406,4.511387540864808
850,-0.8638213654961668,0.09323704948017049,0.5552340541446044,4.699567335834919,-2.4214404112934553,4.728164606367468
860,-0.8686137367618336,0.09361309391357182,0.5525253944618619,1.3848957275242486,-2.5802208008249017,1.81104022487871
870,-0.9015053502417927,0.06697174223408305,0.520230712018328,0.667740231303253,1.5643390041402705,1.499834295204309
880,-0.8839173791772366,0.08585653154496524,0.535235137433747,-1.7183081165082863,-1.2958943761675341,-1.4773760474247635
890,-0.8975662875377811,0.07397283578098968,0.5212613275609581,0.16425890254767617,1.235952797139024,0.48108010537773105
900,-0.8782771229012151,0.0906453826688851,0.5426029159845387,-3.464667871799091,-1.7907705138279815,-3.347874737134858
910,-0.875669664143943,0.08275578480985568,0.5475260173142048,-5.109842059062807,-3.0616559758206927,-4.3735009040771855
920,-0.8774457334013473,0.08217194803333978,0.54486668948872,0.40240393106693745,0.15591087527576417,1.3251839290465977
930,-0.8712180293208807,0.09727181835396323,0.5495443518976499,1.5109647681283203,0.4600457581811152,1.3434050642583661
940,-0.8577138048978397,0.1154118749777226,0.5621050790238572,-0.29232687880685065,0.3439096728837674,-0.6330550316787209
950,-0.8965901534969235,0.07465343077997297,0.5268840333038802,-5.494703141638477,-2.26269737700312,-4.523990482172043
960,-0.8757681943359624,0.08102845326995466,0.5492100243378867,-6.971769019145075,-1.7442808727537256,-3.637689158666063
970,-0.8571317950860877,0.08281321843606362,0.563658250960565,-5.700954919577946,-2.0259680012494106,-1.4466355054359785
980,-0.8595250504865537,0.09802415729632316,0.5557225181921994,0.10848272623484645,-1.7736539503785984,0.07082447730065233
990,-0.8646046811495701,0.11028635287203267,0.5539726158129952,-1.7450191011205152,0.7160068336808807,-0.963747431868335
1000,-0.8880005885081271,0.07103697209824217,0.538945925228626,-5.837801475295973,0.29953970371468164,-3.3317541560853936
1010,-0.8962505458025057,0.055508019633443255,0.5317959088052505,-1.1198756888206889,3.2228677391608347,0.22167497506401235
1020,-0.9107087212665635,0.04790718471825316,0.5138859189398004,-1.337972700241997,0.6031840504674026,-0.32442113202472167
1030,-0.8952260815716063,0.05745329543936706,0.5207536645057295,-0.7312360908819748,0.19861170886018042,0.9215134431496408
1040,-0.8868119716081466,0.08049275012786877,0.5315553897552246,-2.104248514962059,-1.393330584361356,-0.9036102633246086
1050,-0.8835442397031322,0.07817889193404753,0.5369068278082867,-5.8316406055244245,-2.4073127012144773,-3.661040104608393
1060,-0.8695038112328498,0.0838659414666406,0.5387396875615249,-2.985518963722464,1.6508762299827633,0.24168371730591554
1070,-0.8762986718839351,0.08259938967376419,0.5284055503699006,-3.6046907002794373,0.6588856102355843,0.5021958910523172
1080,-0.8803516374440336,0.09013122274642547,0.5408655957696568,2.8941979597710383,3.25730510936473,4.894866692808568
1090,-0.8940442992653012,0.07719774990942277,0.5345354572612284,-0.1458481795600674,-0.5574344515519073,0.7422050959261512
1100,-0.864560424907497,0.10142040787914286,0.5582036237573549,-0.2639392036199987,0.24571470251390373,0.18086687345069713
1110,-0.883270829020335,0.08469442081641376,0.536832901257811,-1.9410996408752825,-1.3179344260973043,-1.1683139894772896
1120,-0.8861605616745037,0.0802672642845537,0.5420757311237848,-0.3160917459010548,0.10865142111544748,0.1854915371828827
1130,-0.8783985574600052,0.0848107865539691,0.5550132426284891,2.033406593822734,0.9700754654164099,1.2641111699508636
1140,-0.8801563886329609,0.08597106635977038,0.543427259929561,-0.9603203124220809,-1.7926534790189275,-1.4709509426829817
1150,-0.8795067296355743,0.08171571545872214,0.5443096717036165,-2.154251340999989,0.24108404262137284,-0.8045794464730632
1160,-0.8654333767608478,0.09899655723508681,0.5569010794635347,-1.3965988787645474,1.6599481112550079,1.5381791766197481
1170,-0.9035889991568897,0.06775415815918487,0.5247909963446895,-1.3525971858441717,0.04181442076213582,0.26846088126004897
1180,-0.8828358805080047,0.09137101839118647,0.5487840227513703,4.098326140685393,1.4948147728635106,1.0969283822160165
1190,-0.8791840736725508,0.06121859785132563,0.5385777679137433,0.04461309242446571,0.16492926175706538,-1.0496762593223028
1200,-0.8695294199726725,0.07229566452119497,0.5503217502974459,-3.773389307109871,-3.0160880084850015,-3.4110146712955314
1210,-0.9168852412057775,0.037948936773692786,0.5070054234326037,0.8129173627843308,0.7712253840407769,1.6801455966476282
1220,-0.9081832457602576,0.04753476629511298,0.5176133227078409,-2.299851794069587,-0.3591771952463522,-0.1389515088449924
1230,-0.8449997397583698,0.11269127712186693,0.5752357119773684,-2.499981197514519,1.2426078565350323,-0.5339081753902009
1240,-0.8959531486587492,0.06242999776576305,0.5236051703455046,1.2870914460330654,3.1446593708950417,1.1211851386500418
1250,-0.8671777956856155,0.08160177950598174,0.5557145285078601,0.05169937822207604,1.1125076642181713,-0.6116879882881847
1260,-0.8489241525312733,0.1090089319544688,0.5759459116470572,-0.3544676739304983,0.508116129263304,0.08658681617492842
1270,-0.8751049847422738,0.0896693602168866,0.5500981835067722,-0.6402347123300264,-1.1885033187584124,0.006902767206101945
1280,-0.9053432467874685,0.04898898866936219,0.51716079421033,1.8692928774188966,-0.0015710447972367148,0.9799628520253967
1290,-0.8708604685669671,0.07793851325022816,0.5439497668362887,1.4222047361113255,1.0865689720255722,1.073514792577575
1300,-0.8690668321616422,0.0876912136229883,0.5473764913989254,-0.9497118105921938,-0.2454875390221823,-1.1488051615907187
1310,-0.8957501482056615,0.06604470471122939,0.5271691244540673,-0.6623638283758779,0.004771785766472136,-1.1946079263720015
1320,-0.8777126950299999,0.08578515143505669,0.5448503773207077,0.18780546538982018,0.01052285473705794,-0.15769163014340432
1330,-0.8935183161734702,0.07058670855464713,0.5276440493541382,-0.5628828647632858,-0.627140668284299,-0.0684589353051511
1340,-0.8776580223408396,0.07700925089786796,0.5402683701401625,-2.6954131841287396,-1.051544266567622,-1.0712957155988296
1350,-0.8838007902904421,0.06877137099520399,0.536385902729853,-4.825389517367612,-0.9887630929326878,-2.032362397641723
1360,-0.8601292371915971,0.08641370003981048,0.5502955522428749,-1.8526424448337595,1.994440702839714,0.9961522066701911
1370,-0.8562138238676309,0.0818681541766988,0.5574313795905029,-1.724496808386435,0.517570341205754,0.06791096383122508
1380,-0.8764676691115554,0.07590149793118246,0.5391438587274051,-0.3209288684301496,-0.17904578101694307,0.23514350232941628
