time_ms,ax,ay,az,gx,gy,gz
0,-0.6518080734950105,0.3384397400180562,0.327789214223497,-1.4415900486909143,0.38268492145890753,-0.3885141869265195
10,-0.6734169806284721,0.3159917501021728,0.31160175641146654,1.7334009107032888,1.562801195427741,2.7290624621972928
20,-0.6653978557811224,0.32070082970481695,0.3154692574996922,1.2482022062689513,-0.8932828642687456,1.4881300138239648
30,-0.6370247618195581,0.3520655771747495,0.3384548016367173,2.301761481169079,-1.172507726231626,2.4841734309014964
40,-0.6788553186245285,0.3167173111976443,0.3086826684601991,-2.6325419690799605,-2.118633892063111,-2.3669255693439846
50,-0.6811697013196665,0.3102939862049074,0.3098201519139704,-2.8457663749305793,-0.6808222512827801,-2.663478773785176
60,-0.6649598863753964,0.3228969626823194,0.32031007537079326,-0.06825678181701494,0.4887322693830084,-0.6181940230963348
70,-0.6905834314150013,0.2955855189021208,0.2929534094710423,1.610000470406185,-0.513304335830189,-0.13653622353640693
80,-0.6694036449179749,0.3157830023590231,0.3131310809008307,2.6467627485115623,-1.092247204640681,0.4594162430227392
90,-0.6655499508062215,0.32673385057502824,0.31424407522608716,2.8139102740820814,-0.6136519520193657,1.4915878533868387
100,-0.6414507544490247,0.3589023384305997,0.3418524445902534,-0.39146322393722977,-3.03905899424028,-0.8052487010160687
110,-0.6436502511744249,0.34885612256151893,0.3395478613179949,3.0047880201057273,0.5263454251001087,2.447976626165056
120,-0.6453036549420966,0.3540176721169518,0.3373875698395965,5.564381502307652,2.773097359179552,4.612453429383641
130,-0.6552525587829189,0.33691532852603046,0.3315446999602354,4.6268414268840905,2.0218454652127025,3.275317317404375
140,-0.6401218251648393,0.3571010377624789,0.34640596993402045,4.699396897907895,2.2845934864863366,4.17778285416095
150,-0.6701038418671532,0.3281834395186216,0.31886492439142805,0.3427329554953388,0.11071717050079805,2.5831118719225103
160,-0.6468023035698554,0.34851551944743225,0.33618619936149363,2.912165012478393,2.643790782048177,6.929369043898106
170,-0.6692974302707744,0.34356308341824243,0.33827943638645697,4.439883233035452,2.116496134652088,13.002140872089434
180,-0.6774157735540709,0.33875350028537643,0.35259496112978267,3.1895181921005884,-3.2328989934778263,11.672385571578076
190,-0.6105182613730951,0.4040971231853565,0.4452323204963,4.882417018408368,-9.824941156642108,11.176531168254538
200,-0.6296057187229172,0.4786835068047138,0.40416923823190776,3.567189825185694,-17.169203833420276,15.050738580236835
210,-0.6878830924455501,0.4892353879662007,0.3793039526144547,12.723962594474296,-17.495168739508937,32.69626225131138
220,-0.7154336332953979,0.3858128514975624,0.44104145293836394,20.53250557885489,-25.008275025237133,42.84628619911941
230,-0.6840725927418112,0.2915167363677079,0.39362300114222604,23.304347481786216,-24.997351750804,38.59278108767552
240,-0.545756354635095,0.31715958882600476,0.312605692103993,11.24707942470974,-20.017518969084172,12.169487497300176
250,-0.49972910665641873,0.3396616682154433,0.2877499696594074,5.800069877188013,-11.448896080353993,3.1213700371750575
260,-0.5071483078856818,0.3917821169532967,0.3020913462967266,-2.527138343084949,-5.845951081715198,-4.988889595840563
270,-0.5644475049369533,0.3660160637889214,0.2985080596263291,-4.974742919552712,-1.0494534470193142,-6.144942238033295
280,-0.626776463698017,0.37981252179200525,0.3361933618123669,-2.906332559292725,-1.1115774091376989,-3.400330123926283
290,-0.6809930941890936,0.38413342075998386,0.37121102955780166,-1.8067359845634767,-6.9852413670040985,-2.3673273905984056
300,-0.5935889813001686,0.35769974981593866,0.3270882669512844,-5.190635506068711,-5.9770796138179945,-5.03680221994868
310,-0.5993524934979274,0.3624311209578706,0.3317860970331448,-9.318457968815233,-4.312603548055215,-11.29458305339343
320,-0.6437026790796827,0.423067323083391,0.38032681813423713,-8.733782292480047,-3.4971485460765526,-8.404580496851715
330,-0.7137863458410255,0.3713100481228085,0.3255681359078506,-6.076827031020483,-7.408608717759193,-2.401031266348486
340,-0.6505281879363862,0.36422269467387414,0.33305721169304736,-3.3178887258902168,-10.795767064021083,1.4522637416690227
350,-0.6250014169008802,0.3227201197509009,0.3144247304252862,0.05891841182720653,-8.612734602559504,2.712418548069688
360,-0.5972011348926654,0.32698529071501803,0.3553510053297969,0.7963873195415918,-5.6500506645857085,-0.8860489804037428
370,-0.6548693434986154,0.2900471963186918,0.34743957994805275,-1.7803381322663911,-5.354199178462469,-6.562082792577085
380,-0.6148772591262095,0.3598327722369446,0.38628963524214655,-0.8132741498019662,-6.959051247516929,-9.157395729500637
390,-0.6437787622902074,0.39127522833832035,0.37355596521398654,-2.165013630494209,-10.330875594368766,-9.353413237452882
400,-0.6108719434197568,0.42249001421649424,0.3425163690565134,-2.217150825379634,-7.750622729464874,-3.729291816917402
410,-0.5939169421379358,0.4154067344379513,0.32362899525454225,-2.028589269490646,-0.9944868692568287,0.6756131701804977
420,-0.5969091117458077,0.3240026350664952,0.33897670894153664,-7.347196196400459,-0.6053223742488694,-5.348694007631589
430,-0.5641230976480587,0.33894802882695907,0.3200759242657957,-12.178752507047731,6.021489234970189,-17.65661525642021
440,-0.5517274806324077,0.34295849817680435,0.31316504075955326,-17.43237859643855,8.394398123189596,-23.923446582699295
450,-0.6138436547853572,0.3391641248163546,0.313351590817434,-14.948015806681177,15.042542674075651,-24.189753464363875
460,-0.8037321528118424,0.34155151804552075,0.2992784013654367,-2.9634467616190006,6.077211882513287,-15.097574553246613
470,-0.8096914356347902,0.2703357635973894,0.26774840503738445,3.0400607727517244,0.7790007653178148,-7.1307169051650705
480,-0.6649555822693664,0.2990079375084973,0.2801401415353639,-1.1979574423448227,-0.04022167821432099,-14.481344874069492
490,-0.6476123864992623,0.37990751527249816,0.18724326363907925,-17.38316411638778,15.991634853175919,-17.18829533915722
500,-0.6940341298685425,0.26332590149006935,-0.23721390134671222,-47.075254037755485,43.292473486104015,-17.475617094966406
510,-0.7468198513976781,0.2655584998126256,-0.6552051479791785,-19.060841889541702,38.818999351384036,-22.87623912161013
520,-0.6555878651945504,0.45351078144969154,-0.3818938390389693,-17.179733438406604,42.27015172066109,-9.453939646292168
530,-0.5434113005723645,0.3941836132058124,-0.7303801262708269,-70.99745632982524,68.41851036501754,0.6450623435145693
540,-0.6779566245199287,0.5413259009776997,0.04126202913635806,23.797360543517854,27.08294991417824,11.496675909211795
550,-0.656749410489227,-0.07622538353830127,0.3345005347266651,22.712097986164416,27.4990514237689,8.518080611263636
560,-0.6202813657786764,0.2793891000046769,0.4014857346166888,19.75462164140456,-2.2966615206114955,3.9977020331340105
570,-0.5697199823998359,0.3872086299171015,0.5184076211969042,12.94865619950488,-10.955081812969121,-3.3339136175082444
580,-0.6079626588931065,0.36642621303266615,0.43757848372508673,2.3761173465689436,-3.6414043693509077,-7.565501044351487
590,-0.5836913030255184,0.41166711405201084,0.4644052945615135,-10.467557523796556,-1.640612082864411,-12.712319158255541
600,-0.6398610318521246,0.34015301032742706,0.3966613243960625,-17.39524377117582,-1.5573223053738974,-16.0020882057203
610,-0.6894792423527515,0.2765457822253767,0.3075113112973541,-16.01406811531007,4.678932651929511,-13.910822459689431
620,-0.6714174900614598,0.30389479546778553,0.315267280470173,-12.584115688503553,5.861339225970467,-9.39636432410034
630,-0.6606681126226092,0.3209714946000928,0.32654720431711876,-5.696863094482697,1.9085956854516781,-0.5600526431429388
640,-0.6525957195839167,0.3272155502935845,0.3386320724887879,-2.7139899106932823,-0.1978470538860942,3.4213401528744103
650,-0.6824580435487805,0.2886243431414472,0.3080464581134865,2.714726599071746,0.21906830571734132,7.820926293439512
660,-0.641425016501338,0.34298722434162804,0.3472698833886368,3.006586542175466,-1.8656336463525456,8.111097182450173
670,-0.6615767289200817,0.32799758501270604,0.3285391765162562,6.255541691549341,2.111900504173641,12.074301607565726
680,-0.6579181866879078,0.3369842752731935,0.3343080823151961,4.059760304387305,1.1410744811450297,8.653475694896159
690,-0.6696463718089452,0.3232095748732792,0.3252616451684006,-2.1154360423745717,-2.420794943389245,-2.9243586266006925
700,-0.6573363702297591,0.3264185918416526,0.3309570902502561,-6.238613282549755,-4.083815910751049,-6.911603790557406
710,-0.6395116847376382,0.3352798518652557,0.3477117711403723,-2.1304239157326643,-0.027665807987048652,-3.0932651691057584
720,-0.643352496561203,0.3335666987904676,0.3528867964481315,-1.2440252375884169,-1.3489863077265078,-3.187702048972075
730,-0.6750052898296679,0.3071511917130984,0.32119463504182627,-1.8408135575715048,-3.8861511676212017,-3.9305867127652103
740,-0.6463368115171533,0.333584309761756,0.34073113647080955,0.640997312550146,-0.8038460821738994,0.6170436882495127
750,-0.6604758020291209,0.31192982973105376,0.32356702098813944,0.5331958529665913,-1.2709956870495964,1.8907829656537505
760,-0.6447104708008786,0.33042505989609083,0.3428650245507278,3.6325131092493455,0.04953832190921492,4.686959642205162
770,-0.6592187756927208,0.3305897970385157,0.33026594407085447,3.910396125632231,1.8427379522664311,6.046530583754592
780,-0.6566174473273391,0.33422134105992407,0.33786821076515877,2.8155766384913514,0.7389080017543134,4.135825315714043
790,-0.6778853995196065,0.31703234631135274,0.31318330443986975,1.6813839056669484,0.36899057572416005,1.9266916778432752
800,-0.6645120762164888,0.3243509993574482,0.32210654778622816,-1.2619952751656776,-0.26647031295446166,0.024556007925561563
810,-0.6487904216292144,0.3403633900825121,0.3475811688578327,-3.07011712202151,-0.22452474509511233,-0.3341445930596212
820,-0.6639148166068967,0.3249667066097926,0.33379431808670124,4.899346988140524,1.1572699897347074,5.08515097354523
830,-0.6672761023827373,0.319757372978252,0.3251190267916552,4.709682210185636,-0.07046805194277694,4.2337538329140285
840,-0.6415986861521173,0.34517592519870344,0.3458098966632387,2.55333541033191,-0.1285817732559682,3.841428199297503
850,-0.6738231152554542,0.3141667134076817,0.3196800451828848,2.1069580520926183,2.180253108194681,5.621274280351033
860,-0.6409188852516333,0.3508140996175245,0.355213579098582,-2.1164928906804343,-0.8677303584090945,1.004792634205542
870,-0.6470911627373152,0.34090189249163905,0.3405765517540567,-3.033008452275369,-0.06741050227649895,0.3902257335252652
880,-0.649280346798636,0.332888258574092,0.3364376362432183,0.5468858402938821,0.9553516677287879,3.4736742122556556
890,-0.6713955223488562,0.3116587330309271,0.3201096805975182,1.2671757469098806,-3.446973811013986,2.6543673978364675
900,-0.6591677681557525,0.3286373891744825,0.3286239981052448,4.633139523327724,-0.5378772372434157,5.952800270569144
910,-0.6464789252354455,0.34966278303244525,0.3385066409592082,5.370519654470151,-1.461409600141359,3.928747804102528
920,-0.622567323880623,0.37559360445910955,0.36620191170985417,3.0820564938646444,-0.548624199880868,1.8651458054669106
930,-0.6466162290077476,0.3543829581962207,0.3459791749912695,3.1730346548490456,1.8587430622769119,1.09146035832853
940,-0.6642212480173435,0.3203752554438066,0.3218545870211671,-0.8967659266080746,1.297751756541006,-1.5921579678049385
950,-0.6738636630013363,0.3103560056326879,0.30724419746132925,2.2265442229492503,0.4747184835378109,1.7345415496083219
960,-0.644628429085821,0.3485749420783145,0.33632116943524387,0.44227987569660143,-0.16281559636521858,1.0480348442941458
970,-0.6491369183786679,0.34565926213185366,0.34262880759097036,-0.49232768271020577,-1.9356156392244275,-1.1096817494139675
980,-0.6546356455104295,0.34150783313452526,0.3351964338001925,0.9059236002349373,0.2589325696227187,-0.2956125746750442
990,-0.6500661661070332,0.3425356884667689,0.33722382795228917,-2.1644656678870478,-0.9696736408459503,-2.737231212846321
1000,-0.6564489973899906,0.32895765510650465,0.32898653148023715,-2.496037187908854,-0.320552147533427,-2.1684997514628757
1010,-0.6539002485306024,0.3340205379308875,0.33236116699568957,1.5531670769802637,2.2902955530423927,2.165533688339506
1020,-0.6333047747556743,0.359343177856098,0.3560539258481248,0.46742152220911615,-0.2904270981087348,1.1285807375062118
1030,-0.6525973593929759,0.33419736832892005,0.3357819113260244,-1.389188327803935,-1.3758171456543633,-0.1387444713699384
1040,-0.6553113906241,0.3280876584771723,0.33062235239468674,-0.45065943286743426,0.3108819869532313,1.5777651317896437
1050,-0.6358295975940125,0.3468864788800801,0.35276279917595144,1.679610527170223,3.0464512612438996,3.942698349259373
1060,-0.6749025830323473,0.3062281944036006,0.31184112854039436,3.713691384250214,5.242353855908401,5.243293916553698
1070,-0.6518109774583517,0.3442896565384161,0.3337812373979723,1.1322342304017226,1.363051846994345,1.5132216713608266
1080,-0.6336373147221668,0.35158198256921425,0.35128751115484397,-2.2353736786331493,-0.7396514912365708,-1.050477693374912
1090,-0.6703463351208631,0.3113799708227353,0.31844583662629933,-1.298704904519781,0.7244413551581017,1.0752007332594378
1100,-0.669946618755726,0.3134241630037574,0.3164941090837853,-2.8450581667330144,-1.185010394079561,-0.8017390820104596
1110,-0.6295378321148792,0.358423787083053,0.35480538338420503,-2.2410708601005864,-1.34195646052752,-0.7225243496651301
1120,-0.6716907384306898,0.32325215067847696,0.3160556950442697,-1.0777930001037612,-0.5142108336692949,-0.3551593090461499
1130,-0.6112124244860051,0.38507024862097483,0.3771219995766502,-2.3837542291663363,-2.5987699844246035,-3.294313860189054
1140,-0.6437595974699409,0.34338365845905966,0.3441502851831992,-0.8645892215964381,-1.0170070430601106,-1.7315948091812134
1150,-0.6465514507093486,0.33402962262721786,0.3404350268761747,2.433127510950359,2.66908687099062,3.2990936002618505
1160,-0.6752005026569975,0.31101105386559313,0.31303314341970134,0.5855011713387959,0.11741092488430466,2.336237701690186
1170,-0.6422083346655392,0.3496198244287787,0.35064299698186446,2.387904788907788,0.7835721422628101,3.561882538505629
1180,-0.641424554978157,0.3485430747458549,0.3447493703126782,2.807671620386172,0.44021421526023724,2.8919397197837964
1190,-0.6724569044005911,0.3210824999964481,0.31368610250997486,-1.6053526543389363,-1.7892919714254854,-1.200324216405229
1200,-0.6359906675814421,0.3544719387788421,0.35278064386003416,0.5597731114203335,1.1551806468131318,-0.20736566743791895
1210,-0.657630823642957,0.33110980353042835,0.33360159686744867,-2.233757604560088,-0.7288925710484555,-2.172237243712697
1220,-0.6564072593208328,0.33365424320450454,0.3357198139550165,-2.4344513461205928,-2.7387978052197206,-2.5326791721663415
1230,-0.6646535086405545,0.3275347144803469,0.3203117567966767,-2.634360362532563,-2.815351709996202,-1.8706918888704724
1240,-0.6528931443980551,0.33887243023073155,0.33367002216030267,-0.6888644330325039,-0.803343917334732,0.4397517716517639
1250,-0.6456997702218542,0.3477212134658795,0.345470011627516,-2.0764379648013946,-1.5046432676492065,-1.4480284238289707
1260,-0.6505862359664062,0.3397887901247393,0.3403764615211964,-1.836327628955371,-0.3287463921844467,-1.8229445638393857
1270,-0.6377262716610447,0.3493199164225695,0.3487285625418526,-1.3714240359340524,-0.3797261412318484,-0.9659405307728544
1280,-0.6347368457556664,0.3536108894106663,0.35189871065533523,-2.5156086089256995,-2.5164589586933843,-1.2866987380647927
1290,-0.6802859931365449,0.3053099432103864,0.311007501961877,-3.4340184995801337,-3.545143124256328,-1.9328167570724666
1300,-0.6649460858553345,0.3125137314820297,0.32650934006553517,-1.1042352722352744,-0.6298986374001587,0.5151437189770594
1310,-0.6363135785259685,0.3448091793898128,0.35252558414752466,1.016591019973134,2.3134868757952125,2.7190450651803224
1320,-0.6444614978107537,0.34534265560908156,0.34450823041963347,-0.4251971745305348,-0.32135529536736385,-0.2395431030812234
1330,-0.6540562891806396,0.3302971032154527,0.33104099674981646,3.0352430311247174,1.542294768998361,1.7038929778172105
1340,-0.6436600055800401,0.3387599235599823,0.34431174489153316,-1.649931675966498,-0.5050599026885291,-1.859499695464299
