time_ms,ax,ay,az,gx,gy,gz
0,-0.6450007092206406,0.16040691505812318,0.5625408716377969,-0.7858841136319886,-0.8316779328267023,-1.541041630104751
10,-0.6377929199953735,0.17163471179456932,0.5664068093156429,-1.6804727336266136,-0.9808900199774425,-1.574828979735387
20,-0.6361306043395131,0.162800444705481,0.5688638646075846,0.8989473850378225,2.454234730617844,1.4569430281636662
30,-0.6493111055964441,0.15297972072289348,0.5560044000378478,-3.452239233207729,-2.13828531111813,-2.523261533379236
40,-0.6321014800629554,0.17498370753582249,0.5705415979525799,0.18271404500920785,-0.8565327539989209,-0.37392955887481316
50,-0.6423463779542791,0.16740387570741042,0.561194070578544,1.5941637965906614,-0.4000260179030403,-0.22310342516953843
60,-0.6437345202218173,0.16391896641906728,0.557709022478823,0.20659478417728616,-0.995884578505746,-1.4619025441535136
70,-0.6471721486350991,0.15646210244192196,0.5510571496432866,-0.26104044489708483,-0.834077755982277,-1.6441784129917767
80,-0.6273751390426037,0.17085265633888058,0.574023181861055,1.2687606384979406,0.956069355352663,0.17559837947751733
90,-0.646263974485722,0.15394098601264186,0.5604604116108872,0.7109775514963949,0.9525868251053783,0.5263498930666631
100,-0.6607306903370329,0.1460297324893257,0.5488653440033402,0.02077906041412808,0.39182085904591285,0.46752759337480737
110,-0.6220146210106902,0.18337114927763815,0.5860443851946076,-0.09265628944891646,0.4070708076604891,0.5505754590296336
120,-0.6792298590913473,0.12301458569462898,0.525524457002647,1.3724006842459948,2.6798154207248146,2.4312689142390167
130,-0.6468891586787932,0.157816625215287,0.563576334004677,0.532344902533629,0.4298300995664869,0.5934719128496377
140,-0.668566207227335,0.13537410314604234,0.5390935028414204,1.246255342008988,-1.1001222853204626,0.12729886872643065
150,-0.658039186972885,0.1484841488667395,0.5478757324541295,-0.3434547324424596,-2.680526684084789,-1.3569004993236287
160,-0.6614572844762384,0.14152038520545007,0.539553237080004,3.4241907804154184,0.060230720918289515,0.7650207353638753
170,-0.6669125247517648,0.13314115963834192,0.5600175925483746,5.321121654547303,-3.6658329619305086,-2.8854851729966766
180,-0.6750706378695555,0.17617832420729737,0.5627779032504797,-7.686470153760083,-3.860217844686857,-5.274473801506521
190,-0.7028851363081456,0.257056959669175,0.6085512285462932,-13.588265408064158,-4.329892268989051,-0.1983204000139409
200,-0.6981653232289953,0.20322512251884442,0.6106178406339509,-8.289598557917055,-6.964249708258716,10.620379996304116
210,-0.7012921970672558,0.14043317928858087,0.5936409866494577,-0.4976829670051277,-6.681964862800207,18.468464429297427
220,-0.657006164803006,0.13332702629144771,0.6024182284205744,-4.649624771082669,-15.173903934096192,10.56339371842471
230,-0.6000448169094731,0.20794046368742422,0.5883859653380239,-3.8719912712754274,-14.869025581612062,14.42230052479082
240,-0.6039647366095633,0.20878306613230177,0.5344443028291543,-5.525839556168005,-16.033280926985547,17.41153137251226
250,-0.5657750169925576,0.19863902265881497,0.5409913803071087,-5.985909184357531,-11.770648479539572,22.401735558064317
260,-0.519709708747146,0.16567080707852663,0.580941577456016,-13.562939609068149,-12.651857013581408,18.397797977821472
270,-0.5131682025840111,0.1642905685189915,0.5737822458744307,-21.91944710216411,-13.129122082268719,11.81063360604655
280,-0.5392313952129663,0.18694350633115941,0.5051741821712998,-31.91196020033643,-11.467171317971466,6.371443829068429
290,-0.5553492657009333,0.1316556242299397,0.5281117641165322,-39.97803110887728,0.2391689014551927,7.508820790490314
300,-0.6320771806398298,-0.02240025989458063,0.5931664801899081,-54.647451112144395,12.671550206119205,2.388006291805044
310,-0.676397581065303,-0.10400796653544056,0.720275192158878,-57.30120238444463,5.466167605041878,-12.558719218097393
320,-0.8594346658915346,0.04268894067941745,0.9626411678625655,-48.90787294504791,-8.053008020900144,-16.262223182043215
330,-0.754700609227839,0.10420041785072633,0.6154464537950558,-31.691471939369915,-23.25315142534014,-9.894712151858805
340,-0.6492996046843215,-0.007486683987327609,0.4920524531794792,-27.343638740632564,-20.488094801755743,-3.678912084334871
350,-0.6083432989571477,0.18495973382996406,0.6375617020654575,0.9543604217565917,-28.892392053015328,-5.837593060990718
360,-0.5940126434235445,0.046162565992434054,0.8193852822785298,-33.78142449271858,-28.80799079256251,-3.2593346417361513
370,-0.6823716462420639,0.17941176471583112,0.3361235103909413,-19.19187257475924,-26.09673806016755,-6.067490833081684
380,-0.6896409096754017,0.05785948424944786,0.26012306490989917,-12.39103248997527,-26.90809991968319,-15.45570230690068
390,-0.7275627017565468,0.10146771932470225,0.3710977205551578,-19.444954865145252,-14.60248133244146,-6.392887691354522
400,-0.7758815143060809,0.1188825543172376,0.3444264070241319,-20.387915870837812,-20.700574481351897,-11.728632995956328
410,-0.7435722845576699,0.09984408000074574,0.5116580698668125,-12.260903295737286,-23.790163043405595,-21.871777115792504
420,-0.6774379323206937,0.11810866094588027,0.6031594062761501,-5.032942741995268,-14.503514368985053,-14.555721598619742
430,-0.6182143103397479,0.13843707021035223,0.6018947571066717,-7.2440690033687805,-5.135849663122533,-2.6490262197946595
440,-0.5949638444381956,0.11957726236114276,0.6366121762899032,-22.95073617245081,-1.0159207054788242,1.650976889052589
450,-0.6155680751029575,0.06415092642037082,0.608870892940313,-36.43751058603124,-1.6998294796961844,-1.039571070228403
460,-0.579784434109785,0.05413527506475108,0.6498307089459144,-26.4728809441117,3.185002795800799,-2.326720678719377
470,-0.5741546988684152,0.07576023605183575,0.6695230014712314,-17.627091300249294,10.497744069166545,0.19646116684411608
480,-0.7665822748373452,0.060910934514497736,0.4428159713405377,33.979050790972536,25.128784239648457,-5.201821207086383
490,-1.020292649985602,0.3579828140859072,0.1304561520782889,167.4640742449522,75.10364428753181,2.576634612498519
500,-0.7885791560120755,-0.09730933711901014,0.5398029945224174,98.45587047583533,97.44966267519462,18.058313404812033
510,-0.7869407748776428,-0.0959983950089718,-0.16139498277058476,52.90743074162961,80.53669213060746,14.210389269148795
520,-0.5595602415095285,0.6413983078284881,0.34034338514633455,40.22537680935839,82.46941346362438,27.253847080194248
530,-0.7911141010771996,0.2621192773793557,0.13064803621921367,69.36142032047246,52.25875658146619,12.333190632897756
540,-0.6476467023567957,0.285157006606162,0.7116151243276281,67.94962422771165,38.58595169085126,8.259890729685774
550,-0.6310864500326726,0.19157132081454964,0.6549069374615607,29.878854132570048,11.022998476191235,0.8823317190566237
560,-0.6611677586383914,0.16383657128580564,0.5466748841517858,13.21917755945251,2.414873327515209,-1.823748309326504
570,-0.6731230113554921,0.10605181406211502,0.5351770384488254,24.715606420525752,-2.3819506609878704,-8.581839973412452
580,-0.6695897997636335,0.13222487307899417,0.5447130120437746,15.482835068827862,-3.0552373663604477,-5.117635049989499
590,-0.6622056638103049,0.17058404127145815,0.5497637972360081,-0.9188162383921696,-8.28419174419361,-3.5502135790859715
600,-0.6728103590846874,0.16431662473676556,0.5279085531921698,4.901804771265745,-4.36961768230722,3.6577001075267033
610,-0.6719920585425894,0.28199258276592803,0.5170144770593168,5.636412041873784,6.271715370372901,14.489913209356805
620,-0.6789169022484792,0.38794525148190373,0.5464475192814037,2.7353436035153154,16.476417865895257,30.378704089228513
630,-0.6808326882833544,0.26708365730930245,0.5566169795433167,-2.6177776084336113,9.66391902443988,35.66474540176556
640,-0.5618298026727331,0.2635515085355794,0.5141968942662183,-13.54218174362676,5.959278153752191,30.424391258641347
650,-0.5532732999136047,0.2812788833404687,0.438111289540665,-25.353772665255086,9.912261936978762,22.78114902740749
660,-0.5503697206778483,0.31154833064285603,0.3940181050103606,-36.711087850149354,18.02637442404682,22.451275829812005
670,-0.5318799743222816,0.2533370765487102,0.4007015967638352,-40.76297615707055,26.592691559132806,21.008036781737836
680,-0.6863061577314745,-0.21366998249539437,0.5403406645655591,0.4836766876485725,-0.37164308592823886,-30.71207755787008
690,-0.5787748657346877,-0.31872589342435637,0.4392393806077221,3.9057694630899027,-4.111441020814214,-41.742876235047646
700,-0.6742844094444733,-0.11864463028372577,0.4877223335839814,40.16817089170325,-14.35091808063711,-50.98236391825398
710,-0.8207472760901385,0.34569678526595726,0.5148190870029584,71.7769179901718,-9.423860718138927,-56.07903123915573
720,-0.7424080480022227,0.4090194672533283,0.6780578441820615,64.01450748533362,-6.421995876295492,-41.142955764104606
730,-0.46410409411753156,0.19712930618693164,0.5145032953518492,22.00058326769716,-6.983825878967851,-29.474816450967946
740,-0.5248370572915915,0.08247729091543891,0.5490839358015488,10.22543943658477,-2.503525837759295,-7.00072950950692
750,-0.6468452816275614,0.23330896657588762,0.49604258205512924,32.439576627499164,1.675397497124623,6.5638462924261
760,-0.6680916262983536,0.2922845121308708,0.48030914312151946,18.25224215557735,-0.9144882951026727,0.48694531612040737
770,-0.6933313945187225,0.20174392054245294,0.5072090217626766,-4.540879563481506,1.062601434733244,-6.170089888830474
780,-0.6650528796570228,0.20000350323671165,0.5258071825205658,-11.513265861684394,-4.146800462658065,-17.508837798340338
790,-0.6922954959047705,0.14330063644111693,0.4981137567782828,-12.920456054381708,-7.425537335479426,-21.41072064248034
800,-0.7166808056609726,0.1002034794087646,0.47852052816701834,-6.448439253457883,-3.107029521956584,-11.72614218332882
810,-0.6600764817497037,0.14063988845244535,0.5377051477515289,5.447445217457966,1.476665271673026,3.8530113282109477
820,-0.6518634120919036,0.1632752388586775,0.5474738466364241,9.173569581998336,2.736770682490612,7.793852276927799
830,-0.6470232007427655,0.18155129584567906,0.5475941129583625,7.959694360207276,2.0981889225928567,7.964714477962309
840,-0.6686984066453454,0.17340239806717575,0.523905321537432,5.3161243884652984,1.4956923427998556,6.110927567221967
850,-0.6975442742994102,0.1477435919788773,0.4879684768345052,2.7156203459727455,1.1721164029144087,4.583627061831714
860,-0.6953242654780665,0.14212346307155202,0.49974510739136163,2.132121379728181,-0.4456300182979217,1.2177895987360308
870,-0.69583523948254,0.13783293550793727,0.49817228652738654,1.608751591615183,-0.6337362356988795,-1.4392825863257388
880,-0.6710935407309366,0.15882020413354306,0.5184907486993146,-0.21910688852687482,-1.0857080218363169,-1.166526098312229
890,-0.7001554238155057,0.13004737068847852,0.4980159817627753,2.661620635957928,0.4183591489652051,0.5240325986985385
900,-0.6606924853153687,0.16844487742465805,0.5242097514206586,4.920005359630606,0.1113674160691023,0.2674806775598808
910,-0.6697194867831132,0.15646667032386075,0.5209645404428914,4.928724368429031,1.0974850487370036,1.548705136420882
920,-0.6663953831953218,0.16957971872575897,0.530794496690091,3.7205850503570286,1.0352414937482746,2.240786685322595
930,-0.667535988485432,0.17800550369221185,0.5266681759094054,4.457817294836801,0.9646500407616988,3.1420932799290626
940,-0.6769797131369658,0.1712241355695377,0.5189057087854153,7.487802847545019,4.705797259777019,6.767549118291694
950,-0.6580506832999786,0.18980035237108067,0.5400086542301693,-1.5753655782568832,-2.1187078345143204,-1.1840702213604561
960,-0.6567015422798147,0.1833891641075509,0.5367118822730221,-0.7261670918388635,-0.6161771698520437,-0.5354815004815854
970,-0.6581124331711409,0.17603071685192365,0.5345683687025504,1.2007372590156342,1.1321148969753045,0.8246771765567839
980,-0.6992321381729575,0.1411123982630693,0.49536313730952664,0.7642314296633843,1.0941425759398127,0.7248409670568987
990,-0.6736542351347382,0.15773885306124205,0.5190243792860935,-0.6265430775776891,1.1067868542584727,0.2668693890264181
1000,-0.6999911486862608,0.1495444877398152,0.5004956721458997,-2.5903071867521135,-0.15889534560525964,-2.1687903133058244
1010,-0.6654188175522028,0.17995977776473135,0.5224704447716855,-2.520035942538878,-0.9061360087153005,-1.7835600161029543
1020,-0.6931305416850114,0.13199713786902212,0.49704839114664473,-2.2842870390694086,-0.5533113901661106,-1.288071733842037
1030,-0.6879548657245689,0.14345602909418773,0.5060968420842592,-1.5185922462411898,-0.3014983202058431,-0.5910519294150607
1040,-0.6962495200184179,0.14312216004237538,0.49860009305718694,-2.4103594942150135,-1.645076733897985,-2.600561304615973
1050,-0.6771293349311149,0.15687275904748474,0.5206394831443538,1.5031770708944197,2.376615013413663,0.8569381239708356
1060,-0.6687609268457344,0.15712471234303188,0.5235016641588206,0.0887779467881506,0.12073370616801721,-0.42908682447216384
1070,-0.6721346423655186,0.15746131909770142,0.5157055030305588,-0.7492496692272534,-1.883600056735921,-0.8836571117771743
1080,-0.6525021222798598,0.18518775020216932,0.5357410686232345,1.1107674205688454,-0.30143622112159896,0.8320682285532031
1090,-0.6679839813858435,0.17122742907741423,0.529746258397885,1.8669734289264008,0.6970843626117602,1.1581446364480272
1100,-0.6666143214062721,0.1697753905905993,0.5267420905954815,1.4753625881089376,1.0420495498188187,1.0034071069551063
1110,-0.6646632170491225,0.17042859517899112,0.5249175727358985,-0.9553391132384795,-0.36318562760650164,-0.6781081300320195
1120,-0.6963651366314987,0.13849021899693525,0.5002693033303127,2.1500499250478557,2.5194456738126205,2.435048289658667
1130,-0.6597482075746581,0.17380021696318168,0.5345921047794613,-2.6214135904809703,-2.9740211754415875,-2.810392075168739
1140,-0.6686416205713424,0.16313131097191125,0.5208561815176578,-2.080850006877194,-1.5411728824260482,-2.056440006649989
1150,-0.6773398992303999,0.15280804350413973,0.516172324289782,-1.7804978979128503,-0.7339359865623206,-1.6952340685946126
1160,-0.6843034060503823,0.14750848430138983,0.5099892044856443,0.818295602196085,1.9234393387179294,0.9040821241924052
1170,-0.7043274818750516,0.13576448273338138,0.49000957951153884,-1.0044431514430934,-0.37996776913489033,-0.9721652748383444
1180,-0.6711113033834617,0.1704628800865067,0.5227391825065947,-1.2592249394443722,-1.0615718726564316,-1.5907654456199818
1190,-0.6741573512492699,0.15320619509981478,0.5182270147203689,1.6380235153519234,0.22693923458418697,0.9103413719417596
1200,-0.6827263991779189,0.15296154018181554,0.507557268746055,-1.3152748246518149,-1.5786513314835626,-0.9223039203646548
1210,-0.6790763236945547,0.16140574271357686,0.5159181643335424,-1.4404006816357657,-1.0529301604226387,-1.2512703680022748
1220,-0.6764138594135143,0.16210481609751892,0.5202521795743569,0.3186113250332041,1.1305402106895521,0.5791935275019715
1230,-0.6921583399186545,0.14452566873298792,0.5033814238102499,-3.0654586594433075,-1.2292260295995205,-2.3087314570657482
1240,-0.6807297930232071,0.15170279460524563,0.5183369621029983,0.9118405523771675,1.2329696086123276,0.5081252426192335
1250,-0.6662171486016458,0.16385852454310204,0.5282387096751524,2.179363089503078,-0.8997874659099273,0.5909927711556597
1260,-0.6449523384196245,0.19323949384703376,0.5470184613366212,3.8584420613514263,0.49429773952440853,2.4405988603583046
1270,-0.6837743391359671,0.16037954009245894,0.5090062395337243,-0.3155553567767484,-1.858140374607614,-0.9465871050472292
1280,-0.6634883290787926,0.17801954134790077,0.5270485732232536,-0.19156551975053626,-0.5485089749183485,-0.8067608960313807
1290,-0.6528626193741794,0.1841848678279361,0.5377439183013515,-0.695114960011676,-0.5958539654275219,-1.7659608450501676
1300,-0.679315009386363,0.1560495749112943,0.5146026339511527,0.33879947878405176,0.5301457760797217,-0.4644386171176043
1310,-0.6723886941005144,0.16624309136429377,0.5207939719231383,2.276913691194546,1.9301161565536962,1.8464937007296787
1320,-0.6678348434864185,0.17452133521765,0.5237323052523458,-0.15067296469138758,-0.8618974119466698,-0.7860151849667836
1330,-0.6586730040576906,0.1770099783962179,0.5271334138827237,0.1421248403476434,1.3972938458116013,0.9111765308500664
1340,-0.6857865401431618,0.15188867028900593,0.5121668754886911,-1.860336688593299,1.0638378048320003,-0.4986376199485366
1350,-0.662955983406745,0.1767193195577254,0.5308285332385533,-2.8291644628438704,0.4270419596388231,-1.1683089473451589
1360,-0.6429773527960031,0.18019072179840084,0.5385969252627303,-2.876826204983438,-0.5342041810755935,-1.2586944481487186
1370,-0.6772374206761245,0.15598128521846766,0.517027026563743,2.3069818055016276,1.5988027756766776,1.728648135173325
1380,-0.6885581642998063,0.1523253870732065,0.5055089368257009,1.9259379391747906,0.12444907056863885,0.5608593582345212
1390,-0.6755156456290142,0.1696422347153145,0.519986873771205,2.908696293646895,2.3226383946653097,1.9082727864099873
1400,-0.6801362825240608,0.1645581642086804,0.5154481206587692,-2.0692320659640657,-2.390500825185103,-2.861466784857462
1410,-0.672486523166684,0.1687756927182752,0.5228584977602792,-0.4542414837748916,-0.9868104020881743,-0.3659433703856245
1420,-0.6512602034887384,0.1799816245774835,0.5409646634122418,2.2471610894667293,1.934891392093227,3.191030374310671
1430,-0.6833093519074802,0.14298140198249112,0.5087621206283957,1.6666606399658077,0.056083732458724334,1.784157096983774
1440,-0.6691391453155242,0.1677936391113131,0.5212852102110421,2.1398652027376475,0.4648560583655731,1.8282540523353592
1450,-0.7058521382270851,0.1388233645896778,0.4856448960616664,-0.33236571451288555,-0.9719139231987222,-0.6523171018334947
1460,-0.6894625962615651,0.15426018192660798,0.5056440637795552,1.5913034039196725,1.5978284524155608,1.1624290809127686
1470,-0.7007991626493059,0.1437194579599876,0.49269131347457934,-3.7089476557646375,-2.4701865506915364,-3.5441875990803156
1480,-0.6664144864608513,0.17382874880311333,0.5251612031120285,-4.299292120059755,-2.2895997456279003,-3.9777238916693847
1490,-0.6672931576834539,0.16828510471022542,0.5261496794901257,-3.9052681577866153,-3.0044254979114315,-4.358026124319222
1500,-0.7023718832602575,0.1397240811167059,0.4943383989975784,0.487605804217312,0.13980836291035753,-0.18404237455912947
1510,-0.6628485143572568,0.17828906063875571,0.5306180279650148,4.318552768284745,3.253041514725671,3.595859850098188
1520,-0.6761717069161693,0.17295696638639116,0.5208409487674156,-1.9121726907774799,-0.6939364989714492,-2.0909187649184195
1530,-0.7058591387299228,0.1411349347952905,0.48602025683503736,0.6549291687450485,2.344750324316827,-0.02233844855268563
1540,-0.6641037786440046,0.1751857787263839,0.5296690111625222,-2.592683420053314,-0.8790794666638776,-2.6292498136511733
1550,-0.6854636819012343,0.1500001002178612,0.5047935943198802,0.35488436000050183,1.7649366810864537,0.44588833751379475
1560,-0.696276259908949,0.13588944005460774,0.49368372552158546,-0.5332497722592525,-0.3898003273779602,-0.5613506731927969
1570,-0.6841118472570428,0.15341909043551316,0.5056995135013432,3.3028044897657773,2.5443272705133264,3.0871552717480792
1580,-0.6724322502205354,0.16896737903924955,0.5158869926542679,1.5260444409661256,1.1238295647704555,1.4740904122142533
1590,-0.6562650191740295,0.185904086819367,0.5382718265525681,0.6967447579680951,0.8903056324721587,0.6064684394317061
1600,-0.6415985349360542,0.2026457138710826,0.5506373503758859,-1.368405487314015,-1.2289351058841294,-1.9800232993786553
1610,-0.6706980158486474,0.17131843432337526,0.5232257722419826,-2.0475995236875284,-2.4848629686732466,-2.76377702392446
1620,-0.7018082016219779,0.1380539261909131,0.4926160147857535,-1.0252200584315345,-1.51582760285025,-1.2360404110489553
1630,-0.6565895917766466,0.18622605521060054,0.5340250073072912,0.5911067875026277,0.767890383536062,0.6217564976910597
1640,-0.6654059353241302,0.17865721281513072,0.5276131503409394,-0.43870714653870674,0.10014491971519457,-0.4244985042957828
1650,-0.6781103870716033,0.165011913068322,0.5146812732260162,-0.10109676993066125,0.38016098915529506,0.29111964773955046
1660,-0.6593173318569869,0.1841655077605504,0.5315724358587771,-0.534519833741128,0.30289808330551693,0.24449701660652007
1670,-0.6801417838627163,0.15581009047909086,0.5101259691742241,-1.0784205104232896,-0.09404824418660501,0.04364006212412609
1680,-0.654770315066352,0.18121889092105442,0.538337279258513,0.20163584952794933,1.4774108699903483,0.9864404643019907
1690,-0.6617585651131141,0.1685705556088396,0.5309904145305175,-2.4129726800061766,-1.2595899598281355,-1.313737353318505
1700,-0.6849139313665757,0.15471723516709812,0.507521426041521,1.2856110715544626,1.3778111299265223,1.3720072915452994
