time_ms,ax,ay,az,gx,gy,gz
0,-0.8090327747157499,0.24803382440135066,0.21244797234894094,0.4179804948023246,-0.3213580303341296,-0.07128929174875578
10,-0.7854555858064458,0.26484355887913574,0.2329641549452684,-0.30809228242328635,-1.5792038749683779,-0.39819305709617536
20,-0.807048284892844,0.23917384263548705,0.20664596574369917,-0.6824845737547276,-1.3973440881457218,-0.23464432482377995
30,-0.77861846173182,0.27740779296813106,0.23594492314519291,-0.13780170229470168,0.29330532806035653,0.6830955793170286
40,-0.7723693897306554,0.2914729975205185,0.24598276963072208,0.3491770454178089,0.48034294372070585,0.19043638318789502
50,-0.8079632985048674,0.25238562494435296,0.2115786560987642,2.235900346610485,2.6567573255739867,2.4187985613817826
60,-0.7791294146435936,0.283912056565536,0.24250192863752926,-1.5920384118884037,-1.8252284990796062,-1.2864799793413744
70,-0.7471166383920506,0.3133162155289563,0.27250515869863057,2.3658625678649403,0.6947282107527251,2.432343558264957
80,-0.784957684151762,0.2715651198356152,0.23667864385193205,2.7383635709802165,1.1318896380769623,2.008867375166318
90,-0.7866392656082617,0.271087095186969,0.2419742476418998,3.000523860802918,2.1675905496792067,3.2487428084720578
100,-0.7780513071781706,0.27884765401623396,0.23619217734340894,2.90131368011863,1.4422818750654922,3.8266392959241626
110,-0.7922073823987484,0.2595948672667341,0.2252968355910098,1.200280192899664,-0.3671342173100201,2.1034561277994337
120,-0.7922977090503635,0.27440666753123233,0.22781861270755585,1.3223956919315498,0.7316437137859442,1.1222769602356584
130,-0.7773028948410535,0.29023483280193796,0.23875490419654297,-0.46451448405631424,0.5819196115335238,-1.8782712958018757
140,-0.786493973217476,0.27191265146557136,0.23195154460268308,-0.3045793015518948,0.09715128307898921,-1.1556663001151066
150,-0.803769269497195,0.25651485926159123,0.21581023735438343,2.2274566952194026,0.1334885812021792,2.3667186559531164
160,-0.8096634173977305,0.2526010263387258,0.21500963391131017,2.2894859637442795,-0.28351157590874393,1.6346889110133473
170,-0.7935156878643564,0.2775797587307879,0.23224144286700737,3.3541632064899005,0.549281609769945,2.312690947111994
180,-0.8135426410781468,0.26375682781910953,0.21284145769469473,1.608739644499238,-1.9249471988626485,0.7295161754108155
190,-0.8071751691320801,0.27566193373209147,0.2213541006217844,-0.9018575706400238,-3.933753672577209,1.4495690150233744
200,-0.9098163129064707,0.2927303701659089,0.30871053988612274,-8.197609956423854,-40.98164476571171,-16.23510228353057
210,-0.7588012954432015,0.40742477115469106,0.2607157465483915,-10.394918274857526,-40.4011191059541,-19.41591240023765
220,-0.6673601238697578,0.40933186554355444,0.22938101018214196,-22.065765594651992,-31.331615195003153,-13.772148953179835
230,-0.6924806048942856,0.24295024586482725,0.21001197718663017,-21.087982606219715,-20.941364920729097,-5.5554354521777665
240,-0.658763675694955,0.24596217354702374,0.21737503926488438,-22.253142470276885,-15.187061959634107,-4.164377653620551
250,-0.722575193510555,0.26297474875734844,0.24652021484867764,-24.64594223376799,-5.040045001206754,-5.851422323272765
260,-0.7411545246761895,0.30607440044798717,0.2727290499194603,-30.945556236154275,-3.55229655198796,-12.513148569945917
270,-0.736353337806494,0.2689874945787158,0.2353334911459489,-35.411352294572566,-2.1005120256687513,-10.912497068346903
280,-0.6950610750187741,0.31508430836056583,0.21940700839663949,-31.58859608466452,5.2905128959011245,-0.5318147195153051
290,-0.6591568426571403,0.1530755688541295,0.27159473820392716,-31.472795041363057,17.019169425289984,1.020614975367912
300,-0.7371181796819367,0.06738360620261577,0.3115962798026016,-31.464002430400825,18.245855072983513,-18.44530413942597
310,-1.341365678368587,0.3053117112780506,0.671870041933103,-26.327010281818563,-7.445309389878169,-23.030869125274055
320,-0.9277305262939857,0.05677377380353162,0.09591451499157477,-40.587543409878975,-6.708063191637709,-33.97434275769288
330,-0.7309786719330597,0.229520712460838,0.40886697332423977,-23.21935164593255,-12.055770733042474,-25.983838922470447
340,-0.8623955327272484,0.1553136166190841,0.2556693115538659,-31.80788133867159,-14.912677041430042,-31.239761405814974
350,-0.6803701040190171,-0.0233388389574421,0.6307230997024945,3.0612434580326924,-30.08537093454618,-27.090765720060702
360,-0.5703373546583456,-0.02954214494965973,0.8103774728854932,9.730178729621677,-39.74455291279678,-40.85535261243327
370,-0.804487600947903,0.4111522351143878,0.10698882374037527,6.846982515581135,-20.91515078101753,-37.84442932735149
380,-0.9186827166438184,0.39532993708859243,0.07777358595009222,-4.584652409468832,-10.985286226207002,-33.9222426599069
390,-0.913659268813073,0.3422306882486205,0.06484663598403717,-12.232919427332247,-1.4439836459434283,-26.55978861175624
400,-0.7962268748364704,0.17292892056627052,0.30445705738500506,0.060386646316715864,-11.104990656476659,-29.245836803900946
410,-0.8106263207438289,0.09841112776785886,0.2876064522842486,-10.36733996349377,-7.3776959569299265,-29.33316476074081
420,-0.9028232035184657,0.12966157157820557,0.2787606511984546,-9.752624464494026,23.03445442910076,-26.073663796932255
430,-0.800455314467187,0.23619499534765964,0.17939792018948358,-15.579924448405578,46.283190457321126,-21.578088097230168
440,-0.790462257730981,0.05663697483139077,-0.16135604419105087,25.36774438387018,47.98041735703382,2.6788643189423507
450,-0.7702705430993568,0.28702818657589646,0.3135436578217382,13.146106107041822,46.271862005876535,5.102276866243573
460,-0.6793366772255732,0.354912549271833,0.27191190733696974,28.504737885302834,42.53294836859836,3.1108991432045943
470,-0.7217286946923098,0.12468619058070307,0.6058522446888289,11.084540415840571,21.31306468506913,-7.918561048088487
480,-0.7514993358848979,-0.03500783351154721,0.6000021734365174,-0.13413597561167312,9.13255604251562,-15.76049498278017
490,-0.7675392870280363,0.049094901481867126,0.43130682800731523,1.954067577421564,3.3583305421287237,-12.697968001251645
500,-0.8024944538346731,0.056575329973627964,0.31995397966006256,0.5956623241734404,0.6853270297068099,-12.093389509554905
510,-0.8081264410037495,0.07551087813547258,0.3099396247937929,0.5341367712020924,-0.4943469171234749,-12.7246816289516
520,-0.8174906502636916,0.09665529824031771,0.2893779887863853,-1.0669778143503623,-4.798624797008258,-15.074469765224078
530,-0.9257153111585412,0.14540778046369426,0.3350023158902574,-9.638261038615921,-8.537115507477633,-0.02719073541864614
540,-1.0263593078899935,0.2304708997132305,0.35444568060147624,-17.50285108466952,-14.186872316723369,24.01169767477587
550,-0.8426164964373766,0.11010309275709705,0.25965030395763916,-22.47008218947608,-19.717557005410477,29.873997898311124
560,-0.6382194081502,0.09800556143976447,0.1555858960709138,-30.676991369909885,-12.857258230465279,24.381282666831975
570,-0.5168704404361962,0.165186948371922,0.19336241093231524,-35.098194128721836,4.996774135471013,26.427375601360094
580,-0.7142950955974285,-0.04443211759116435,0.33377758818509,-35.441351188924266,25.470126198240663,-8.293842975644473
590,-1.1455066997299728,-0.07717044908669685,0.27780688122948954,-11.894317767708165,0.7548902112878411,-26.46839592786952
600,-0.9235160505283373,-0.40129619944687844,0.3918990734038644,19.64578332098978,-2.778841837463153,-6.7225371329100385
610,-0.7032878093447144,-0.40723949527917525,0.06404947091887717,37.387652695211145,-2.887246311545638,-26.16208547454277
620,-0.7913022385360129,-0.40112715542709765,0.3248103597135479,54.44002063120033,-11.828177728038945,-28.37306708485766
630,-0.8562093911782722,0.16208556969806967,0.025776328161683525,78.56895658966936,-11.457365474911661,-27.570433285600522
640,-0.8043542502792033,0.910818134276913,0.20859410937776743,7.669606722060468,7.251990971216404,33.00200042375887
650,-0.7444558011926304,0.3302767495632611,0.3287092298013594,12.851225143059033,-0.29501330630143907,15.385177182274454
660,-0.8542657100462829,0.25611503351852966,0.2598012298665399,-0.4006210388802296,2.9035356022304093,10.831463669910642
670,-0.8083456037889033,0.08641738551625694,0.2824289432090551,-3.0540004262782103,2.248945393803385,-8.011516430103292
680,-0.8143814801316127,0.06924207737988529,0.2785730782345009,-5.598614281697616,-0.16494541300121568,-17.43597980189188
690,-0.8038594044377319,0.04442420979327476,0.2809440732369784,1.6789797629892536,-2.5602312604845228,-9.889278223296385
700,-0.8266641125455283,0.021842990885613717,0.2652083489350333,5.173998123954115,-1.6187125094284471,-1.4263611695762575
710,-0.8101687368592363,0.031929711296737176,0.2881853286071208,5.459494016131552,0.5802462457026272,2.8860269254102078
720,-0.7720791245929114,0.07935205164084541,0.3225651487713758,1.5908805400351644,-0.645790005879685,2.2451614012981644
730,-0.7812605407396546,0.07946235819973636,0.32106093385227613,1.5182878373002913,3.16572191375153,4.240611661652891
740,-0.8120766026204269,0.045177338809962386,0.2778382500714222,-0.10414013925131421,1.5001598884855323,-0.08624077070605868
750,-0.8016419623712073,0.05471392428721704,0.29031316864208384,-2.1057110141200557,-2.258450281820319,-7.275356314302174
760,-0.8151567157349816,0.03328766766919298,0.27532561329936717,0.3519679224771774,-1.2728238271631036,-3.9120409259156324
770,-0.7899207334583707,0.05985705200043654,0.3057419917111115,1.3398149065417069,-1.3688835538773687,-1.3578150958721797
780,-0.8254298165184477,0.023999408108215443,0.2726773414331784,3.4880881198115734,0.5037496268808267,2.1799862456007615
790,-0.8142798988961675,0.039619320624989546,0.2756955933656559,-0.29650749519590036,-3.41667121958856,-0.9737660420889118
800,-0.8485885630892642,-0.0023087189680946335,0.24255876895775264,-0.9298946284145331,-2.00698272703148,-1.6730330461702665
810,-0.8012383256959779,0.0540781980702777,0.2980137536199517,0.5253845227108778,0.06772542517285851,-0.475128845605722
820,-0.7953442095549479,0.056172410250426894,0.29530978519897627,1.810519137655337,0.7413001864875965,1.095914814723867
830,-0.8108394989767479,0.039113840091201196,0.28008134128573847,3.748071638098523,-0.4969970150443925,2.109990144082651
840,-0.8421388101457543,0.02176486581844389,0.24497665028769447,2.5157564573914977,-0.9691139291027044,2.267256081662456
850,-0.8247753225966924,0.0398233351425484,0.26591775630685155,-1.4510140865834886,-2.5771221401864266,-0.35227324938597704
860,-0.8154690225991014,0.039574116492323216,0.27533389584573653,-5.163719500888503,-3.0515688292858183,-2.0675604125080813
870,-0.8119625693468965,0.04337162405854426,0.2780445505634104,2.9558202895243464,1.732719680923359,4.45605699274947
880,-0.7886154106664761,0.07725602911063031,0.2997652060796691,2.91687784949056,0.18626041444197905,3.1162998949147127
890,-0.785087143116695,0.07855186560788882,0.3046481424720573,3.363248696692035,2.137145869127382,3.437432964268453
900,-0.7954916464746183,0.06992218743637044,0.28947168313346916,-0.101639485521406,-1.1268213172171482,-0.9867199654841927
910,-0.7991687311941524,0.06341104714176962,0.2949228142987594,0.09973435237427442,1.4806510302041211,-0.19110650446337063
920,-0.8078129335042542,0.04697482717693606,0.28836183189401543,-3.125565169600357,-2.9513870256966457,-2.9968056519624815
930,-0.8026362253285205,0.05856494768152089,0.296654277845536,-3.149892498356743,-2.3504236301185357,-1.9726540458808055
940,-0.8158468556295881,0.02753275796809207,0.2773911207357773,-1.1570969008659657,-0.16555830393794885,0.8643576883935142
950,-0.8052312058994985,0.06067971647024023,0.2946101025644171,1.0342814414841706,0.8273739215538994,1.6746083491612265
960,-0.7967050607034654,0.06975364657185201,0.3016645739662367,1.730243266296837,1.1663758065385936,0.7739022882417944
970,-0.8025805015311412,0.05473609275849005,0.29334768362178765,-1.0664118377080418,-0.8793332809836993,-2.9892741934344773
980,-0.7910105063516929,0.06218359575886371,0.30110493873549876,-0.5587057678529292,0.06805765896743876,-0.8933330084964645
990,-0.7980844913807471,0.055442331243907766,0.2934922286204653,-1.724385450484331,-0.5523577947600442,-0.5907388447529492
1000,-0.8164613134695332,0.04451587145694175,0.282125738160587,-1.5288279472562625,-0.20795497998793047,0.11476768892207721
1010,-0.7800912278343105,0.07908767939658722,0.3129297928147067,-0.7006475560134137,0.5272980525839687,0.9486392006441724
1020,-0.8193422414529425,0.050077851290936753,0.28018855800945536,0.5096595420085432,-1.2467497874844193,0.5876608527521603
1030,-0.8006842089701777,0.06507264763136884,0.29447147219851316,1.2568477897285883,-0.6553214410540487,0.3653447797351538
1040,-0.786283731110142,0.061978995230249585,0.2904064097535312,0.9516529497337762,0.05546013804476535,0.5193948595935483
1050,-0.8204390649891808,0.046042629069219625,0.27559122770892824,2.0170386194848184,2.178493448581435,0.5883868597336768
1060,-0.7786164865085501,0.08388053542652904,0.31785404261408073,0.32853758373597863,0.9895844312039465,-1.3899374508531692
1070,-0.8136189649367269,0.04482005802213767,0.2819411256049231,-1.7986184915605037,-0.3059082897770987,-1.95088582125737
1080,-0.8213262622453588,0.03941871923739335,0.2740325141404207,-2.7013262502927753,-0.6386566032105538,-0.4862304737075017
1090,-0.7808948449378181,0.0816052990024676,0.3074950628073851,-2.76168337056359,-2.4182654552462672,-1.1365029954820738
1100,-0.8146618579495917,0.05086103433644907,0.275259519547344,-1.9815632329428055,-1.5100020986850227,-1.1198126361459837
1110,-0.7855549039944199,0.07813744586667293,0.30751656152718754,-1.159450463198109,0.7240922830636425,-0.8300436360545553
1120,-0.796634688601142,0.06360349191643405,0.3008769957486488,0.09717884520014919,1.377501276064155,-0.685265189741705
1130,-0.8144513444695867,0.046911006157162725,0.2846707525110816,-2.6209917594009955,-1.556072802889294,-1.9580482024966614
1140,-0.8048642374716483,0.061395774853253086,0.2928463228752699,-0.8882718145751602,2.261829494653191,1.3923659468425587
1150,-0.7790883704353754,0.0728830944726471,0.31275735275129074,-1.068048709721812,2.2151541899398586,1.5187908781406536
1160,-0.8467514054785575,0.014043672520802415,0.24493127285296484,-0.365073904303226,1.0453526373704076,1.4866570567797965
1170,-0.8117277768764818,0.049918445241164226,0.2816584579014301,-0.8547017961381417,-0.5837027850387845,0.4374559078191649
1180,-0.8083143032355322,0.050637773984273673,0.28571374355358026,0.06741466757055281,0.22419740752457046,1.338381097449204
1190,-0.8219573575785277,0.0390516507037086,0.2715029752139652,-2.3810769600290937,-0.6348022224463366,0.12218919401879025
1200,-0.8132381550150127,0.049751458434586504,0.2766337462497872,-0.33903809257419915,1.2039143913096992,1.647392813288609
1210,-0.802983815670182,0.06309587221434484,0.290720669948495,-1.4132593931952429,-0.25169883348603506,-0.5055572706775152
1220,-0.7900719114921833,0.07304108900497125,0.305899383735616,-2.012191360183414,-0.6920990413467026,-0.9878945366832208
1230,-0.8065250241426659,0.0459788979905731,0.2942837157213725,2.0355309270046207,1.7722610864576822,1.9426421240410845
1240,-0.7924861989282271,0.06761753222445745,0.30155314939443906,0.14469746727009447,-0.7973275870899285,0.6382879049584855
