time_ms,ax,ay,az,gx,gy,gz
0,-0.9500762547926898,-0.06176813406666343,0.32558133270388695,-1.2897558561088767,-1.5498214389269704,-0.90432576019433
10,-0.9233646108413063,-0.03562089495411358,0.3490381069059368,0.02995920328310464,0.950496214964475,0.9787139416625488
20,-0.9426945848547694,-0.054030704468533,0.32938513040069795,-0.9034550565074976,-0.22377760556062154,-0.30492667345510727
30,-0.9310716273334417,-0.04163650291118291,0.3394905175539526,0.2705765648554952,0.731437771782403,0.6754134040646883
40,-0.9131762223808788,-0.02035667521959395,0.35045555777525317,-1.668441633555761,-0.03739689209704,-0.7833668354169744
50,-0.9368082090778502,-0.04988026765766307,0.3308864217815718,-2.5925279489512336,-1.1783548998641495,-1.478741996459084
60,-0.9000335921650567,-0.00988729577471218,0.36873541009173877,-0.6738767660730631,0.1804222704820234,0.517151894546258
70,-0.9200937518743012,-0.03194730302779816,0.34988518022070075,-1.311947373913937,-0.7135286568601452,-0.37200087576635943
80,-0.9362948461752008,-0.04517765384251437,0.3368094794362626,-1.6160775763749515,-1.869681744264091,-1.0343633090660338
90,-0.9367559576581631,-0.048121359687588405,0.3303777604744181,2.3328828755253608,1.8082062584360998,2.8980680319067114
100,-0.9040386546662509,-0.012914496585088812,0.36147586871113685,-0.14743293883074768,-1.399812913596207,-0.23369174001234488
110,-0.9534576834457585,-0.05990272888543101,0.3173766466490882,-0.5861497655372703,-2.8893964261441063,-0.9824020829379462
120,-0.972158671895851,-0.07852337231941112,0.310275310173256,-0.5040606648278674,-3.4838043906178875,-0.6011317565650967
130,-0.9193904988492603,-0.030681562380984392,0.3529045273578327,-0.1314402812550557,-3.5059506888364673,0.004143434721547212
140,-0.9304092105448862,-0.04107444830658601,0.3442391776600147,3.1289229916703056,-0.7459310948946325,3.3270409069163582
150,-0.9578490790471039,-0.055431769981001876,0.33868075578882745,2.9324806737590734,-2.418162266217296,1.703669662715911
160,-1.0067116538511296,-0.06577723633928854,0.3338135550333335,2.6192647216434106,-2.5085732612244342,-0.962490028650745
170,-0.9976169121179943,0.02657647455434806,0.37981984589361933,-1.7276301198372466,-0.978606039958718,-2.721554009410527
180,-1.1053291798963205,0.01361737581318141,0.4270080949841997,-8.93394687892913,-15.647981435659034,-8.021302718003714
190,-1.1206559554031479,-0.0039012371876411623,0.5136815972250067,1.158080833194296,-36.82014836112403,-0.8781735257042037
200,-0.9872960990665615,0.1050184244442596,0.39813326879845273,5.461860328092257,-43.62405259390005,11.497497562789716
210,-0.8909374387172877,0.1727484451993453,0.39754654780489973,0.30862229320056633,-39.888938820450186,32.63350329066133
220,-0.8480621699507594,0.19078223291861582,0.4875654780366203,-7.076619456588384,-27.900674917956426,58.09437912250844
230,-0.8210708392476508,0.134739577864087,0.46177576207307713,-10.305137102248002,-20.69252563748595,56.48600748836553
240,-0.7919835520051675,0.13870871746529667,0.45289373516421916,-16.953056582272488,-13.927166167615317,50.54603469266858
250,-0.7901412305897985,0.14130228213507243,0.46189558113980056,-26.392655364454054,-8.900928987414353,45.615688069186426
260,-0.7674373372581321,0.1579159264423408,0.4890979768159057,-29.1104055896072,-1.2181001651961203,46.887700641992204
270,-0.9035007044936555,-0.04048548264729596,0.48931038120809667,-29.496841079938097,-5.840690207907538,44.46713290589077
280,-0.9491961949485184,-0.22687361567940692,0.4220858496049148,-19.478054527204463,-6.3600507813907665,41.63027304427089
290,-0.7979974850299726,-0.2005748076559365,0.36316283139946537,-16.500163654000193,-4.914786038707852,27.584879887811315
300,-0.7392277798371895,-0.18930950454918485,0.3246671382098607,-19.715685066356468,2.472401071287486,10.8231606171354
310,-0.7740250971548408,-0.1452755248628163,0.29697233803595996,-19.883093082958847,17.023083899490008,-0.2549055430724174
320,-0.8440555559060324,-0.11900848608301849,0.33373672948558425,-24.36029656256095,24.399476332175944,-7.826622134005068
330,-1.0010621477523443,-0.17802866505347587,0.34553232220272295,-21.037292547396888,8.693732715754317,-10.5048224703974
340,-0.9183157744767751,-0.20408727203851776,0.376609018014316,-8.227245899317646,-1.171552988418754,-14.032334421132203
350,-1.0698151340103161,-0.02873325159302832,0.5581150120581362,7.250214561180044,5.166109918383411,-7.029662798226635
360,-0.7494400343495145,-0.23234722415483947,0.4878044753438782,-26.32181910702026,8.711475049313034,-25.62164442714276
370,-0.7716451902141737,-0.20167263445428735,0.32650485718295874,1.3292573678089243,3.6299802783252018,-35.004334285233774
380,-0.8656687932885384,0.0301940544039533,0.24818901500989501,0.6923210358711396,10.7737266993678,-35.57650450636343
390,-1.0814878802728858,0.2859837818699178,0.46429438408702617,22.70948078826162,2.1614116197960778,-31.279287762170473
400,-0.8201357174318133,-0.004109771778980859,0.3528757350595221,33.33562070814552,-6.818880937809282,-24.395484151996996
410,-1.1151987411064954,0.21635693963906463,-0.0011115233189688302,10.857038444208188,-6.688248518240358,-20.478559004592157
420,-0.6915368643792624,-0.034218175096495676,-0.10812543153146123,12.290234590244241,-12.502565393257305,-14.095115195144299
430,-0.8929461095217925,0.11885717577958738,0.3988070900671194,-14.136834518901116,-6.3479974812447555,-5.700593570065476
440,-0.9973684977872973,-0.011161640993519944,0.10783665347140955,-37.92552906982956,-4.964862254010277,-9.573493575799688
450,-0.9897224623229931,-0.05001133467399016,0.05152498534505732,-11.157691780923832,4.75095428296867,-5.782374622332766
460,-0.9971306109842278,0.39114062310397263,0.08291870966795704,24.05167694462515,0.8040926991014614,7.571350880169816
470,-0.9651169090626779,0.2612237428759006,0.18076698239795697,6.474646421749756,0.24274293899842136,-0.511250239355687
480,-0.9967933156667206,0.10606681840861595,0.2601856141501814,7.244553247367577,-4.943153276859771,-4.46192506322728
490,-1.073574717951077,0.022887832385148757,0.9297213685187262,6.416735198302101,8.232910264392508,-2.419475826402079
500,-0.9812662093763663,0.027544802264916138,0.05505098030705078,22.15788855111309,8.387180255294899,3.759399215132211
510,-0.8062602631095322,0.17765327480616266,-0.21597095644489994,10.273232916553852,45.60081953915957,4.692923460629693
520,-1.2963679729105875,-0.02397792307531492,1.1322559665886793,22.421761035208345,33.37782719479636,1.0670422526839956
530,-0.6028160962508483,-0.3611078822278622,-0.3916635528766944,3.399181517712477,55.24996105469356,-3.7559531105899255
540,-1.5125186489757636,0.185340118526033,1.7827840191649522,-14.469963777979771,43.345177518145626,3.2004257682962316
550,-1.506663211404699,-0.1084547487129904,1.3001565550266454,8.618386759325904,32.285731575180286,5.024822184082885
560,-1.3087612110733995,-0.30696507371045756,0.4291285796528952,34.007216757316016,1.5936016533942736,11.879222850575575
570,-1.0647058381928036,-0.0887405731922463,0.6027981042712196,11.502695337055801,14.641661388326105,1.8820214706778562
580,-0.7725739687422372,-0.1039679967336702,-0.09639506032861081,6.82367994854776,23.57185717875238,2.383197622841729
590,-0.642810377709195,0.3656668044700859,0.3519483029950452,25.13724198704647,4.809721807389256,9.996280103149324
600,-0.9197761924685536,-0.005912911913843771,0.5348571452242113,25.80970536229896,3.9291510944633634,14.121721636532426
610,-1.1381192406827834,-0.0750843840372571,-0.2845422310816745,63.819615760846695,-12.519789691893937,23.027533935455082
620,-0.9655079634758452,0.06167691793943861,0.7604827570058268,25.38017275468252,-9.456952563094111,9.179849634291083
630,-0.901734943273554,0.08866162764882968,0.4135097828952187,5.989671390000985,-12.121417897293227,-2.727183820260506
640,-0.9370251080509612,0.03378269058846985,0.36886888274624774,2.1259943273010533,-1.6804921609813943,-0.8809896986204837
650,-0.9963518186787845,0.025359261338333862,0.39022911640797164,-0.49087344945877387,6.300097373807551,-1.8610932477190563
660,-1.0690251472364858,0.11926670897758887,0.49270092580702224,-14.345189319144435,1.1687862941962675,-9.352776439339003
670,-1.3133466197836785,0.22025411873056652,0.4933079393115733,-9.878187924450813,-27.27821681583391,-7.748152572149415
680,-1.0895654839616706,0.2947028387733738,0.3606102135866917,-14.761797425602339,-43.62759204308684,7.30233679025049
690,-0.7920472124413722,0.26443278507300505,0.1983742670138073,-27.731779458328678,-6.092930416778044,25.168939553134937
700,-0.8373088903008606,0.27462937618444655,0.27534093105535595,-43.784262356539756,-0.21651584117531675,23.971754637726562
710,-0.7782898814228424,0.1428055309842697,0.2262469255347225,-46.94872992437684,11.542277958177674,27.62455823233169
720,-0.6931356311851722,0.049588228071128934,0.2403413166880829,-46.907164010305316,24.22992817774103,24.104506305681433
730,-0.7537646765247275,-0.056670301032712866,0.15439934068837988,-44.89858855209845,37.31577709378007,17.19067535954876
740,-0.8005053419815492,-0.2411499628119973,0.22495574729646978,-21.52082929592595,32.897637458126425,2.0147232678933915
750,-0.9114925007317997,-0.4586302786125376,0.21520285422148086,-5.267098321851627,11.35458075373961,-24.109902707372665
760,-0.9595259904356817,-0.18897078565543204,0.3008253238252813,-3.85079627242345,15.20965398737528,-26.42362584916518
770,-1.0107937218761258,-0.3348685016599919,0.5153205669622266,3.7863080421230144,12.796398444165678,-31.224058825558167
780,-0.9846148999784372,-0.789279455979478,0.392323381697778,12.159041016597998,11.138592110059182,-47.555159132567326
790,-0.9104503641337187,-0.7050848369309795,0.0811909735843384,46.19411352615236,17.469871624224194,-58.686352623631066
800,-0.7967073314581022,-0.0964624885025077,0.4021658581900052,76.54114309400202,5.271852077184987,-33.66725836994215
810,-0.6603238748153758,0.2935447037637743,0.8060895176063488,72.69502219936592,-3.690240822882915,-7.572600584560735
820,-0.531813502677922,-0.2662323954271456,0.48673396731025365,43.39116467934773,1.5384421834683868,-4.372106588048479
830,-0.8834204132941377,0.09610523675121702,0.25976543591768136,43.16920615864147,1.0362966291299633,18.36911860349958
840,-0.9624919716056661,0.632146077598832,0.07468184600365366,38.55107411925246,11.942876848619187,28.367139452402444
850,-0.9123416547329346,0.4250943860909229,0.1274049185696956,11.872311673289381,14.451345147729,16.482073828731945
860,-0.9614532848539942,0.11896256024323018,0.2467931153145642,-9.986133177900369,11.858374060224492,-12.86037959489428
870,-0.9544471585394589,-0.014034607218066661,0.2610033772249418,-11.925139625447295,10.635081194856475,-23.950512927955497
880,-0.960614470308651,-0.03039683642217844,0.26779816125137323,-8.386750223151985,5.056840263820147,-20.411862961694894
890,-0.9378095960602345,-0.019874471305769192,0.2738135094776092,-5.19380207315419,1.368631484999086,-12.704355300416433
900,-0.9556730355959011,-0.03447419544263151,0.24552180964553422,2.1570172479162624,3.111443952784455,0.9579681414103195
910,-0.9515495372788997,-0.023555925542701465,0.25562221291658166,5.298644682389818,-0.45873310256372446,7.904489344629795
920,-0.9481762750262029,0.002402757136422083,0.27064170311759084,8.413724642742556,-5.9318614676014905,10.447147138262116
930,-0.9316221149288719,0.04068037215571293,0.29665672000157683,4.0965033610071595,-8.72687960833376,5.7047217558775065
940,-0.925190947131585,0.03301828698719442,0.29912181571467394,2.123578288678829,-5.075600104081965,2.9816717234934322
950,-0.9649142832047103,-0.007975749383262126,0.2637695161354604,-1.078865025867279,-3.644483050873912,-0.9715741848735829
960,-0.9778385993413359,-0.00824313437193016,0.2506912990447355,-0.8665228290363913,-0.7548568515450542,-2.1385520794952755
970,-0.9286981543011349,0.0322113822956692,0.2999717128768286,0.5850612278281544,-0.39085427881592305,-3.701648071881798
980,-0.9504472792906626,-0.0037869065789602465,0.2681354511809188,-0.5362697554327087,-5.765011756173527,-10.439557955193887
990,-0.9401069320926422,0.00897273713444125,0.2869231198228308,3.764404839982992,-2.370771047351207,-7.069487176576935
1000,-0.9507273735434748,-0.01292527685226867,0.2800574852357294,2.0618928025534764,-1.968313871583022,-5.581528738953093
1010,-0.9217358132981252,0.01262722582253881,0.2947334787171015,-1.4845802735864515,-3.903769663830742,-5.9903826167697405
1020,-0.927249310083617,0.013298053756614522,0.30139200121552095,-1.8166865485475734,-4.1475983806883,-3.2457436323220756
1030,-0.945173213286185,-0.010272174132877152,0.2855500258544405,0.8417465000438344,-4.979610540086839,-0.6865839681312818
1040,-0.94869345886281,-0.004021641388608812,0.28384236270875907,2.6471792960528373,-4.33267018509299,2.2990027798514743
1050,-0.9490735197982868,-0.011457162935350408,0.2730895748829289,4.514005578607278,-1.0392837518751188,5.548764479222951
1060,-0.974225353980304,-0.030229160570602556,0.26294523332709346,3.3176222654319676,-1.999806349833394,4.11021818765778
1070,-0.9397936850540093,0.00616592684169533,0.2933741585090657,6.928772507990262,0.28594664764000877,6.7098487140031615
1080,-0.9529932233671898,0.00044027841332064995,0.28295636808283064,1.2027915308526889,-3.3306027696026086,1.5370129703565714
1090,-0.9169968541010537,0.041459744396157454,0.3273393286924698,1.0202133849223354,-0.6891153280906386,1.6758141080903939
1100,-0.9561186796095242,-0.009214826139630672,0.2794136750723735,-4.053049446713683,-0.1900324530255657,-3.4320193367463725
1110,-0.9474550098057851,-0.0008455461547903245,0.284086495503899,-2.1059440770257236,1.5019802298820473,-2.43768347630587
1120,-0.9412668122921753,0.005821602281176234,0.2906652004634147,-2.25508672255437,1.607904953734516,-2.54453532030801
1130,-0.9363578932231139,0.012705408261672425,0.29804068951959634,-2.866809118608929,0.8487616048207782,-2.574945018266744
1140,-0.9681163897966661,-0.027025396874113206,0.26736468363677723,-1.9263391980009597,0.5553378218576694,-1.9601978097401402
1150,-0.9241403278714919,0.01773778254341906,0.31480210174901324,-2.3950462144933025,-1.1609505657751653,-1.6047980306884788
1160,-0.9669593946722341,-0.015613411324903032,0.2659336238287711,4.563090826565841,2.058862203591661,6.584372778344863
1170,-0.9807665728861918,-0.03066417117316874,0.24937474117568847,2.7604112026039807,-1.6766468400982937,2.934955507797797
1180,-0.967966463747564,-0.010448401062792058,0.26766825756156215,1.5982410132089446,-2.3649119510196783,0.7062417043167646
1190,-0.9391894356588494,0.019389771489558737,0.3062818499159948,-0.5997116950516682,-3.051226515476337,-2.070370091670809
1200,-0.9630591749124212,-0.013110391166459038,0.2832500145950109,-5.425583807215414,-4.316040380558423,-5.784553765311612
1210,-0.9396904997052085,0.005904816431495872,0.2970805191632891,2.6970255156114553,3.995478442212685,2.3817629242369156
1220,-0.9745475274851003,-0.022539459942336002,0.26170764952650943,2.0952425254097284,1.014888568357421,0.6995774068381055
1230,-0.9877984827170457,-0.03836801894134872,0.24919539466371313,1.9221819092496712,0.5975860179792671,0.5019825349582822
1240,-0.9364802092942184,0.009704261624154446,0.30287863148247535,1.5241370098811409,0.9370727912252541,1.0137990460722952
1250,-0.9396084886208079,0.004036751233254404,0.29741742244899927,0.8092518805069714,0.6391011521673935,1.6458602667941937
1260,-1.007639700935342,-0.06201678623931652,0.223549791825314,0.21502694909707687,-0.23065188154980454,1.7368162958606057
1270,-0.9240484671302603,0.023696974858278732,0.3127898250866752,1.0221713745165084,-0.6371246035160885,1.1384200128408761
1280,-0.9595834023084379,-0.010328966260976801,0.2862117217735766,0.12839807862334696,-2.554486755727212,-1.9999668103979684
1290,-0.9628898166339359,-0.012994238251683228,0.2756399685419745,1.7469342819828997,-0.7309939053336671,-0.6637142472315237
1300,-0.9436328425397925,0.002785013316055523,0.2956898696570774,1.2211906450075753,-0.9531785717615862,-1.4569488120397587
1310,-0.9358288404785894,0.012396106162290763,0.30288207648815113,1.3672482575741274,-0.47900257905818266,-1.328301101738397
1320,-0.9494523393343697,-0.0002616745966946927,0.27874537397892124,1.8981679266359646,1.2039740514883928,0.15405637390147897
1330,-0.9096521860383704,0.03437107449019524,0.32130453092552724,-1.0421927178811947,0.8677371468279629,-1.173916861694523
1340,-0.9477125508433878,-0.001066965516012409,0.2967978980748764,-0.583010405314505,2.660595515988605,0.6282757538450978
1350,-0.9469302955483256,0.002307655171481516,0.2936881885590819,0.6526602290696495,2.780131499974318,1.250900404070177
1360,-0.9714520016705779,-0.024365868882116098,0.25810876181398895,0.021201122812031237,0.5765902976528232,-0.26593199620643393
1370,-0.9382486559112456,0.007580732785766837,0.29050001751334936,-0.5690505937497996,-0.7450860405721285,-0.901699452758559
1380,-0.9295596735910414,0.016217574515003264,0.30306944104000555,-1.0892565773214073,-0.6468484067982914,-0.9223105891264533
1390,-0.9626944733987378,-0.007753889599309118,0.2683433394539454,-0.6121925282977496,0.5360982917904806,0.49916386929690315
1400,-0.9398792526361871,0.01672662820950228,0.28930620212363284,-1.1251455526312795,-1.1932831815168883,-1.0233024526168286
1410,-0.9612800461747338,-0.010741792215457744,0.2669801902308391,-0.8351621389244526,-2.9893651505904,-2.805506614416037
1420,-0.94827314720273,-0.0002747846860772533,0.2851684075749121,3.751009036196076,0.9490620378715751,1.5929103570859604
1430,-0.9579836339416872,-0.010927613628778586,0.2820778254685032,0.8532858464172233,-2.705462450526806,-1.54072168611683
1440,-0.9466958353912696,-0.0013289688830484766,0.28576448484327627,4.340077267233336,1.2858276725501268,2.4009800609457748
1450,-0.9442880328876263,0.0022606060008381677,0.2857906539032251,0.11292702982638758,-2.178748664921345,-2.7234708979754827
1460,-0.9131604119369234,0.03730127344535986,0.32283426042958535,-1.408199049400792,-2.9591573043134742,-4.413998921251776
1470,-0.970575954046598,-0.019420938711710682,0.2688971038962476,-2.2907830666566893,-3.243132872926338,-4.296208140903434
1480,-0.9464279203233354,-0.004870675543824972,0.28425347515931726,0.15805960629810673,-0.5430807362598751,-1.5579525032016581
1490,-0.9230992247093672,0.01797153711160523,0.30852428227883805,1.1638867538467281,2.2460436587005668,1.7338988756324771
1500,-0.9521963932633652,-0.005293664295264771,0.28095371015068965,-2.907015683462081,-2.0819172181163266,-1.639246499498272
1510,-0.9488769639321301,-0.0005488677732206168,0.2898480354280927,0.535583292174213,-0.5094425229713719,-0.1986194743474227
1520,-0.9302133195794625,0.024312692313096455,0.3126967295570241,-0.5394076807678214,-2.041585672771644,-1.7088020088347347
1530,-0.969306033877459,-0.017821177625103417,0.27273483310890806,0.5229390673543429,-1.3283316210516296,-0.7396315195466514
1540,-0.9306215488791204,0.021392235911426853,0.31178088001016685,-0.04779247574499301,-2.4789697172525877,-1.885408427420242
1550,-0.9417488199489075,0.0027267252827885653,0.2915841096472276,3.82285682168055,1.50611459981195,2.5572288295990413
1560,-0.9453726995340173,-0.006325365455332051,0.2953436787674197,3.805941142310002,2.2298068865231278,3.898701640966233
1570,-0.9386147942790493,0.004980200597306568,0.2875513887419524,-0.44956183995231713,-1.251594555206938,1.6619066165138887
