time_ms,ax,ay,az,gx,gy,gz
0,-0.6591788655615203,0.04957387231666438,0.6529521592945261,3.97925372579483,2.253116590499724,2.6562051306544525
10,-0.6458414573497754,0.05735884156916629,0.6491607053218964,0.6310685098952116,0.6295554192392313,0.6920055957076131
20,-0.642061462485426,0.07790379018716553,0.6793554581739797,2.680111212489992,2.7797042742027096,1.9121109158707008
30,-0.6455720762515476,0.07498471179578675,0.6824747889520958,0.44701076712701115,-0.49623316900563574,-0.03512142265702356
40,-0.6495602884211398,0.06705103535301475,0.6831814609873463,3.342678803940198,1.0309353555258522,2.452958986136727
50,-0.6706565988509636,0.026706293984771635,0.6611211429580264,0.6801273394000444,-1.4541108222646848,-0.24621962707736766
60,-0.6651620977543252,0.02482720524053225,0.6566484617121364,1.247532334975818,0.32719618822158547,0.8037163948123979
70,-0.6357772897451638,0.07750046955347081,0.6752341491097495,0.7856189007250506,0.03692597404679365,0.4349650165717326
80,-0.6406210835649758,0.07696579875481298,0.6682724449766693,2.4794705531157115,1.1689702477956347,2.3869787313370283
90,-0.6787452852003284,0.04857431724656877,0.6649420940097764,-0.3077194215923089,-0.011320436414794854,-1.4253528029216356
100,-0.6662472714867719,0.053631906015364966,0.6824697867364952,-2.834895637051259,-3.0599322126551565,-3.0917795511823187
110,-0.6638994523383942,0.04606427446030101,0.6608051349404999,1.9598239965295252,-0.5032739630953679,-0.15792932711898616
120,-0.6080568182493737,0.10054739428263716,0.6906802803937128,1.1674541922007016,-1.4435187922219104,-0.7722691187999449
130,-0.6261307502252031,0.08447047656215344,0.6860040532593071,0.3696489376424046,-1.0095965928742723,-0.9745970706892743
140,-0.6424067073355663,0.06363707746730152,0.6726876980610895,-1.8742712703603726,-1.6387139209475023,-2.552465818763888
150,-0.6120720319870119,0.08549957746167747,0.7013417483964859,1.4085425834684209,1.9006645201098644,1.033295115931303
160,-0.6266180065075094,0.07765227284576022,0.6986191394240455,-0.9346181155581528,-2.0415345545032406,-1.6712965299871163
170,-0.640367911601873,0.0911663656184002,0.6868581958539923,-0.019646066101947746,-2.9938747684895413,-1.2347315409180257
180,-0.6536875254337707,0.08194167533086152,0.6813362350341241,3.353651295738075,-0.8736892093829154,2.070663954526347
190,-0.659630079416997,0.07100065033107579,0.6791525936082277,3.4136327142766127,-2.377901583996699,1.5634059183699662
200,-0.6546957031926883,0.07756664397928764,0.6636158685153173,1.4915761793947817,-2.5906811621161987,2.9226676591001874
210,-0.6695205628611265,0.07799006993216616,0.676468634543321,2.855321650559034,-1.7264287562273117,5.546192620562403
220,-0.7338149281507441,0.2860046150712135,0.6449626786416854,1.6590220330820475,-0.319447512919387,18.220899412253413
230,-0.8457501747777041,0.34763772581286284,0.561730967411842,8.010604328145186,2.9984416807569847,31.983001432543777
240,-0.8268251598838123,0.24936327047703982,0.5202411082551842,21.43379778735509,8.888882180669711,46.16443394018066
250,-0.6473168180285184,0.19761313808049713,0.6515931638136288,35.12962006295693,14.670724861400581,57.97325100861839
260,-0.5242898123178924,0.20501139761186535,0.8067123876649295,40.90524440036019,15.614973979998435,56.795851700424585
270,-0.623933765652381,0.07876516863169372,0.57466406878004,37.93322261514779,14.445093202807943,43.865300972218215
280,-0.6736650112649084,0.20271244250036105,0.6611700985589556,45.27702966416212,13.554042603498628,38.63131243813201
290,-0.488777694572539,0.17339511348869685,0.5732944748365589,-15.396014316158276,14.381107088849461,25.701636945361944
300,-0.41726450172885493,0.18708216778099762,0.5327238169543085,-24.173731336037907,23.286824739430063,23.234390247562278
310,-0.36573829590970963,0.08396930846497962,0.3265144606910792,-28.25608832809499,33.37597126164935,21.051391929049135
320,-0.41959687444041055,-0.00499692720345141,0.3362830666830672,-26.276633595950866,47.02896478180675,17.80563923118497
330,-0.48286687090249913,-0.04307787312800763,0.5217628195557636,-36.31102513581417,58.41776080491194,13.19850977827206
340,-0.6920590028304716,-0.13156287416881743,0.8213709914948065,-61.82606909188864,53.08352320704845,-6.800378023110183
350,-0.8788319984582086,-0.14236841176385961,0.9932137033931274,-56.6066647665386,28.16272516783422,-22.1998454792406
360,-0.6255349394666155,0.0904052983341158,0.6943494340062756,-0.9558434124468749,-6.524953012675574,-2.8662757400167074
370,-0.5750351441697827,0.06042401750068459,0.7718336496847498,3.7672700095217833,-7.988488386911083,2.964969179930547
380,-0.6111848601405434,-0.012965796720901944,0.7840361613836979,-3.859785184841381,-12.633711671454595,4.051449779986221
390,-0.6319068298879982,-0.08017994935080312,0.5579844651638296,-10.501120627300146,-17.53980773248508,1.8668698822607865
400,-0.6564153115336566,-0.07383394983406256,0.7651369312493501,15.637638233911382,-9.74288650890546,8.697209956867022
410,-0.7956846882131731,0.08178239516939181,0.5377752255601957,18.203415469898477,-17.947573828136623,-0.839415782098432
420,-0.7946649651094857,0.11017637850089783,0.5136971512476436,15.241632526520139,-16.380261154763673,-13.347390695550894
430,-0.8127685871740983,0.2454572806845564,0.4300625149022683,15.062557719487383,-3.616106127912041,-14.233499885573476
440,-0.9125115257126698,0.29993313498820934,0.2248334905286248,8.174748366576232,1.911741906255999,-9.31345154867757
450,-0.6917452966837452,0.13231251178952225,0.5851481359804682,5.1155834921339665,3.3733056566053916,-2.812524422737254
460,-0.6874373865270802,0.18303041072875983,0.614014947622433,11.749846182387039,0.5212321083169873,-1.7375440741076398
470,-0.6999119319295081,0.11811379555033348,0.5831622484851655,8.599954809052226,-8.58156242936293,-6.6439394577602755
480,-0.6940577149946616,0.15732052055488177,0.613755112723098,-0.22465245742813145,-10.782498407637636,-10.021576286057794
490,-0.7749051169657301,0.033854271178182974,0.623190330377987,5.183239794547015,13.229607187870618,0.6784432196906816
500,-0.883583481930851,0.24077411550478084,0.5716077963094793,12.210614948735557,17.344577105409424,8.797408524272107
510,-0.7341548752310834,0.2022706456479323,0.6510063348585031,14.43347343057471,9.827790897454273,5.579831137374164
520,-0.6562986259740958,0.11825989545773485,0.6215378281382843,24.347615040808,10.82242570009163,7.684740268314441
530,-0.6915339097378701,0.1333843892664398,0.5642759156211266,25.39062285491751,15.764858457431494,12.294577111637928
540,-0.613152305370841,0.049865955330915715,0.780997281096238,5.107761450768415,10.595171038833126,6.779767354307592
550,-0.4160071593991396,0.007059513581972578,1.1842566297997477,11.955680245172413,13.085763790923853,13.187438510031473
560,-0.40280711637645067,0.17017252182932313,0.9500295431901007,27.79800765946837,2.9925336886251133,7.959517042085315
570,-0.36168097884659267,0.23566226388740127,1.0058776473198243,21.182088454663145,-3.9606102472252753,-0.619535296687732
580,-0.5109698256025544,0.18568478999821042,0.7666002814819542,9.608922953915526,-6.628473629653092,-0.855478935822089
590,-0.6170789295170368,0.2115988510498594,0.6449579996857954,4.807900887845619,-7.524214664712321,-3.0690935163085706
600,-0.6287694635714673,0.1844926144670448,0.6715254989465869,-3.5406746594930327,-7.179259123401399,-5.7267424034762575
610,-0.6115789534229589,0.1821012329874906,0.7055774006790891,-7.426435585121454,-3.5345914615651104,-8.598886749590871
620,-0.6639343103050891,0.15511891285650256,0.6520765348016426,1.5914437362937588,1.9767875169135465,-0.3485346619679084
630,-0.7223758193092057,0.12030178613669738,0.6046879763563031,10.60289187520372,0.6697164380698462,10.60041562170126
640,-0.6967702263162073,0.1639463143171042,0.6366379705145488,15.602850331224271,0.594964263178398,13.945839436134372
650,-0.7035875300392054,0.1712132367642315,0.6053087287404552,21.212461097298963,1.9353998736822207,13.865289370202545
660,-0.6883456092836636,0.21796453208173952,0.5982086051617931,8.343448881182468,0.7881960138833451,6.757533005459124
670,-0.6604758661879938,0.23022150816486908,0.6160953876422155,-1.6625113399091052,-0.7375214827577924,-1.4816578064256838
680,-0.651643335118907,0.24329053672286127,0.6346047782991163,-1.3541474396336646,2.459436704308574,-1.007301903193423
690,-0.6609478234515809,0.2061849773378401,0.5879912548361103,-9.765431288512142,3.2911548999182028,2.5519813957352047
700,-0.6353717052012114,0.22342653018569433,0.5810318959269569,-13.985693261845817,4.784006909170612,6.695807633094739
710,-0.6491088373053037,0.19979331170777487,0.6215914306469714,-21.16480820685231,2.8157168263320425,6.170801334265217
720,-0.632454480163429,0.223191910200175,0.6804668941963221,-23.990470140969638,4.931191333180686,11.160878209866087
730,-0.619344890003719,0.24494057269125635,0.6282054212372058,-18.23808278855499,5.151953165560511,15.90123527278189
740,-0.6947450660098956,0.04969485536911543,0.5613907474797326,-9.469271310195396,-2.1547294051418766,8.879581412236798
750,-0.7457074298895638,-0.04000072412900524,0.6043799650867944,-14.93971679583709,-1.6597937953902708,-0.714321234028332
760,-0.716377889170753,-0.06277598071985055,0.5955029528838789,25.46266518277985,-4.768772724544688,-14.82110455129274
770,-0.6310743300345598,-0.04511973146932317,0.4514182542079918,36.403492978206984,-8.000464644560504,-38.492704640043684
780,-0.81927327046164,1.2692550207630544,0.6908212002057713,90.40326306183368,-3.3260834768490417,-20.535163545274735
790,-0.7626504256896233,0.8883323298480392,0.7010913788153409,47.8772334082927,-0.8305236603829222,-11.578769606792433
800,-0.7274011756631986,0.12431317654382534,0.5624033518344567,16.550589234348934,3.076770526254322,-8.948265687160566
810,-0.7081404727066889,0.10282059856820848,0.5555383177077965,15.844959126170238,2.4822467865903777,-4.682558416775161
820,-0.6883784840363388,0.2251362101358093,0.5779191640290101,4.86262140525861,4.654522548615375,3.4548064048410656
830,-0.6798989045113961,0.19120631563458806,0.6207842662282289,-6.29868354646272,0.702230400699824,-7.001304104287759
840,-0.6982194571174656,0.15782758826416193,0.5998479098214756,-4.1517923097104905,-1.4104201835056769,-6.318674154506784
850,-0.6915713597491954,0.15753216700300768,0.6098705667551227,2.0648746101666826,-0.7646713261878682,-1.3390822289974
860,-0.6983823770679279,0.16043310903586194,0.6044536933663325,6.242682591214219,0.7436304514395519,3.169916380880901
870,-0.6775833401396844,0.18614378034040574,0.6205672130812976,1.4029816661641301,-3.834701593139494,-0.2576467225443193
880,-0.6588021967861825,0.20289444354396652,0.6344573985947428,3.4162681657252705,0.6775687407158039,4.756990735731705
890,-0.6775256877985314,0.19191073442026096,0.6166274345879329,0.20112789245626272,-1.0670887984046036,1.9547938748557299
900,-0.7017552659777027,0.17543444216675036,0.5958888523541411,-1.3517279049836806,-1.8326394118853788,-1.1470584978954763
910,-0.6732634257095297,0.20207636633849438,0.624277986213241,0.5066884261426292,1.3597281880762018,-0.1803771202383726
920,-0.6623345794247387,0.21107843005609236,0.632072647109431,-0.8312773859358373,1.2917195949859472,-1.516297040296583
930,-0.6809118114390272,0.1952018222779785,0.6144862915519377,-2.9913336995386435,-0.6575387995897347,-4.090559941831127
940,-0.7034996596987454,0.15586260741907526,0.5916543153628517,-0.6212726887039575,0.6804907921089345,-2.0104066529484115
950,-0.688454843399797,0.16818854910977077,0.6130246833627059,-0.17674481062544095,-0.6917352935378182,-1.9121954122007128
960,-0.6618113487776526,0.1954953032565449,0.6363185822589695,2.031440746320764,2.036117346738801,2.3765366663645056
970,-0.6565938813018833,0.19632295847502906,0.6352019795048742,-1.0819489363062558,-0.9581488698280691,0.3277907225173333
980,-0.687792721332718,0.16882625034368673,0.6066416682402389,0.4630508138516152,-0.022168552356242044,1.2883725673715682
990,-0.6809609269218724,0.18396347357109671,0.6195586688754186,3.548878861837328,2.054987691768,3.0898847224920756
1000,-0.6851080193504089,0.18706727220228092,0.6128094739052066,4.312669569684131,2.411679629619693,2.767050195348146
1010,-0.6779140702424606,0.19943935706618363,0.6145067466718394,0.6689385443417522,0.03830167109693294,-1.0664073843513786
1020,-0.6786789967629363,0.19753152286481637,0.6211030439511195,-3.416802459808568,-1.3743363091867469,-3.938117851321434
1030,-0.6816038193396166,0.17725896839625388,0.6077360702852588,-4.8239023276392965,-1.2981281811822252,-3.9586693503163186
1040,-0.6463874494426687,0.2015597625970752,0.6487059032926973,-0.7036071334323042,1.8784562151452142,0.6103587534760968
1050,-0.6725242860117535,0.18000470516795405,0.6237748330867482,-4.537849039772313,-2.598897011829638,-2.650890427610685
1060,-0.6798490569366941,0.17775657515839327,0.6146008606547269,0.7829107272095086,1.7696065353241979,2.3401846969692364
1070,-0.697161047639435,0.16459838572773516,0.6007459357459126,1.3621872030258046,1.699005468158456,2.6601367417704935
1080,-0.670933611350203,0.19233537006106635,0.6282252022544136,0.7530564210849757,1.3565038749997957,2.2557773741591984
1090,-0.6569740913529593,0.2069749555425368,0.6427134950905514,-0.833490759947205,-0.08415847359234219,0.25447812848892526
1100,-0.6707719991887017,0.19502640286111864,0.6294714545288445,1.2399839124248233,1.951508032846248,1.7247166443183533
1110,-0.6683462209164357,0.19837977276529165,0.6272649223515794,-0.8332583804175724,0.6435460082371559,0.2581767219014146
1120,-0.6853359562309159,0.17825500714356884,0.6068173138131191,-0.5611493409194803,0.7466068774213492,0.22170781953453922
1130,-0.6522449252160742,0.21410520650311252,0.6421348474558619,1.1498053977135059,1.1999846693943974,1.5599880219310258
1140,-0.6842900578979458,0.17089383596643698,0.6069459998180091,1.3866624051167635,2.2672608926858637,3.5767733967535427
1150,-0.6850642230039253,0.16646290113362958,0.6065897826267492,-4.344113958059085,-0.0037328170433630348,0.8067037300618392
1160,-0.6923969788883942,0.17740232273817053,0.5977368245145488,-0.8483706918614393,2.8502560030860087,3.5569511269676357
1170,-0.6858116134559795,0.19206600103274088,0.6073378583931367,-1.6179759492758952,1.0435269525938016,1.1475300995283502
1180,-0.6626553090084767,0.2095019645935155,0.6323360407162192,-2.8705237875805207,-1.1318312528295533,-1.4280888946807173
1190,-0.685409019692698,0.18077797880545327,0.6089532551402247,-0.93596108486666,-0.02052224897169619,-0.5881813574072912
1200,-0.6699289378584884,0.1941291870409851,0.6257893312921553,-1.0865858974744609,-0.3855333864395446,-1.8018999673401837
1210,-0.6784049337247638,0.18220042931892286,0.6178156795564542,-1.3497149176675851,-1.2203963368772874,-3.212697868050091
1220,-0.6929776445870242,0.1776286043568835,0.6025361171656303,-0.6918612041758396,0.026465070850426126,-2.009120321768769
1230,-0.6992496293103284,0.16423252939905952,0.6007715826237453,0.4012680198840667,0.43643552843993405,-0.03527983307216431
1240,-0.6640457853432453,0.19739553052067008,0.6291942926205142,1.707265418489764,1.620807621737864,2.015685586391847
1250,-0.6762553147220646,0.1852764535984872,0.6188320709429969,1.603165860916966,0.6385298677903438,1.8407736129055705
1260,-0.6608972971440528,0.20309008600879236,0.6380423478981853,0.8586445582166065,0.2627240349456157,1.3584984477982658
1270,-0.6704797239168074,0.19820500620829232,0.6293031742312308,1.085953231560558,1.366667637341211,1.6922891069374655
1280,-0.6330634885404856,0.23314513492242164,0.660003919249744,-0.14492539237116975,1.4355097647070105,0.9822339010241182
1290,-0.6933923062204578,0.1642923356656043,0.5949064747491154,-2.4193449702552208,-0.7004942757557779,-1.1054625094131896
1300,-0.6579646851095688,0.19828269206248067,0.6378467001301757,2.2107938104552147,1.034314862493505,1.7428593575555875
1310,-0.6741139444820814,0.17718551090873277,0.6108306782328199,1.4097731280678345,0.0020992963285504374,1.1682225377104447
1320,-0.6860377206829341,0.17211034019043972,0.6013932846077162,2.2650065561296335,0.7853807739778234,2.4488128583114803
1330,-0.6863223050450803,0.17910677943089817,0.6037184739768515,-0.0495584243037519,-1.3470649181532615,-0.45977374484479516
1340,-0.6830373207990947,0.19124399223862354,0.6118523505856265,-0.5394631896853819,-0.030710930175613493,-0.0836041381644535
1350,-0.6573976933543599,0.21689216940273326,0.6341067431125034,-3.819076289359901,-1.4208793506680784,-2.7700713966138863
1360,-0.6776109293595042,0.1910876400849533,0.6135620081740041,-3.536435678263043,-1.6036793770604933,-3.2392074569294875
1370,-0.6773521880401349,0.18677754912817085,0.6177848378648769,-1.0738568465498408,-0.055311439719056665,-1.410643389151538
1380,-0.6709161137577113,0.18773915296484295,0.6236771879921793,-0.3138137235639127,0.825502342459846,-0.3194322096044415
1390,-0.6794583954137386,0.17335310902682105,0.6105049641461309,-3.9097882340711942,-2.3777224835826543,-3.294562375652661
1400,-0.6863228608171155,0.17428756530484252,0.6094481774089076,-1.6120218325582514,0.4985574915673672,-0.49216147871435256
1410,-0.6843857607721222,0.17583175002457727,0.6097561667488567,1.2343623795705803,1.5183078743731615,0.39773871372218095
1420,-0.6781924615755854,0.1899126474939541,0.6218037066886767,2.6015600151694516,1.8137889774253222,0.9741230494561004
1430,-0.6831333952421351,0.17402707001313966,0.6116652036364414,-1.8154381046884782,-1.879458599578697,-2.1623426649806
1440,-0.6863958211027987,0.16824341395755693,0.607241157238229,1.3344416933191536,1.2536197840967411,1.1766479150917328
1450,-0.6679722755113973,0.19288839035647776,0.6260858239820895,0.7157345392653,-0.2739653648656777,-0.3643329607676179
1460,-0.7063702015225073,0.1568532315484642,0.5821295481386773,2.6154682541273617,1.8517306662280537,1.8894981569920635
1470,-0.6715356892318297,0.18981016096742712,0.6174318911984032,0.7769537217853362,0.9679292583577284,1.0909749238703057
1480,-0.6644462586424259,0.19767742148653183,0.6331880745212781,-1.6062148049229013,-1.01084861631044,-1.0937490622363066
1490,-0.6753105433486819,0.18868020407193956,0.6175130432606255,0.16559849328819543,1.0013059072016992,0.7575612912057195
1500,-0.672533892010002,0.19088719936852644,0.6219563134057292,0.2613021406230554,-0.14566306078827668,-0.32482260343640257
1510,-0.6543278860536587,0.20701350293729587,0.6398048361277785,-2.3736814800745245,-1.5565196662139011,-2.6124642652738963
1520,-0.687532609455587,0.1675231046475806,0.6031274254192959,-1.221592387650697,0.8998889518853223,-0.3291199244162424
1530,-0.6746931267716519,0.17955502417038519,0.6223444488035207,-3.647750285010111,0.3974375250689511,-1.1812419435628208
1540,-0.7080497671885441,0.14952458234087543,0.5928335206273637,-2.7671857519958576,0.06904117711605434,-1.3931851653790182
1550,-0.6812054482100315,0.17991126283136805,0.6171685073988454,-1.7224645776769025,-1.0574625192567002,-1.643976829178464
1560,-0.7106610640529337,0.15294999489509858,0.5862705018358636,-0.8540893978085708,-0.8523994334326227,-0.9233542625354563
1570,-0.6963798143081714,0.16606800237423203,0.6021100431108434,0.6818353933563461,1.3164570891910938,1.0797343778157933
1580,-0.672880701750665,0.18480094310313777,0.6245655722466303,1.535061777967825,2.546039922408122,2.457422091942475
1590,-0.6941804252252711,0.16598418708141702,0.6031882822280049,-2.0870025426632854,-0.8475255068941241,-0.5520124413653926
1600,-0.66696302964799,0.19605625082676345,0.6314932938296015,-2.6527738197122352,-0.7224230623443738,-0.03683934283631762
