time_ms,ax,ay,az,gx,gy,gz
0,-0.5111431194112982,0.043744264755419954,0.6123023597615235,-1.940808125370725,2.520670198561397,2.1644487699161816
10,-0.5375739642511486,0.010971525460710705,0.5839341287992144,-5.142360702387284,-1.9205617251351446,-3.078015916129009
20,-0.5023326390989573,0.04702359095835919,0.6119083717992203,2.945685735264597,3.7350020111089206,3.3506084918479075
30,-0.5251665119110537,0.01973231394001428,0.5966820195708991,0.6824582523760008,-0.4318953521537739,-1.4294083633136982
40,-0.5040544757962028,0.04408076898149788,0.6164537454353624,-2.1896813865490046,-2.001828896358008,-3.0191668927351882
50,-0.5391849240237173,0.013638088990347477,0.580606030646334,-0.6736218902189537,-0.034824200190430005,-0.7112853737256206
60,-0.5331487404462405,0.016071038402965802,0.5864936491196869,-2.372446341185283,-0.26026515507173265,-0.5116887374082354
70,-0.52380633416635,0.01805172151245859,0.6035088285835496,-1.3162241871809308,-0.18229388918623668,0.2854166379051918
80,-0.5421658479548863,0.0026748752576355103,0.574645361075158,0.6885510117727675,0.8755514173514087,0.8867110117773994
90,-0.5472639976236419,-0.004301367222509423,0.5754773279177158,-0.7485854377764884,-0.6127889839805017,-0.5979240954998375
100,-0.5306290813781569,0.023761554451600116,0.587567470326947,-2.3490166255597895,-0.5500683574484688,-0.3310802340277089
110,-0.5064390945480864,0.03503936945079163,0.607567736971934,-1.4789284217196714,1.509290514795092,1.538534432951115
120,-0.5141933055948459,0.03445725866621823,0.6079939663446217,-3.6829630340126256,-0.7622881716030064,-0.8335971951633552
130,-0.560910792605813,-0.014587592616219426,0.5618855596435423,-0.6261016771163624,1.0175540815926143,0.6246485752715949
140,-0.5399634032700611,0.007882363210472127,0.5813960257721961,-2.5695697411911977,-2.0636756896719777,-2.8079182452397964
150,-0.5121277172072305,0.03603939025006336,0.609005728059878,-0.6679930246525545,0.5713268813659468,-0.14499581076941992
160,-0.5096211661642662,0.03440057497335334,0.6129905937997967,-3.784406663630578,-2.9280744081817773,-3.140814088622895
170,-0.5145444074976261,0.024624681406949414,0.6081795116304631,3.4349505821452793,2.386758365524241,2.5824632164834362
180,-0.5331218738396692,0.0109379157267796,0.5896895377796856,2.731427888517315,-0.41934492142304897,-0.3451042261102928
190,-0.5452009905981878,0.025857423721843478,0.6342560962702457,18.91902650283119,1.6978859957158587,1.9627414129774368
200,-0.5971738270694543,0.08766547932805224,0.6783798090057656,7.037897934114356,-3.3343010498934196,3.2377234342136516
210,-0.6818627015573894,0.08820387626495524,0.7812255651366434,17.462025106062146,-20.22540440857946,21.786159825817013
220,-0.589194556380705,-0.03456862899020169,0.6750565514396579,11.839852038598512,-35.09360848290264,10.696419018492776
230,-0.4709298588248085,0.08851750583478804,0.6452243507873371,8.418757397264057,-34.92145694426064,7.9195660523683635
240,-0.40871800410740694,0.2522471815271501,0.7284407834828511,-2.426885522955602,-31.503419815557294,14.918785927155247
250,-0.4131027717467393,0.08175066239182745,0.53315237579725,-21.149111897413132,-22.78516210193276,19.71494575949995
260,-0.4163509160454769,0.06934755529353127,0.5217986160866619,-28.813210681545463,-15.074259543959588,18.699449526734995
270,-0.39362496567758337,0.05904289998840866,0.5539125581493369,-29.861588204212293,-5.810382172780097,21.15151332606105
280,-0.41654582975361504,0.014442074400627739,0.5849967553238422,-37.80678394331417,-5.491953260994508,16.329177553889338
290,-0.4919405214024844,0.04198199445176675,0.593445643053232,-43.76017838562909,-6.810803925021702,12.740025728634015
300,-0.5150718761571381,-0.07820554058549531,0.6278424734071003,-50.83161711971631,-6.735818836549775,8.413268213868685
310,-0.4950048443926141,-0.08472693621699798,0.564858150251896,-50.046093955078454,-0.4837713023198402,8.936147203488972
320,-0.46266862094724087,-0.050397204686269216,0.5873891453897995,-39.640993881698066,0.02157455137628661,1.0749063662252887
330,-0.4712065975652175,-0.010990999917094436,0.5543389229241462,-23.017042397373274,9.78968040246374,6.05593678762189
340,-0.43450675075996303,0.022974449787847184,0.5936108974171332,-10.819321033955248,14.453541311727415,10.173990011561903
350,-0.43400726547830937,-0.07726295842327642,0.5879605176371278,-12.166739629000215,-3.5516626964599074,0.6711684185601249
360,-0.34894826352860914,-0.08828547889456384,0.6151293687277719,-8.920893379015972,-21.05314948035057,-10.132616464236461
370,-0.41526669195421756,-0.11180700992897859,0.5886430952409216,-17.692345931999952,-20.732196248231112,-20.20612601233075
380,-0.3963287626221479,0.1277074583450545,0.7462062846892746,0.7404901996398544,-29.281604608465653,-13.70231268629986
390,-0.36797541090020225,0.05765078229768088,0.6423900237111567,-17.106383178371512,-29.44164160774129,-23.21370650279215
400,-0.27230807190194184,-0.2394303022564765,0.7762883731525879,-61.722207494449314,-26.3846580547557,-21.285482677396413
410,-0.39731740718429814,-0.12516122628860868,0.7247639244173464,-62.825770260239175,-23.14977462951534,-16.075071293566808
420,-0.473836238180064,-0.04512229860690943,0.7316644087506367,-42.73865849095477,-14.791157951738688,-10.858413196735324
430,-0.41556457189925283,0.036639649018832196,0.619380432137352,-22.724779676239862,-15.913883912845588,-9.40231223692
440,-0.4790501577273913,0.22393816092498406,0.4685242897641603,-25.39707553531561,-10.33409830919422,-1.146807697289429
450,-0.550389498218124,0.088046269577671,0.5653237639615063,-26.863672155169652,-7.411953059394955,5.334109351482309
460,-0.5103575440885199,-0.04696638345322764,0.5848322218634758,-24.44254789597386,-8.97563991812882,0.6801252057844115
470,-0.45516684275773983,-0.14946902022406638,0.6322293843716791,1.898207830417029,0.9813190545890107,3.0857150037765577
480,-0.4117034430906987,-0.09011572577026278,0.677115485872649,15.295834989489075,-3.231166630671682,-2.560228924043103
490,-0.43900506569148645,-0.09581196005754528,0.6497201014337225,16.707486466508932,-5.674224388765371,-6.352916992018797
500,-0.5286644594962512,-0.14834618889046972,0.605796919893497,16.163099830372687,-1.3314863781794535,-10.142492486779808
510,-0.5052765093396292,-0.21312733617366186,0.6211547511368932,92.72106008134408,6.418420409472369,-12.996238428557906
520,-0.06732724228225173,-0.001488997642488497,1.2148172916393307,135.04877330422906,23.433892907093,-7.940635376146452
530,-0.29912358348020385,0.016233171155669898,0.9717766037566073,114.92091655695343,32.76786419142662,-5.580240027489675
540,-0.6428258554227327,-0.06585892098247435,0.33084700437560016,90.30748726908456,46.30272903083212,0.4755383184990949
550,-0.31631482843077563,-0.024214258841128242,0.8081483115522139,74.47817076410739,33.371035967256695,-0.38007486342075314
560,-0.3320694749369793,-0.10714266357029065,0.6732622287033793,13.008813150995666,32.910724512576195,3.2891118231596326
570,-0.38637219222966385,-0.07510816665071868,0.5977879212206259,14.286191617742169,33.421344724814055,6.512775793096517
580,-0.31359656373444555,-0.010770026519749187,0.8006030706164502,19.29119242474654,23.85749713336675,5.702015852801806
590,-0.5632776666488803,-0.006598771635068803,0.5569666097361431,3.5445213064441985,21.112023303443586,2.694310289334486
600,-0.49063321197309,-0.0005046374469692867,0.5861846581140067,-4.359130918234364,12.857884505623561,-2.843938113599803
610,-0.525990717348821,0.04658404855538893,0.5566021903012442,-6.440001729276775,16.49361841167483,1.1860496886653293
620,-0.41219351300390644,0.037704551869192256,0.6916299699087927,-1.4630876309286736,9.141323345417206,0.5675635482274894
630,-0.5032537052494219,0.021098581481679722,0.6314082416146207,14.241360091181969,3.2481078312872222,1.6110006977737328
640,-0.49847198861320496,0.051769578271007095,0.6482438207901984,17.324920626807053,1.4892150098921015,-1.2765112790748008
650,-0.5284282689547329,0.06452820318173384,0.6103536264889983,9.077968045699498,0.6061786891513392,-4.401625362481073
660,-0.561731913590365,0.1736225895123203,0.5982181985209565,-3.9059259248784417,3.7279214619040806,-1.0532575086634932
670,-0.5406330398293148,0.2196956935845819,0.6622213565393408,-4.123461562382532,9.302917398931864,21.52048982425406
680,-0.4666097120290145,0.15056630311054425,0.6511893132398335,-14.339767744000932,-5.504756691448713,25.655750425811625
690,-0.47702291463602775,0.12555949728629784,0.5006601951737126,-26.97490656808275,-11.265192988983504,20.15061271066374
700,-0.4337130707931878,0.0884542053823892,0.49483193617730964,-28.28896378102661,0.28533817692085045,23.080671164110807
710,-0.40235243000309334,0.08333761352392563,0.5440967915890355,-28.831415825747438,11.582199693250805,23.961165664743078
720,-0.40136500482060666,0.0823879151234309,0.6003641938527773,-33.70874979469605,13.522037655692127,20.984552141089917
730,-0.4664212117168111,-0.06362101625369589,0.6182495037021113,-32.56735117831998,18.70006748751357,14.971013743328959
740,-0.6429779153669809,-0.18570679979847507,0.8968381891658034,-26.202222469596695,15.27667256125281,-9.395531247973517
750,-0.5968704265215057,-0.2927770094306678,0.6336727245089689,2.686353399723404,6.813926670359782,-12.469936147686996
760,-0.46927485241649397,-0.40584584244658406,0.44925758389603926,10.826084623612108,7.613089888185688,-30.22129400400711
770,-0.4401524269089378,-0.31676640182707966,0.2892091255977744,17.726181225669208,7.173429436142653,-45.36228872238843
780,-0.42991255333283845,-0.10721328830319012,0.27826454959008984,7.49239526187012,0.31054798531809685,-33.217429740612
790,-0.5865746478227751,0.08216090002954123,0.5900661056650539,54.336033091757535,-3.131182739786664,-46.428359981521055
800,-0.520702256309108,0.23623033013984662,0.6957460286170938,51.866772274146214,1.8926119447474337,-35.09498081635333
810,-0.2788865732631718,0.2035731262546965,0.7622603557635893,11.935979683318076,0.2683782614843485,-2.938158308132745
820,-0.5492412461687686,0.46722127299055716,0.5381474636912703,38.5492384212371,2.380731016204883,16.549398062902725
830,-0.5069044670024315,0.19300114409809627,0.5864503883038436,35.11869548828273,-1.4249417580448385,7.3887363379187265
840,-0.5295734925987263,0.07676172635791888,0.5968078491392182,10.162726679501297,2.3946151063942285,3.048643523015553
850,-0.5200842530091611,0.01744095162676609,0.6006993294185033,-12.594390586524625,-2.572789907664844,-16.89935001930196
860,-0.5305967913418679,-0.004290651660189833,0.5900955708539343,-11.887214112412913,-4.4523023046172545,-15.674938767103498
870,-0.5058277464473683,0.013868120463320335,0.6099185905281529,-5.706534623064676,-2.1547384243996204,-8.523637572561046
880,-0.5009302186198974,0.01354693448946788,0.6192054497742049,-1.6854010943001296,-1.732332449241751,-2.9631391059099648
890,-0.5309717850634048,-0.012439743159161028,0.5977313084878407,4.156092486838363,0.4270451478834172,3.890695899947424
900,-0.5257952176067822,0.012219498462110092,0.6069997903250627,6.059523004326957,1.3535430004451396,2.499510321702808
910,-0.5096143780895409,0.029396193903209723,0.6152414478645798,4.656901833719156,2.551875176391832,1.446608748482009
920,-0.5165573068104556,0.02804241399638715,0.6015766676402469,-1.7773114254894784,-1.2407441398478691,-4.164127049628689
930,-0.49200362556746446,0.03498603156025187,0.6333061132553668,-2.603311101876608,1.3286200505034194,-2.5637944231576286
940,-0.48402869052990766,0.041339068612977724,0.6357182131054414,-7.159035905400005,-2.9928438583050854,-6.233767844440507
950,-0.5119143035661863,0.00689228591029639,0.6089233670080861,-1.307021613471896,-0.24416214039842998,-1.5632438586862212
960,-0.5155795130278835,0.011907106236952698,0.6044450677190967,2.17735138808016,-0.43139609288787006,0.9264062587133376
970,-0.5467273713220897,-0.015233229142561876,0.5776766297941497,0.09870484954945113,-1.4944108622186376,0.10725185794323866
980,-0.49642370175275563,0.033836653722829645,0.6262047470877007,-0.461561357806363,-0.9119688367873813,0.18880586319313952
990,-0.5122080685753084,0.01656651315145462,0.6145990067294266,-2.2134336539089006,-0.5799926516162589,0.12278786833481059
1000,-0.5143921063136702,0.016952849729613206,0.612612306298833,-3.1587017328846634,-1.0973304414904033,-1.1812467052958133
1010,-0.5227360056936252,0.010255167523671404,0.6006675771464045,0.22679430122871524,-2.195642497993291,-2.019619817724553
1020,-0.5254065528339066,0.00310987916616841,0.5961073565924087,4.660753710243434,2.2696106026867637,2.4828716383599394
1030,-0.515323519153996,0.01352292365578505,0.5993526524196909,0.8387442737937233,0.0398266046181488,0.3378604417628787
1040,-0.5024834396454942,0.026424378339957852,0.6234529174240231,0.9287637345720904,0.07245788590814695,1.459197053673278
1050,-0.4909847178485366,0.03740309437205121,0.6261028796232337,-2.0374473126011785,-2.7368469276537146,-0.6147483177866937
1060,-0.5119046923759377,0.015010148397340833,0.5970594793733232,1.088124289073479,0.43864017273522604,2.1968481711780337
1070,-0.5079001314483785,0.027866575390191564,0.6092596480597764,0.28336514720191575,-0.6731510443332756,-0.4950150328262693
1080,-0.5134559681502251,0.023304607688889877,0.6082370050497918,-0.0672715352447868,1.260533643598458,1.0128402165235841
1090,-0.539264622149246,-0.009237501237170816,0.5853301608116208,-1.2917565244370564,0.8262899099240208,0.47681115724154033
1100,-0.5232763619176668,0.007045159127753789,0.594043924419771,-6.527804607689394,-0.8454223160005446,-1.6407489506345474
1110,-0.5449322026499769,-0.015773482029108776,0.5835509449346564,-5.916542573390727,-0.04626179373745165,-0.5645236451215676
1120,-0.5018301554977945,0.033023835473519794,0.6184235177888464,2.8069495843422065,-0.386696498463177,1.7328215594209866
1130,-0.5351525222529612,-0.0055643846279512955,0.5854217760019904,3.242237889941265,1.4424232380399855,2.3928923566311964
1140,-0.5119677676364579,0.010730127077942724,0.6098972652753515,0.6502419167882585,1.0366526843380854,1.36974720608222
1150,-0.5150973931972864,0.013670860402870657,0.6028657238906231,-2.4718599719688052,-1.1974070324213195,-1.7272047868000695
1160,-0.5141715506509945,0.014956223207830136,0.6092021473393852,-2.212474839114271,-0.8298867795534995,-1.7296041488536094
1170,-0.48771525984068964,0.04166358397709677,0.6300476577950995,-2.369642531754221,-0.6973939821093846,-1.2062680273720776
1180,-0.5184042310626159,0.011960123202256052,0.6025034653543201,-1.682526571450742,0.5121246513767987,0.4784736159664368
1190,-0.49996674999552465,0.03289358003271855,0.6124275214508162,-4.886940718648683,-2.2935406753253713,-1.7846834828438656
1200,-0.5237704335898782,0.001011076596462884,0.595164842069544,-4.054420271092059,-0.757900985109066,-0.2902375935139996
1210,-0.5161999031405443,0.002313972412585338,0.6078251541827839,-0.44253040081084616,0.25053381194627766,1.421295788396869
1220,-0.48044790063851334,0.01056956979038954,0.6281860990586374,5.378614431847119,0.7557480803326956,3.106310763303221
1230,-0.5265702031535847,0.014407623105012994,0.5975812972835735,-4.909343541671978,-2.830903114699582,-2.4323126312830308
1240,-0.5574331432605907,-0.027220655048926252,0.5598596134593589,-6.162693134582911,-1.267468632716275,-2.6097833225537803
1250,-0.506466279249939,0.02002196671282834,0.6142575480104964,-5.260391780366069,-0.13487204573421097,-2.457322320879954
1260,-0.5279945227135346,-0.006677355557297595,0.594084688421653,-5.8840190639830485,-0.4282078674196315,-3.3729356583553525
1270,-0.5038010099193132,0.011720727125840134,0.6157884969308557,-6.28768920404667,-1.6253860813933707,-3.8234577844165805
1280,-0.5031946633377636,0.01793827435386556,0.6187912706133551,1.8352358148614012,1.7686473510470608,2.5306202993976337
1290,-0.5010752336710413,0.0248419596900842,0.6192595059185225,0.8904158610927142,-0.175851492545769,2.1445464308239326
1300,-0.5318825478103766,0.004096092378175792,0.5900426537869297,-2.6587577172610093,-0.6404012422791662,0.22056308800285518
1310,-0.5455675800369212,-0.018737512976563127,0.5750910279343,-3.6970109102478967,-0.9578563121594568,-1.5473414987948533
1320,-0.5022120610171933,0.01657286396926447,0.6133323726083435,-3.079271880216891,-0.46741888414671784,-1.3988101795134618
1330,-0.4936019555999369,0.025979198502047017,0.6352453525383824,-0.9319216526590841,0.9116702936103052,0.15847002287166356
1340,-0.526506647769966,-0.0014740520766271196,0.5991393376111342,2.599088442619845,-0.9285099041184733,-0.08473851419584955
1350,-0.5038830509560868,0.02104680047222282,0.6132868956736621,3.039212386498642,0.7511773690265533,1.246171361129518
1360,-0.5125123724063925,0.017196788690089053,0.6071581822889477,0.9847373675761435,1.4050240897486428,1.1643560889958573
1370,-0.5055851473363275,0.01920734822174045,0.6135447384892492,-1.2484158009063058,0.4809745410509769,-0.12400636050188996
1380,-0.5263241589884985,-0.0012027886717993746,0.5933361934883762,2.321967745460748,3.613939021366533,2.4909709424640334
1390,-0.49279415465010007,0.03146548060126963,0.6275243766226938,1.8489831869529683,2.5511258555590426,2.190344121430482
1400,-0.52686715008425,-0.003737564214994705,0.5920125724846367,0.3818057311479772,0.05129001374924935,1.0011769071793621
1410,-0.5042444063689654,0.01949159074048916,0.6197067837826551,0.8825890469184889,0.22014253317611565,1.757094612034008
1420,-0.5217967342007844,-0.0035765650699346938,0.5916001234925287,-2.1530360824153676,-0.24628166806173177,1.4424570416790752
1430,-0.521650522828464,0.008733738237492298,0.6015834157238139,-0.32886677594598535,1.06795387254987,1.240810202730556
1440,-0.514023927862127,0.013093787156117823,0.607846836786729,-1.9206160336989906,0.1938206261961879,-0.6630508427298721
1450,-0.5250503036383419,-0.00245840933128355,0.6007447781569848,0.4074532446786558,-0.9759823495334458,-1.515991207087036
1460,-0.50800640827234,0.01568093320298098,0.6153413210410361,0.7179323297123417,-1.0414690370033244,-1.8331426212465538
1470,-0.4935681086561718,0.024938637047546265,0.6258305546984223,1.2297350611787006,-1.5026882219554147,-1.5293087385244832
1480,-0.5297122184301101,-0.01146587121342803,0.5925708960061797,-0.4645160780476525,-2.7150566125621416,-2.1329641601753293
1490,-0.5607215482285361,-0.03683952681056834,0.5629919481897047,1.146401863528095,-0.5154968335850632,0.30080456824509305
1500,-0.5143903886995501,0.013286386002552664,0.6062356848626682,-0.9892185557153323,1.3643352852340884,1.1738879143811607
1510,-0.4888505197275641,0.03486877915027884,0.6230042123688914,-2.752011554070321,1.1377711405670965,1.0568950591182784
1520,-0.5059058643047415,0.007900316391519323,0.6174122603678346,-5.80628555329256,-2.6726829469600872,-2.591276929907828
1530,-0.5412918027484847,-0.02180773160786116,0.5870783035891515,3.35948536092814,3.172542645371869,3.20049599884839
1540,-0.5068042153844172,0.010727020237988938,0.6100219506380958,1.1707666923661426,0.4998695386672549,1.3461424412459928
1550,-0.5224056487899362,0.004056681625903075,0.5981117758362887,2.342211288617047,3.207358982590861,4.517700627478424
1560,-0.5241384846044345,0.0021214359079440893,0.5966414744532212,-4.99099709146231,-2.4902688613753536,-1.9693528066894652
1570,-0.5287210707459955,-0.011534537054470863,0.5943226413321379,-4.492300664059351,-2.3301715185225667,-3.190458795940974
1580,-0.4995677646101231,0.02183217997054929,0.6235062966191498,1.9438677064309184,2.398950320777344,1.5638863891516346
1590,-0.5388685970250444,-0.019369971623666733,0.5775950744135477,2.358498290248523,3.0181034873745145,2.4625652204910047
1600,-0.48962000963975116,0.028991322279106092,0.6308567366506286,-0.02892252100267434,0.9029440513355533,0.4671505548518164
1610,-0.5100201601385246,0.010434502768479152,0.6143588817038249,2.2502279197788813,0.8792898595945995,0.8184455881260638
1620,-0.5254156472370188,-0.008452420605443057,0.5926853049220255,2.3481025621107685,-0.31021296337803284,-0.04723862730233308
1630,-0.5215412017431793,0.00301898292739727,0.5936279422931147,2.7340304339525243,2.3035888572945287,2.935214096723991
