time_ms,ax,ay,az,gx,gy,gz
0,-0.08854212144115589,0.06967091592843311,0.8443349010012332,0.30328366079957436,1.3189108590523808,0.39894651336130704
10,-0.08264926132495194,0.07258587148526296,0.8435452825280727,-0.3211674861960616,0.7931759398645077,0.6534784043059365
20,-0.07692136050146738,0.08259692516893553,0.8516042117850773,0.7250070825804048,1.0195240590550143,0.6837660212937228
30,-0.12306708548651435,0.03836589097237157,0.8101623925195174,-1.4212648319308032,-0.9680873009795145,-2.2846710360638234
40,-0.10401325125711065,0.057124054591165124,0.8295788532253524,-1.5414709746699797,-1.104229272775942,-3.2367162075444966
50,-0.09380827138548709,0.06068956827704267,0.8363442883663655,3.7464522888725478,3.601233544017263,3.2127581890622667
60,-0.12783823293697483,0.030193461910010176,0.8104188385883142,-0.6258182365223686,-0.4621177619399025,0.18457381421311903
70,-0.1087601663281138,0.05069076956083425,0.8313950634483946,-0.1847827526801506,0.8290175015806321,0.3596498619440889
80,-0.1020870404774432,0.0592551704997097,0.8318708726413365,0.11369158143604016,1.352134457051704,-0.5277677817559103
90,-0.11751847778163016,0.04574470177095781,0.8157923942333463,-1.4795057262116607,-0.5802650704141467,-3.096505510238245
100,-0.06371924486498946,0.09327688985700185,0.8691142776095927,1.7980939697855947,1.913441257937913,1.2970979313410431
110,-0.08783470787580584,0.07605470174165355,0.8507870507477554,1.4798062680350685,2.064132968438249,6.50644087787169
120,-0.10516151448169259,0.06738843311831218,0.826479265885384,3.639251197750345,4.763737622351271,9.471231771696413
130,-0.07841171754695478,0.08327387079322772,0.851835881104539,-0.7462535126222334,-0.9031185464645604,4.933749457516393
140,-0.08068475146515607,0.08173091689309932,0.8520594346911318,4.62136541830831,3.0401555019554776,12.150546782355113
150,-0.1248387584447067,0.09912818992825753,0.7937404977240787,-5.497282850597243,-0.3496830290729922,11.796278265431816
160,-0.31632764150059145,0.30612035259700676,1.4650467974444632,-56.00197300355983,-78.17211597726845,34.112027368280955
170,-0.5877254347861238,0.5348249092989664,1.2524921947917138,-48.89332122794266,-131.08706609247434,89.63094566755801
180,-0.2044449494705464,0.06232239919170342,1.1138177762381805,26.230640318430275,-171.84901120642633,129.01224017658714
190,0.3393774522313976,-0.03493873719359293,0.8543960462143554,33.10012848862624,-159.74086997476155,115.24764875823054
200,0.495558724689364,0.04041025054770724,0.9351747810884047,53.92793588015739,-123.93398333404765,86.27060391294476
210,0.27073402820709414,-0.11373676934940527,0.6209080344290692,-2.1836594088976593,-13.69824018693899,-10.573459401944708
220,0.04666087964634154,-0.2105668073289729,0.7705814329989975,-67.26425764793103,58.72276864169853,-94.8199875889874
230,-0.2689186939328863,-0.06674990742629525,0.8755644200935724,-79.74849926456407,69.60788587809957,-120.16231686129217
240,-0.5082544671272577,0.14216324005074132,0.9827128923188508,-59.273828289354846,72.7435977786899,-100.99300836785032
250,-0.9659529184821938,0.3560996502356931,1.2492512328124619,-33.26762262932184,25.04439439422137,-25.88269988172612
260,-0.13370338157886735,-0.17062600193685346,0.9447223016956585,-9.519004125983434,21.334205357887452,-6.386093589374387
270,-0.07403668696700692,0.09093685790572627,0.9230902780843235,13.634817064413856,3.2912921714764227,-8.577523765242955
280,-0.11885568003548737,0.012553214391053816,1.0111679815553534,10.835671168063127,-11.916629124663427,-5.281960942269813
290,-0.1649445325740208,-0.10286367774030761,1.570935770411892,16.484267663693274,-69.63282217589366,-22.22267257819111
300,-0.07664014631488457,-0.036081040227124744,0.8662525948036396,16.051245976819892,-123.55279046285277,-57.5795746710573
310,-0.3083232642728827,-0.004674268302723317,0.4254500854745421,123.90857713327495,-74.36677622904689,13.486045579832265
320,-0.06396560084928855,0.1546737001124327,0.7065153505682746,-11.995174693876818,0.15124055998488256,-12.631937056752639
330,-0.05860107447537206,0.2197132068320966,0.9017026045937809,-1.6480215805553695,4.630764330809265,-7.277924854751534
340,-0.07801747494703275,0.2683794564423904,0.9143846943701555,-133.94043360457198,-12.978400417680605,-49.22107939725077
350,-0.052243057085117194,0.21710474977993247,0.9466466327820325,-156.34543949263457,-27.553015206272303,-63.180394976593476
360,-0.20314102165088857,-0.07657200863604514,0.47433334368369384,-148.22380596570738,-6.283492146614815,-63.2539493897911
370,-0.15087588151058812,-0.013582897615855788,0.8666679547184177,-46.338166282706624,32.34177992241009,-20.633649616245766
380,-0.11286486193079903,-0.010095347099767477,0.8685068006354919,-14.159128620112943,96.81469472515921,9.761293897707567
390,-0.13824261609496646,-0.31235551400600636,1.9654728588093235,-4.139640667255273,72.84897956496157,6.527798106712912
400,-0.02524324078819402,0.16925391928129185,1.053371147620085,2.0050346521032365,100.6044715556574,25.30061948285401
410,-0.18020506263825367,0.0664133285529932,1.5132312274785462,13.122260971471384,56.49843564356079,11.28526061681115
420,-0.174278130394751,0.017784277264004403,0.9276272131068808,54.03576938615056,32.699309471896136,5.704519940537978
430,-0.0844296921839512,-0.04213965705107354,0.5497107150900425,23.186694397324477,43.778179436492074,8.47805772231344
440,0.03044489972514261,0.07714341757850582,0.47444933739444217,22.86377287170307,44.28022196223003,-2.454987416834286
450,-0.010179642802202585,0.25246643598275414,0.9531433674471139,-5.490612901184754,34.52545823262403,-6.193981168558127
460,-0.04336748355527757,0.23506086912485755,1.0555231527405515,-30.15330921883024,8.515526203538514,-18.33303537834548
470,-0.04224199408735396,0.16894684784818542,0.8706384496168822,-11.279444467224367,15.271859203957876,-3.859990318299527
480,0.035667992662314886,0.12697935953816905,0.9768083996237129,-63.79852610077964,29.481147619664718,35.22279816759497
490,0.02124754733203247,-0.13116946406978935,0.767440812807281,-51.56061657042054,13.581291631105202,5.981304648603457
500,-0.10741287446239053,-0.04714445003188238,0.531640663686629,-56.88437413791562,25.883135537256702,-4.0198974991273015
510,-0.21781236765811893,-0.28399501159586127,0.8514319280148612,-8.063806054372725,6.824192157869506,-7.198872873908995
520,-0.08971426070833535,-0.061904452239523636,0.868462024165874,20.705057907347726,5.419545049249753,25.648822769886362
530,-0.3873925998093575,-0.3091941781210672,1.232600584419821,-4.126583690735811,2.809556907821048,-39.407210529022784
540,-0.19266697871332092,-0.05483762453739495,0.9727889510065465,78.5787487402901,16.516730794998896,-13.962200154063433
550,-0.15478685557422134,-0.5057942142580911,0.9863713895308106,71.11797232358636,-29.607218375002166,-82.66610289951085
560,-0.041199190061042036,0.21615043351522883,0.41526717413430303,76.81229991464683,1.1461066095986547,-14.935667026669197
570,0.11830647046701381,0.8221420194034335,0.5554733148815186,88.48123748463438,-4.9441006180772575,-7.594499386525194
580,0.11137886017130408,0.651413134186331,0.8113050937248889,18.689180177173487,-0.6489677534698357,9.436552944342937
590,-0.09691521579307497,0.06050096378750182,0.8044474231519047,-7.798290016307154,-3.6033323098407797,-15.98527900111743
600,-0.07381493762492206,0.08040632259900687,0.8535942399766708,-10.723355370441693,-6.048928302029061,-5.122906282441278
610,-0.07597183519675868,0.08533390391480124,0.8443661808771482,-10.899377811399852,-5.309281004871194,5.269875699516607
620,-0.07671572639430911,0.08561206464970798,0.8444741851857628,-7.9130845780781005,-4.353902969857342,6.3734154651391295
630,-0.12068582299739126,0.056015033333798286,0.8142354951841352,-2.271877934685019,-1.2885298499530995,0.7515586033262731
640,-0.11218078622867178,0.0331005634028353,0.8175506544819127,-5.119524759450544,-6.689335520282581,-14.21908873908162
650,-0.12257124503397933,0.019571369633813153,0.8059869167517223,-0.35916666485731674,-3.329338878617264,-4.690550562964116
660,-0.07967641348582279,0.06903278741536586,0.8394247798512897,1.0049434551413825,-1.5384071106699104,1.213117550271293
670,-0.11133650015577473,0.04114603493980492,0.8303859514985493,0.9493200616584516,-0.08955729083238273,1.4390274683980404
680,-0.10269967808765139,0.04694519604786988,0.8360557693350323,2.242171938884202,2.0119310598608395,2.4060319720262435
690,-0.1061037550666339,0.051240539659048734,0.8323874031867812,2.9938157933112985,5.652282846814212,12.915158451502323
700,-0.09796977181602812,0.0845328306126394,0.8382260519736968,-0.7218558173966503,6.872067280358628,15.946169358302441
710,-0.07344998028812808,0.10615682052405923,0.8501684150019423,5.751010842368165,8.207206527591666,15.400189304033734
720,-0.10032479767474138,0.07804913189173318,0.826553150983624,4.386449744663407,8.56288705183298,11.172678986685948
730,-0.10504516141646453,0.09134899770005059,0.8237174480804829,-7.563190233901386,3.1261904364924975,4.425293204961176
740,-0.08651846585562806,0.13261090577891008,0.8485968328909481,-18.985355872853866,3.0564799666968847,3.870974807440297
750,-0.07826092358399842,0.0937185734113963,0.8431930781942854,-1.5072576044067219,4.345642957523504,4.745551201215949
760,-0.09836001862599333,0.07648191280492539,0.8256909388386122,-3.5842358802541017,0.33842701419651233,-2.495602415899913
770,-0.11162861222049576,0.05538479060594772,0.8107132998435626,0.5231857790539025,2.5327271544160257,-1.2605838514276042
780,-0.0788583659804431,0.18674711934031735,0.9227793159128284,-49.43888960821488,3.4854333131949873,-0.818600672700979
790,-0.100910064120641,0.0745160252482496,0.8371494969576432,-13.112773482388626,-1.0700398767385533,-3.5627177800454857
800,-0.10623131307188119,0.054073353029108207,0.827463320961282,-23.36134483014865,-4.136717389271853,-7.782844394067624
810,-0.1052499709124417,0.05813231531949203,0.8333629657776185,-35.14620702493398,-8.160107963059264,-16.563653651086383
820,-0.08463171282780872,0.060862182949270704,0.8733587758681256,-54.08922492963937,-12.931143718439197,-24.890611369859283
830,-0.10636235262598588,0.024606865656083592,0.8796748169292901,-83.11404650772081,-15.85552358609228,-32.391545570158684
840,-0.1002096867431437,0.0048493023147030065,0.8688401516375015,-60.177527021230055,-7.004261932473801,-20.267268881333347
850,-0.09789502073717855,0.02381766133895808,0.8661149384955433,8.773780017240995,1.4038265828789398,3.753256559179809
860,-0.1138991766701516,0.023864547042391753,0.8523095448898883,26.863204927103766,1.6938223916089554,8.013474354284096
870,-0.09088290059533208,0.04340968257026381,0.8673084464194541,24.15811009291866,-1.8150422426762112,2.8297747676548983
880,-0.11569917446312883,0.03024280087922985,0.8527424602524442,19.480237866258904,-5.955150566343151,-1.7191486875654722
890,-0.09447688934817787,0.051238126765007566,0.870651197968472,17.94873615582,-4.292270103808372,0.6404115681544127
900,-0.10623212063588901,0.02962168055316764,0.8570205449174069,15.180413883068404,0.41942221981191974,4.060201744700144
910,-0.10829131728380234,0.030864690001694117,0.8519333860914801,10.381332421872733,1.8555903374914884,3.027808079353704
920,-0.113178501038735,0.024027895235377128,0.8524257270751799,15.3811932746135,3.694164687690618,5.945165050364202
930,-0.11883958901160688,0.026654678073392914,0.8436906718055173,3.9612434094293465,-0.7196102803487285,2.4086124412325582
940,-0.10200707425345906,0.05417970606132489,0.8571133885275879,3.430309074215756,3.4478421333553735,7.386886164599996
950,-0.09208216957696212,0.06618830405580206,0.868891811536531,3.2520497293561546,3.34336294472127,7.006308721741487
960,-0.0989304784130145,0.06493910197581397,0.8608669630115816,2.77875033089125,1.8851877461165487,2.995247417502486
970,-0.09265087057160899,0.0614793930592669,0.8634330150003189,2.476150145283258,2.6096301770984978,3.7925838683933755
980,-0.11109328447768915,0.04499269157189926,0.8425241980618047,-0.028991637590206648,0.18148825859698225,1.5657446415693015
990,-0.09477147800308325,0.063611303324619,0.8599012701509606,1.0285711021015322,0.9572578253505692,1.1874667490913589
1000,-0.10475557691010726,0.04600285729963013,0.8506967580732872,-2.277669055164653,-2.5034952565422244,-2.455298956324846
1010,-0.10857592527350328,0.046075283345743595,0.8476246313652857,-0.6404881445242223,-0.9369683085236259,-0.9455866314657893
1020,-0.08865578183625644,0.056838934055663405,0.8655682187630235,1.0135595745377892,1.361889958328483,1.5498231763543222
1030,-0.11453183233134206,0.03806901537902713,0.8423301740253484,3.512693678255383,2.8387367862551605,4.215022697695332
1040,-0.0842381381855921,0.04432289596832485,0.8770766230928168,21.398366690667572,-0.44599532893377436,4.393911167106305
1050,-0.11031104004145885,0.03979643303857335,0.8389465673541203,0.607721843993674,0.45283787734136616,0.1626944092139654
1060,-0.11171836193551117,0.04439436392866676,0.837002986084885,-0.226944539377364,-0.2662358551370251,-0.004396928711716291
1070,-0.12535802871452204,0.030766762816647704,0.8254694479901603,2.128861944699865,1.869134911855086,2.212419638891263
1080,-0.11129853420507729,0.05227247537396874,0.8384712158018296,3.4662831827483385,-0.5204483194595219,-0.3542157950084818
1090,-0.09310990131759797,0.05883794876555752,0.8539932858979552,3.27189268477722,0.9549088072219454,1.7860841871698612
1100,-0.09316689457195984,0.04637016068414553,0.8509949563150421,11.869172684082965,2.0234254694036267,4.582522990286186
1110,-0.11169884267959651,0.048018047645690634,0.8461984811253552,0.7031914443221133,1.374511341653407,2.616148293582582
1120,-0.11117950930880342,0.04456571217572092,0.8384853920682234,-0.8980993076028769,-0.2948272216011295,-0.966556190155899
1130,-0.11217472706276779,0.037838874127184854,0.8355083878242611,0.7577556480721476,1.4809720685930223,1.6301356649496475
1140,-0.10296313695505104,0.052221515730518975,0.8443589227402819,-3.2198872606852023,-2.5118407499888415,-2.051227133709234
1150,-0.10946457415335295,0.04499971448843625,0.8353858978284087,1.8511849861033478,2.4556647332001127,3.3048815387353407
1160,-0.09701386430428448,0.055459117709796904,0.8510637859870039,0.7350349669700798,1.5598511520957208,2.1880772271754725
1170,-0.09747883850842624,0.061760897663059054,0.8563768170223509,2.564456568556077,2.855266884413497,2.809164475047552
1180,-0.11632266797385891,0.04204608934005112,0.8316596592504986,1.3599092460555808,1.7067172040906482,1.2422718160578117
1190,-0.09356182184108948,0.06871329035532657,0.8602726128742681,3.073657371323126,3.1528715854047427,1.840953370409649
1200,-0.10316495759651581,0.056949214275746646,0.8451714803951633,0.3148488534779522,0.5707530117749504,-0.506348781572695
1210,-0.08427228563010158,0.07596929832071618,0.8608361096829044,-1.3872046114580505,-1.8463054006956867,-2.379728319940084
1220,-0.08430698128056993,0.07343804101072761,0.8675244906722258,-2.7216377506529295,-4.351372372077852,-4.2103599398743174
1230,-0.08479896169331844,0.06886909444773856,0.8682394693182048,4.780710410664222,3.5078387265959683,4.4073135750219095
1240,-0.08059371253975678,0.07856913172738758,0.8692979235659615,1.4035337022205114,1.632555157713199,1.6253129701943188
1250,-0.10312888757667527,0.057480640599532125,0.8442654969344214,-0.3328661995877423,0.3485388642421393,-0.4594465009490532
1260,-0.07764696513504843,0.08384075304183816,0.8656430579731502,0.14252635581956685,0.6691139881609696,-0.585572946572446
1270,-0.12893750335701923,0.026524057965435187,0.817443921855678,-0.726609713934355,-0.103612945557787,-1.002038477540082
1280,-0.08734302715468101,0.06505219549875639,0.8598341384449874,2.049587084018462,0.9087799869604192,0.1609496562549284
1290,-0.09918341751764972,0.051166634705425644,0.8444080811184961,4.705877222065163,-1.1501472066273826,-0.8537083891311354
1300,-0.10021666766289128,0.05554826257778727,0.8497847628498214,3.6827162573486283,0.03747229125409321,1.0972476169217962
1310,-0.09904252283030729,0.05667733089703731,0.8499109863967366,0.9307287743728496,1.3571601752333162,1.537811952875741
1320,-0.09690137028409372,0.055473750921843014,0.8507058622991521,-1.330797452609407,-0.8796478332954119,-0.8781720275772422
1330,-0.10572350799394678,0.05144637099354197,0.8373179940354388,-1.657199038864325,-1.2694372130103013,-3.3150967213483016
1340,-0.1145185361798652,0.041857875649734005,0.828908285022345,-2.6140570102849487,-3.0094035977122333,-3.7692794795420808
1350,-0.10022898102451501,0.06019567933907401,0.8484175393340923,-1.482892225116813,-3.3809487292348095,-2.6198162658064548
1360,-0.09054920582993559,0.061263156520532505,0.8569272191691891,3.139365293907616,0.4789126398336947,2.2558592974926914
1370,-0.10222869543029067,0.054648650626084525,0.8489635612351157,2.522285831763864,0.9041805089815864,1.9236314495224587
1380,-0.06412264974868576,0.09243059530139969,0.8861908342074584,0.06503754693640634,0.13261057890568384,0.3596736599713216
1390,-0.0875228972644072,0.06647513867630071,0.8614970196241044,-1.7102010923401358,-1.409275624031978,-0.5829413612360681
1400,-0.07020947157036471,0.09331409995823985,0.8818947601301027,0.20048390869755783,0.38113180949421177,1.2924595218173542
1410,-0.11351777404234462,0.047472801417781825,0.8426734765279136,-0.7119910699491836,-0.2184266734488902,-0.030581715358366582
1420,-0.09446986963437431,0.05574554020415899,0.8523063186691251,0.15510993309666582,0.3979248965523223,-0.13881993349763447
1430,-0.09524018288537506,0.0637673819709371,0.8516395133426073,-1.5226493963957952,-1.1615600234780408,-1.8537665617925168
1440,-0.10149725938324933,0.05664543939374619,0.8453720596991658,1.3509838669931282,1.5736479276999935,2.26403600815876
1450,-0.08659657632814122,0.06775542037710662,0.858278504156779,-1.7160779248881677,-1.5438341652785987,-1.7314335878329215
1460,-0.08751920991457766,0.07093317811047048,0.8605400039890546,0.7723543391026387,1.251020408877268,0.6785700420020517
1470,-0.09098805820488949,0.07150141754615663,0.8597272207323018,1.2205021213849945,1.5950219867330249,1.4826184262491584
1480,-0.09607450096923109,0.06679196138010192,0.8499487871743813,0.20002470400795536,0.5494001405417448,0.7523622284639369
1490,-0.09446686871594401,0.06349886954700312,0.8577610694928912,1.9903236784008245,2.384777308007395,2.0383452891436664
1500,-0.09644577386253864,0.06169859026235224,0.8523157992668605,1.7163386212866403,2.3067886660411956,1.3840510236359944
1510,-0.07745268982417959,0.08375980658229884,0.8616539746095957,0.9283059172965502,1.321597113900388,-0.18955686089649615
1520,-0.09767741704052046,0.064381911016111,0.8498756115180655,-0.7617677663132352,-0.3830430561970928,-1.551364749658726
1530,-0.10045796587614386,0.05651589362240053,0.8483542427514347,-1.1110822409111853,-0.577666681514593,-0.9727332912817058
1540,-0.10205425048326663,0.0528021953052608,0.8472510349780732,-0.20553091480358532,0.05133904860278886,-0.5496825737215246
1550,-0.1275999514115338,0.02390233187448247,0.8195894893661905,-0.9789599170990597,-0.644501773730329,-0.810952781213223
1560,-0.09770968428450878,0.05931243767099031,0.8517935760067094,0.8224299213213553,1.060827586289344,2.3780851480921408
1570,-0.1323356976731948,0.033299623042059315,0.8185956601581784,-0.527852821708191,-0.8289405551140764,-0.16634641420637108
1580,-0.10748205213196942,0.0435582859524776,0.838554461521948,-0.5047888812232411,-0.22797080713539186,-1.0351139878996067
1590,-0.0956149012127489,0.05317224273711355,0.8498860829734136,-2.019205383983627,-1.496694142552638,-2.2329177885915823
1600,-0.10212292688917318,0.054900683352568605,0.8438621396323988,-1.8866036817176226,-1.1857975889465031,-2.101586860851344
1610,-0.10352901299629286,0.051875833207201474,0.840509695889388,2.140760600235739,2.512195908306156,1.8317255811188364
1620,-0.06281541649323452,0.08778362905959362,0.8762959923598873,-0.12003855283966769,-0.1605854318274722,-1.1349943578787287
1630,-0.08590575235984511,0.07014881960501451,0.8609314003650581,0.46701284362120354,0.36093110317009924,-0.8118308319084937
1640,-0.10435929002203038,0.05570160966702938,0.8481599168910354,-0.6190129254325571,-0.4654814323404559,-1.9247714720586677
1650,-0.1040362539936949,0.05381555109728171,0.8428652200652191,1.407176916787921,1.648587174775068,1.8088186525280836
1660,-0.06711568780743664,0.08915109564545738,0.8801244531568249,-0.6046222755528567,-0.47686870701800976,-0.9407795101737052
