time_ms,ax,ay,az,gx,gy,gz
0,-0.6412255783074341,0.07119924472197288,0.490734767969352,-5.371671750394913,-2.522518243298232,-3.431051552741938
10,-0.6433115705721404,0.0647362995477047,0.49079933460085357,-4.859750374437029,-2.853022964346025,-3.9265882188697017
20,-0.6329889172850892,0.07015118903666233,0.49923152602506404,-1.2733655701291398,-0.37612616251827646,-0.9929498263568415
30,-0.621041836326275,0.08163598115153844,0.5113108095112463,-0.6660635390226258,0.4951050303718636,1.0218469501642946
40,-0.6324078338246973,0.08158836204054429,0.4983165449810584,1.2805158116936763,2.7959429947876293,3.418012830571741
50,-0.6735962408719313,0.04527886961144238,0.46019007400394807,-1.0255580779256972,-0.33386518653498654,-0.024411721855412183
60,-0.6394860370247455,0.07328990422825689,0.49374711548874634,0.35321227369673225,0.6319216630527795,1.124305435541243
70,-0.6653774985504508,0.04254008664035378,0.46772726238189616,3.9012983798149072,2.4564074564797718,3.0432682729713703
80,-0.6474063434688291,0.05639441859995398,0.4887174618355494,-0.044276424944558856,-0.9283627170656114,0.2539589231683981
90,-0.6485107379951998,0.06761688662186859,0.48438838607237017,2.7528714636071383,2.6594705860286254,3.6065867778590164
100,-0.6818321167167348,0.03436776510777257,0.46230212562239764,1.6197469916545884,-1.3168219462883526,-0.25557919529592743
110,-0.6798218100620429,0.04328045458369797,0.4719573262582544,4.683768055221188,-0.4742858562526704,0.7948831804221488
120,-0.6358565985148379,-0.009261058552371523,0.531364767272757,-8.037999139398622e-06,-1.1489431603651157,-1.817060459795886
130,-0.6855244560723897,-0.01889150924870152,0.503764375800339,-22.538856282000435,-2.8449325453878185,-2.534699596271456
140,-0.6329868392004229,0.12893838655360543,0.6166688350649255,-20.244793402025184,-40.49220923834844,6.028875991494534
150,-0.5163808142378661,-0.01694149995865504,0.6396485678775942,-27.87903507901404,-60.08665247622494,2.696435357610082
160,-0.42001246656384783,-0.08288077046169988,0.3951440877028646,-47.57038290349967,-54.10851966237267,-0.9898137064967055
170,-0.4487892934417616,0.08564612429668905,0.46392163830770006,-19.955612629502497,-41.58900311643776,-2.399103930643549
180,-0.5235539052144318,0.05388396797674626,0.4357040313446094,-28.210785595777082,-31.540458319658796,-1.0956040611484081
190,-0.613021772657913,0.043914107610035426,0.5012220459770889,-49.71091936294177,-18.282247716876583,4.193296061628165
200,-0.653057109771285,-0.008623470487442875,0.5614562404896952,-54.60358437010374,-10.700998994772856,3.0806260802456844
210,-0.687279890615406,-0.061244562313225365,0.4529985730558349,-21.706812713455257,-5.743148372894693,-2.538012267602937
220,-0.5604889373956572,0.08222057468575229,0.37761024780290214,-19.4578025440517,4.846065486073927,-1.2863551458073046
230,-0.5254798978305022,0.03431972689037005,0.41113102354148096,-14.053433656124737,26.30087069068684,10.28064826722656
240,-0.5427996258867511,-0.060968026262464045,0.5130656043855792,-9.884943412941869,24.042579993463278,5.372733544161216
250,-0.6195610527448399,-0.030651583104531466,0.6094049376445528,5.112325113925376,-4.518162484329318,-6.861981112024623
260,-0.6808953743356652,0.052862779506919436,0.38756384192709525,-0.24805518169201957,-8.590101839540713,-9.721928914627213
270,-0.7059762426492341,-0.03401293907661332,0.4886095733684749,-3.765177342338829,-17.334714483827334,-15.477620505612455
280,-0.47549344376635944,-0.10993700119480748,0.764408875593376,19.22888338191439,-26.125712445901218,-14.758885213525
290,-0.4669577586753421,-0.06543288675440313,0.3691686961155945,17.014028780261455,-36.80417301441276,-29.76195250697131
300,-0.5493073589489501,-0.08925008132274322,0.5946923277018867,16.976118914344074,-9.900696346083482,-10.284265430649658
310,-0.7282841341272795,0.22728312944985116,0.4106021544528952,17.632290657865205,5.338631596037917,6.423229005608097
320,-0.6219207896954603,0.04792745792266859,0.5103583757197365,21.508893735923166,4.711172411215632,5.833254081755855
330,-0.651606084873682,0.010864518862439257,0.4973779928236123,14.335028883781746,3.7872117381270796,-4.535013659415975
340,-0.8405210154247831,-0.10679755368422192,0.150204229233682,16.733741084418376,33.36521964601607,-2.338509910033527
350,-0.538645701356763,-0.018352346158835887,0.8735789752426211,17.36214957471645,44.255829360567716,13.365761942688943
360,-0.3265007701073892,-0.039105686223875356,1.2276648654676878,43.727877617856905,26.74753660794027,9.475029197271033
370,-0.8353952251066147,0.23967173114212878,-0.025619919162594647,11.065806908120356,26.670736330708745,8.636378356933836
380,-0.4215062308325173,0.14472301820028308,0.8221546028642431,-9.791689668138934,24.134113127599832,9.273794760812642
390,-0.6436194703025733,0.07729204480751949,0.41129498120325747,-8.5642243642244,12.076118351598867,6.2900162507077315
400,-0.4660185259972789,-0.03702501355960877,0.8608158365732852,5.415920562305593,1.5381794166987195,-5.635568062294356
410,-0.6105814255056738,0.06822398471316202,0.5593405978945986,-7.786649701334802,-0.07875852543796347,-10.446224208951428
420,-0.6218729254231286,0.05475823725776767,0.5399419981728661,-7.701141357749439,-0.5792984747623684,-8.459691203847921
430,-0.629540881225727,0.06322217878165715,0.5265680558447157,-1.16297682882661,-4.188707899620655,-6.526382589725045
440,-0.8022372693588314,0.3047740179192202,0.4085376176348358,27.140929354263953,2.9872448217724914,19.43055757521218
450,-0.6483465638546002,0.005270437360409934,0.6115998873519041,27.2608444394045,3.8128706991040855,38.41933711018699
460,-0.5242915153535953,0.1894406191186112,0.4307742623667528,-26.276848317280358,16.436819038711793,13.678799192732566
470,-0.9435775318712366,-0.015718413151137412,0.9802777208288423,-61.25324707480149,2.473736374488299,14.228802825501417
480,-0.7513641885177703,-0.1420895111347353,0.46007958374103947,-62.110259160291434,17.584626456102818,14.424280916353514
490,-0.6707711319173376,-0.21141549457280112,0.5368409182742061,-32.650006860823865,11.025831644981245,-0.862778763745865
500,-0.6330925657939579,-0.16139182871230343,0.5546525653918504,22.49502048773671,3.888523609021105,-4.228807717849497
510,-0.7465412585914573,-0.7275840372220965,0.25913435248395167,43.78420023331581,-3.097889436906008,-44.29721929906286
520,-0.8194781368989885,0.12514094412094492,0.4550419751857508,92.59393048908227,-1.7107137669897619,-16.504021112266994
530,-0.5957068701598185,0.5400864794898244,0.6169508534490262,36.224175728674695,-7.080302569943559,-4.746152594217969
540,-0.6859913122008291,0.29471794165006765,0.47979491055833506,3.1803807919768836,7.30723805134892,9.419135972467632
550,-0.6027178511529291,0.07218626845457525,0.5261323735542369,-8.468733914742646,5.518872916956638,-2.824317325686405
560,-0.6384313890411782,0.027731820370836054,0.5122117520771603,-6.79600540274499,-2.1511152899119503,-6.995643889107227
570,-0.6746027014299012,-0.0369155108444454,0.4727557266422979,9.585120554439737,-3.9729219585850037,4.197047995841002
580,-0.6514434012036141,-0.018079641509271074,0.4972978127811624,12.722011324891804,-6.5670949381168295,7.6428406866646785
590,-0.6326458708724132,0.013606182508860845,0.5099638947274323,17.781593696918065,-1.0842482631006085,13.599270657690253
600,-0.6432996994100486,0.012188732537644863,0.49846844233752174,12.280667706361427,-2.1776804556081992,7.31473974310495
610,-0.649022374030044,0.014346972132739465,0.48640556128827245,7.781112439442025,2.268193484326129,2.6851568155946604
620,-0.6057967243545604,0.055429896726410924,0.5263867692133192,-2.2429792685224452,-0.022839768376255787,-7.317346438263366
630,-0.608800699034426,0.0364402471593181,0.5244360116691419,-1.6618707663175374,-1.5073015117472477,-6.907379784814777
640,-0.6003690124748392,0.03819202271371524,0.540525383292668,-0.6395001931725234,-2.2036345126658587,-4.746332631046216
650,-0.6354447716587954,0.0036086504791842,0.5080114378449687,3.3330173737626243,-1.2529617258179881,-0.8199278876850841
660,-0.6317641908862105,-0.002326000443501109,0.5087836722317123,6.3896659766993515,1.9240772600305913,5.158961778498139
670,-0.5995797223470877,0.06876870676946954,0.5432144072940065,8.001397264854532,-1.2035593587606201,4.834537211876678
680,-0.6222249311796674,0.05496892400848473,0.5212953945382653,5.726439711046915,-0.04076757748035509,2.502376452503849
690,-0.6266744830446975,0.04320897400920691,0.5060594915258725,-1.2844404749092841,-3.4817096125534204,-4.246327570954552
700,-0.6093364569358346,0.0544681824591865,0.53110080826206,-0.22728098835974175,0.8263165638223163,-1.801289255215717
710,-0.6271486565346238,0.03254455006324652,0.5172628783429429,-1.8464058398596617,0.23456799714813836,-3.144952414386529
720,-0.6318227826630135,0.027308614643263902,0.5095244632944936,1.8809115632426439,0.7643032328928507,-0.30414350197113044
730,-0.664729111787876,-0.004795832922311619,0.47795799762713204,6.1344876452659065,1.9762818510159066,4.085570985328786
740,-0.6492643045204374,0.004818848975673466,0.49440650396945607,8.350444328245715,1.217330780512169,5.526452482601994
750,-0.6446945558182134,0.01882890334016974,0.4939552224101717,13.305480945124469,2.523171678151791,7.6768769196845446
760,-0.6555656698329126,0.01139591568525436,0.48919737751305054,9.782794964592554,1.6613491537273881,5.451295219837826
770,-0.6209527114142889,0.05311378536174855,0.5173886808858625,3.212735349591582,1.5067340339036042,2.290347247387042
780,-0.6264478144972501,0.048872951758360865,0.5185940371679644,-0.8138001121990399,2.6418771321865595,1.343443588551068
790,-0.6136226591515456,0.052852560979780853,0.5272019319359916,-2.141960513186303,-1.4913716782493003,-2.0337641486863838
800,-0.64963171437033,0.016031399331592946,0.4901342331899703,-0.4513592472001422,-2.6773048381933386,-1.907150660909282
810,-0.6301933827917431,0.037199716814636304,0.5130564882222799,1.036344988880627,-1.9690185685369939,-0.18998961696611016
820,-0.6558621224039386,0.010477087833284344,0.4798164340291202,-2.7824418910661333,-2.5412488205405452,-1.4280753313738601
830,-0.616435554255356,0.06016607269440627,0.5248843542927063,-2.214536787725269,2.56893573582608,1.993859540119387
840,-0.6812247310584006,-0.003419705817096337,0.4581079554140529,-3.515090508762563,-0.5209386550549417,-0.7467668833359695
850,-0.6474743635103594,0.029857145561285298,0.49389624758099065,-1.306574658479556,0.6745456023212065,0.2502095142414593
860,-0.6442638970772508,0.02724556593323888,0.49751391585742794,0.2994066278404144,-0.17036340017121454,-0.2548741277022315
870,-0.6226144796031308,0.0444674722114147,0.5172294780731882,1.6953242238342714,0.6866577945468493,1.1426873029911422
880,-0.6532311550521833,0.01487553938908276,0.4840448038208566,-0.7925718629015163,-0.6881883645665128,0.3575992822503844
890,-0.6319640502306315,0.04227705581562501,0.5088529766936815,0.8061564720496787,1.6387040289001378,2.51294764167161
900,-0.651502389482284,0.02544527851312916,0.4897835894982313,-2.0658718049739258,-1.7031534994642687,-1.5230917765156948
910,-0.6122359725348974,0.0676609700699886,0.5309921105928314,-0.07453211511840585,0.22369192934023074,-0.9952687359259865
920,-0.6270566981771626,0.0475226514403877,0.5133408331377518,-2.6966797077121862,-3.510653331721291,-5.012747210855938
930,-0.6542221331507692,0.014071473307425149,0.4832485066409468,-0.8072465278391171,-2.831069444519338,-3.288769594287181
940,-0.6313245824485028,0.036710224264663464,0.5089819523807481,1.3572665581466716,-0.8632687551182294,-0.4947693666583903
950,-0.6461452763715856,0.02449527155318769,0.496066717200254,4.759193490477105,3.4317399224880347,3.0169269150748743
960,-0.6152406666107583,0.056457600488378626,0.5259339336382786,2.4428342702380688,1.124067053264869,0.4095089355707675
970,-0.6261284923232799,0.050510006409632095,0.5166618586264353,3.0904718953550314,-0.1886964985854881,-0.20441539159491717
980,-0.6321723715536361,0.049472600997441746,0.5096604984769603,1.2646051079140914,0.3126821273573519,0.12770326576813368
990,-0.6307199231917441,0.04696581517449983,0.5129045871036102,2.357219029061013,-2.054185801488057,-0.7619556714278445
1000,-0.6111142130919244,0.05568782824700423,0.5253769798980308,4.648035974944224,0.14098036732436403,0.24458760437207627
1010,-0.6676063037275399,0.003875653944590385,0.4695539826506837,0.9564448286125733,-1.293834665653272,-1.2256294158745678
1020,-0.6390064553664837,0.03143355510632448,0.5005751452750752,1.1132733788097333,0.10496861684137677,0.1241847512683776
1030,-0.6197430905604322,0.05720817189288695,0.520907865058258,3.046399046745531,1.879622245762263,1.525172431172431
1040,-0.6405482757535792,0.0315710457376909,0.4914378774671169,1.3916217743393062,-0.23083388771856417,0.32254360505117263
1050,-0.6285847245940123,0.03937671193546861,0.508669462194589,2.0965674590945014,1.2212319815577244,1.3653013501428455
1060,-0.6104812551082093,0.0682921089691067,0.5327443882731668,0.5835653066468995,1.9396177244905601,2.243735213936711
1070,-0.6259405430123116,0.046103107575472174,0.5111923199435491,-3.7061520821628537,1.0043842382883597,0.823506006381828
1080,-0.631851046640209,0.04578246509231337,0.5084781945087858,-5.236643397058945,-1.7715014652005328,-1.5818067088606185
1090,-0.6325479136470573,0.045317756575263615,0.5113384021803188,0.8760206362420073,1.4051795980914703,2.334847366999811
1100,-0.6015524761311863,0.07583644020559469,0.5390436034480042,1.5804736163506292,0.3084692462125983,1.8912264990282277
1110,-0.6350765457972247,0.04181852378343754,0.5084778444689505,1.004805752341173,-1.2139962360731444,0.2936558137137606
1120,-0.6595930830540147,0.013649117909879133,0.4810941940542412,0.28010187135622977,-1.4631536737105426,-0.6366823739574597
