time_ms,ax,ay,az,gx,gy,gz
0,-0.5522132875096728,0.20218087433538778,0.5341470578882317,-0.4377851699589577,-0.9658460634380673,0.09737176626997568
10,-0.5371002341096014,0.21750171733274082,0.5520214661289362,0.8876216208029568,2.98689050041941,3.362893074227203
20,-0.5414440305755019,0.20842831614279195,0.5437225123944849,-2.3271863150632157,-0.23245728790292552,-0.2050557506329479
30,-0.5276567848742029,0.22229519632759956,0.556791401262087,-2.9294551882874327,-0.8504481127206109,-0.9100865286970787
40,-0.5417946487847007,0.21190167366668292,0.5469571086823357,0.17506149551442052,1.9449080352504429,1.5671306785449026
50,-0.5341944234242467,0.21896930242276658,0.5550137480031658,-0.044491022211531894,1.1345198191347448,0.6486323136248746
60,-0.529975332122769,0.21802309656883626,0.5526871738520039,-0.9769101942018927,-0.30140453608446893,-0.2872643770921567
70,-0.539683631934887,0.21112947548973565,0.5431842033289251,0.07991492319009558,0.536828916745581,0.7929685820235332
80,-0.5215957749238455,0.23366518535656555,0.5718947626633376,-3.037403550137977,-0.0136453339491589,-0.6882759052831406
90,-0.5584976847824036,0.19155196436850472,0.5301362252619816,-1.8492693279775365,-0.054184923222745374,-0.8075112366268338
100,-0.5333340128286818,0.2136925995281661,0.5546102298371969,-2.8742952279759537,-1.8829104651200606,-2.790783153921888
110,-0.5003669815671733,0.24702918537588114,0.5907957878316312,1.6566873665471245,1.956579905355324,1.400815033904638
120,-0.5361731039602089,0.2116747216706197,0.5545128329225544,1.2163996712832352,0.39348965034759775,0.45975252926784355
130,-0.5420212498431419,0.20754287737744595,0.541948133369047,3.8410576883376693,2.660187043478431,3.0314406846449495
140,-0.5130736819885575,0.2401197072592446,0.5665689744900931,-1.4858396877739977,-1.4893394911626734,-1.4700431365354605
150,-0.5388506896737332,0.2125419032530298,0.5511700753530084,-0.6993956427557124,-0.2632756121123584,-0.9133630938769859
160,-0.5503533054736902,0.19800819577041695,0.5353537079743318,0.5761057356035209,1.1957619197374991,0.5854016411574231
170,-0.5480067747860257,0.20305856993905738,0.5386538343853027,-1.1396435895076236,-0.6990224969677888,-0.9536609059854233
180,-0.548304138670339,0.20333083595417736,0.5389156043917186,1.3458789482236868,1.463315806437135,1.4237927538974533
190,-0.5333962856789731,0.21478413742971425,0.5525498470356064,-2.651812127298326,-1.9084694648673683,-1.9141068361005518
200,-0.5383599379167827,0.21071862367199867,0.5466367301416853,-1.3773808011878061,0.33528894932308245,-0.0528450475015767
210,-0.547496497652745,0.20270626306596828,0.5376538945999113,-1.4512389366592207,0.6553087974493765,0.17861339296681444
220,-0.5354662777998239,0.2093292944711729,0.5499613358385409,-1.2624621321239664,0.40133788043801305,0.6874747375485519
230,-0.5220948773172873,0.22743547418170137,0.5637490166306753,-1.6459229269263937,-0.7546307445482118,-0.44586772036114974
240,-0.5229744385602325,0.22782605850247206,0.5586870751575624,-1.637679322587093,-0.9496384779084517,-0.8382598110676522
250,-0.5487142716185529,0.19956077761394803,0.5382663165343162,-3.097989580296663,-2.256105356338918,-2.627346301119195
260,-0.5093170663349338,0.2388395930753794,0.5783679340011669,-1.0450815067613484,0.17065986523934057,-0.7702348418748579
270,-0.5337199012366841,0.21594371276122257,0.5541756082916931,-1.5471842663580162,0.36762841600285634,-0.9339553400553153
280,-0.5151324713196737,0.23348951378014754,0.5733131211408665,-2.089945137487565,-0.491145389427591,-0.8452861518160406
290,-0.529361811041281,0.21597379709871758,0.5601924358191164,-0.11142465203662902,0.5688953299311414,1.6582512281606672
300,-0.5446573509690766,0.20055111263986988,0.5463356764430087,-1.1243454915392757,-0.2013002321464522,0.8609693790236496
310,-0.5436410024173212,0.2067006725787554,0.5442489657689444,0.7036384018670838,1.902889096726878,2.518186634923781
320,-0.5206447730187346,0.226253562125477,0.5662793563118138,0.09684490565576653,1.810052254667242,1.2558803353739763
330,-0.5161273486308459,0.23174178878727691,0.572929320764605,-1.300695595266588,-0.35750428529884914,-1.3015833426859067
340,-0.4986269615934923,0.24629603027021987,0.5864493097395295,0.035567008859567206,1.1955795313936606,-0.15304384765531776
350,-0.5325779008943557,0.21207991095436143,0.551164093417689,-3.357495817460585,-0.08407131597607492,-2.032478165168094
360,-0.5057873761273877,0.24000525898218827,0.5791325736048759,-6.921688520588722,-1.6819608730984907,-4.338736053864598
370,-0.5075850469065777,0.23618345182380937,0.5814760143333556,-4.917731502140298,0.7864191597394462,-2.582025205687831
380,-0.5172016029731583,0.22107827522069967,0.5802048961486264,-5.754985495495448,-0.3630506178842488,-4.2919003157715006
390,-0.5302339455453622,0.20478079871717192,0.561264140850534,-3.1130029079745007,0.6486181582228854,-3.14218119780664
400,-0.5315942929373358,0.20621019859117826,0.5594891320858127,-4.517688261870226,-0.9505607741858401,-4.338090979648305
410,-0.5429295734151649,0.19145990538283442,0.5485062677633833,-4.019152848332118,-1.253037619288081,-3.5443852607895954
420,-0.5053724412980986,0.23308178014308195,0.584578330134332,0.46434554703237696,2.6785466648707854,1.234968233895267
430,-0.5163590669517042,0.21908537453852692,0.5739644033076117,-3.6950194277050885,-1.61333060606876,-3.095250203416565
440,-0.529541232772605,0.20474630577587039,0.564618083247282,-1.03248447644706,1.020516792394277,-1.19391133318258
450,-0.523724251922298,0.2168749287954026,0.5757955043283927,-2.4782116982192752,-0.23544832589632658,-3.655738981721889
460,-0.5119919029877102,0.22636682031799268,0.5906063149103324,-3.17239155622532,0.3704205253898418,-4.632721673887021
470,-0.5412738771504091,0.19368918490263878,0.5595086098840726,-4.632680855891544,1.7865348775844465,-3.3696273127417906
480,-0.5117161120973541,0.22337828554144837,0.5915962858694968,-3.1487277858074365,2.446166946845686,-0.35234898540962356
490,-0.5363194400244781,0.15675682991109985,0.5967944676404069,7.416657120997048,0.4714590051352717,12.11338291756895
500,-0.5230543800638194,0.1528487768639006,0.6729789574099554,7.3517319156013645,-0.22675279985181085,11.975780037124625
510,-0.5354588920992193,0.23122780162312292,0.7241276233127956,2.0300368421475325,-7.267097826675999,3.8228646379212763
520,-0.5362461487104285,0.2785088145357072,0.6964176762231815,0.21413385471234864,-14.500475100409663,0.37215159029640915
530,-0.45615725168091303,0.22255095488758012,0.6436573253257842,-2.7955229766974736,-18.041904847650148,-0.8395680256386608
540,-0.38174297720347194,0.12239572270286483,0.6152331587275879,-9.450450203432979,-17.368068899539416,-8.010858092779742
550,-0.4026327029351916,0.12176736928934528,0.5685085804742165,-10.166390604400112,-11.316030250450712,-20.46003650550303
560,-0.4917632716901429,0.27256938446259316,0.621019757029146,-43.928537610210824,-24.166179590968877,-29.504616877381018
570,-0.36554504404982396,0.22284964614973576,0.5852200727631067,-52.19476593760939,-12.880511667678064,-26.930532397062752
580,-0.366950012620437,0.2247995796004026,0.632342728949876,-58.94589863814273,-10.96872121862488,-32.44185297127217
590,-0.4418550665328946,0.20030334989714588,0.6248411074487329,-56.25330056236711,-9.859090802174183,-32.787287342971204
600,-0.4515848203250707,0.1977681865653793,0.6112773732737753,-46.422667423641506,-6.690222241498914,-26.15451719262705
610,-0.46869028783164085,0.18244040177513587,0.6001881548556424,-41.91318202927053,-7.98407434657988,-21.757040126530512
620,-0.4452941009219495,0.12446612547001272,0.5902211949277881,-38.89503382170549,-6.311923335887371,-13.025691171930953
630,-0.43108608753611843,0.09417494540208116,0.5567960334633271,-36.24090632722802,-6.791607851717623,0.6204616396493856
640,-0.46208470532484663,0.037380213628623316,0.48762414295223544,-42.14530426175726,-10.163768676638181,-7.630430864711981
650,-0.501686133477417,-0.02124875862840074,0.5050167563382366,-41.84078349866725,-6.224816831635174,-9.941433352864575
660,-0.48923247119464774,0.0177688338416939,0.5533448095732044,-40.29190166811418,-1.738637730900499,-10.097817135257499
670,-0.5107197188339402,0.06343704889749369,0.578552268177996,-42.41421692032875,-2.609380687723239,-12.751035599691999
680,-0.5924837591510222,0.08868923762017471,0.5910902878563494,-42.526739376635,-1.6505218282771814,-8.922964671200019
690,-0.6206526489072223,0.12204467963361282,0.622437644386653,-37.25915837581622,-1.1341061262174292,0.45930569280317735
700,-0.5980058167894544,-0.058858660303751684,0.48790399708871474,-19.325684850601807,-9.711133371062399,2.9597046280687715
710,-0.539342239573941,-0.0008402717285505845,0.4128930456447307,-22.38028926747687,-1.336244237224711,-1.671233711255834
720,-0.4962764805886624,0.00932974164215183,0.36302542473871197,-23.29390262670306,8.111763868125015,-6.361465374529445
730,-0.48363966173763756,-0.016704024930452633,0.3390757416853333,-19.396554037713834,20.58121738253837,-6.915909196495296
740,-0.9734249832030915,-0.0004037025829448371,0.9853458537910655,-23.97906038990243,8.398410725106123,-14.904740289121095
750,-1.0882851110937073,0.03084327635200614,1.113172412195703,-11.390254098055337,5.41258275032324,-6.3402394629798895
760,-0.6934526004577037,0.025494932706782533,0.6138360784676402,1.4633702656163874,9.660181387730045,0.5821311510308866
770,-0.534771358913728,0.031043666946722212,0.6360376831372303,-5.969963313968621,7.131608220870842,-11.467612601173178
780,-0.6220908420860526,-0.12656285835676073,0.377991580512332,-15.595974511862277,8.128735028226382,-17.856884323729396
790,-0.5848119027040379,0.08219905198250742,0.5477490123307944,8.978116989030498,9.997368675960017,-17.24497432074732
800,-0.48671982856902385,-0.1515533972939487,0.8352647759981012,11.28578414142994,12.218182032785665,-10.972735470051255
810,-0.538089304936513,-0.11340378282640455,0.6668912583593607,13.428783235309334,14.0903105849274,-7.236590718247799
820,-0.5849914202548816,0.13227950764288632,0.7116211665324295,28.089454791119,10.092383041010097,-4.3731256032072015
830,-0.5485472627078661,0.20602510261617973,1.2040283436194477,39.39725104604214,6.465803697556703,2.8712471974715505
840,-0.6428160742733863,0.030922575765433037,1.0393269909419178,39.12410511546194,4.8027340834798435,6.832361504566651
850,-1.0105654188607684,-0.1391450785663519,-0.5046503848642405,35.388708796125584,6.682181709401956,2.658063934734259
860,-0.4856562512822267,-0.056837078024153734,0.5569761289309489,-17.22395854101467,11.86437793697117,2.482670125631964
870,-0.5161949286828404,-0.15337026228515266,0.8102997415981615,28.821750624534268,9.658906469448993,1.5646941463188437
880,-0.5745541653224189,0.18423862327353988,0.3754129265490262,17.452635085412606,6.427461222373529,4.0234351920978
890,-0.38608075832425676,0.36962137327196715,0.8314105004782384,42.45689292835523,2.3132441751935096,5.318803193342875
900,-0.23364668037964526,0.436764030929714,1.2135001451209075,49.43121413349375,-5.771727476374382,1.9457465341985396
910,-0.18436468848555443,0.3792433650947712,1.3649712635530848,32.263908669759985,-14.105946915694647,-2.981426953912975
920,-0.22992538684471944,0.14351117341790007,1.3260432682050698,11.450793393077031,-22.194847673433326,-11.991536101454312
930,-0.43333414127201186,-0.1430041706843347,0.7707742509309168,9.358411180226616,-17.371036804596265,-13.212462032959358
940,-0.5013222308925994,0.19877691086789578,0.6264992678809638,22.71048574141259,-15.492978349411366,-7.275756630224498
950,-0.2575677137455677,0.13380051872507195,0.919313648479363,-5.427021353601105,-12.337300414322725,-7.338982153423919
960,-0.33710238325625397,0.12964421874270488,0.8280268080752803,-38.85523233750641,-13.172108741203811,-7.4732349034338
970,-0.43235423367277387,0.10440030147447253,0.7011082877505883,-22.556911705279486,0.061479451703386756,-3.014055688733259
980,-0.5505211712508391,0.01327864617449551,0.5722262788365519,-3.855039376155676,7.443769378950987,1.8402991182765764
990,-0.5299756455481764,0.047641469522346755,0.59165594001149,2.5582205608481683,4.83947297459052,5.0249801358598365
1000,-0.5499116289700732,0.04130681407489689,0.561776534131381,13.231444382232908,4.829586657760014,11.416793996502971
1010,-0.5298526748922447,0.07737058994917193,0.5809171743856966,17.025585983016583,1.0415086474087292,12.500995794093827
1020,-0.5519201422136278,0.08726904444790058,0.561246614003907,16.6605443988811,-3.1680669991892962,9.435177328640982
1030,-0.5273951671078383,0.09718169036914208,0.594155176759273,12.873899764132641,-2.3697861100282336,8.966498849127497
1040,-0.5350921916631485,0.0872495663619958,0.5887174186307443,2.3120849926565508,-0.2104646232838947,0.3867247325588692
1050,-0.5283049260795147,0.08537946899756911,0.5915766782245646,-3.0526272280710245,0.47024503432942244,-3.800752061586202
1060,-0.5371713412265918,0.06538690300787377,0.5778043905906424,-7.358567138783815,-3.4984308301811557,-8.347266129718447
1070,-0.5188345263953021,0.07740967313166426,0.5949866164522642,-3.340244988549852,-1.4207868873165548,-5.534026804182475
1080,-0.5340895394964468,0.06041236813421887,0.5824299174084638,-4.5207637564387975,-5.396116934424267,-8.0127021370441
1090,-0.5241514154561404,0.06741559910336617,0.5948401093298578,-0.7506909709359566,-4.489228315597953,-5.758667976269041
1100,-0.5300577635696597,0.0686685754128433,0.5946135343349184,2.286738511917333,-3.265757672225323,-3.7201757294900175
1110,-0.5336924183414488,0.062426851967004884,0.5814895485314431,0.7648047512235308,-0.6040965172807593,-0.8115272645754203
1120,-0.5323493447374804,0.06521573731917443,0.5860469635877641,0.7233222819057307,0.7051199776741761,0.18458273781194146
1130,-0.529609564491624,0.06571892288983298,0.5876279709948456,1.859272035898093,1.6969214895069964,1.2777617760961733
1140,-0.531105937312207,0.0604726809244327,0.5871887048780354,-0.06950384026568313,-1.224473850390657,-1.178691593073993
1150,-0.4972531730057628,0.09205385904655322,0.6225850263742132,3.348323616148372,0.7171571568349031,1.3250250057262756
1160,-0.5233935006667396,0.06675568594134114,0.5921752964187144,3.563462826038436,-0.0899909553692726,1.068918412530014
1170,-0.5077314693773037,0.088779444631095,0.6096562410124342,2.3675765241293574,-0.13878803294042658,1.294919023047116
1180,-0.5272386502501245,0.07134128612790974,0.591622286028783,-3.288651955735703,-1.9349406469026653,-2.5045512124900755
1190,-0.5513106553642452,0.037790923040051466,0.5669945693642338,-0.8274032648019558,0.09867639107127779,-0.5533974275637762
1200,-0.5159399148602652,0.07572965590539463,0.5996285842488221,0.3993398298794337,0.9781226909994223,0.8461448916433505
1210,-0.5441403667954083,0.05164820832837643,0.5756095867545002,3.2375602318105727,3.0094143202515418,3.4291545593114456
1220,-0.4999056543793994,0.10149482368398101,0.622946383949909,1.085772130965947,0.025102975836879482,1.2574834938527717
1230,-0.5626258447500194,0.043724980304788046,0.5564570887680348,1.3008373519826126,-0.12470395267107726,1.6281387017038684
1240,-0.528030967684587,0.07625606742423896,0.5860782697416002,2.264934658838298,0.7291538290762312,1.9583570742869911
1250,-0.5100238687214391,0.08716806159406036,0.6068392357772815,-0.068541368674641,-2.0666344169204542,-1.2274421596238538
1260,-0.5056038323045253,0.09258631946652002,0.6125368965129088,0.13112980178269673,-1.6942787387238227,-1.3289884676272472
1270,-0.5362033411777716,0.059504684385674154,0.5826263011180872,1.4544762800894573,0.10894857634998534,0.388483004587433
1280,-0.5197033115055176,0.07434283604690614,0.5977121224321181,-1.1412321004572794,-1.4452068432165204,-1.8841217972793882
1290,-0.5271607509333358,0.06822190085884904,0.5917333052706977,-0.7751240063202294,0.015718519873733294,-0.9207870829753422
1300,-0.5286986813677058,0.06762742603428872,0.5895418218156009,-1.8603449261026916,-0.6395647479816237,-2.111016217846183
1310,-0.5127876649719028,0.08044497175455906,0.5999716598443569,-0.541926469142386,0.05821245602153391,-1.3888550502884232
1320,-0.5176602878940773,0.07071217271598002,0.5926878909846246,-2.372132735529157,-3.081903411706178,-2.904527524143143
1330,-0.5099947976202072,0.08180906655793833,0.6128248907943263,-0.8967007493338013,-2.4600542479134635,-1.262563090455375
1340,-0.5329367951092302,0.053571012917946095,0.5893244764780311,0.6292595363696838,-1.7224755705430919,0.8318006940983611
1350,-0.4938849717978109,0.09602391711670279,0.6316386915789892,4.224266924806845,1.2779174587992723,4.367426047452515
1360,-0.5216829098672465,0.07641748690119235,0.6021105161625472,6.167423780194083,3.3873223197073017,6.271370477701872
1370,-0.5250366505189952,0.07788453122781132,0.5940606804198297,1.5739382013882155,-0.4772881070020518,1.7287954653624413
1380,-0.5221991471372898,0.08163029396773545,0.5934859742577822,-0.5859431793334564,-2.2381125520367435,-1.4895747721531825
1390,-0.522640827952026,0.07965999547142995,0.5930259201924993,-1.70055952805243,-3.4937577781298437,-4.3873833806095925
1400,-0.5360795536465439,0.06198589627988621,0.581391951547557,-2.890248452279714,-4.56440129723625,-5.736779716160356
1410,-0.5056868641187724,0.0904701187426927,0.6118695286480426,0.5384201233332455,-0.8615872336070634,-1.5207148852645485
1420,-0.5307607382478579,0.06283698464377771,0.5852452448087978,-0.2477147795118917,-2.844115535549723,-2.652595545704734
1430,-0.513540093517574,0.07941682526952171,0.6008160686758445,1.6845893417204492,-1.0111925713952052,0.5717989577261826
1440,-0.5056229544447177,0.08848230057595152,0.6111829739656601,2.932971932590576,-0.04217380741078397,2.3210194362051673
1450,-0.49423377359527576,0.10475759738699897,0.6224354865164013,3.1942065788610026,2.4152869018577885,3.876235928318427
1460,-0.5258059641721916,0.07881739784605635,0.5913305780609744,0.02124892710064391,1.2793189521584085,1.6539867652683002
1470,-0.5015460308125524,0.10496666683258607,0.6180279583096404,2.7582943688210655,3.0139214900296625,3.474768681122601
1480,-0.5271947059013633,0.07719870436385473,0.589545374158357,2.8005102494395007,1.2915640772209178,1.9584543775195442
1490,-0.5063730050234948,0.0972915812315511,0.617547044393257,2.530917737606979,-0.11707331957776257,0.5823001488126257
1500,-0.5293511474830169,0.07720837432683622,0.5937433420257486,6.341887066109775,2.806073096394474,2.9369854878009187
1510,-0.5026352210219169,0.10590877744802453,0.613178803208102,4.59653789805504,1.569925894889546,1.260837143288838
1520,-0.5206223771793784,0.08935982401856939,0.5931715734484999,-0.2093786719745523,-1.8778725666000748,-1.9519828706732412
1530,-0.48311989629188423,0.12573170522454274,0.6322176388381686,-1.4239296756723725,-1.2675421259725257,-1.0765477954162221
1540,-0.5299183341898231,0.07679225893712618,0.5856976227790678,-3.7743389957069886,-1.852061030939983,-1.604832061974528
1550,-0.5029408738104771,0.10139128212987264,0.6107900292198575,-4.138898477385901,-1.277192220731707,-0.944125941547353
1560,-0.5150542603088661,0.08384905608013922,0.5992387366836136,-2.3263794845250887,0.0175188249666655,0.5393742250588918
1570,-0.5299194296569483,0.07347462568885152,0.5900681735264197,-2.4358229550981934,-1.1208536617249294,-0.6102596877469366
1580,-0.527669348884847,0.07615906937420013,0.5866805228487267,-0.6536312613801192,-0.4762845762211752,0.6016153363636876
1590,-0.5348562185015434,0.07012405913248401,0.575800739071081,-2.4864502369207933,-1.2950294438395296,0.5113128012922059
1600,-0.5097543914544364,0.09444042920242185,0.6033276306517203,-1.5609996034407936,0.5418055884888346,2.2185183141975164
1610,-0.5252767595217875,0.07850530754126533,0.5932183884613311,1.2344061171409988,3.102831259877902,4.274703124814064
1620,-0.5038362071766894,0.10211311720088602,0.6167563161399878,-0.35188638237513636,0.9739162130211723,1.9429324005448025
1630,-0.5631248846398339,0.0462241024190136,0.5546292370763239,1.4773015569920687,2.823297232159245,3.933431605896712
1640,-0.533922676016353,0.07548045189750438,0.583497247404016,1.7229121837793786,2.415396261904913,3.5489634055253716
1650,-0.5193036717031629,0.08685477529489673,0.5979619916299315,0.3734063407474093,-0.6735825945024498,1.5530466638749778
1660,-0.5130200032274665,0.0977240884085492,0.5997671704413013,-3.266696742536924,-1.772655367529498,-1.645570993811814
1670,-0.527309993946594,0.08003922978811055,0.5883719358630956,-3.484552828306129,0.023398662471873458,-1.1855923672412596
1680,-0.5174740884806908,0.08750412510853936,0.598877793087886,-3.4522323722177006,0.3679265570247138,-1.3772725411656803
1690,-0.528980626343655,0.07511555133659643,0.5867481015076302,-0.1169895629448765,2.1025900751382514,0.3104899561446548
1700,-0.5320310337912253,0.0717640883280418,0.5840276126799953,-1.0164063715172322,-1.259128568129343,-2.676082645028242
1710,-0.5248648767342138,0.07931435385121167,0.5920252806481068,-0.9785976746254432,-3.149510412659614,-3.7919415183387657
1720,-0.5476494652844129,0.055290932154207745,0.5706625129318443,6.1522472233612895,2.8542544877214686,2.7960681151465527
1730,-0.5204670585363936,0.08813114537883823,0.5922125566829519,0.1850238430997857,-1.0212369065015958,-2.1293509141819795
1740,-0.5016948744272075,0.1043977770881033,0.6139068428337184,1.0640390135138338,2.167286846979521,0.3120546111492173
1750,-0.5164374856438158,0.08574206452793316,0.6005955957094022,0.3485503555490982,1.8967733400982538,0.2333030025907431
1760,-0.5346489093890839,0.0686470641061026,0.5831834235989605,0.7634648600316682,1.2742530840034183,0.5476735423492158
1770,-0.5319506185525973,0.07682350157670526,0.5879617395665322,2.5741535541611418,1.1588100918761945,1.4170962730834815
1780,-0.546593177162547,0.06588071404664181,0.5735685431276861,4.232817994861624,1.2898940321694774,2.357803467348837
1790,-0.5057954841741541,0.10526851548058029,0.6101373012768272,2.103895680185384,-0.3821052039900629,1.002509048969353
1800,-0.5204134999782765,0.0932695036418715,0.598373300494537,1.700265489000017,1.6837142097590818,0.8224663714793929
1810,-0.5207190894624429,0.0881086572880264,0.5969733041561404,-2.180467328205858,-2.214927611636906,-3.3788929420600278
1820,-0.5380221502102598,0.07229690021506467,0.5771328693189006,-0.8895502895833963,-1.268481382025219,-2.5285399451789177
1830,-0.5202849244315587,0.0877220993648408,0.5983555129801154,-0.29241973122737874,-0.829294116550831,-1.9812001585141084
1840,-0.5210937605767166,0.08587003853686914,0.599710455507514,-0.7326475850733773,-0.7716728653753281,-1.8747342828078475
1850,-0.5057520285061377,0.10206283789863452,0.6132839299362531,-1.3110619057312702,-1.0592916246856168,-1.6705115360081293
1860,-0.5405136201995403,0.06884944926832974,0.5738217582660027,-1.5124686076014393,-1.6576456241079203,-1.1763436306297979
1870,-0.5494910021659904,0.06180077943529307,0.5608257696506307,0.9849253983001931,0.7130770187555278,1.9058162129967569
1880,-0.5038085717632426,0.1056144763493245,0.6146733737279074,0.43292543132343453,1.473726993879842,1.555722828362572
1890,-0.5309480229047839,0.08087132526185081,0.5863084987672874,-3.480952847293914,-0.2666170063629483,-1.2503216441834106
1900,-0.491290775522929,0.11685167275904762,0.6251199361313825,0.2953674973214868,3.0921151998073926,1.744383012091088
1910,-0.5370995603038383,0.06996709044336513,0.58173523884066,1.1526012510342745,2.7918060882972804,1.2329678328710387
1920,-0.5216927392082992,0.0850341318910243,0.5983061923816955,-1.4568577003808678,-1.2265645303386898,-2.5500015363794213
1930,-0.5195101577591947,0.08603105214924534,0.5993437762605903,-0.14865748679133972,-0.15565253903012466,-0.3790346288361657
1940,-0.5044297457763165,0.09946975516820772,0.6132081946505994,-1.7143887636257569,-0.6389174819365376,0.4516806672705249
1950,-0.5011338200680517,0.10147110247216651,0.6168227232646741,-4.56922391801729,-3.30317359796254,-2.1944203314662896
1960,-0.5167285984708129,0.08461188821922207,0.6011267015963858,-0.22788482732859894,0.008654160313996795,0.7097429587768922
