time_ms,ax,ay,az,gx,gy,gz
0,-0.653387429780484,0.06149297807370312,0.6039031729761479,4.771432698869974,3.76858960055464,3.2535360808416263
10,-0.6826850653112188,0.024722291008510006,0.5760631044846095,-3.979071543427951,0.24759257485463068,-1.1946770363131753
20,-0.6873514101279564,0.015289707397186037,0.5753525616664052,-0.40384418122843124,2.402422914304499,2.0000348037645796
30,-0.6996920619534066,0.004292682460767328,0.5631418918329466,3.8177905742915303,1.950107154023643,3.318709562254054
40,-0.6881495108158272,0.016767924108538848,0.5709482348066696,5.366449665195988,1.021336282952976,3.0577100892864464
50,-0.6889657593743567,0.024699287977797312,0.5674458037997491,-0.7249644813222176,-4.163436444339713,-2.707996285505101
60,-0.69914186855608,0.013902928916290391,0.5547903773224759,3.3235528782237687,0.704346843497774,0.5407552157654805
70,-0.7133957634116931,-0.009512024683159152,0.5474167435918629,0.6356635192014142,2.5480881222025955,1.1830031201123943
80,-0.6896660209083282,0.012960403685649956,0.5688823319941775,-2.3363367463821927,-1.4403904580684128,-1.5383715539563416
90,-0.7106996666410023,0.0008782297544908668,0.5445849149692453,-0.9439073238794284,-1.6193643820594281,-0.16963464433116981
100,-0.7242104528307178,-0.010672485983125984,0.5361204568420744,1.2213422054024934,-0.7724745865916681,1.2897325707783345
110,-0.6945450800784867,0.020958775217005125,0.5652400196669756,4.260093157926656,1.4538134571333035,3.3431452354685423
120,-0.6842805855514074,0.02896286344453775,0.5752442688709616,-1.0485828576072673,-2.414623783330837,-1.7149528384701136
130,-0.7019115336042518,0.0074414697891087705,0.5552528130711055,-0.3006485477463997,0.7934575808963366,0.22938669144560053
140,-0.7095110299285866,-0.000465826575328461,0.5469982500307123,-0.24492374040941967,0.6620122606435184,-0.019680319080586206
150,-0.6806771841659522,0.0297439821635124,0.5734747860992069,0.5244328552472812,-0.4665446256662599,-0.5203131238831022
160,-0.6877450562808479,0.019798398115892398,0.5677784295202045,1.8500929121265983,0.14851730642877234,0.5574183903539713
170,-0.7304237824573895,-0.023328242465184144,0.5309977096701586,0.13260609344882646,-1.350594664602418,-0.3244778074048408
180,-0.6910131331628284,0.016096540579391187,0.5710834338113674,1.757587912971898,-0.0855847610452542,1.6646827471196122
190,-0.70651791687632,0.007650039583295427,0.5614773591499709,-2.9452226952289293,-1.6680537072939448,1.0108944385459238
200,-0.7030056977072251,0.005311531711534138,0.5540605249206079,-0.8353752366569172,1.5961702797655601,5.172574915382004
210,-0.7185915482139348,-0.025748860139420085,0.5200311862601461,3.330078396987065,1.0673339930959722,5.11147115773289
220,-0.6966199986796535,0.01714159519608233,0.5603262735297937,2.509573326594138,-0.0263269222693423,4.765185461412679
230,-0.7076536218657637,0.017909560958165927,0.5571677348200405,2.879935439656039,0.6986979792939574,5.1948142315258465
240,-0.7154499951048615,0.014346633365543801,0.5586157663276402,0.49383980333793237,0.7940099629952486,3.0485295207779988
250,-0.6961262799344574,0.02581548221376604,0.5804897269943617,-2.5427544728365925,-3.2814966595115687,-4.324046200393529
260,-0.6854830656347902,0.009643317258567305,0.5929421008962856,10.220786058154248,-3.3904473001653024,-5.649324004307419
270,-0.6679399893418492,0.03127867747480834,0.5938715217262689,17.699477569301898,-4.624332191345847,-3.505704094021591
280,-0.7125346273936772,-0.00632440243784276,0.5651316959856536,12.21434161164255,-4.501124918126591,-3.333656090878295
290,-0.7064004073821399,0.010489346174364512,0.5382879877915118,12.108721079061995,-8.011922850805254,-4.980703533771905
300,-0.7153811483652016,0.016892122032868388,0.5703234844287257,10.3660756678758,-10.422895730705026,-3.6654434403568272
310,-0.6831851931144278,0.010818209873732373,0.6511494083455692,-1.8031438978810412,-16.304646095571123,-3.362169901898943
320,-0.685706635873683,-0.0164342290518525,0.591094209192237,-11.299120659348405,-19.64011841035069,0.7720176469990379
330,-0.6847033613488467,-0.05828897465152552,0.5636665267372151,-13.517982915613565,-22.51880590098585,-6.772857368336812
340,-0.6902474587391191,0.00874040957199219,0.5522018956810489,-10.92928786264335,-18.35807157779739,-5.014021176822297
350,-0.6536136303611675,0.0477635659786893,0.5749078810282875,-9.031968567689557,-17.56698318206106,-3.1440819386709924
360,-0.653134247891686,-0.008948612424715787,0.539369328660565,-30.914952873689934,-16.79439496530806,-8.9156582997807
370,-0.6718777763036377,-0.009309796852301135,0.5277943749627635,-36.181270796330644,-9.807560987405916,-9.57360114971502
380,-0.6950748932202925,0.01502676993945622,0.5778687385755011,-34.799123228054675,-15.656848109537643,-14.122078399059589
390,-0.7155884243642966,0.04373588903700199,0.5400150180623681,-50.497617952711245,-10.93611793972502,-9.023223695889458
400,-0.6591245194655985,0.030734106143150204,0.5276369628033906,-33.47960105023672,-3.651097465376589,0.6385560563044097
410,-0.6068600072168204,0.02503684732993809,0.5403731098473347,-37.84254326156381,2.1480239708065385,4.9287109752071405
420,-0.7060966408206891,-0.1272393432503413,0.672886568922923,-27.167639317290032,-2.3011161491862477,0.7746639393390968
430,-0.7986263083192222,-0.14531783319103797,0.6523224448239128,-58.12062489707786,-5.8550968844930305,-8.8192128243914
440,-0.7202667757984058,-0.027721814181213653,0.59854326048125,-54.83306567276292,-7.709778380293095,-8.920371442681526
450,-0.6934151740393808,-0.10011619239592502,0.6109604527248587,-60.5438944161681,-1.794583753405754,-10.361653083101809
460,-0.6747049836908805,-0.11887739537337283,0.6300289821766726,-35.6738966117843,1.468010643195396,-9.245116880117278
470,-0.686167555211639,-0.06935287001199925,0.5303273578250964,-26.08746531513159,3.309555922606153,-5.081028562580741
480,-0.7202420987275295,-0.11702556828389979,0.5294227795362796,-2.656900035810235,2.960221832807801,-4.07628624037927
490,-0.7230482555629815,-0.12425010237715098,0.4318278784991526,14.870303593062932,17.478020396006514,0.8546058067330962
500,-0.6492034718192567,-0.08574371993645162,0.5422818971363479,41.1010614077102,25.893832943587814,5.218683414903887
510,-0.6959088969898347,-0.07386051932276853,0.514051731044497,64.58943340014042,23.771121717024133,10.833448793500178
520,-0.6685753077721802,-0.04189792716440119,0.5826043278917966,62.3121040006518,18.381260039404815,8.401392470354331
530,-0.6535378179174419,0.01797324379141843,0.5972221239136064,55.12177996907883,16.79339512884654,7.9426147336599255
540,-0.8310021130337432,0.023206427275851805,0.30339912569074745,44.5444130562882,19.150740938224793,13.74436832415902
550,-0.7718718756755505,0.10151544930387965,0.45027476482052686,34.73659131056044,21.16073031561443,13.40804051594076
560,-0.6609834913925523,0.09080374005675881,0.6323056036054306,14.68178459424681,18.539720195288734,8.866739489667491
570,-0.5867919604180903,-0.03435447863602331,0.7818466897611233,-3.242207061361854,10.22543292284952,3.1850394611121646
580,-0.6361551271960985,-0.011725812151282305,0.6662685748988012,0.15118003020842016,12.084275938703552,3.969184259214284
590,-0.6900085277942044,0.0174409508987439,0.596835704130229,-1.0456971241290625,13.348047270389364,4.063179275376223
600,-0.6883039969887851,0.04561581796879374,0.5950904514823687,-6.502301116042392,8.692779884387805,2.3578575839360827
610,-0.6837658827695886,-0.00646960981899267,0.5694273590087238,-5.655770562992649,10.228234515337604,8.226169010818275
620,-0.7469766033609683,-0.01758746587221282,0.4680752354854723,-7.916535712599185,2.785857191314026,4.916650693420828
630,-0.6846924793261618,0.019857513603199713,0.5767285099070198,-1.2572102230259155,-0.19640270158597062,-0.049044787832080106
640,-0.7045735077663202,0.007400853037026831,0.5550987656780111,0.0689167141389162,-0.9840198413391404,1.0849708336699901
650,-0.6724021140294707,0.03786467124684182,0.5796936296357356,4.390364145713772,-0.3800960595566023,2.6525954873393665
660,-0.7033358174078407,0.01277785537208549,0.5581513099320538,4.382681753505272,-1.586158069944575,0.5573207069888875
670,-0.6774380438607022,0.04108392405618627,0.5822349792196472,5.813474318562835,0.597720993350392,0.9094199966316179
680,-0.7392324448298326,-0.011932946972820834,0.5228589862683859,4.199044011695009,0.3743582367943246,0.14469022613634686
690,-0.6763335011326151,0.04654009609694017,0.5787718621199689,3.3340482551055315,-0.8158688530332641,0.4614366499261757
700,-0.6944893259636211,0.02432930649644225,0.568221331466188,1.4801160471138335,-0.40473325638303737,0.47677939105314837
710,-0.6581081166103887,0.06299776714444194,0.5993209894165774,-0.22463857218127303,-1.5737241182291697,-0.05451427987494295
720,-0.6899533676375379,0.033555956361796306,0.5710482995144266,1.1057442254592083,-0.36323490514978474,2.3055782144539707
730,-0.709686226731584,0.007168914856661079,0.5529037997694758,0.8762982420054696,-0.3860109064737365,1.5504579676303951
740,-0.723665180099846,0.0035900282221509316,0.5345149535275354,-1.2829561865870838,-1.1443679089850687,-0.5370642976423714
750,-0.699257415208111,0.01701027115381335,0.5561639189456887,1.5143012780497793,2.438167832552842,2.004494218732093
760,-0.6786373336439088,0.0346228086953423,0.577742749861734,-2.7970481026749456,-2.0113425656267614,-1.9288350210170553
770,-0.6770969572442121,0.04075366671322935,0.5892163607445083,1.0103049831874646,1.276694321472382,1.8605157926339313
780,-0.6828051077805145,0.0379086093057317,0.580172714798484,-0.1485412580185525,0.1055309880605449,1.0343336657838398
790,-0.702114973777724,0.012370944327983035,0.5589844145349689,-0.667216341500152,0.40372986069606887,0.9782765044431004
800,-0.6681320094897931,0.05201118522741771,0.5944191372443995,-1.5839020605527272,0.04881183690529356,0.380143540447649
810,-0.690655428492012,0.027123338165704777,0.5692124789144152,-3.3222106652875594,-2.919382209584682,-2.703584268479383
820,-0.6816393756366956,0.029463827277825535,0.5745327219429903,-0.8895258964525772,-1.893025614513876,-1.2449159381151829
830,-0.6994422554462819,0.012945051366637705,0.558645025889186,1.9140357757752369,1.4249802206548832,2.479213399686336
840,-0.7022734436846689,0.011560630731813886,0.5550960380890815,-2.8129786369768808,-1.7736859340978404,-0.7041133823226616
850,-0.6935363938704153,0.027091816010234863,0.5662077171328619,0.10647075497810077,2.2164587066114105,2.4528163956139415
860,-0.7098188838265825,0.01672114629790735,0.5516598283838923,-3.161577678411296,-1.2624599416394797,-2.362539822072908
870,-0.6872870453948232,0.030835480297194847,0.5719136731467985,0.875825158523858,0.9237702894453274,0.10452422142389273
880,-0.6828739684572493,0.02849222435627789,0.5805369591268547,3.084468652025456,1.822235495498516,1.877087435968403
890,-0.6957121054131176,0.021137556795363867,0.5689230893459162,-0.5290153208084342,-1.2173809584522801,-1.057531645175707
900,-0.7004029568331642,0.02046516626908615,0.5595073600658931,-0.22855321554139144,-0.4665561825656145,-0.03409209878352515
910,-0.6966526802097563,0.021340381858238246,0.5632875738908529,-0.7694062271393601,-0.8610195095247193,-0.9406344544547109
920,-0.6861170418274598,0.030305198813032175,0.5732454462893707,-1.3017444579665667,-0.4672342550919094,-1.0680298102004557
930,-0.6951691264085313,0.023492424378350835,0.5652517117878975,-3.6803837917913187,-2.379818541051028,-3.031536417903202
940,-0.6987830492958219,0.0129086551284967,0.5604435436896891,1.3572489495347462,0.9415729667105102,1.3156830110819362
950,-0.7137817279896039,-0.0007368260396739459,0.5507284175978528,3.041209148448104,0.46563444064536497,1.0114305479875139
960,-0.6735416065767009,0.040737010881935085,0.5803509072275466,2.971104759257252,-1.0277188883274768,-1.449713920691297
970,-0.6853342067841058,0.03007024976103818,0.5752282482955016,2.5931033658654394,0.6247972105818851,-0.5210338331527333
980,-0.7182314232830154,-0.008430764324968622,0.5444122037923472,-1.288752131553589,-0.23917053357920165,-1.9460930440975637
990,-0.6963386689711882,0.01180439073400907,0.5606223134985526,0.6804267923193953,2.487601780202603,1.2031610235039862
1000,-0.6940783893381929,0.01986634050451126,0.5654224296914183,3.1561699863812933,0.12502575808003202,2.490850055820277
1010,-0.6867605465019452,0.029010042350391445,0.5725449491593049,1.845963850142135,-0.509235675118634,1.6972676698561269
1020,-0.6995088404709102,0.02268301491323697,0.5596886487442277,-0.07641653732264486,-1.4791477941099715,-0.48009872650027263
1030,-0.6900872436310452,0.040368343471185286,0.5707711328203839,-2.6823635486689605,-1.2181355279888684,-1.6298888543827255
