time_ms,ax,ay,az,gx,gy,gz
0,-0.7477571093623558,0.05459938708166876,0.46185202669406805,-0.6042108640990003,1.0648918075604519,-0.7977377752271984
10,-0.746149645415621,0.05813525924496368,0.4695459103897842,-0.0009596769383237308,0.2353508356136041,0.09051398578746161
20,-0.7537193742692492,0.05039099047313327,0.45441779147849937,-1.5805077590983334,-0.8392540195441422,-0.837146025974859
30,-0.7650078174057933,0.037624111347600235,0.44672092147369485,-1.6041620741976703,-0.6136370374860589,-0.5064160822938039
40,-0.7683695911401925,0.036388610595481215,0.4418584893266666,2.6819956817089445,3.857261043558229,3.07103561382743
50,-0.7426735112214505,0.060593574810276926,0.4664698200776489,-2.030622102450577,-0.9402879317060223,-2.067141785247643
60,-0.7821156622640494,0.019173954401253628,0.4293676622084204,0.2062763874395992,0.8510903463759932,0.3019170405410677
70,-0.7663195761584405,0.035515643962866765,0.44336004137312723,-0.14032073597163114,0.4325857686544874,0.34297093872438167
80,-0.7488870225627728,0.0551122756324843,0.46266592318317523,1.0145393952749597,2.181519480863665,2.429504082736056
90,-0.767492527434218,0.03324614292547213,0.44051825602104006,0.8038768890820975,1.8404874064997028,2.4751621005318465
100,-0.7672363153026576,0.030473883028235713,0.4404122787793967,0.5994432955955472,0.16942568519173845,1.3458986711621548
110,-0.7867331362030988,0.015454729549089104,0.42234557298626013,2.1563170197007255,1.3235097207474482,2.8032386695392044
120,-0.7330890711492911,0.07633344759421633,0.4748396057035197,-0.45260535492156784,-0.14649350073518225,0.9017318002900494
130,-0.7593142181155669,0.051004951394439696,0.4552166247550712,-0.809088877254715,-0.027297162783697537,0.47239668101855636
140,-0.7647925038185013,0.038982391167034225,0.4482372222094634,1.7304871649082592,2.3722744377811846,3.1397179124493797
150,-0.7344003650355141,0.06959825940991038,0.4785561319032192,-1.9242539667884153,-2.752134493786061,-1.198354795055886
160,-0.7598901099890583,0.044607364605117356,0.45020972624493055,3.37407129030049,2.489606947486233,4.02308052595299
170,-0.7721850879763245,0.04177058387882144,0.4422985757784756,-1.3435557966775455,-0.5687146406250829,-0.31669056345570934
180,-0.7859413794421451,0.025180661574300253,0.42576960154710797,-0.2234239824896429,-0.5418215215243931,-0.7528970091966914
190,-0.7817663910870599,0.039423410658535454,0.43102655894431646,1.3968865101245425,-0.4639862553474468,-0.9616380705655413
200,-0.7782732920322204,0.03917037236193198,0.45263805174590405,0.6004693726559791,-1.528936234036232,-6.658926350708158
210,-0.788101737816554,0.015036091356523933,0.4380398336145191,5.783122173919632,0.5862788198622881,-3.6903532722126684
220,-0.7601699811466985,0.0520205420138672,0.4527954543661134,0.8318832645755214,0.9331685764458051,-1.9125271432188826
230,-0.7679930200759909,0.04009992805892856,0.4501760328630756,-3.4640162813761126,0.12824005427672375,-0.8646156010792634
240,-0.7271574903634794,0.09129493019124171,0.5129577361140999,1.0721096486911859,5.174177082097179,4.657251586578344
250,-0.7723371304622726,0.05459438703553497,0.46717343293507013,0.025938872803265622,0.06796003882485441,1.4885166940157002
260,-0.7766714705721871,0.05924427347642554,0.4743563168408331,-3.9059936805134927,-3.710665375083016,4.61520017909884
270,-0.7701651182554624,0.04448260993320993,0.4822112295981383,-2.7966172526481268,-3.3460611011795915,7.813430622493448
280,-0.7970872501450796,0.007528304466290693,0.45590589820290706,-1.6824242136099776,-5.432426642179912,5.55795149531639
290,-0.7755386030857884,0.03781614296579528,0.4872449495323714,-4.584212140631302,-11.317196110178232,0.24938293061111105
300,-0.7622611731222941,0.07350857878733741,0.49188062695361545,-4.426622804386696,-12.154060528618162,1.1592063437847377
310,-0.7834622952966545,0.09582091415100648,0.45593149251192017,-4.738537683441089,-11.219854796558193,6.717439921741
320,-0.7493814804376084,0.1788051739293428,0.5089829091358752,-11.629212182253465,-16.92740364403309,10.299803236897443
330,-0.6911223126257915,0.21203440088355713,0.5263453236692766,-10.636834121029556,-14.240031780706174,23.880397204137378
340,-0.6767410364417448,0.029525775793265065,0.3554946187099229,-7.6107149008822965,-7.0445217793643735,30.42059581311102
350,-0.6596895865967776,0.016704593361449267,0.3816709861131385,-7.763770062027121,-5.260087426993798,15.136974686651818
360,-0.7570363048753056,0.04869675399182821,0.4591805097657812,-15.668983389829487,-2.3445401965731127,8.423386715229956
370,-0.7885132418677803,0.037038114717214625,0.5005900668864618,-17.309126094572783,-5.190320702361675,2.227376761711228
380,-0.7923606056832843,0.05304043874625432,0.4970525265928268,-19.804665551973116,-5.403594016162801,2.6931519563206416
390,-0.7208027127738483,0.05846378423014875,0.44675795749554714,-13.270613128609702,-6.364957760548495,6.274158918649873
400,-0.6766229947332104,0.010164348203712354,0.3769093188906237,-18.106425550535338,-3.1742933803371445,4.413525382205244
410,-0.6077141384097658,0.00027350292621508885,0.3421734679386995,-25.546526634517935,9.282628660648468,1.6557185988638052
420,-0.6236540393859276,0.006079592966313907,0.35055145087901435,-26.71828008677219,18.692441217650856,-2.2205037299185353
430,-0.6981725532012834,-0.00013901964016970608,0.40125007724064987,-28.241964900740065,27.31147916183162,-0.7088383724626784
440,-0.9256514721451705,0.093724890008492,0.786219324795747,-19.372723880271277,18.58159043050319,0.6002685901867358
450,-0.9590573153065385,0.07489494080994845,0.36429879234391516,-24.461901966483488,0.3353340905879759,-11.231898602032006
460,-0.7497061152200255,-0.025577503220750166,0.4179156142618156,-20.27643488940376,-14.339602809132643,-19.038474267021066
470,-0.6849166756502669,-0.06865994291956773,0.569960296976502,-4.71190247565139,-17.249379397854838,-13.915864320082074
480,-0.548046623596668,-0.1793305732141427,0.8441944944398393,6.956507988116589,-17.840294695438274,-10.367217004492336
490,-0.5862279281722875,-0.15042745534561186,0.8054933420364093,12.336886853462103,-15.48902565846605,-2.907211318923047
500,-0.7711373231606224,0.1890012746632374,0.3670204006975928,19.51975614881992,-14.714920544093534,5.49646041040067
510,-0.8389747780643234,0.3511625475224653,0.2831328515647882,22.30147545798295,-13.586125141802341,4.681838460920353
520,-0.9156746545647447,0.47813037301583117,0.211508091558093,11.622416689903108,-3.064650746242567,5.134459620993889
530,-0.8539991441632855,0.13702974889703265,0.23723655219447667,21.26188065494005,-12.610981039253598,-3.673623638612573
540,-0.7460695698371271,0.02008206863403107,0.4964655864590579,-2.7300995913360344,-14.846457557872508,-11.175249232242894
550,-0.7879516770770092,0.04930244542342154,0.4624518452529371,-4.671308912297421,-3.751318698073055,-1.193158294068638
560,-0.7802608479278307,0.11852882355021684,0.34157621694922563,12.39656465935246,-8.119417093911148,-3.257201674148051
570,-0.8178402316258185,0.10265691295283225,0.4223648256859751,15.218174314940805,0.677861887123722,4.770934097371347
580,-0.7415809585489581,0.039530753912364464,0.4860267567195124,-3.1442050154587573,-6.577208476860795,-7.149341591677107
590,-0.7232091866712601,0.054113061310052536,0.5072794112205959,-5.750388659841145,-5.701450828126667,-7.463704400119451
600,-0.7724930523116874,0.006514647887683261,0.4327419946235701,-15.797351172365346,0.088287851882213,-7.333664424078951
610,-0.7620892190489762,-0.012430789617383187,0.5607763692280368,2.6626039613499604,8.793236831189065,-7.178017442831174
620,-0.8579180110508801,-0.09527448612166065,0.16783858240141,-11.480868305795408,23.927789135366332,-12.630870335614487
630,-0.9090838045623667,0.0077709452348946086,0.19784916854319198,0.044102559298673905,30.53192284227788,-5.017762006274471
640,-0.7725666048393327,-0.004959578247858857,0.7727405183553677,8.76822627368249,42.272895141741856,16.448045886065657
650,-0.7671315815784898,-0.046420395894529884,0.6658537810271119,20.107249356335117,49.154497137213674,24.32216923264869
660,-0.6813912207087828,-0.037587776660207614,0.9772158985337212,-1.1876542142621496,43.610364373533756,11.711900499603164
670,-0.66868081307888,-0.01813391158016993,1.227862955534885,15.00382389546983,29.711695666741633,10.607623552345087
680,-0.659668539680762,-0.008756885638575226,0.8717371558050685,53.87678711325981,19.222608510060745,19.574440161316023
690,-0.6080118223075605,-0.022375894634767825,0.75340035316572,39.98083525422528,14.618903220283677,15.486956653905406
700,-0.6363930786374157,0.09347582309228479,0.8302140972504499,18.18166873558873,8.916233123184483,8.021493704458406
710,-0.7338496872994968,0.07845605983616365,0.5009360494116912,8.350890462057647,1.4266759273328036,2.6283905093078976
720,-0.7711274514020303,0.05867137593086082,0.45209246620238197,5.019104875227294,2.6516890018223194,1.3275387357384179
730,-0.7724747865992352,0.06898093969217449,0.44718351384283933,1.090685514322713,3.074588836977462,-0.797438250286137
740,-0.7575905295143138,0.08656414421172622,0.4668937092228378,0.2909661613991271,-0.8877145223284387,-2.673053718085418
750,-0.7883813677332465,0.062048410770310355,0.4415916686018843,2.7510445223552025,-1.469811636383738,0.6812493168820686
760,-0.7808768933387943,0.0702157292199649,0.4202163187265794,0.5726979661349155,-5.936905270395736,-1.1987438719989298
770,-0.8231578547832201,0.03112539980923118,0.4179319160458435,-3.541508259990738,4.858048700194399,-3.8730927162345687
780,-0.8174990713562417,0.1312698713405085,0.5030182304588856,-13.944706399250093,3.1257676050484067,-2.245179388715069
790,-0.8297054211989646,0.21883205887335613,0.41996144471834734,-14.744503955856846,-4.907911758161617,5.3440526219485465
800,-0.773930309024684,0.19289354861328575,0.3632890754928544,-14.887618263707456,-4.0138717089913,18.04957963123805
810,-0.6507257930804639,0.12840326080769138,0.3598382067608284,-15.731976782722146,3.8519118941551347,25.0326717418941
820,-0.5983572140252109,0.07339725768392974,0.36969882192325354,-22.783118772606564,9.356930080464373,18.725720660672255
830,-0.7991374355439389,0.06716215704815337,0.4465193645412354,-27.11075464910138,-1.3149031784948924,-5.67117070195422
840,-0.8152120539508579,0.15980096265602745,0.44285505767197253,-8.307682766152855,-2.9871432028641918,-1.4515891625028448
850,-0.7566333912305045,-0.013522705488405996,0.4403566510378921,0.9163134352713993,-3.2587834740016897,0.7700820560083086
860,-0.7986460825020102,-0.40314542157525035,0.4706268198156309,11.865890097605012,-1.385200325222939,-5.904737180189212
870,-0.7742055209769161,-0.4365243475885714,0.4810949231644048,17.507501248801127,-5.459612227997193,-25.41415307453681
880,-0.7666994349814574,-0.2488574234994665,0.5721746104140997,27.28289971546576,-5.191848412569364,-40.96985433001853
890,-0.736471906338483,-0.051764890063717546,0.7321843563576143,43.972536572286785,-8.122193427599901,-31.632469247699362
900,-0.7258798535619783,0.24907435014423737,0.4880006659455341,50.12851550759136,-4.401739033195348,5.913349143961323
910,-0.7456618500450041,0.45076590951382917,0.39089183226211927,30.45077950506618,4.017889199027262,17.053777284870975
920,-0.7941023550466502,0.1200082815902373,0.3691224365686576,8.489636223161812,1.671765147791576,5.615281373233387
930,-0.8049009954713829,0.06590910258145609,0.431436019041069,-4.13931582038509,0.40112324034701463,-9.120101422596631
940,-0.7735028312546914,0.058187146745508775,0.4372040582778782,-9.379575093962327,-1.5691699369770993,-16.01211970197551
950,-0.7862357796570657,0.020143353776130316,0.4186147386983085,-10.747583116764783,-4.752965540201306,-18.15044803715725
960,-0.7721634112159925,0.035654984141208844,0.4295501135282656,0.01504235226425199,-0.5678228618656207,-1.2854440986166964
970,-0.7577401786008054,0.04547826033524683,0.45024179382381274,-1.874484850921173,-1.5693033440253317,-0.5031230672336029
980,-0.8031361883253714,-0.0004039731226173904,0.4002650793543743,1.0938373381976274,1.7791433492620314,4.152659870625337
990,-0.7497291865935432,0.05543420954597238,0.46074716858413545,3.7209790587072002,0.4799696343589107,4.088192816703618
1000,-0.7911155851923142,0.025443605435250774,0.42046219268506,4.562852144710323,1.4578630784692865,4.003121965184108
1010,-0.7691392100259835,0.04935537874466473,0.4411595358322838,2.6483866586775053,0.8155799381203244,0.864986592960695
1020,-0.7392742920086879,0.07073264161132128,0.46212057679676893,2.0979759903941866,1.0224457637395519,-1.4293302547798896
1030,-0.7695995335422355,0.03793585884241415,0.42651395693456434,1.3490238945695026,0.003370557515941147,-2.3311354720518818
1040,-0.7767553714947059,0.03326899942119932,0.42118358443117,-1.0257983174484289,-2.3379992902115343,-3.482764575698986
1050,-0.7906412141898975,0.017809525450889083,0.4124302061510621,1.770711041472557,-0.428251940634248,0.08944984137365583
1060,-0.7870914541280452,0.018945140262730174,0.41868740355971096,3.2601944489177948,-1.1184980960190023,1.786487964669936
1070,-0.7907572304803671,0.017004457314927838,0.4166460666648453,6.6520744048801195,0.16221268411891487,4.994130235413204
1080,-0.7366204675697969,0.07241537925704027,0.4699096332538263,8.382194544968923,0.9803621301250092,5.954268036229822
1090,-0.759879172673792,0.05221917281969445,0.4419963710378079,6.8385852049866225,0.10058721241951168,3.5930493517315707
1100,-0.7861869973272598,0.03754480060087574,0.42011984773268024,5.741781484936715,0.17152554707244289,1.7872197341935026
1110,-0.7744790570689706,0.053023947593263523,0.4266002217144892,1.0120149035928259,-1.6240176833017281,-2.5767549294370986
1120,-0.7744402055257426,0.05457845101862721,0.4232036141201433,1.6537530879578086,0.21876201150402153,-2.1577043094509
1130,-0.7698151250406383,0.0477443992672023,0.43391081183835883,0.9983365454258648,0.3641271232092659,-3.1809637374358872
1140,-0.7422745516075269,0.059411511227142985,0.45955393388261656,-4.093867583452284,-3.1626746188998487,-6.214792572376476
1150,-0.7572698578711511,0.053480422273010954,0.4496456678297783,3.7895235880822007,3.6905212118403483,5.620668214970167
1160,-0.7631974950672294,0.0500256275610176,0.44148404211565145,0.6150537161438012,0.3857068526188562,3.1441385159821196
1170,-0.7579707284662142,0.06120464569461154,0.449886103063264,2.1865960254293713,0.7662018130856267,3.3561715160774606
1180,-0.742787357377337,0.08353854638077517,0.46368045617727394,2.0167077457433593,0.3916601083047409,2.2280565606914915
1190,-0.7529624485127008,0.0703260204015152,0.45053262801551036,-1.6034400732489527,-3.2514904142066774,-2.191486369443224
1200,-0.7504079122098832,0.06438599793843246,0.44900106669872436,-2.5126712947320406,-2.303280613918652,-2.8337366310633563
1210,-0.7518696494529619,0.05868567155676738,0.45450365716450364,-3.1215816095626034,-1.2787530939828105,-2.733134233979358
1220,-0.7820318795918727,0.030051947849837408,0.42530730727241856,-1.3497490345485283,-0.6535395936298413,-1.2703050702015348
1230,-0.7622157124273483,0.05006141698219109,0.44046604492094893,0.3033673096330515,-0.36748725751445915,0.34423412762766903
1240,-0.7601290058975407,0.05013736294320717,0.4444288362175691,4.076255261302354,3.153582505784576,5.011049193940076
1250,-0.7816062440674165,0.032912805826864545,0.4266654462031695,0.42966820367450786,-0.6917405417383099,2.147663707863656
1260,-0.7498757672821535,0.07207020314604135,0.4550752798667783,0.7617557683937788,-0.39501985963715425,2.701823141723695
1270,-0.7755733315751457,0.045267266894597744,0.42469409423605764,-0.6317764857483998,-0.5732180656617358,0.34460974503324504
1280,-0.7757949256999781,0.04201679690824956,0.4279929843699282,1.7833481887383567,3.6691494321400016,1.29116694091749
1290,-0.797394484390051,0.023164864322552194,0.4116103900286445,-0.8546909265361645,0.8891959784804763,-0.8220144502647121
1300,-0.7830334671693531,0.03080703353202354,0.4174106516259324,-0.0016363019957350566,-0.5545664504623368,-0.2828718141161063
1310,-0.7600814277134247,0.05587633076748891,0.43910372679752135,1.9745567828932353,1.4093674847761073,2.990374463566376
1320,-0.7608481774043011,0.06093594623968762,0.44333376560301163,-1.4488525331165467,-1.36244127242009,0.3085705379113266
1330,-0.776900016364799,0.04168066329168426,0.42533401348191324,1.784993349083063,1.9530998332425138,3.93659211493592
1340,-0.7674118892355714,0.05068061782581012,0.4322442604324076,-0.03884027394465406,-1.4705056019915494,-1.0109814163639874
1350,-0.7624089443818837,0.05547203074895184,0.43936628221915064,-0.02586320275758558,-0.9622396168042012,-0.9178890463164115
1360,-0.7438624318208777,0.08088038364996894,0.4671364238165702,1.7565432636223322,2.4076690426270666,1.6172075044688023
1370,-0.7683930737134965,0.043035270083684504,0.4296899662303497,1.5441960020837477,1.6894048630709508,1.695151152082829
1380,-0.7559639375356636,0.06743053576251032,0.4440509697172053,3.1075483563184094,1.8934399843750889,2.572292679691429
1390,-0.7726049927291629,0.052169589473004874,0.43481689765848874,4.952050723971179,3.2285790379397037,4.279785786350872
1400,-0.7759604452910421,0.051434586930209844,0.4346423531910784,-1.790333918715473,-0.8187672188270313,-1.7495619381811984
1410,-0.7752967094733525,0.053435696066102385,0.4339746251369951,0.9127155650602556,2.7201823251672153,1.2163321028278409
1420,-0.789275336333222,0.036092989966657316,0.41713896531503986,-1.791823917353349,-0.45755415997876714,-1.5595438377327338
1430,-0.7559038081344757,0.0646471760958766,0.44781880571932925,0.41178287069799013,0.7292441227591515,0.54258692163744
1440,-0.787089112307047,0.030904154634725674,0.4188114849045982,2.6370135232790797,1.4554865619634567,2.73147745136347
1450,-0.7600790183191652,0.05958121685110335,0.4459247856122099,0.7925777609231098,-0.9476521013706395,0.9622473891202251
1460,-0.7693897710122516,0.05514723777380574,0.43481388839966945,-0.5050459634112765,-0.9557568311509701,-0.26623568664209707
1470,-0.7696751613568068,0.05519254237615394,0.4372233114175167,-1.1157037040116726,0.003539435861373938,-0.911607303772536
1480,-0.751872738269759,0.06447943404040687,0.4475964516163323,-1.1515210397800084,-0.566423434994437,-1.2832091313806688
1490,-0.7523522697670942,0.06242512659718218,0.44757731916049986,0.11204949174300549,-0.1637874412545332,-0.4985874042078201
1500,-0.7808997997195914,0.04044621018905828,0.42513721149070965,2.280836359561132,2.1142144410111623,2.0106509389107186
1510,-0.7629731422704504,0.055539451680732835,0.4424412890804009,1.3223871708121797,1.1999667930367324,1.327055949902673
1520,-0.7565634702877361,0.07051871828051834,0.45071554820957505,0.3432350827888303,0.3513473998325757,0.8516304625105386
1530,-0.7678435544470507,0.05712768987648367,0.4341348694147133,1.4097101031991648,0.27024164116929406,1.1478290311876131
