time_ms,ax,ay,az,gx,gy,gz
0,-0.5178956540654298,0.06469384048868987,0.6478447953480971,1.8763541816109826,-0.4179566240983146,-0.0029425940028208475
10,-0.5725617089438051,0.005541372895553447,0.590987046967729,4.089517889875656,2.7283371885994323,1.6992896917300848
20,-0.5442861201383207,0.035319095479878236,0.6139958880775936,2.079247095404364,1.832608359407227,1.0341766311093485
30,-0.5414886092883071,0.04115745576443376,0.6180879649543695,3.0350597359832086,3.259392849101417,2.5807132598597335
40,-0.5337479059691465,0.0506936056973921,0.6277547315259496,1.2446124115898607,1.3587463640849455,1.0584039818573356
50,-0.5377626104478626,0.03830709632650898,0.621410091643545,-1.8536847606453168,-0.512853041406797,-0.31578299191907533
60,-0.5392888649130736,0.04236452700909066,0.6188947449499254,-2.5737802599795483,-0.5317734329930057,-0.37575427365477565
70,-0.5471640978656896,0.03248987071040442,0.6119394690772859,-2.147164634753741,-1.427755155262302,-1.1925636236010078
80,-0.5515419286002105,0.0328436135138308,0.6089740348851335,0.015640498649703738,0.6392129311392036,1.1601478608544358
90,-0.527862578542756,0.051017268031982706,0.6304373940478727,-3.410329154140061,-2.348678409866569,-2.56518559718558
100,-0.5323210604930124,0.045104981343271566,0.6306368413992773,0.6806777388148091,1.9022479572378503,0.9731003912663193
110,-0.5166677161745352,0.061815708528759436,0.6444168341964497,-1.2839338917443217,1.1842575836494478,0.3452702039255538
120,-0.5086575889381239,0.06501632618728015,0.6521016463008018,-1.0291454096138972,2.492997227663526,2.1815494684220127
130,-0.5350931416419038,0.040417416570259594,0.629899854403676,-1.826199771263077,-0.583358814621412,-0.6326796549633008
140,-0.5468181590678051,0.03616005715160851,0.6303673846172833,-1.5051333047464,-0.3574792551852542,0.4940867139114339
150,-0.5640768398788336,0.02102179591877992,0.6214891179289616,0.6035812014209334,-1.3253846195669838,4.473479717013818
160,-0.592945798401443,0.03919920810468448,0.7040154045350264,9.927965096612734,-8.208061384840802,5.516926791144259
170,-0.5935620623539929,-0.01720180547926394,0.8913907329384645,-14.027596311649472,-33.849960125907316,-1.4360969544876645
180,-0.5107752571924745,-0.04312867951674068,0.762518047132177,-7.00140521740125,-44.85442391709923,-8.078617635792508
190,-0.5087860604925748,0.07839201915504526,0.5677989423581873,-7.802371622828224,-44.67071110749114,-8.983338929880484
200,-0.4183861985621637,0.0334052253398329,0.6832576857991426,-12.81487458364047,-46.83799626092348,-1.6400203337591683
210,-0.26641380648741403,0.09460060297605384,0.41451965850442374,-34.53086240829526,-30.860677313751047,19.47599974520102
220,-0.36606848595911434,0.1388279362613565,0.42241560409950074,-32.329378298069265,4.934094459044025,18.009739676319622
230,-0.4629261030159295,0.18736962212704925,0.6343868637486769,-33.504662456002826,9.16212379815449,15.731368478623665
240,-0.547214281949547,0.12512628797266437,0.6827038176383149,-40.49734195432296,10.416564355599775,13.990264537353099
250,-0.6129680007002976,-0.01955831015873376,0.6848240781337229,-35.47583937386279,12.69311217781252,12.241478916601947
260,-0.6070530266205125,-0.008227197125196817,0.6785438231955507,-25.319349131812647,8.83734403076537,7.825535975869703
270,-0.5512470594212098,-0.13563543614635562,0.5283031721068635,-14.497807675345873,10.690261864365713,0.23263501762614375
280,-0.51687477674734,-0.08371680098146805,0.5733635571684024,-6.234993287945825,17.716263620820584,1.4595180990146255
290,-0.5303007476883567,-0.05382381956646243,0.7006444195980869,-4.537668289118911,11.102664548191571,1.091164639493847
300,-0.5631374226278116,-0.08892440786371769,0.7281850532505678,4.935659199407061,6.0050056834036605,1.240881848454487
310,-0.5667437005260758,-0.06086921288479728,0.7736052187943604,11.059437003041666,-2.117854302993985,-5.693468576943582
320,-0.512202660640823,-0.024714263233661236,0.6173910836934652,1.6298149674533817,-0.9581336337654633,-5.576895633056051
330,-0.4521586516753779,0.09428452843790677,0.6187496113608675,-12.704230670920005,2.7197209739896753,-5.229241248087302
340,-0.569879654083769,0.05124231865638443,0.6204178146162435,-11.14088206346711,9.625792568816662,6.10594857316499
350,-0.5782516870194847,0.0029551773854476528,0.7041416271366285,-7.162526829063029,4.965608946283318,6.858222792011598
360,-0.5247115276943901,-0.006414945458351164,0.6519687799125783,5.768339001707794,10.476169283747517,11.70478214824089
370,-0.5008331129443806,-0.04615822714632895,0.5807945955025243,-5.049911556298437,6.551846667970509,7.53006714682506
380,-0.5396017918384227,-0.10310211243090595,0.6896939573604551,1.6425930591086284,2.871948964592642,6.4824385038926975
390,-0.49288188559560375,-0.04368807644531721,0.6586358706154408,15.861618572063737,4.539442132637209,6.779231946402256
400,-0.41209975020162176,-0.09720138749401674,0.7351324296290132,4.094477297354788,-6.363443886339887,3.2088090122188113
410,-0.4094181662124106,-0.06931555208640454,0.7450469035115982,-22.76403694728214,-10.653656681573473,5.30540784898632
420,-0.34848200490025893,0.047365374243214374,0.7043996684563517,-28.036892644452696,-15.181764252268344,-10.335473417723696
430,-0.6872764617184697,0.28161633486596116,0.5578577758283555,2.0567870108593107,-14.286183258706952,-14.854927494548821
440,-0.6478937780930072,0.10188922050816276,0.5138512589586377,10.691525522686991,-3.9347490681856354,-10.543873514668679
450,-0.5498342246865037,0.00486179037494463,0.6275877268165575,-0.8624138045946749,-2.1142467295698584,-8.486825893330234
460,-0.5337587061220253,0.01940780074622726,0.6250785392991203,-6.14848681844669,-4.459934889492098,-8.818820425688289
470,-0.615291909397504,0.005912891701061884,0.5740341497438513,-20.214170351236913,-6.396085227934925,-11.653766336228436
480,-1.0188566777967614,-0.0010671278299649815,-0.14716564117312808,72.52294597023328,39.36279543931182,-3.093387482619515
490,-1.0445325575478601,-0.08053165099365528,-0.25920462594246146,82.20217800435775,51.16593827941688,2.8658704611465864
500,-0.21689033095059332,0.010556856188695944,1.2377414393890858,55.26073040856562,24.960712345875557,13.410037709602188
510,-0.527668041116764,0.03408946067262107,0.3962474374192115,90.52739143947129,33.42081815836192,5.381470851928953
520,-0.48165260976625196,-0.1379479317086614,0.5951199198392791,24.227846032797267,18.101058843817075,5.8945032639610115
530,-0.5723461221249582,0.06658605118307082,0.5376405629084902,2.517334735520709,4.454518045495133,-4.642162340476651
540,-0.5542795385250295,0.01597853460561042,0.6221139157498854,12.809349320329018,1.962208639824946,-11.873673227073922
550,-0.5498559666419552,0.010387443625476039,0.6348122906430249,20.385785746841428,-0.4364250115803796,-6.4729911184759485
560,-0.5874170450734009,0.046295647695012807,0.6275713257330504,29.979194893932455,-3.7364991775581258,2.8225712771516873
570,-0.5762033717201038,0.11680120991164665,0.570362239692254,-2.583488902211056,-8.199666736058878,3.0641543694847297
580,-0.6908915242342928,0.14999837069451613,0.39469665661428593,-2.611912789183276,7.1736263953880695,6.3375702317363745
590,-0.30727530731449826,0.177832901884318,0.312858616316143,-20.998185986059603,12.658264516527998,24.68028907185222
600,-0.268880128669275,0.005935797826876767,0.3768675044815446,-58.24719880911381,33.30933952905815,9.267868171724931
610,-0.6606897734687606,-0.13513092251873524,0.5733075392801155,-76.14195053816891,17.891274509312503,-6.3077199157297485
620,-0.5849608342667881,-0.21626157519130618,0.601627451241504,-14.796506448701123,5.205049318981041,-19.013463952223976
630,-0.5157571643332518,-0.346356170325553,0.616234153305248,25.263072479625716,0.6263180233847725,-0.2374317283393368
640,-0.6548500346653213,0.1693511473594323,0.4390068771129704,82.10864962096248,8.793030467773484,-3.6455185305601687
650,-0.3873458325529621,-0.21843546674261027,0.3003139006192607,19.827446102730786,0.7016697745246331,-1.851111521148745
660,-0.6279060508781449,0.6280503968904212,0.5354058973790227,62.30451488347022,10.555392858860262,30.759515779523788
670,-0.5064640111256046,0.4737354823102037,0.6308152656145048,18.023152418817812,5.8570319976256116,8.285769231391082
680,-0.5428011970923451,0.19945674549614453,0.615320440552898,-30.178809220174116,-0.3693139790126847,-23.207711130363208
690,-0.5769892114773691,0.041766771844960325,0.5751338540353419,-39.26033974086667,-3.323234042808208,-19.71976744472229
700,-0.528351654058132,0.027959458838843015,0.6366970577021114,-20.925047867796902,-4.58639168163519,-9.348357212853658
710,-0.5105742813371195,0.0443949048780098,0.640307183633275,-14.410181607941725,-2.237383819214945,2.310863310243233
720,-0.5319352716494512,0.0283632394073796,0.6231497638214684,3.944698249900263,-0.37659931462281726,7.6755146023329415
730,-0.5614445983953166,0.024978447640322973,0.5983588229317395,12.555210908638525,-0.9959212848819943,7.072358161129508
740,-0.5348384362453197,0.07966096778086205,0.6284357832883711,7.711595821157947,1.7918334104210947,4.739737851401147
750,-0.5531582672733328,0.06535133823470168,0.6101943173940444,-5.817679602187208,-0.7105059280796313,-1.2366748855456926
760,-0.5416047494460415,0.05199580233124306,0.6184137086981608,-9.096496572738232,-2.0362642746408604,-0.3383363716957908
770,-0.5567587067133382,0.03256020478528604,0.6002419127035792,-0.4080065204524619,0.43244604662621366,4.388341162591775
780,-0.5279658569502865,0.07288178182050029,0.6279483519361511,8.37763822466311,0.33326392993607923,5.081331877447054
790,-0.5432453027393166,0.06006254792695286,0.6145022225850522,5.771005465193349,-0.42249152751332575,2.955606052776916
800,-0.5417947217610145,0.06924947044934142,0.6193118298928904,0.6219585743587784,1.3425361878075988,1.378497542119868
810,-0.5371614091519856,0.07511343151744393,0.6217238198311494,2.6487472040976967,2.9980730294712625,2.857128307515554
820,-0.5546201229828885,0.05836767833165142,0.6038251332555233,0.5012230193049654,1.812060344612006,1.3923716839957043
830,-0.5788700344504816,0.03192096266460942,0.5808045220361198,-1.7081873697486551,0.36918656001794903,-0.4085611704570884
840,-0.5433805560394304,0.05435136442634629,0.6169952860814567,-1.9955420591142108,0.3276153955390768,0.06261957665724405
850,-0.5380614531070717,0.0686037723611069,0.621518281168766,2.5121494742062147,0.5260702675121467,1.9117469042180308
860,-0.5055239413929862,0.10736454410803145,0.6538442996827929,1.8254363575743935,1.279078754653245,1.012903118967985
870,-0.5573685418820301,0.05686873059055507,0.6028724333977585,-3.222132010103942,-0.9446668747388778,-1.8129915781158612
880,-0.5452779102013209,0.06034000843722853,0.6166293221190065,-7.222779825564059,-2.481087233060507,-2.89396947963227
890,-0.5475706068527895,0.043146318154038264,0.6107459955246127,-2.6733000530388527,1.269296722656138,2.434131607845459
900,-0.5315834996232248,0.06747195245192811,0.6241791001433794,3.086054591600057,2.037704576641337,3.2554752596516443
910,-0.5542955667244489,0.05986414369321302,0.6012103886653447,-1.5836590768519019,0.6078103383228729,0.22122966418388323
920,-0.5504381926977084,0.051810013998153534,0.6129981462544178,-6.28160660508221,0.2421565934114176,-1.1404302806568656
930,-0.5453855869518772,0.05099587375663497,0.6184252872042793,-5.2156977238001945,-0.8473628170103762,-2.374346881750885
940,-0.5586110732352785,0.04191391825800524,0.60145066739845,2.0342248043643822,3.6806474617067746,3.4375025828934014
950,-0.5293534847161121,0.07311492419020592,0.626486424772848,0.5792590627271361,0.7843609750796807,1.5596037391878854
960,-0.5467903204516367,0.06203616555235541,0.6124296714257335,0.17071673115032038,1.770452347878322,2.0540743829749317
970,-0.5416047299636714,0.06003226607739312,0.6129614635035904,-4.922691018570319,-1.1656398506199699,-1.586470430974767
980,-0.5616813229116645,0.03752085685246463,0.5803100474281192,-4.460014901739524,0.2721539383366534,0.6584049588983643
990,-0.5185052816772334,0.09351118308238952,0.6349306597269144,-1.999729474072784,0.007827759778346238,1.4199838149305117
1000,-0.5460913822414614,0.0655008898248163,0.6192575838459218,4.072608615998092,2.0448986932675886,3.4758846867334388
1010,-0.547224096388896,0.0623531053401279,0.6147510381617272,-4.055415715783263,-3.297158046362605,-2.9710885380405507
1020,-0.5546754422658605,0.054505791170085485,0.6042484780286502,-0.09721880309716835,0.34139373830873954,0.5739420035594055
1030,-0.5407700545281692,0.06752630227354459,0.6230070295230531,-0.8840145125107839,-0.4347486368712391,-0.1357102748352893
1040,-0.5344799523752193,0.06901176567765852,0.6317148285090405,-1.2902087415123726,-2.346381640962148,-2.4185351714586103
1050,-0.529697151123279,0.07868068034622096,0.6297025110006154,3.9569021374481714,3.128629856006474,3.074792697162407
1060,-0.5493309041557438,0.05419756897343739,0.612849662616471,-2.076301179843013,0.8990246722850739,0.577661753731348
1070,-0.5466086710960804,0.061931572711866556,0.614944223116015,-4.99820377430301,-2.4424583432298363,-1.429430978510994
1080,-0.5634527086933445,0.04919050869789979,0.6027929125905348,-0.07045470219408145,0.13118761017548553,0.3938241320764295
1090,-0.5545522189075385,0.04775858039465399,0.6079521721487513,2.3527781198052358,1.3520902661505851,0.3260312617304717
1100,-0.5471459995385816,0.040284171717057865,0.6078361423849863,-1.5023535663539835,-0.8582583941337065,-1.5032288246895142
1110,-0.5583790689346386,0.037184967297931276,0.6001556486767373,0.10209036337366065,0.017495933294087412,0.5689212765590805
1120,-0.5558610407845272,0.043568837376119066,0.6076591544963935,-0.4174584609867108,0.447229322059953,1.3945480450990104
1130,-0.5091692670821288,0.09032094481938849,0.6471178612201106,-3.8368110869568888,0.22465018987081475,-0.23091408916128053
1140,-0.5425006846590497,0.06187465651876097,0.6153779089660191,-3.283450166682502,-1.0120337592377568,-2.3265945900998295
1150,-0.5386506008558681,0.055040973836404855,0.6203441635043161,-1.280760937322271,0.16486547337760088,-1.0286122204038377
1160,-0.5449322417969467,0.05685850251415833,0.6165294514836929,-0.05464920743410895,0.7767729302113661,0.7605636868292387
1170,-0.5306547892072524,0.07577957913736098,0.6319363720861607,3.997269315363728,2.848208116433424,3.6618967251919377
1180,-0.5092250676990393,0.08653881399906678,0.6489847011774063,3.984621046580328,2.1853232596098677,2.4304649472300217
1190,-0.5186543762499655,0.07823256553004539,0.6330117778962482,1.4249834388163944,1.8196863725150942,1.4061721592677925
1200,-0.5557328070191833,0.04839684319782207,0.6023607247251161,0.10960109059194717,0.9165048218180407,0.02227777113056828
1210,-0.5585892185318923,0.0462614832003971,0.6017157740596351,-0.7062861558264312,-0.053212271019631635,-0.8873617281999284
1220,-0.542907652642722,0.06385650703440451,0.6165949590930524,-1.332820220397897,-1.7425281278208982,-1.463479339716737
1230,-0.5432951355101165,0.05990924100394151,0.6148557397644945,-3.4426574856861887,-2.566531898059492,-1.8847331582447673
1240,-0.547391922958526,0.05016903794979392,0.6095649123007657,-6.354912653023744,-3.163475748861877,-2.78195011700461
1250,-0.5351441423734506,0.05970949555068805,0.6169916776949372,-5.01248994848733,-1.1942517188655046,-0.8994608593265238
1260,-0.541935795996973,0.045410366589009765,0.6100262829018286,-2.414620293744292,-0.23107303951756333,-0.08899031651834327
1270,-0.5131642838140947,0.08508611339836471,0.6417230194723677,-0.2167818525683518,-0.28787721230029717,0.002696462860157456
