time_ms,ax,ay,az,gx,gy,gz
0,-0.6663342712788889,0.5628017614208152,0.7157958548684649,0.8200104405391966,1.0993442467520733,1.2300340362438025
10,-0.6912702383316045,0.5521003638722685,0.7134953725256824,0.6448684727501981,2.0582707491329835,1.6802454596147811
20,-0.6885363815581336,0.5450729970958664,0.7016593499956846,-0.5757567620952864,0.4426041062496035,0.6313545020100643
30,-0.6878873832138627,0.5383274877915445,0.6934140900565553,-1.5763925974322843,-1.3914544736237358,-0.9691668969983072
40,-0.6992554037636833,0.5362551466979911,0.7034525853536289,-0.030505822344151945,0.30593197132968575,0.30606429916693856
50,-0.697732347124908,0.5376982933924335,0.7067162300134582,-0.7400468985668028,-0.18732480653259684,-0.21257810404368646
60,-0.6810849337360466,0.536127756122026,0.7043213965698819,-0.17494247576739325,-0.7538601975592707,-0.813609954813292
70,-0.6930338988103115,0.5409001121546895,0.6974039678498369,0.42927933551398545,2.025808940169018,1.1524378083914946
80,-0.6858313125093752,0.5455313340892738,0.7020982740356339,0.7552394309888386,2.000451739915357,1.4730726579041182
90,-0.6861980673065583,0.556394509038328,0.7127970336361039,-0.5075659804870036,0.18176346910448374,-0.357705114235482
100,-0.7278808448791037,0.5072658352679831,0.6783180882373487,2.1264739539010185,0.9100997675664075,1.441508074271697
110,-0.6795238329112325,0.558581830552558,0.7139606848888649,2.5465122200446606,0.8330424438545929,1.9601337043612737
120,-0.6567594221928057,0.5759258829159526,0.730744947486075,-0.48934843460438837,-1.8465844627363592,0.1151430461749785
130,-0.6867791883519442,0.5458936989420252,0.705349639429741,1.3798291218670449,1.5387435656411932,1.8486565477700634
140,-0.6718222103972251,0.5514071259935508,0.7137347958021901,1.1009187335153279,0.05988176099196807,1.352556234767536
150,-0.7154534846472922,0.5225216396057448,0.6893369719694444,1.4269398038024423,-0.7361740394575286,0.8796832005417182
160,-0.7038454033819059,0.5376141340757141,0.7020568318948314,2.1954788184663654,-0.9051578951744377,1.8210502673140514
170,-0.6839601687541341,0.5460559827267205,0.6980846810723714,2.229293323167816,-2.024700536071221,1.2279908409236704
180,-0.7091459891580802,0.5267921677047076,0.6708073371120427,1.2056139291542634,-1.1953765042203963,0.8176553413784567
190,-0.6523231194740688,0.5722982658120958,0.729658684372971,4.63926791701903,0.6339385895980079,2.466266661061261
200,-0.6973041016089072,0.5284275022510478,0.6954265036619155,5.333272118282569,0.22966243982986123,2.5447520189106463
210,-0.6855153487870101,0.5457830317505632,0.7226813938219185,5.7919562803291855,-0.7607944563983075,2.5518686537771327
220,-0.7114476714228908,0.5261131124518252,0.6879034208070438,8.558897631707847,-0.10574025513483276,4.25749622095578
230,-0.6959318210307961,0.5382993705802783,0.7009617468087799,5.574541063396987,-3.7436452499754513,1.4634908539405789
240,-0.6677124081277588,0.5797283931619833,0.7414338740181875,4.53425268781948,-7.477984510556008,0.7471037333299595
250,-0.644640814466573,0.5874036433351932,0.7093887252507449,-2.8461057380958232,-6.581458110961539,2.8841368963086387
260,-0.631614937738173,0.6030406920354053,0.6667021050306131,-16.86898467484845,-1.8387117368943267,0.24888318900907813
270,-0.6791491666617377,0.568026886203124,0.6440887936744965,-24.85459499463508,4.9648777398145105,-1.4935600513099063
280,-0.7707384867169109,0.5409735793686107,0.7646275659834422,-27.153436118416927,-4.758400786842263,-10.578199580213123
290,-0.7876680210300716,0.40792089417498095,0.6582408454593741,-13.644593457772906,0.07325357824267731,-8.271107138693568
300,-0.728102959639673,0.45787654495358376,0.5942519882238588,-6.476345603242399,-0.7280332664966684,-3.6113555357675167
310,-0.7126936504158518,0.5137494288962359,0.6602072014065442,1.9417214180063738,-3.9992633052416378,-0.928643201674904
320,-0.6994011698529062,0.5409600858801104,0.7213241626878573,7.346608637888547,-2.320501973234519,3.056938244414663
330,-0.664331996916193,0.5577526617765678,0.7276886203954882,2.9698436186795516,-3.1920196131913694,1.4873130429967212
340,-0.6816478906825952,0.5127843383859976,0.7259291526285615,5.946560561143672,-1.2128712702859143,0.25696454724742557
350,-0.6328166945303462,0.5648500641324932,0.7912012305485029,4.433702839010722,-6.503668629199556,-1.6111821022397812
360,-0.6770032390827362,0.5422804608472976,0.7444323943941621,10.993328106629535,-3.869775281632413,-0.30937867840575195
370,-0.6875477834963433,0.6015740331391088,0.5755240113297478,13.091948560208719,-16.387521201177055,-12.520424336747555
380,-0.6410101661071894,0.7101875301910119,0.6149501682065858,16.5563119734932,-22.114966819015045,-3.7755112232059664
390,-0.7422536142348076,0.5644332780713431,0.5945348466603961,5.432969035834279,-20.99726079416223,-6.036601323606563
400,-0.7080883861890415,0.5718400551900837,0.726820612960853,3.062100163910734,-5.930113101047375,-1.3163032786008262
410,-0.682478764716767,0.5586512548038447,0.7873002784175227,-3.104815090702816,-7.960890069776642,-1.2383880723734986
420,-0.7190314334106563,0.5758821958013195,0.6244547573013539,-5.577720004301284,-12.607944677120196,-6.61769121802034
430,-0.6946710372364513,0.5517120385584435,0.6277608825582385,3.036038572968849,-11.632391128176689,-3.0895257911300993
440,-0.7045327087170182,0.5588601869058576,0.6817003797661769,5.239317087257357,-8.25158676655606,2.062694786092404
450,-0.695935176575701,0.5688631421258649,0.6825938074285522,13.150727761808296,-8.842971050909574,-4.515072430605266
460,-0.6515211532022439,0.5488853289922445,0.7441370574155877,9.99941239556927,-6.571338514694272,-0.2762251251951292
470,-0.5982290899641164,0.5065731682052431,0.8221910367896893,-1.777188410229042,-10.688500049251296,-2.672092288802131
480,-0.5920042704053837,0.5303070870359966,0.851967265730145,0.32465940857834086,-12.185108925288912,-3.444407037995202
490,-0.6394897867393027,0.5870435278922747,0.7645841243847352,2.7815475801370484,-6.112321313743514,-0.5859527403055873
500,-0.7120232935456923,0.5244107177657809,0.691358384919869,5.495284409254342,-1.4015275285913327,0.7686174256686966
510,-0.6853365598987795,0.5340632796331034,0.720372507720152,5.374131960833565,-0.13206989011021775,-0.14437660440333744
520,-0.6903398902364641,0.5307457235396476,0.708511329264502,3.5389514996682925,0.14412322919722154,-0.6762639101734365
530,-0.6456297443445177,0.5725237106314853,0.7620713969724927,-4.122269801752263,-4.892185564692412,-4.945366461544881
540,-0.6556178317215187,0.5715217344537432,0.7500969628414945,-9.344170962660911,-5.616904247419129,-5.474135140959811
550,-0.6705804791218144,0.5655222983332099,0.711576761372819,-11.493508214773135,9.15941796369887,-10.490923421595236
560,-0.6029264208222705,0.49739818219700715,0.7734968986539194,3.4189342751041414,16.67346424576732,-16.055389147762554
570,-0.7432130192867682,0.5031302634498993,0.49133125880160117,-3.3715870367703156,16.55193707442069,-15.219772019622383
580,-0.8162213223856757,0.5240634298042274,0.5224013437061977,-12.084074483750191,23.41014012111915,-3.5588113938881287
590,-0.7515656149289079,0.5667102299690329,0.702819079926416,-8.816096325562798,30.32907811159218,-1.57276109413479
600,-0.700362604206603,0.5913852685932882,0.7670804981868034,-4.510509708506253,30.412127935823573,-10.921366886298115
610,-0.6141300090495506,0.5082961890052337,1.076169270958168,-15.329657425613478,31.221802548374292,-8.68702198614703
620,-0.5287311291266608,0.44939246276946415,1.3457394983077817,-35.87361534725403,25.863128347976367,-6.731848451286296
630,-0.6096108556734963,0.5204350306627764,1.0384643987093238,-28.104805094034717,23.632684173546657,-9.69411033650819
640,-0.5587952073204503,0.5686670073671009,0.8612761893188062,-13.779623348501545,28.049550838885008,-10.544753895806064
650,-0.5288856447615554,0.5047510826911188,0.8401359328205639,-19.343317196632057,14.76838885559863,-7.541968506046412
660,-0.7153536054003832,0.5253121022757683,0.44557029257528724,-2.5120236175849167,23.85790044817952,9.204434530350376
670,-0.7123404566980722,0.48441418012198684,0.6468191949746456,-0.9395406923005574,17.693190052831568,4.906659581514334
680,-0.6277139952620417,0.4394910146997893,0.7989787620357491,-3.9005460142280626,15.489710396023625,2.4591584799249118
690,-0.6370045049912264,0.5340999471695713,0.6944998322428743,-1.4892451406004688,21.331006116478612,6.122708773924506
700,-0.6773245222536955,0.5473870846068111,0.7721648935568802,1.5771255191055404,16.8432781491774,7.399176061417239
710,-0.7389214075024582,0.5127899393852936,0.6971863835195614,-3.588343332190754,9.021809440436689,8.765937634225775
720,-0.7071524476337602,0.535275332964995,0.7129171526683523,-5.5711461021964706,8.383403323801371,9.221524301839588
730,-0.6310508461912997,0.5353508395725591,0.9077790540540768,-6.75143946013589,16.96725690309151,10.210454439346288
740,-0.6866811905298048,0.49923806409062943,0.7556009841628516,-11.33467578337819,9.414592599814654,1.2544373377591502
750,-0.7534248330734948,0.44729805308769277,0.5411769411021369,1.1300308305212874,10.582409392004683,3.1211534339078693
760,-0.6922535889266395,0.5112631665048881,0.6716280075888403,1.9439286656034689,10.575511988046149,2.844863549627797
770,-0.6918966536578997,0.5270883027371225,0.6860649628057459,-0.5306931260200621,3.714448685315426,-0.19805767272300134
780,-0.7281808515666776,0.486291709021147,0.6221410120243333,-0.05523907843769005,0.4219075092844242,0.49644762288853794
790,-0.7040503151787513,0.5534226264898459,0.6451392355120739,-0.9459867752272033,0.893932308225708,-0.1647721584896078
800,-0.6958283084762864,0.5409339319387743,0.6698916648168404,0.6504221857135486,6.955237576693812,1.520345991821358
810,-0.7050424090287497,0.5058814648775308,0.685217528917934,-3.8059706535121904,1.2343776545873704,-3.9786117949581357
820,-0.689092242721572,0.5408314369387254,0.6864793338834757,-0.04555570544498844,1.5953370529510247,-1.1103219195028982
830,-0.6891511483243975,0.5379284898321515,0.6793232572689348,0.2175089265692797,1.6490394330179896,0.011292230645977508
840,-0.7092485092375177,0.5304039773750209,0.6557918104983204,-0.04151900986205792,1.1023498194266699,1.0089073329964835
850,-0.7159293697892593,0.5325120367381619,0.6492516504616271,-3.53050820306399,-2.560681760107391,-2.3076869981473327
860,-0.7220463320668433,0.5327678684734003,0.6437985845677208,-3.913806921347314,-3.1364427365505785,-3.054414482052442
870,-0.7045490612759676,0.5489450759957354,0.6634130559034614,-5.232711891426467,-3.931390175584913,-3.9097609568619784
880,-0.7338221269228181,0.5211847153833061,0.6356828483772875,-4.741234243181813,-2.582891090496517,-2.4729473323571467
890,-0.7188321022198522,0.5519869077745839,0.6528974263652917,-7.45550287504773,-4.1755278603202415,-2.725533761762276
900,-0.7123445505375242,0.5721713520931109,0.6582510957550213,-9.813040591655279,-5.761125266532492,-1.3665108486885114
910,-0.7055841710695804,0.503534907393818,0.6520987869659887,-11.662289599266611,-5.868086363012926,-0.6737140683227203
920,-0.7037790316170264,0.41613470607005776,0.6159790802878871,-10.112389340466965,-1.643625476973661,4.749859058962992
930,-0.7046853443424121,0.3111135365752432,0.6000641891868322,-18.856634281232648,-4.901449338487759,1.8585305691873155
940,-0.6967080075232165,0.24762620942145333,0.6585072460668514,-13.24323880221165,-1.8501670248036315,-1.420305776086907
950,-0.7111182854079577,0.4865062236678328,0.6593543242989865,0.6005104181965469,-2.5444436537567663,0.03559583638257456
960,-0.7221786747632211,0.5072658638972058,0.6375564735774836,-0.33963332935869606,-0.9959439590166463,3.1006087190596445
970,-0.7370014569685975,0.497547844479952,0.6230200394748511,1.6494298909543645,-0.30965613467270137,5.140696926086673
980,-0.7095963535258403,0.49955884932192063,0.6441177653994616,5.076112511766101,3.605623798858847,6.617441502063095
990,-0.6919786889465571,0.5142779715645328,0.6637922480499745,6.932336146462907,3.14853985211961,6.137339537040157
1000,-0.7182974906703709,0.5546296373843133,0.659811949953414,12.09806471417921,5.056115465806313,11.274253535200812
1010,-0.7051289585109343,0.5225116495135991,0.6590665705776296,16.37189677074543,3.962206434837999,3.0645301576168413
1020,-0.7125636427579245,0.5366044276866502,0.6916564004664503,23.339035124618462,1.8619591745706598,-8.505267596455347
1030,-0.754631637570631,0.6878462709933542,0.7362108353669794,29.71280107667307,2.6894133662119275,-2.8075060117188975
1040,-0.7048854524106946,0.6585248597759621,0.7361026258960086,16.671147017747085,2.5412294322326483,2.400553345407295
1050,-0.7133117374212768,0.7438924242560574,0.6431203067032186,-4.718649429692809,1.3856363337782849,1.9218620867846448
1060,-0.7348391582524216,0.7086971089164863,0.6371956103294504,0.8738604433366645,2.1687516574431163,1.5486436708976743
1070,-0.7384640189953078,0.572964041410685,0.6280952816206408,-1.3925775417588055,2.237281121594023,-1.5035071338420498
1080,-0.7059302377817315,0.5609200926080226,0.6618452657799571,-4.253664466643293,-2.764926733402798,-8.144832160416343
1090,-0.7204039021796755,0.5303148171391905,0.6444543128779221,-1.7731501255134243,-0.6635177052840425,-4.588726915044894
1100,-0.7158915201846252,0.5122353684332818,0.6427998722502288,-0.542937132510636,0.9604427879805488,0.08963762285377622
1110,-0.7257071783139731,0.46791502993857825,0.6375386890956055,1.5800379246432337,2.8168962801966555,-3.9072901989576465
1120,-0.7246877927311153,0.6120769301629285,0.6659186737682914,0.9059297693073629,-0.8419812762865277,-1.2360362705231724
1130,-0.7253276430082686,0.6112326676529017,0.6538924373349486,2.0873797538330265,1.9453098754608416,3.1367101727570357
1140,-0.7124079292303825,0.5751097981344555,0.6586803779668385,1.6263246230682884,3.3711005332440225,3.71395912563381
1150,-0.7335542345307147,0.5368475459995523,0.6314813576374293,1.0483126008329249,2.232749037247835,0.6430987341328458
1160,-0.7094165944941927,0.5630097173628045,0.6517420073195476,0.7603827746423468,0.905042452746229,1.4411540312483921
1170,-0.7103526695148712,0.5596480599206418,0.6524305408237817,2.154208647703642,1.6845542406753573,3.710699940880614
1180,-0.7304709516976808,0.5426106722400756,0.6362198672566913,0.14710330240929448,-0.3863835279582618,2.4335975694333234
1190,-0.7086125374111698,0.5612018697640706,0.6548617042499006,-0.989207390008876,-1.4037176765190729,1.0418004282420905
1200,-0.6988077939771024,0.5750714923907531,0.6623144626632331,0.5476251182568928,0.3510231349882546,1.0807208432938364
1210,-0.7089672461093502,0.56396263097385,0.654737693922616,-0.2703324134034251,-0.1059251658667091,-0.8318409339679408
1220,-0.7266960042776572,0.543530195892738,0.63358447749966,2.3650025186628976,2.602978029619625,1.8923511300888243
1230,-0.7299142098977276,0.5422341949945364,0.6317126796595166,-0.8032059484684025,-0.579667800863151,0.15544222322475496
1240,-0.7147763346249457,0.5577164782096273,0.6535457797638535,-1.8219579375408022,-1.3250669689925871,0.26176328683523375
1250,-0.6945302592190715,0.5734455704549035,0.6690107005468396,-1.2997574326944754,-0.26833136927642065,1.1241693612249466
1260,-0.7123367113863897,0.5515292604585216,0.6505618076078933,-1.4434487202623423,-0.29314584872033833,1.3220354318142613
1270,-0.7149633863254768,0.5522845029145569,0.6498147232222223,-2.1819328313531567,-1.584874711072565,0.29729295598931316
1280,-0.6992972959652015,0.5743333994034948,0.6693377912139794,-2.244991206594921,-1.726942286162954,-0.1758252862969341
1290,-0.7374639867650241,0.530893111192859,0.6282029730660427,-1.594354094062822,-0.973682508865565,0.7229880688845292
1300,-0.7538928485387386,0.517484702509626,0.6163654012758762,-0.26569390922813607,0.29860140353439246,2.475022422548177
1310,-0.7301454139826036,0.5372297948621044,0.636853343633776,0.13564064375968443,0.8888892974902761,2.5030333272597307
1320,-0.7107451575022519,0.5634568060424802,0.6556527607112037,0.33247677983751744,0.9064031018849282,2.8576437761296916
1330,-0.6994849213414541,0.5710971079501473,0.6649625611953341,-3.036756419665342,-1.9836312042981037,-0.244165089412123
1340,-0.7147036931341253,0.5551232647761786,0.6501189176215458,-1.9635173527745833,0.03628819343282508,0.9255164571441084
1350,-0.7065626679476602,0.5574402972510999,0.6584554628306034,-2.284704706311742,-0.4224272759741738,1.0614136719891905
1360,-0.7258061959976131,0.5458184565547819,0.6456894163677961,2.663337785947789,5.075152265989877,6.946517413165537
1370,-0.7456493113829237,0.5246257071827292,0.6195261283107629,-3.0033619007779055,-0.8702059635849326,2.124106351247912
1380,-0.7234966017032708,0.5502960599852592,0.6434904023737196,-1.5443051876596436,0.23719166667043104,2.734473313926823
1390,-0.6995552004188325,0.5725924997147618,0.6612017984921194,0.6766986017986458,2.2236555841969734,4.301118969458914
1400,-0.7367343189606385,0.5294856839401938,0.6277606166842403,2.9650837211977406,3.4580161398191565,2.611433980303624
1410,-0.7091684902439139,0.559488982338685,0.652003896043857,1.3974393467996007,1.375811471690231,1.2067264199284211
1420,-0.7110868715741581,0.5591885549452662,0.6546725637933692,0.6108678841247287,-0.029681566335162446,0.15898543146821287
1430,-0.7004222908316755,0.5694805862324107,0.6653869977356431,1.8845547157896847,1.538406224343914,0.8975259634807798
1440,-0.6911714470534908,0.5793542445212078,0.6753109306370386,0.9645118993970128,0.6568479717646788,0.318364519571136
1450,-0.6973915777372388,0.575658198408879,0.6661246318008699,-1.719687021761236,-1.6903336862429312,-1.9624993773745045
1460,-0.6990060169134166,0.5687028571080333,0.672439072384426,1.2183486570124187,0.4838065170397287,0.19745540180470045
1470,-0.7168052946014494,0.5574558987814744,0.6544688211016586,0.36923692827413734,0.05043743307660559,-0.7693267921793822
1480,-0.7110422750430777,0.5618179402783721,0.653905769129283,0.6446207363979364,1.5076049430534368,0.04930523642975171
1490,-0.6931315685082505,0.5790590352558065,0.669923239406227,-2.2124242839567656,-1.307018907004991,-1.9405598135854107
1500,-0.709892034997475,0.5621562783403234,0.6507680954098856,-2.714813957098519,-1.9086282451544734,-2.548704136924511
1510,-0.7123893075736671,0.5594367636098259,0.6542117965943146,-1.0920052125515518,-0.8109125375231128,-0.6956658272875926
1520,-0.7145709547220668,0.5547920311529649,0.6498136786617614,0.8304765356576991,-0.8142661319621789,-0.49099741226456095
