time_ms,ax,ay,az,gx,gy,gz
0,-1.1235080384654204,0.7774315658949648,0.5720359561160775,-1.6565315883860054,-1.4658266735999528,-1.4207202518340973
10,-1.121846213740941,0.7698132498288728,0.567231558126301,2.5917552365444956,2.749745689662244,2.6859101961825855
20,-1.1019545623528209,0.7917512481668796,0.5990611965178445,1.7789556119647816,2.114992756136637,1.7568646635704586
30,-1.1088229382814327,0.77733218308462,0.5885772469230787,0.7177221308888997,0.8825353720777056,0.805429289299581
40,-1.113668719547842,0.7785970723662612,0.5854998918403713,1.1660199521543448,1.3632700613769542,1.0989673409896255
50,-1.1524361910525196,0.7437855506052512,0.5482316395606796,-0.03157806322119594,-0.09207023011182375,-0.30611645669118115
60,-1.1406629295048705,0.7578058233582753,0.5570003951200716,-0.13083011787552057,-0.6117756249340823,-0.516682862764382
70,-1.129055238637831,0.7720596147758801,0.5698705670796348,-0.4017399007024527,-0.9222200768872246,-1.2278768396413964
80,-1.1059059298273741,0.7939406006730362,0.597094036806212,1.5113857080199715,1.0586497627986322,0.30847684070024695
90,-1.1346596340899966,0.7597101316142318,0.5641671845743227,-0.7461001315193094,-1.2880816608228076,-1.7229793107092957
100,-1.1094830882988036,0.7786311798533984,0.5827020444142742,-0.6723212771230102,-1.271096391918634,-1.2048918718964727
110,-1.1294109564620258,0.7558887654418742,0.5676984491047469,2.4052648943584027,1.5443358954604873,2.077028994326866
120,-1.1307864425904202,0.7634667599903121,0.5688751111203209,2.7821749068906176,1.7044613995488218,2.450043993215096
130,-1.1388591686149918,0.7572803047451351,0.5636877212212905,-0.09151784620017145,-0.3242289012166166,-0.31065370224798605
140,-1.1208432572617342,0.7796782762180492,0.581977704871673,1.1381288359574442,1.0420774018384888,0.46866635640344134
150,-1.1109039559451035,0.7832450197565116,0.5847293800059987,0.3547486655425508,-0.5336012254743925,-0.5313433151876947
160,-1.1131783336863914,0.7834496146842358,0.5973718838757794,1.586044370554554,1.1988465171938025,1.013081167587602
170,-1.138994433942801,0.7555724686728416,0.5644271921504989,3.494760028022914,3.292683927373909,3.1887945511809055
180,-1.1287946469755639,0.764936630689641,0.5746180331118708,-2.352571430554619,-2.4402624601495018,-2.4011613468260755
190,-1.1135394874710518,0.782447333256372,0.5891136963421381,1.9825468803859871,2.0515275064080543,1.6225381887985755
200,-1.1466317397414787,0.7502754786967686,0.5544868935656388,2.455826288070371,3.4680588068696103,2.586532923216014
210,-1.1131504717797478,0.7807110816825102,0.5870148929299556,-3.4921416045201967,-1.3992850006075346,-2.1894744852032337
220,-1.118588099450345,0.7775768057274745,0.5849405750118982,-2.026004042611584,1.0915334330714774,0.7653547009990216
230,-1.1524644279680745,0.7530893529878626,0.5575904570616848,-5.448025383143816,-1.078986808388599,-0.4249935920973047
240,-1.1454342145943566,0.7754167484120998,0.5779823768410983,-5.371724991294406,0.3725259816482037,2.822666651176542
250,-1.1692783051370514,0.7587469949141438,0.605020821185229,-11.253915113918428,-5.746479761580284,6.473191000929273
260,-1.1650567190006602,0.7252205331374317,0.6778143006099656,-16.44022422431461,-17.022613929837895,17.72623542285526
270,-1.1673472123903461,0.6991782447651188,0.5923506406420779,-7.67561394452099,-19.809174951950574,13.391250486990428
280,-1.0845278495786046,0.7844412273388932,0.6276645142294025,-9.091789333627005,-23.830792689163125,7.027752201342718
290,-1.0796082474630018,0.7541076242307506,0.5664874207217279,-6.937950484123333,-18.25960375286112,8.651534047549998
300,-1.018853189778496,0.7782869278421146,0.5956916598919465,-5.87507844147129,-15.06203774823863,3.526136305168928
310,-1.0619219380933795,0.7995138127482195,0.575887158829126,-10.201312500122755,-10.303649374582225,-1.7053017775655919
320,-1.079327795863144,0.8173837761769593,0.617245095461036,-6.015357334703015,-5.716163728449404,-9.182413470409344
330,-1.095634197313604,0.7805568566237485,0.59600465610425,-3.8668203865290334,-2.1999810604131467,-10.838276339265693
340,-1.1255033271564236,0.747057355264254,0.5376107068118172,-6.831485124910454,-2.239849752275048,-14.747848248195073
350,-1.0960097115517526,0.7767814827345632,0.5242514386841615,-3.3925628628249416,5.630148949082516,-11.466147558067187
360,-1.1563782338887079,0.7894487443325287,0.627602499509591,-6.089843002118603,2.423582417021213,-14.016335343291676
370,-1.238696268513942,0.7499627784918355,0.6352732496339866,-4.043004122704737,-0.8471438077939482,-13.838813010689528
380,-1.1656281284525343,0.7515932085367014,0.5800262644855894,-1.124869556725244,-1.7256435127125496,-10.08409086429105
390,-1.119089611277459,0.7469853820864574,0.6278219099913899,-0.8624028825307164,-2.5563740395418977,-3.870580082733782
400,-1.1243695370415505,0.7385618372189472,0.6222233933224941,0.1886136836352919,-1.3866194189877907,-2.2539798017523194
410,-1.1353764094209464,0.7370230825252988,0.6091057029840125,0.826097842996294,-0.09407096200738219,-1.0949753976302605
420,-1.1061737566022416,0.7577561729747797,0.6446962986518185,-0.7277124605481782,-0.7586950293133237,-0.4345543646398853
430,-1.0922493462384484,0.7554376004693777,0.7555266059099391,-0.06379629626999783,-0.9588668415615618,0.5684673156524211
440,-1.0531632660263714,0.6895822902614365,0.7822535399783648,-3.9058150488744827,-9.765868188387365,-8.575316233174272
450,-1.155401271724726,0.744627889842221,0.46165011547717805,10.809164687398033,-15.400508113107188,-7.618441259607593
460,-1.0988703735501666,0.7447784900211012,0.43302960538674096,8.665131220590684,-7.823646048559232,-6.57341219383023
470,-1.1275904195687838,0.7300417459085785,0.4106451569366957,4.616992028999907,-4.476166764942143,-10.852830496485419
480,-1.1289036714555256,0.7268267162736307,0.5253256693528685,2.128373817359344,-1.69408146880936,-9.713143469888038
490,-1.0610705616071814,0.791084784741225,0.5507057149757291,5.4180479809581,1.621369914286805,-6.8358801331757615
500,-1.1051061283929493,0.7513341019807896,0.5578130079263627,3.4480427600057713,-0.3349027285228181,-8.454857738903506
510,-1.1254395637714918,0.7573182551788231,0.6416831516958013,-4.935733232498389,-3.945401881650607,-10.080893626082783
520,-1.1361571050160695,0.7539142911819158,0.5194114669456791,-9.588167588661099,0.49411162646939333,-8.433083480767541
530,-1.1328249158577386,0.7583378861490939,0.48586477133659134,-7.603956474363635,12.769744701903175,-1.7456579049949452
540,-1.1772246890150164,0.7740078137832903,0.7322277087033986,-5.98200672841768,14.068826813480536,2.6658737893150803
550,-1.1005108399371948,0.8043346325443529,0.6722406393112262,20.100175067960365,22.482234521247836,12.911709206412253
560,-1.0026672331926882,0.8618069707690342,0.21546764269660532,17.916789447805133,25.95046742861124,16.34499413808453
570,-1.0159884547218176,0.62183890959582,0.33308816941216185,7.591291716950218,17.97879051150254,5.835684141690023
580,-1.1818076461281106,0.7153024588101256,0.6845885310511796,16.33742300593383,22.494266769821174,7.476118563721377
590,-1.0367026973452524,0.6370615463317799,-0.02523326993604854,22.687727684221375,25.965326258974272,11.98478665862333
600,-1.148079095679095,0.7303344303463771,0.6430384557847917,15.218438277589865,21.85954626916285,20.765961712477658
610,-1.0978013229560097,0.8063879850594039,0.5013692997484516,20.11952890472296,21.917224716481538,18.770544538572587
620,-1.1051821946431495,0.7765229175443249,0.6171040975118484,13.651656022480235,10.346807892559736,11.500709653946698
630,-1.1731714414439376,0.8118122046564031,0.8768699010485888,9.211202887692236,14.124856833677022,10.675262669083475
640,-1.2201338750669073,0.8086289265442754,0.9522325072359499,5.107698676362588,17.450875089944986,11.15381285245332
650,-1.1558256685983324,0.7894390613298008,0.7624892157937672,0.032060100210579145,6.799334063177521,3.5831757851486
660,-1.0963337886447566,0.7865546500918232,0.6006927387650649,1.9432440563113818,1.865328325679116,1.1363812546997143
670,-1.1351663971220929,0.7596337491126269,0.6016167326652292,0.2511936885507873,0.41260550906388693,0.19129746672799608
680,-1.129886242251091,0.7565741160370317,0.5796886744635515,2.7739882417558697,2.7597517622610663,1.781916564930287
690,-1.1215587756905245,0.7457846588276945,0.5811689585242793,-0.7055322733730437,0.9245989066931761,-1.5155976643347775
700,-1.1380746527458747,0.7892916404093197,0.5715639921365474,-6.061477728654445,-1.8478970388590727,-3.2195373962844083
710,-1.114822358142951,0.8585026537092786,0.552441527725191,-11.700768294908464,-2.7505698156450844,2.259999346384574
720,-1.1479285899953524,0.7816175188966525,0.513127153425634,-6.305966609900146,3.0725659159556318,5.294468672709709
730,-1.1787635495469684,0.955201752586613,0.5304441733469734,-3.5825543780852085,-0.07021674979387327,11.976444855090815
740,-1.1201911634081851,0.8494310815825014,0.5203218596800523,-7.657716669891699,-1.3821674379111162,2.1752361756709844
750,-1.141613403740921,0.7669528061517767,0.5607462952177571,-7.318379646295522,-1.3128561760393822,-0.5056675436085283
760,-1.112039934426252,0.7229445740872633,0.5835664176526099,-1.1647919069096702,3.534553077163605,3.0225065334077317
770,-1.1312777205884201,0.7155721484111133,0.5499163211901463,-2.3319872633499004,-0.22877427165243036,1.0102762658716595
780,-1.092190324185866,0.7519553616066021,0.58059052968543,5.876627259250984,5.044996035319594,7.745099036412297
790,-1.1337644296558047,0.7139090269065382,0.543923606575462,6.720274737644779,4.39246549313053,6.647081521539491
800,-1.089702438558934,0.6758253740118627,0.5950861019486955,11.279032460036387,7.048961459042847,3.8494948861318514
810,-1.0878359918212226,0.6303673890305862,0.582343192377131,7.307975913848815,3.95230252641538,-5.524304179559242
820,-1.1407801740988261,0.734653659928212,0.5118667586482032,5.50562478056063,5.410681711010628,0.7588459154564331
830,-1.1192610575846185,0.8065360166025402,0.5495275759442947,7.121189003441119,2.4512863177061144,6.6370220761133965
840,-1.147378721018574,0.7702892600290409,0.5440406068647811,9.269494169325114,3.055656093292591,-2.9065175430211005
850,-1.1059043622009772,0.9256825837924794,0.5639467824135723,4.634007525742774,2.1093109920481257,-3.375612907319147
860,-1.141272318140906,0.8204124805181262,0.551441045528213,-1.065161430578137,0.6247867148908006,1.342854445652586
870,-1.1289522522046889,0.8047712234262376,0.5712652684490204,1.8596926471539343,3.0408162747056724,1.134683212457876
880,-1.1371269940025102,0.7868498843783672,0.5488211059605858,-3.4443348354220436,-2.177061325090217,-4.934733482538363
890,-1.1409147533867705,0.7662721244364707,0.5413220770732603,-1.1125644537933266,0.2789297754735654,-1.9478035049899562
900,-1.119496535838747,0.795361997500752,0.5636710367927787,0.8914431157799365,4.048230261809309,0.4844882864701865
910,-1.122872669254309,0.7866814625287396,0.5593964129957544,-1.118665992659078,2.770272935616939,-2.115759800130657
920,-1.120084528435969,0.7829973016801638,0.5616129419481203,-2.599045422677623,1.9679181767331768,-3.697339508578245
930,-1.1221928585463214,0.770015612625609,0.5506135315780483,-1.8784772827213678,2.1977924907432476,-2.676008680501886
940,-1.1617926017547857,0.7288259249652737,0.507016337900413,-1.0781016811428776,1.4325899584711432,-1.3780010346051565
950,-1.1128703301101308,0.7848758432918866,0.5629012479260591,0.0329310664036051,1.9141705003827447,1.2421440203627567
960,-1.1251105239286807,0.7834103787373629,0.5556383037731887,-4.5579270440859645,-1.9788746469510978,0.2761690369887435
970,-1.1372859732728822,0.7905572025260271,0.5467295164189326,-6.397461096367609,-3.459522245279973,1.66374911642479
980,-1.1168726935907414,0.8032156692978394,0.5711156616357834,-7.376503517149675,-4.83258567169805,-1.8439590498726288
990,-1.1194297047464075,0.7944962028112474,0.5618101305406346,-3.1998998082091465,-0.2479898600761281,0.3250141298608953
1000,-1.1185229346256758,0.7893285364494168,0.5751059132384042,-1.9169466496967846,1.2230972404114655,0.8885923639786522
1010,-1.0969019955241601,0.8043941272452088,0.5907942043104071,-4.148924009432694,-2.0833945601496158,-1.6468796296845851
1020,-1.1218709775747053,0.7804102691947417,0.5549016523972584,-3.607880395305111,-2.611793177767807,-1.0184750757219794
1030,-1.1418559251396534,0.7689551424720019,0.5462526185038152,-0.1263334297451822,-0.1775047149400853,-0.6930025705942275
1040,-1.1002406527935191,0.7966875105234855,0.5793200261180125,0.8648831018940556,1.2759577302385572,0.19447849613523482
1050,-1.1573896771368402,0.7462371703941203,0.52840904313853,2.212443495220969,2.5362143105596813,2.0671311536223955
1060,-1.1179903228021002,0.7842388913591852,0.5630234226538023,0.2878287192654768,0.8726551517564671,0.8640789660173276
1070,-1.0928817661897812,0.808354045477108,0.5892585241151592,4.27541556455717,4.661588466353004,5.421440953296798
1080,-1.1065583218646464,0.7997821000778352,0.5793474565691032,-0.7952114088931072,-0.8168579828215625,0.5707200596012729
1090,-1.1527202056226613,0.7562764385449571,0.5324531712791785,-2.5931661993450312,-2.2659941301240667,-1.356361052475368
1100,-1.1234889594847555,0.7825085760280073,0.5596295050498239,-2.6149032882152703,-1.6042296292294844,-1.5723465610128653
1110,-1.1457872879481856,0.7548242937497323,0.5325114434316103,3.233457254558355,4.3811326344495285,4.404395207586547
1120,-1.1433952730133294,0.7538073911103889,0.5304467337944436,-1.5782274101324703,-0.7274680712243927,-0.2691106853348434
1130,-1.1260778354861694,0.7733404361931818,0.5445934431504068,0.9537478363772405,0.9192158223131003,1.880884271140482
1140,-1.1423677208607896,0.759871335524236,0.5448941139183414,0.41937356182231017,0.02850154333539956,1.3604216418178998
1150,-1.0939151934587494,0.805223109243958,0.5857473431562202,-0.18277484348276724,-1.0032772353694286,0.23411655085830607
1160,-1.1324202341848135,0.7693196027177346,0.5552188176370975,0.27356720663582157,0.4278906245016175,-0.10013919063772914
1170,-1.129487189364031,0.7807624336066639,0.5556347466771564,-1.470472350802983,-1.12394423606562,-1.5666078712077667
1180,-1.1447123224334976,0.7574501196790918,0.5362934072386013,-1.166006630159723,-1.1387037774017883,-0.8990807514554515
1190,-1.12654832150801,0.7770356673169495,0.5629667989851674,0.5053925043259057,0.5106212680356321,1.0712776789347596
1200,-1.1256415269612718,0.775764153740622,0.5614714773238334,1.341340749720163,1.491359619514828,1.7328899023336088
1210,-1.1142190462835921,0.7904321587701707,0.5758345102104756,0.5701787206044959,0.7704711798715722,0.251126854719241
1220,-1.1448298415209512,0.7594239507495242,0.5391566877480017,0.09665979190148496,0.9424101058475115,0.38247591875596276
1230,-1.1427871578231805,0.758972202675649,0.5359357872946542,2.9275043570693153,4.01230524365611,4.356468886242682
1240,-1.109663322744542,0.7961554441993062,0.5743104529684117,-1.9420992631077483,-1.44519309433629,0.07460969111176463
1250,-1.1358693420090438,0.7734866518723387,0.5481379927221044,-1.2919464287370594,-1.143744374961184,0.9509736543937729
1260,-1.1096367597168462,0.7996468551041952,0.5725234440753683,0.32523950509585164,0.12859160119922086,1.8161401170777878
1270,-1.107783261923393,0.8071266607123933,0.5769115334974283,0.004479471060709228,-0.7718862279849585,0.5815467494710078
1280,-1.1013904810459154,0.8046443873737523,0.581070403578177,-0.3003510149537443,-0.8181113220709872,-0.36934413011281236
1290,-1.1094268526307278,0.7966212514676982,0.5824712995720511,1.7141390847292513,2.1532372020624737,1.984325995757799
1300,-1.107354157340942,0.7961094451815537,0.5795379728973424,1.299900210870339,2.2976846929768873,3.185205728912008
1310,-1.1193360797320853,0.7823401578798914,0.565806430847077,2.2343778181283804,2.9155544402723095,4.155885503584468
1320,-1.1497020765928654,0.7600791528450175,0.5398607524146691,-1.0342755051873278,-0.5210994834029569,0.4945013811084433
1330,-1.1374647954006465,0.77559335386487,0.5488694525852532,0.6652747461800799,1.6748606461909539,1.7308548118172933
1340,-1.089278038680699,0.8262943796386307,0.58460580473928,0.9591582665293379,1.6275921755808151,1.2486810134490107
1350,-1.1014417565334929,0.803452770168477,0.5779632365631194,-2.351626053295526,-2.30681979874262,-2.916621527292129
1360,-1.1046601418880146,0.7922327136667674,0.5797368136030738,0.20682788828159943,0.2206085360002256,-0.1805862925142695
1370,-1.123171512800691,0.7805126620486407,0.5649339971872522,-0.892081443954031,-0.7320719216539122,-0.21152439792762973
1380,-1.1626782826753066,0.7475791743972499,0.5279992522144162,-1.15726598413704,-0.6468998268421723,0.3352318068008485
1390,-1.127542492526268,0.7794968015767979,0.5589397584825316,-1.2694940148364537,-0.24831050422626755,0.2725260300122039
1400,-1.1315888338662368,0.7748446364395332,0.5537089130497257,0.5813345141454618,1.392036561336636,1.5924082991832118
1410,-1.1209060468516567,0.7888979893983706,0.5674483462873569,-1.7423466700320365,-1.5718209242226775,-1.8947985573895403
1420,-1.1405408079330266,0.7670648107441059,0.5538400901046743,-0.9924554115639639,-1.3130579567358949,-2.4259743604658395
1430,-1.1132103280917796,0.791798573990139,0.5669593838174779,2.1110920349587867,2.3556864420668164,1.3165466047149805
1440,-1.1395006755679464,0.7607871735867732,0.5450635699110291,-0.7745037252436653,-0.6328614112476234,-0.9752349048140679
