time_ms,ax,ay,az,gx,gy,gz
0,-0.9656400460714194,0.12859688810894074,0.2678372752189962,-0.5707132416276351,1.6253734844444565,-1.3478976636395767
10,-0.9449525858699015,0.14370199499507694,0.28461890441338594,-1.1098878319318823,-1.0937899521421253,0.4916544596545722
20,-0.9647556557873576,0.13065394450863954,0.27441890507810407,1.5204697132623701,0.5002416218341372,2.970558253694925
30,-0.9499065154985348,0.14349657293094634,0.28380344253923834,0.4976904308658857,-0.07003282292905122,1.6817788232354447
40,-0.9462042294227428,0.14712713381559359,0.28340171506540174,-0.9316545553335089,-0.3191513819588851,-0.7913831450326149
50,-0.9438450958230631,0.14957978848950695,0.282600430249555,-0.9285680753400452,0.7067254755725835,-1.2160252539626377
60,-0.9533363465412367,0.1350343537303563,0.27701137874678844,-0.25288323168428495,0.6868492560614903,-0.641541591863847
70,-0.9348733989458987,0.16009141477570765,0.30230678404598005,4.132304833410264,3.668931561490525,5.007683000881122
80,-0.970658056345795,0.12775831071287524,0.27455034111578247,-1.514750858474625,-1.9517560570025754,-0.3785375487888216
90,-0.9193895440428468,0.17354945768168448,0.32249086465811133,2.032945328942526,0.49166694059273264,2.802148689313749
100,-0.9765536997135019,0.12219475594808246,0.2653955018392727,2.144488775276181,0.2079318611812716,1.846824492252996
110,-0.9544962138125803,0.15328106836036054,0.29079504911062914,1.5719611938259535,-1.4366640052318171,-0.8677074814638819
120,-0.9900012100314767,0.10955574297719173,0.28190766940890954,-2.5537630979348482,-2.208078865788537,-2.577296009927363
130,-1.0793427299974083,0.04770348647486007,0.36714450723584624,-6.089168151295945,-18.17393943827364,-9.59585469312312
140,-1.1608560428480796,0.05057881312815066,0.48393276760783743,10.81366656018401,-42.061946717222476,-10.574476497638507
150,-1.0299445513694216,0.14523478266478226,0.49211677488176,14.43291758438761,-55.632412942790445,-7.384292013873614
160,-0.9227260786534093,0.20736928172788643,0.4286203335439921,2.763348758483707,-69.35152166048354,-6.953237972664467
170,-0.8401620766033285,0.19552061768033008,0.40202936032808473,-2.5634924977220948,-72.48632979549082,-0.10087298854798288
180,-0.7564942463082563,0.22733851960178972,0.33164163891910275,-2.506231882981663,-54.37375154738139,9.658964161464773
190,-0.785719524918173,0.2782862700470466,0.35236114343283864,-20.158985024792386,-30.38836327608781,16.410138656881514
200,-0.9030464910838732,0.2019963090925503,0.4162947501888129,-37.58695530331617,-25.29544113662557,14.743294269862318
210,-0.965213792266013,0.11548225405719999,0.35401244390510156,-38.48534591032221,-30.28530810130315,1.7853619411609358
220,-0.935430236166975,0.1417876809116536,0.28878187890811263,-27.184112158507116,-21.56278656414102,-2.793289577513261
230,-0.8821905817355854,0.06336237075060214,0.39170291148999226,-19.300059015150836,-18.68655298811247,-12.412187451113361
240,-0.8472002663681661,0.052478404078854984,0.3677084520705022,-8.261888646899019,-3.7610775287803353,-24.39868638802718
250,-0.8487309120484283,0.06621227410936867,0.35104580603935065,-4.818813826673384,11.172635974059046,-19.077904301993435
260,-1.5666271889462904,0.23816928416753524,0.9229157519833021,-34.75549680724479,0.4238462342942524,-0.9542518826561466
270,-1.1753869989945482,0.17883318571352058,0.5073518717990465,-16.891619442648704,-4.488083211663868,-0.05796781333119583
280,-1.0633728372696025,0.007903036752812115,0.09609337585979162,6.008577510921873,6.961476451601864,1.6774879798640598
290,-1.2153833137093228,-0.2254049641767141,0.13050858822378117,60.789149100830684,14.591985257808808,2.475485804907046
300,-0.8421452361610507,-0.1899781424498742,0.20936172392544272,85.55577244570597,95.84821403294727,24.11872266796491
310,-0.908384072152771,-0.31783137077479146,0.9302927093005772,32.73562290534469,79.93857325724434,10.563538952888164
320,-0.8212318678772703,0.3351177216325945,1.4380199244522036,56.71059619224447,41.93246491063504,15.502917100366886
330,-0.8741029226022542,0.46560285500040377,0.2501222824789559,11.09227582525352,30.022630199613108,11.584119628558751
340,-0.9259782735583308,0.12153425674320883,0.43063612917509503,13.218044233486014,-0.9765534579667874,1.8199479325342232
350,-0.8927405754439857,0.16911504155097237,0.7947910418671269,4.6809587386929605,10.636346122407847,2.817835142209839
360,-0.9726382268062234,0.13797077128360474,0.2633621867548391,-14.183088833197958,-0.9308968070875712,-0.3047810399603632
370,-0.9256346536706102,0.17332813307124406,0.3024611957185569,-12.615221968352781,-2.914347712150443,-0.37314839749914863
380,-0.9516223326374894,0.1538610536432105,0.2906201718070676,-8.57889289454234,-2.0956660120734987,3.0946370856092513
390,-0.9545009885743599,0.12902965468682867,0.28211542501905396,-5.4609697765069605,-1.0672046296725566,5.341853189874328
400,-0.95367263975067,0.15727423222992276,0.2725715664151777,0.10770192192451322,3.0437240392302467,9.501751495541333
410,-0.9507964695952464,0.16454299884857365,0.27146036330422896,0.06802743689271096,0.6028813168148517,4.16510009887635
420,-0.9320485178103652,0.13725115340336394,0.2977182737960803,-5.389892247948637,-0.7197308429971032,-3.131986923570994
430,-0.9600883002146403,0.13242586300016887,0.2801088348629398,-1.9956969016952104,0.8857442452741453,0.5818807631616436
440,-0.9504970257143276,0.16537674150804932,0.28859883494070876,-2.4767274535572774,3.662125101312909,3.0595846656186017
450,-0.9560017811168816,0.1644360330128462,0.27511055873392853,-8.331947572122113,2.172061922589293,-1.3551135055020853
460,-0.9355309454350644,0.17332812222068306,0.2945769583009159,-7.442973342575695,1.0526004794897554,-5.030189808590194
470,-0.9586703839924975,0.1412134877927734,0.2797299232768026,-4.7637908872183345,0.12189894720586181,-6.0929448249994955
480,-0.9364275879041555,0.15660768946098302,0.294423253902204,1.759535720589818,3.7075395021343827,0.3917300734111572
490,-0.9368095844279885,0.16044786350634496,0.2936247093412848,-1.0958367527276607,0.6377022258687307,-1.3577975696795859
500,-0.9704719462217373,0.13450836997967175,0.2619850533048898,-1.3166465920014097,-1.8331355468405655,-2.038481473686826
510,-0.9676921812597523,0.12781400929830167,0.27081204209174703,3.4092602144538056,-0.5556673784359729,1.6666794787070587
520,-0.967019541311204,0.12073669799018924,0.2719187208875581,4.417828347228975,-0.9722651975134537,2.600261819399701
530,-0.9819238743146906,0.11678054180878501,0.2571397771326986,4.330505772397338,1.2339582351209133,3.683664315659354
540,-0.953863105765747,0.151867135552286,0.28184332870386525,-1.2631609232824703,-1.6485943403788568,-0.9387852471675132
550,-0.943650143077271,0.1552009504093104,0.28735017736772167,-1.540115706468887,-2.448256272709796,-2.0861189241531717
560,-0.9462245502990577,0.15687149283497454,0.28854532421862106,1.2520790031038942,0.27273843315639246,0.08641569598983967
570,-0.9701432961690033,0.132499642111515,0.2683791763854752,-0.19246692358909634,-0.7773790160731318,-1.8598472386488831
580,-0.9440494631030183,0.16443541253669933,0.29489836774698575,-1.9135746000850298,-1.4969752248591826,-3.0564367994869737
590,-0.9374031907983087,0.17221368780006827,0.29988785175285687,1.421875083360754,1.2570523342056057,1.330339523574597
600,-0.9335409252003393,0.16570028909668433,0.3033370282376585,0.4024634733949205,-0.8229387931450156,0.7437577603113589
610,-0.9412471343431721,0.15507746073412923,0.29968085978385284,0.4627183742816636,-1.5359367632722303,0.9144714218664878
620,-0.9418435393333969,0.1584351830583539,0.2949934585076154,-1.0916567732101798,-2.615675851244421,0.3910947370448621
630,-0.9739888010982991,0.13212483665729996,0.2695723466803874,0.6949409998664675,-1.2995368053485292,1.478584618149122
640,-0.9068708881542481,0.19984489096342464,0.3214108819538555,-1.5068405250856638,-3.3646394001929494,-2.2393272676057263
650,-0.9718448292885428,0.1346642578402116,0.2598005999572239,-1.470500574211112,0.6124998279383193,-3.152973376896262
660,-0.9684801931573576,0.12645258302460388,0.27601476863556823,-4.993853983358319,-1.283338143982691,-4.47064962241289
670,-0.9456716652944787,0.14071682835013105,0.29055919676526687,-3.7064816264067693,-0.1730238156996049,-1.7045322914772103
680,-0.9287222930982117,0.1627260240850178,0.2946500913820797,-0.2991159090883091,2.7856008932359666,2.526117654285666
690,-0.9366594559717653,0.16552081793166176,0.2997907772084688,-1.1053325529154305,1.626922241283458,1.5520504149420935
700,-0.9176196060738822,0.18368361275674072,0.3059598831126381,0.4783319097546511,2.381974865748653,1.888297179938664
710,-0.9460040148239071,0.1540160628118748,0.2903963893316592,-1.744398352085933,1.5168625177831077,0.8502375565510862
720,-0.9437278017461151,0.1540695226942161,0.29102468149430555,-0.5662422285830633,1.7696134250068492,2.5769137938719484
730,-0.9571220412253955,0.1464299088361656,0.27185491277234825,0.37431591029608846,0.1316756355011266,1.9095550903021277
740,-0.9638411375454206,0.13944780738569168,0.2691381924663769,0.8163680047327683,-0.541251265767282,0.6155116961671107
750,-0.9285228856407781,0.1714646426285683,0.2994473582862064,-2.214323752097134,-3.1591971749154277,-2.4624866968466326
760,-0.9320401119041782,0.16498618595318962,0.3038913085241654,0.6242126345450347,1.918276531320288,0.5625499543549731
770,-0.986371380596411,0.11809870672913649,0.25304115162609164,1.6073393896112889,2.7563586292431905,0.7035023389634625
780,-0.9444525909944882,0.15588462619864168,0.29062932906115324,1.5961545085338944,0.5602779925890037,-1.1098395419296079
790,-0.9350971529174953,0.173225635587218,0.29394554068326706,-2.6237918625944925,-3.208341234318655,-4.376707231109663
800,-0.9472960334159882,0.15878714898286467,0.29258946198340136,-3.809424425807892,-3.228220129573887,-4.946740985867592
810,-0.9629932726197598,0.13329850983045077,0.27767182673347607,-1.3120158401361866,-0.9633675635823123,-2.4481113902506797
820,-0.9301724345893139,0.16417279690661912,0.30724204837448127,0.6945868531337671,2.2759594797325784,1.2338097683226044
830,-0.9489244884046514,0.15584518116690838,0.2929361077322419,-3.276031048329524,-1.8082678911615495,-2.8297797803815836
840,-0.9481508886743961,0.16335750189844533,0.2894582252648125,2.1207648379954183,4.006902262612623,2.207427962168933
850,-0.9447521344329779,0.15502024897421524,0.2836894159132044,-2.363192499664597,0.5362853043525939,-1.9362706910662122
860,-0.9556106843506484,0.13162574019416856,0.2768640000845792,-2.2932664078702074,0.642501809338265,-1.3876467049090815
870,-0.9686595838780389,0.12018583228488659,0.2687154350605915,-4.0604018581006525,-2.2643588185622487,-2.722483407972207
880,-0.9723597668096245,0.12389112500671867,0.26151007502847196,0.16544278331334972,0.17853956403710525,0.5774619605095246
890,-0.9330054657035681,0.17433902337681048,0.29453457046452686,1.908879812740984,2.418834501895424,2.085910655667477
900,-0.9243739061206464,0.18295138764489233,0.30956276351622464,-1.4990150181259236,1.0031096153521815,-0.6239018085055643
910,-0.983960882190905,0.11883402692593593,0.25585598671143767,-1.8625305774517957,1.1541510404363633,-0.6655992712448202
920,-0.9717506153810442,0.12816491205010255,0.26451272397335196,-3.920490005106636,-1.0363092391401942,-2.712101526998172
930,-0.9677730531179585,0.12393117201091311,0.26557245072809677,-3.9697320684627586,-1.6581286367001393,-2.8705950936731615
940,-0.961897965131388,0.13564449925641314,0.2749035491183741,0.8148871539962628,1.5761357346912896,1.1131504113289958
950,-0.9842259601325533,0.12187802141259418,0.2482748121566485,0.2852814361077233,1.176582008868796,0.7286566577798743
960,-0.9515553519000143,0.1571921277595082,0.285406368409578,-3.4933196073581407,-1.0385334261814505,-1.6026099640112854
970,-0.9465404161295272,0.15091967114425958,0.2933836932433065,-6.3815855106427275,-3.5123068427111526,-3.3091969205919134
980,-0.9547068592632043,0.128396449075068,0.28360537155132975,-2.5312347268619027,-0.7773975637281683,0.45605380010603486
990,-0.9601652190290811,0.13137770600475415,0.2782681555582391,-0.9103312462524503,0.06833797366487881,1.2254476592164738
1000,-0.9340856067286228,0.16703047396978937,0.29733314385992815,0.37773501110245045,2.0562570058044667,3.1130283392516898
1010,-0.9512482629015571,0.15145816850184662,0.28212097119611507,-0.8260399002566834,0.6204043583967871,1.9640407199325283
1020,-0.9469436430523129,0.1556635142415808,0.28992676873424944,-1.9423200888519676,0.6338641914152505,0.9829889011273858
1030,-0.9734999005809113,0.1239687752775023,0.2608191627481721,-2.6486710327856233,0.5970984949149969,0.03149409981829329
1040,-0.9591362701125635,0.13876026698687344,0.2740200456130282,-2.170088361820856,0.5306036877988276,-0.31700616528019093
1050,-0.9476676171946747,0.1378051089241433,0.286370111765402,1.8996818845624097,4.511557613144085,3.790490702438536
1060,-0.9268936506016845,0.17583028425103375,0.3039899259516439,-1.5763008351527457,0.678159773683262,0.7393017104844586
