time_ms,ax,ay,az,gx,gy,gz
0,-0.5803945167078537,0.042499890418049364,0.4991123563326456,-1.4418415146298378,-0.8843968318599429,-1.0763401200935274
10,-0.5554846634024105,0.06217445577580338,0.5232381229117394,-1.2201282368472628,-0.7328681469441984,-0.9945334368169252
20,-0.5988860451134228,0.018850094810299915,0.48703966360638173,-0.6558945720315685,0.10719428322108815,0.08991026218563092
30,-0.6043156043266101,0.013978416563753373,0.48281520497910735,1.7647769226815224,1.795652243875531,2.2653012866942683
40,-0.5966480709518602,0.019091510418274473,0.48274310595589265,1.7250598504896262,0.9930981684134121,1.2163699664193546
50,-0.5862689561912579,0.02952297363670756,0.48979604800880594,-0.10643392859700951,0.8868885627461105,0.7248243622631272
60,-0.5866803131642255,0.03303174856299442,0.49612153121692015,-1.4550025245654497,0.41752737536640194,0.18036334624926254
70,-0.5817482911323112,0.03706813368529412,0.4996427495352309,-1.0097141934692517,0.052090164393638616,0.6941642358321408
80,-0.5904715933698115,0.026972022072576988,0.49056452870848405,1.0487285089876164,0.6867416529827725,1.5005092358111438
90,-0.5565466882103585,0.059831887560970465,0.5282865024442001,0.5440765157588295,1.5903200864746094,1.3215712009405531
100,-0.5901648024805678,0.028422162962094537,0.49316011383240466,0.8326037139517881,1.9587559889346409,1.4896768542072232
110,-0.6287459735940821,-0.013038371310607595,0.4510411896247598,-0.4967743863508283,0.24641773574572146,0.4388085496669184
120,-0.5752092831334319,0.037439251025986636,0.5095378070592609,0.038299729328714616,-0.1749103225217188,1.0052749682225026
130,-0.6003470627220865,0.018077218550706854,0.483042717880971,-0.20940209982317798,0.05619923845104614,1.2405872748343179
140,-0.571172611670574,0.04086590762755354,0.5070304522568485,-0.9254947939062755,-0.42565557751764393,-0.031112740280304196
150,-0.5999650977436249,0.014322360474933304,0.4847846016314022,-0.9996138487652177,-0.1428576324508542,-0.22922325484663153
160,-0.6058866486849152,0.014129376755193282,0.4779800055209559,1.7432171449553844,0.08561892686475243,0.5851819313164909
170,-0.6123289632720568,0.0019407173537146355,0.47754703396078446,2.0749361801273416,-1.2512857028278734,0.409355747189903
180,-0.6048015677211418,0.020200918925141205,0.49356746003547036,6.905256177178832,0.6306689477878,4.307578758012221
190,-0.617293066045649,0.013920664847769255,0.4890390072583786,10.319850833019233,2.010423229057179,6.770242726066549
200,-0.6522862613628054,-0.12160416890236998,0.5869029483887359,20.060729764196576,-21.86579930559479,5.463942593890303
210,-0.614508464382144,-0.0541901059024982,0.7453633261603998,12.41869996766343,-37.11269844695123,-6.959861202366381
220,-0.555499474870926,-0.06921190739340993,0.6002111934835882,26.711357323932706,-46.85578609729898,-20.14943253226272
230,-0.5294036378963298,-0.05747210024593869,0.49829866493234887,20.166422025346574,-50.94555871174356,-33.34695969790254
240,-0.5580675902193113,0.07977301725121083,0.4926277041650433,6.0759628246735975,-45.17209340141838,-28.300729376577607
250,-0.5319850965164655,0.10387988550175198,0.5285671508893345,-14.299912660437622,-39.365533698096286,-17.434603161752996
260,-0.4874400898777096,0.04277427267537766,0.4462750058199624,-32.48756794779422,-18.752838455400816,-8.492361591861973
270,-0.4834331962181987,0.10023134473021575,0.5041649331643454,-47.86069940454164,-11.025056186453458,-9.340861346084816
280,-0.5422145063411868,0.10276406970630138,0.5026583774964335,-48.387302021676085,-6.536529713674604,-8.31994145324086
290,-0.5658854826511115,0.09669844018528483,0.5612267935902027,-26.72224186452031,-3.1046620034829826,-0.09658644385629522
300,-0.5848407925461223,0.038899820852532185,0.5702877956970028,-19.54813487374856,-4.4193355760763975,5.989395826311073
310,-0.5787410763484551,0.008103859320703266,0.5140072379085763,-7.157182237353113,0.4508526799727165,0.4969151786589088
320,-0.5649218382754593,-0.00454021164215905,0.5179245125179469,-0.5910901325584594,4.716565598757211,1.444083999059003
330,-0.5512130859719643,-0.047609007609597985,0.5745193105570184,-1.072666838282199,-0.14631728308980296,-3.1462360716508226
340,-0.5451882233885578,-0.03980284524716715,0.5441140247126488,-0.5093813340818467,1.2975323194042832,-5.759003117210643
350,-0.5384651473563768,0.02833192896696581,0.5273143191562357,3.8858975417345576,6.907627254588529,0.23179800649779514
360,-0.5214376960484679,0.018063545133273268,0.4913006262818478,4.977674107891338,9.25262696911933,-1.5101112187866064
370,-0.46180239805939033,0.06400116069271963,0.5104518750937703,13.998609707248946,23.66827015823755,2.9209447121513312
380,-0.45587181383745884,0.06534304738486564,0.6159259834645204,-9.592726116566137,31.17309689445202,7.985165355289544
390,-0.6782788572245888,-0.09005699754866173,0.5801276304406348,-28.104030590561067,7.278399901498275,5.123377645980849
400,-0.6347111896328251,-0.10840009129892743,0.5316861646011306,6.413989972868446,0.8343185533977159,0.258377993940732
410,-0.555643532926212,0.01525014724028158,0.5018721019581445,20.155885577748034,2.271911558870198,1.092596701838625
420,-0.5362388527295096,0.01697394510441011,0.5552817502547772,9.27648099416393,4.433898012832983,6.645515063300745
430,-0.5718942741677658,-0.013699918917732463,0.525105907310332,3.17035191745902,3.0915157358660132,6.201970814239363
440,-0.5456570962501109,0.004263340372986548,0.566370771763669,-2.9433224448352027,0.5929066183202045,2.454091018016358
450,-0.5072688016769368,-0.013910414391267755,0.5973185508908587,-24.04813437739484,-6.812688837686938,-6.461868888504259
460,-0.5619297887930179,0.04801653815619196,0.5152188123270619,-15.522848090232014,-5.862465687712029,-7.7213073578774605
470,-0.5687229071192654,0.021725531323001583,0.48913528358932523,-10.753763010391943,-18.454165497657918,-16.892891077253573
480,-0.5540051295122659,0.11154324333684663,0.41166547110273005,22.165321604955018,-23.020376209193053,-19.18062426930205
490,-0.46546235522440493,-0.04632258913582777,0.6821875205976425,21.388797339658556,-20.875736882029905,-18.55753551356352
500,-0.6948283708684798,0.0010882401958368258,0.5024767257408925,-6.278106618159756,-10.686131750335266,-6.434587317256389
510,-0.7505048788564856,0.18313489710428202,0.3622449244928309,-9.272764220460456,0.5606829714592678,5.398129285862942
520,-0.6248321714662693,0.11425551588307972,0.43059377704766816,-0.04680964746955141,-5.734797654426356,-3.2434857503991
530,-0.5870964740657588,-0.0023823175875215125,0.49719154140175226,-0.26928939807786056,0.34448767175658723,-1.4167214218340423
540,-0.5475487910576597,-0.008176549800795173,0.549840875369133,-19.31416236914819,1.6245410637146553,-0.6901050776507569
550,-0.538139732452309,-0.021082392687317916,0.5530152575826852,-13.328913094200827,-0.39574379068439147,-0.5395937741330955
560,-0.5279291554650378,-0.03962692338616309,0.5583655990101262,-6.006793527612461,0.14033314427261634,2.9190647214504173
570,-0.5312215158064532,-0.0259119578837499,0.5671174092562172,-8.40852960995069,2.046825656971045,5.037323521974405
580,-0.5399273900256395,-0.05027954642469399,0.5420990247564671,-1.9241056514332961,0.27382070687318827,1.5424134292507417
590,-0.5320895121665368,-0.01994374302910946,0.5474230962285589,2.3147847313073084,2.0628529340896566,-2.7597606895979343
600,-0.5901621632886028,-0.07830956084528937,0.5007037801699166,20.086899463381908,0.5846329187221414,-6.538278861363181
610,-0.5771458399498461,-0.03341406615897476,0.5142741149318705,23.63851392633645,2.2928904360393005,-6.711348358527565
620,-0.5811658266829018,-0.04651544222264283,0.5060822294792432,27.113999672326067,9.59594708193698,-1.2941729444881807
630,-0.5977031683318319,-0.014775988079746519,0.5050559453459805,48.38140883412922,12.496293151358087,0.42960990250769054
640,-0.6665377719772451,0.0925943594670597,0.4050159748423353,30.362112539374355,25.704390091855938,6.625248351825759
650,-0.7118602340491273,0.22778511050718922,0.2189272320262333,28.4645402026039,34.29362887849583,11.06509781516029
660,-0.41017504848637926,0.06346672232378643,0.9846700597184284,8.00957280120626,26.363562551666362,3.6815831541206525
670,-0.4900755821858127,0.010871743245586204,0.5758989396914656,-11.176788748848937,25.0311760988668,3.231313322248468
680,-0.5313859115001496,-0.03784166907457893,0.6112160148956924,-9.697287733856651,13.543272456141764,-2.5869324288721165
690,-0.4803330642945658,0.030210596840330846,0.7213976025541169,0.4051367731316677,22.239123917912966,5.172249610721448
700,-0.325632288959972,-0.11630856585449043,1.0817395744137128,4.439485946040749,18.038623707926394,3.767152236933767
710,-0.44122290778229095,-0.047862298011160515,0.7799529088902308,0.9671434979520064,20.94665447558553,3.4576087413586074
720,-0.44811716090003934,0.04331381227926065,0.8137108490356046,7.208621359428118,24.78404349111172,2.4808920479264587
730,-0.5211089236706651,0.06921019838020728,0.6344005513381865,5.942376956717089,18.914680431576997,5.630179989961825
740,-0.5442278882023935,0.012205751974826163,0.5811779054079989,-4.322123822084719,12.469974853694154,0.13172686013522084
750,-0.5388217865828593,0.021891768253046423,0.5709564668235226,-5.52848622410435,0.8404052163653302,-7.643172999203678
760,-0.5761807688467105,-0.013365025740461492,0.5164056113424383,0.2891186203422156,-2.215690305522058,-9.830928005592934
770,-0.5934411674369567,-0.004377422205571486,0.49769250868333226,1.932082447251382,-0.3373919362421245,-6.972872432483136
780,-0.5851482587610618,0.004444014249076879,0.5130419626956937,8.549815152491668,0.9358880090001344,-3.811418770352215
790,-0.5960934488055415,-0.020748692507922353,0.5045184701987995,24.088533839450022,-5.142577286639916,-4.4577235031100555
800,-0.617810327772843,0.029388890675887076,0.5073348814002799,35.81910588971461,-6.6090827475543295,-1.1160773402851865
810,-0.6868657265860252,0.14324764017717073,0.4434751220089207,10.20342471996653,4.276947294244686,16.086351025734796
820,-0.5934731058933073,0.14267682379857272,0.5726802799900325,17.37234873541755,7.7094040637358505,40.670813939506345
830,-0.5921488287988528,0.015044470034537466,0.601652029727185,11.890236924001904,-5.589497159173927,42.9014929570228
840,-0.5951517265354829,0.033066044071441696,0.5417401884385221,3.7022638052812566,-12.191357658344112,34.87851395749107
850,-0.5656752094483948,0.12082406630775222,0.5071166531750404,-9.152036306071444,-15.85982450268691,22.580625426320516
860,-0.5002565632684133,0.0734168799589802,0.44555805242902136,-24.35840339846273,-0.6698779588761747,21.671409440439152
870,-0.517457238775357,-0.01581392713671692,0.44942985887909603,-31.540929193732126,2.318290809332484,11.229387163737787
880,-0.5432736648351953,-0.013632512220410016,0.49793674918970227,-32.55008466326282,6.717088269351508,2.113734613074441
890,-0.5864222818819195,0.012787690526251899,0.5205520789859402,-27.358219325345445,10.261599554093877,1.0023757706821659
900,-0.5930291863129689,0.021081830830407218,0.5016344613472309,-22.981056080706708,10.870384168518365,3.9573638702805076
910,-0.6262548173109675,-0.022295269112829353,0.5819978334223213,-26.97388079688524,6.47622805306741,1.02678231218124
920,-0.7281504792903432,-0.12814345641141134,0.6977923435277522,-19.738109840190983,2.8307235713011085,-2.5013197689669093
930,-0.5914597767906181,-0.0715628587643481,0.527115949991536,1.8246328976429913,5.286018209703977,0.9010130017052131
940,-0.5779933247503312,-0.10223267211012022,0.5078808525835594,15.85439297880706,3.5112525521477025,-7.129141149851506
950,-0.5801488258095907,-0.22479525665031244,0.3350620000625822,9.107422379521063,-2.290188539710376,-21.52219305448979
960,-0.6018949331745864,-0.07563292371924835,0.5347555161396557,25.870721554551096,-0.5506546381069062,-27.496443212829043
970,-0.6192333678289057,-0.24719258091302307,0.5881704207566335,47.25214904518826,-1.1250720165788377,-26.549655209768666
980,-0.4948705214709832,-0.37015291607847306,0.7342442310795745,52.03081706031614,-4.974084794135444,-56.66396373698614
990,-0.4732832504628141,-0.24820696671505366,0.4991980028177799,74.7997321733743,-13.825305212000783,-58.66253649391137
1000,-0.6039470119071448,-0.07932685860709124,0.19788082354054345,13.997584401466774,-4.163521737879376,-49.79390077910645
1010,-0.6914598526873272,0.6446957332808468,0.5946987004151343,53.92333840745904,-2.0680150118444467,-23.650988409508443
1020,-0.5682104145272927,0.37023769957329755,0.4758465126364331,19.291731247352867,0.1530161509627031,-14.731635448385381
1030,-0.6101473614213506,0.016809282707004918,0.46865230397946167,1.8550430913205933,0.6042223630122439,-0.11959370415288462
1040,-0.5872544447117751,0.09008140754847786,0.5078616269135747,-2.6496761178227857,4.467268560284115,-5.888384922612383
1050,-0.6196098191581135,0.0491561497783925,0.4740432874394133,-13.813136083693752,-0.4948407245081719,-11.297107535858574
1060,-0.5766271088065645,0.04906527005127491,0.5128883580987615,-15.288751289485955,-0.6173887852592564,-10.140693486003382
1070,-0.5748656869097883,0.03809949843906541,0.503985032173427,-19.0904433222112,-1.977701367457581,-8.687940643832421
1080,-0.5884400320010317,0.009537510587983796,0.4974306383896966,3.9649079982718005,1.8729306364575877,6.171113211562616
1090,-0.5851607743024853,0.015717710015881202,0.50037801539594,6.877735460803446,1.4230187001439063,7.494624029084633
1100,-0.5825144439721378,0.03226404240364164,0.5088780726645361,4.658385118315358,4.096543363483466,7.825395695670297
1110,-0.566729693814064,0.05538468252077739,0.5222894785049742,-6.275541198076084,-1.543122068553485,-2.1529834287639282
1120,-0.5905808841762602,0.022743471358685204,0.4971248610492751,-6.1438004445315615,-1.4449677702512664,-5.2411416270760975
1130,-0.5884077157469731,0.017132899790605578,0.49830023443800003,-2.9397961747314394,-1.841078208746629,-5.831642695595662
1140,-0.6057563841469813,-0.006393367133555528,0.482873231645512,0.518106526447826,-1.8182267875685945,-3.127973140715045
1150,-0.590154843223799,0.002668106257962679,0.4957490729535705,0.31273036215135364,-1.2787563242792053,-1.9240158088726758
1160,-0.5685941615332561,0.02354161383456048,0.5161949431024105,2.1597433312406267,1.2676761218199344,1.6560989787804221
1170,-0.5742375177834556,0.0244739686141825,0.511949686453144,1.5812001287755102,0.5090754629487543,2.3271812446509745
1180,-0.5728268661308971,0.032210963679002697,0.5121274504248841,0.05225901704564628,0.8373082648215935,3.8144837966123837
1190,-0.6029590546537162,0.003045023657264518,0.48349672218867007,1.8470950734617144,0.07386084176599633,1.5669292694781534
1200,-0.5777135729468655,0.03165997159678936,0.5104451191268238,3.901915022099511,1.7431482260962678,1.1917864898576704
1210,-0.5993201994042939,0.0026701023350537804,0.48082091231151586,3.968371426963146,1.375030590798978,1.2762778780825497
1220,-0.5771958605343384,0.018353592461144368,0.5015064128331359,-1.7482331622003322,-1.1744261139511907,-1.745701182935428
1230,-0.59036015087208,0.013865564957421155,0.4964646204961153,-4.103601014854579,-0.7441145406955227,-0.3975646265454314
1240,-0.576170214929564,0.024912259967812614,0.5095605162747925,-2.620420897942826,-1.8856502251544305,-0.5228409975583557
1250,-0.5857282491191519,0.020506196789301705,0.5011668418288971,6.900779017540152,-0.3953182804852265,1.6263559049672884
1260,-0.5838304519494111,0.018176584276605325,0.4990819087072858,3.2776641977609096,-0.45059940525955566,0.5387851778939339
1270,-0.5682299608788625,0.03717517869427271,0.5151847019199446,-1.7788889241633208,-0.849035383901143,-1.3792676253680245
1280,-0.5874264176477966,0.021098954812448258,0.5013073554258849,-3.534747491026679,1.3672652898714792,-0.1078095992106925
1290,-0.6390056719218593,-0.03687518177474236,0.4440960043296002,-5.380685607440157,-0.37921576840414084,-1.5225708849514001
1300,-0.5962143493706078,0.00928737787060295,0.4890602113563295,1.0801443845235967,-0.7043702898864594,-0.4605112610800741
1310,-0.5794871720964616,0.023304375828265375,0.50439667243291,-0.5972013813794268,-2.6988748796417137,-1.3887100670357548
1320,-0.5763351634546667,0.022941343821163567,0.5027822756838096,1.3588141709446167,1.4037008173104208,2.8379254575247126
1330,-0.6184780854676563,-0.011757687960143405,0.46765438421244365,-1.015539072176012,1.0011218848788328,2.4706727547128855
1340,-0.5889706820791251,0.013902288048431109,0.4957263984643005,1.071329143336198,1.9557041314694605,3.5690807772631024
1350,-0.5844992779108938,0.016506021802415772,0.5052340070450533,4.248558631585676,2.5157785706247817,3.292159979788199
1360,-0.6071795936302657,0.0009897116483956504,0.4813880202486209,1.7014445902432915,2.3406400918726917,1.4133260980569724
1370,-0.6019940532119873,0.005910412447523092,0.48466113154120055,-1.5291495006076319,0.8816645901302306,-0.5576542551943895
1380,-0.5871161879161896,0.014426708208296186,0.49470313303126895,-2.1673162350057242,0.30022046675847547,-0.6178750677368327
1390,-0.5535671361963505,0.04459180062489268,0.5282935206630582,0.9255117486618478,1.2623111622867897,1.4843703557177788
1400,-0.586127230324178,0.016432129808557377,0.4969302515815586,1.3634089000523948,0.19691137829714292,0.967659584191675
1410,-0.562688785662038,0.043794922695359596,0.5205394362576333,-2.043366240893638,0.6073442179529338,0.4280409366312006
1420,-0.5953421278369653,0.010488527626539833,0.4875704412303983,-4.193300914428386,-0.16726978987484342,0.003997170692094928
1430,-0.5893757533169235,0.014966690774582236,0.4985626481862836,-5.83132346953243,-2.0059060574872856,-2.001453488099706
1440,-0.58707615741534,0.013958809924401738,0.4978839888310725,-2.2674498293342102,-1.154108698248523,-1.1458163241954686
1450,-0.5787735445809663,0.017479267610346648,0.5069540201380092,-0.8764382202843968,-1.5454110900974536,-2.175108873249186
1460,-0.5976860024645517,0.008217086750024446,0.4854062557994472,0.09103525337875301,1.2362533370581574,0.020159030505456754
1470,-0.579789666739386,0.02811498878548489,0.5068069925532096,-3.097340982493342,0.24023242470562395,-1.0303834292825051
1480,-0.5724761664948204,0.032432800349127176,0.5138170439671134,-2.8364632847371944,0.831367908909499,0.8005481794892726
1490,-0.5610120098537844,0.04075561331281963,0.5277273851768755,-5.259232641012986,-1.2966292149626146,0.16455443367709965
1500,-0.5872876797059545,0.010097928356712228,0.49286006122536796,-2.0952203656915382,0.3902806923398485,1.989318508558326
1510,-0.5874278028837667,0.010929300776408534,0.49520664913377677,-4.480928628479566,-4.316361342629445,-2.788086745550381
1520,-0.5364796983058686,0.06020567330806886,0.5490086904645067,-4.665153132790722,-2.766908739770368,-2.5402078613752535
1530,-0.5753656449178202,0.0216687062636877,0.5111279527269436,0.7414931702467782,2.05215006257808,2.5607470506899523
1540,-0.6048470306237065,-0.006955820641021314,0.4829666623357669,-0.8152843950729038,-0.23450951575323675,-0.23670415901390182
1550,-0.5587978377229025,0.038146633143719,0.5265805513789206,-1.2363244261046782,-1.0028580758627073,-1.266039134864894
1560,-0.5675304935299755,0.03467059311697879,0.5162932258589069,-0.324008401836394,0.7161526508249407,0.8537478827843774
1570,-0.6014807061115077,0.0029660442843864668,0.4833695027025574,-0.09244337552799031,0.07317059242652552,0.43223173967144957
1580,-0.5547638794722906,0.04728077936513234,0.5305669934314068,-0.3536320477713635,-2.127932189302406,-2.57745913081882
1590,-0.55855091496197,0.035691582460280924,0.5233918314846169,0.5798723361349379,-0.3122812676363613,-1.066728177069053
1600,-0.5704508298976327,0.023745492715744807,0.5099592391329327,2.1196640239486415,2.3974437165780533,1.5124387905855146
1610,-0.5828870555878033,0.014497772888941753,0.49954038231781783,-0.5265471290060578,0.34354106117633343,-0.3404552350595086
1620,-0.5907770542119067,0.00903924643617902,0.49028536885808294,-0.05650382141251159,1.1523484296484823,1.0064139600054742
1630,-0.584376485497768,0.02156347185378816,0.5048854517309028,-1.03815019532391,0.009708635073587768,-0.34472640337639915
1640,-0.5887989575265575,0.011310968811911036,0.49934983499004126,-2.3088802846320546,-2.16600874582141,-1.8337021577226151
1650,-0.5986339950383567,-0.0037430177240651216,0.4914192569189404,3.457635305535672,1.6959649439061646,2.300922159198127
1660,-0.5930133916885172,0.013519415522403268,0.4920487466641093,3.336057779890635,1.5510291715544406,1.8412880254141402
1670,-0.5839935006966275,0.01782526660302534,0.501224372426537,-5.0618126756331145,-4.705890739743624,-4.796198433120712
1680,-0.5988848238916803,-0.0049871532887142064,0.48413743051662284,0.767503816459445,1.5532195804349298,1.496744233226452
1690,-0.5912300894371433,0.004692202563322713,0.4912539238793,0.7619725962170727,-0.26424313694286883,-0.40444903106835395
1700,-0.5859353342218112,0.011158264258325126,0.498121898913987,2.919339965917624,1.4948369700569977,1.8144732129029122
1710,-0.5948265962918325,0.0055230679679174575,0.48888364375230847,-1.3157496646387747,-2.8763886808572736,-2.3431121564788144
1720,-0.562326956067495,0.04008990320251199,0.5189890042494931,1.0929321461428592,-0.31632418890169306,0.5210132572482199
1730,-0.5800367699740782,0.019309913819923984,0.5004190640610034,-3.9357269307107154,-4.357177023588718,-3.8214716365336785
1740,-0.5652530359100633,0.034116294081352354,0.5170316232587548,-2.246716802047876,0.03691794234371798,-0.3045598722092385
1750,-0.5822730807787103,0.01952321998973791,0.5079595608519696,-2.4979508593496775,-2.350699767216901,-3.3652715065911156
1760,-0.5686485268134623,0.034799689379775955,0.5204686455523067,0.21647986812625786,-0.5076827354935225,-1.0051978069892917
1770,-0.5950336212221914,0.0003557636867008874,0.48784861441301364,-2.0353730815050297,-1.5120167698011124,-1.3662515274628775
1780,-0.5944219683509989,0.0005400619564769771,0.49051305498502973,-0.18823600126485607,-1.627861118361723,-1.0417567574779794
1790,-0.5764027341617363,0.026080571806259507,0.5070140388992537,1.429274175255069,0.4878518940402729,0.995924675153836
1800,-0.5783146086238258,0.018765426221041662,0.5065453367290169,0.16502843094576614,3.899296373768163,3.4557138314879574
1810,-0.5676418110065105,0.024896999335696973,0.5188274002501353,-0.4367322627096666,3.422641296688135,3.2476282182172374
1820,-0.5861982536425179,0.013485593182133491,0.5041149721289968,-0.32096290581138254,2.695548672903836,2.832641818423687
1830,-0.5915828740800517,0.009365488978501533,0.4994218073127081,-0.6727749154457062,-0.20877915351981102,0.3355217445002622
1840,-0.5379881495342351,0.05818792705220696,0.5482905009306732,-1.9214581694698114,-3.1079470362053088,-2.7833707814532964
1850,-0.5911042203321163,0.0031278316797876647,0.4907814168695939,-3.093490645681178,-2.7248316121067804,-3.114777585096335
1860,-0.5846279285992618,0.009194269093324879,0.5034402237353545,-2.737705366151343,-1.2862394178350167,-1.2211053213912078
