time_ms,ax,ay,az,gx,gy,gz
0,-0.8512463568662958,0.14964205123227814,0.5112136240262002,-0.8385164206649498,1.5711992956984904,1.2950034640001853
10,-0.8786877346889573,0.08432445221125964,0.5043139628783138,-3.808052171750634,-1.0949560841621206,-2.1838808114270107
20,-0.8904255403345187,0.1035312846860657,0.5257623932979225,1.1698397759396502,3.107400551176581,1.0985380756385397
30,-0.8862257413604732,0.11736843296524728,0.5397221263150511,0.5491108661851397,1.8176289058962785,0.13580050317852704
40,-0.8850603486073373,0.11634795789917549,0.5268640332486138,1.805312346141577,1.849910515281337,1.1596078868413287
50,-0.8725120680616589,0.12139481866565464,0.5154278235883301,-0.8536800196782158,-1.731050227165639,-1.8549501405183242
60,-0.8556933374187521,0.11278104027726292,0.5155949607826766,-2.5977324307813636,-2.311297792875859,-2.946326309353288
70,-0.8477697029789829,0.13527498980557348,0.5378725309157653,1.613110657119565,2.3202492488143482,0.325744968419331
80,-0.874024952684476,0.13144700908970283,0.5436567296228848,0.8150138473737154,0.5388348038450022,-0.6505885220110472
90,-0.8912633875322176,0.11553263563497397,0.5420700345835118,0.12640277471032935,-0.8994985931515198,-1.204842323216266
100,-0.8810423333697845,0.12264572462780782,0.5422595199683139,3.021830248849918,1.4715453003058523,2.2060787221181304
110,-0.8970174039361213,0.0929453696132291,0.4980007819181062,0.10821158223875717,0.7983204578232617,0.9362812881950002
120,-0.8396401215265623,0.1305361005486271,0.5358003383129993,-3.1307322672543463,1.3588313872580904,-0.5302543216228562
130,-0.872009451894702,0.0943430383584305,0.5215247224985435,-1.541696935503042,3.2775048469744483,0.507623209279583
140,-0.9291670321615106,0.046845601842724086,0.4957480595441859,-2.8926263172231232,0.8297592473286137,-2.558059547163484
150,-0.9211258596735257,0.09868366628403873,0.5340629199147108,0.37921570745147126,2.988793004243992,0.036449461903626634
160,-0.8819927090697307,0.16447774463256568,0.5021988241237185,-3.6183483258553033,1.0373851727406094,-1.506123593156675
170,-0.8918390360435031,0.18190666447571838,0.4042194483039242,-6.197564358487216,5.225536988025591,1.7981730219665462
180,-0.8943979264026596,0.1353601271993824,0.4050787322402346,-6.1638944029635265,17.256325350185865,9.090313467579705
190,-0.8746491543252504,0.06825641960280059,0.5088316406253067,-12.25736480929803,23.109712042624942,8.504015462057774
200,-0.8130914128081499,0.14473855057062535,0.5854403483127646,-17.874870029111165,20.512009739745572,4.234834482801792
210,-0.8378347096065261,0.029945382454337845,0.4778643390456375,-21.022755182273617,19.097635345609625,-0.5034913406919521
220,-0.8693581642204329,0.03430622143919502,0.4784191054181034,-19.38838245662922,18.42733794068848,-2.189597511566979
230,-0.9187229100695868,0.06456483420492554,0.48888844946002225,-20.256639101954242,16.502768357411576,-4.622113358697144
240,-1.0124173407796881,0.092667847497393,0.5807065178885887,-20.89510219361171,9.643355791523808,-6.253057886150119
250,-0.987396278410683,0.07519852028401947,0.6646202937613881,-16.946908044298546,0.7104001207739135,-5.326340981998432
260,-0.8946824813397853,0.07810690289624819,0.579902916444673,-16.32840872515616,-6.565823696967291,-4.622449167819152
270,-1.0629028173811037,0.24797331866845707,0.33969706457921484,-26.156737811195576,-3.0661587159529304,-1.6169384953327857
280,-0.8634377381579017,-0.06024472363125865,0.7841291520926118,-17.08877621299434,-9.165926939008227,-6.918718271236001
290,-1.1819266330602538,0.32190724920686054,-0.022024671763505775,4.520910248134323,-11.247282726215191,-14.10517435456228
300,-1.0186702266644114,0.17434365364686105,0.25639787101009665,5.843584733747909,-21.70508018530212,-14.665507705280017
310,-1.0453752619757226,0.5589431218351171,0.15244217786155712,6.428006920742834,-20.13589453590784,-4.053498051693494
320,-1.0747501646046091,0.7492876037716419,0.06619671972515952,7.529448516544635,-6.7490103247740585,4.926216138069418
330,-0.9050935929784225,0.10290906342533963,0.49879110188594655,1.2033721084870577,-0.33386630786397203,-1.2673347190089124
340,-0.8928506722796001,0.09294424738361458,0.48744483699879765,4.627128556368742,-3.800295543816189,-3.089751162875647
350,-0.892363565283505,0.11269543088270607,0.4700460001469142,5.489424783041301,-3.916636950458841,-4.733007171331535
360,-0.8978108659488288,0.07594601969219485,0.5334383371283593,12.216485418137356,2.758057911499196,-6.9522917739306065
370,-1.0013029407046328,0.030752136553794072,0.39194911436195673,-0.6039725690878746,13.610188575480361,-7.947306674152888
380,-1.098544585186765,0.15705832355770794,0.005236543029559249,-7.491229529136766,34.164414530575016,2.770399048144041
390,-1.019566322556823,0.13890506003718014,0.21820365759401697,-0.9895445544201644,37.69250105446175,13.807224219009553
400,-0.7947465189468897,-0.1297057255647473,1.1069426778141913,-0.585349960648267,7.842775231248943,6.196700999302541
410,-0.8638679877816493,0.0517896973581105,0.6178099968737454,-9.027183384705026,10.553474511280653,5.23376752769683
420,-0.9055973329624687,0.06974107937630337,0.5860279897040807,-4.66152651190369,2.5732861746057325,0.7730210735634526
430,-0.8667084521706742,0.08047234037709285,0.5584608706315035,0.16303481947381238,1.9007163929380786,-1.1292670149340602
440,-0.8725222801171904,0.09345702781963192,0.5299251274703104,2.0090564681102485,2.078813392436519,-0.3917457386135823
450,-0.9164310061978391,0.06915761385895121,0.4850473859430656,2.6558412514841168,0.9876195412627166,-0.2416006171075444
460,-0.9191709957470641,0.07350253950779521,0.4888639076218456,6.557272898172648,-2.566305281947984,-1.596892801659102
470,-0.9491138309070762,0.05902837514654588,0.46387016335431364,17.819896777990664,-1.6134462433000154,2.333839047336463
480,-0.9189740862072169,0.11154078053389327,0.45771718856937393,14.353334219180796,2.1111993986454305,5.130412322127887
490,-0.9374056143850686,0.18050107622635497,0.4411493471688926,6.343954537487364,3.8896989955183736,4.217075421241519
500,-0.9491962811718948,0.16755709243368105,0.4803436921778881,5.066724173735276,-0.42429701682671617,10.799530524144021
510,-0.8294179831356681,0.19027348614801115,0.5075059959614097,-1.4120308364290852,-0.7426018173380933,12.641349796244867
520,-0.8021442143478276,0.18679422170351864,0.43721778437243364,-10.610989223632819,0.7850853882719834,11.062385003367275
530,-0.8725585340590567,0.1375540427037967,0.44060085053015224,-18.93522352423051,-1.5021747171698503,1.1374670852651318
540,-1.0894561386108308,-0.12811360636457492,0.4290369773749836,-12.435883552001341,0.15639205761075026,-8.798904237416671
550,-0.896395799515066,-0.017527778369541704,0.5096601441444413,2.959399562168705,-0.6117103293878224,-10.141469554851266
560,-0.9333128037832286,-0.14974656032956077,0.43873512965635175,11.861690861793996,-0.3861959006264184,-8.219407845272933
570,-0.8208763425707069,-0.4289480878396708,0.2721983268363069,29.95346902913297,-0.15326252655588118,-21.503977143099352
580,-0.8035776563490235,-0.3581961563116714,0.16959075182735844,19.72441890332546,-2.5947018667372204,-34.607502591000795
590,-0.8492837774403187,-0.07259295200565319,0.3016579528744477,19.30814729600541,1.3307777349044376,-21.76153137055182
600,-0.92142655928444,0.12617953775892907,0.45867291139075017,13.461106490313703,-1.1977541486094772,-5.004750064700632
610,-0.8722213036549074,0.21985677449196292,0.49006333842212224,-2.84984269577755,6.252639284722095,7.954501788452345
620,-0.9629977115435772,0.07786372341361539,0.4600957677402621,-8.508066498063965,0.5460163468720152,-7.4692133464454065
630,-0.9400380849790039,0.08642880808981843,0.45304729793113907,-8.303582967255986,0.06641498150810565,-11.992428842450591
640,-0.9114011911799638,0.09800681416222712,0.4802350400353072,-6.091796089746133,-1.6510118982673354,-15.033561276753646
650,-0.9140098977776373,0.08849906863303623,0.47753270262970365,-3.334725128888917,-1.976504864570778,-14.691641243527144
660,-0.8906050768463569,0.09803975970958254,0.5005143731640896,-1.641656116772113,-4.6265319998820384,-14.478455254247304
670,-0.9086908268447376,0.07929195804430993,0.4917434336560723,8.679822907137842,-2.104724945505513,-4.219297117978206
680,-0.9699765862821386,0.06914737524027836,0.4677049975777845,19.17639464236825,0.0954513116548441,11.07441496440259
690,-0.9903839779395213,0.10120650159412647,0.545324655873307,14.652829985504065,0.2613757106417727,16.275132847289207
700,-1.014157221508985,0.10810845679188058,0.5678586349269822,15.103217820558164,-10.950343389233865,12.65675245026059
710,-0.9335485390345307,0.14964488660469358,0.5653091494267809,10.253430998634803,-19.767640160913913,8.51183631623161
720,-0.8878229130596327,0.1151559561882647,0.530512791820232,11.138094727535726,-18.973367078728195,10.24011552379956
730,-0.8349856095451278,0.1256919341738101,0.5028468330096291,4.994817842698858,-22.299816993817114,3.437769632684773
740,-0.8767249381401939,0.11913630377377059,0.43274145215162163,2.457073384149,-17.840041932721796,3.467697375278719
750,-0.902431255397938,0.15544512517239611,0.5115100797990062,-3.506994455640241,-13.06670860724847,8.092764264943067
760,-0.9010253854234997,0.09168335048238954,0.4941111091799803,-9.576744397175899,-16.38138479262945,3.85725788754871
770,-0.8266466528959903,0.07241207394347393,0.4634676759662322,-7.131490740691511,-12.106465594589062,2.223593256785896
780,-0.8108298797678315,0.09381056903346209,0.4839397815901054,-1.0084706060321467,-3.3034448190272117,4.892093903400406
790,-0.8263916682597756,0.09964219772060898,0.47171892320512926,-2.83236154176205,-1.9729809775041518,2.4651569483349443
800,-0.8364446790136848,0.08947974129286664,0.46903132419214005,-1.815423099983652,1.9053136944616362,4.160807157979388
810,-0.8498863134559239,0.09166252003423248,0.510519117619136,-5.534988068935102,-2.8055990307369347,-1.2887534513976426
820,-0.9555606356573997,0.0688038824496387,0.49482949496219003,3.638357670353099,-1.5419103116546098,2.005886746043899
830,-0.8846957108909436,0.10982302339291017,0.502329427759408,4.4384847418680575,-1.0890182297191826,3.343901139128175
840,-0.85792255509594,0.1385392851218047,0.5142793361315124,-2.216234856855727,-6.529429609713789,-2.3989077449046796
850,-0.8618467738466914,0.12643934673150525,0.5019602430045915,-1.1426600503108126,-3.089481629591543,-0.44044570086424484
860,-0.8875883151059109,0.11902949031318343,0.4973144593201597,-0.44269074305490097,-0.38112496433627396,0.9082504485465646
870,-0.8830902112151702,0.12554409125297966,0.5172692960083773,-3.1715846716002147,-1.9503145000253959,-2.0657200322792604
880,-0.8598925421728535,0.1261268835162116,0.5320028450433976,-2.9817427214108427,-1.258493200963164,-3.508689154603637
890,-0.8860007278864839,0.12374933278088426,0.5125800222093567,-2.3464896894451,-0.46775442259506095,-5.229283718209995
900,-0.9312010821824651,0.08504325280477006,0.4917926627072869,-4.488974942260393,-2.959810392380697,-5.899370233574819
910,-0.9042268417112684,0.1019447995101801,0.5017813933402943,-2.342844667038556,-0.6515689046153803,-2.1927167092067474
920,-0.8846098369853402,0.11164183920329092,0.5090095780094632,0.2118424491126344,1.6813536955263864,0.8599873492523509
930,-0.8859110304795526,0.07602556202285594,0.4995904845228486,-0.4535317688634183,0.6419636935712885,-0.5666399014054188
940,-0.8875491660573566,0.07833049308407306,0.5082900940341232,1.7219314197292444,2.239394707270014,0.16786172604637484
950,-0.9334650610593952,0.08641226893358911,0.4790565878311928,0.2553241477005328,0.5372343929230906,-1.634441670562989
960,-0.8857186100562824,0.12229753691240024,0.5000563381317283,0.5844448744059214,2.2201652354391728,1.4828114691681995
970,-0.8862644394231477,0.11374648429242959,0.5094267714093792,-0.8188243213982722,1.1196767372655334,0.48453415340575423
980,-0.9123493569602555,0.08349145920972967,0.49582334869498546,0.145667401775477,2.378406614251709,2.097147080064837
990,-0.8894800851788343,0.0904988320308104,0.5264858879034038,1.169804964893848,2.6101110516018613,2.5635100644653024
1000,-0.9133337817278362,0.07821437860173505,0.5105812168943825,0.5169515956937926,0.20708825062337355,0.8415435104548684
1010,-0.8941880621818314,0.11140668540901645,0.5298927259658504,2.078978200102181,0.23238654005709428,1.6474706458623243
1020,-0.8892542893762341,0.10010110790230743,0.5191478333118339,2.963845134959466,1.545629007158894,2.8947043896684574
1030,-0.8871107544766212,0.08665976614325334,0.5014761136839833,2.8019070581191703,4.798386831811286,4.590275439148082
1040,-0.8916331844614717,0.12509624084781132,0.5386435987179775,-1.1367835117140586,0.5014776985649811,-1.105013284360309
1050,-0.9150065975972657,0.12023763196579604,0.5405616593049445,-0.9040256777409373,-0.22062432124344272,-1.4583390868810238
1060,-0.913151700676703,0.12470379782733641,0.5323901196324073,-1.2684378413038953,-1.920206413765042,-2.1544354193574486
1070,-0.9034889495585103,0.11714638971735647,0.5001427613215145,-2.599476847024085,-3.9419846678694443,-2.8092188333434205
1080,-0.8811218150628104,0.11113455794462729,0.48726634801112284,0.1090041374067814,-0.9336605783774665,0.9240909837040621
1090,-0.863833908550561,0.11300271733023858,0.5175242057664702,0.8422929183044631,0.918642367588486,1.841520118674876
1100,-0.8993430033305764,0.10462731870465353,0.5434187303046142,-1.3900253248093521,0.23723382768263757,-1.0423732635373841
1110,-0.940446506174356,0.09299909282357546,0.5382529044841576,-0.22674202419627487,-1.810332806124785,-1.5454380836750423
1120,-0.908143087595662,0.11577355344806113,0.5298117915928598,2.637276085008553,-0.15943459367719326,1.5777939346970595
1130,-0.8893366181269217,0.09926857394353145,0.48478516324062226,0.5442240952890995,-1.4344772591680375,-0.22320722104502563
1140,-0.856983584851622,0.10963003017233776,0.48385076742963,1.6852547046248314,1.6071342387255811,1.5085445603856251
1150,-0.8552566814122583,0.11883537527129598,0.49242145107534085,0.22829349921871356,2.1650173266033232,1.1313923993878756
1160,-0.8925067045178849,0.11025621703668682,0.4851736763645659,1.015252861956943,2.953915366906565,2.100982114853387
1170,-0.9254371572327179,0.1117999720944576,0.5020148384680917,1.0010705993651854,-3.3197774377077023,-2.0908196727930273
1180,-0.8762059976611168,0.127356776665043,0.4981677605525203,1.050973919065656,-2.988519158089837,-1.3385758331852584
1190,-0.8735199336146425,0.10804378697431528,0.4629367942576107,0.0237781004005857,-1.2427660074506326,-1.3477838833654885
1200,-0.8465009670518843,0.1445673722531569,0.5022588962356416,-0.16650626989360995,1.5529744416648006,0.0067161565430085
1210,-0.868484868325019,0.13243669788513127,0.5122212772713092,-0.21268469130544965,3.23089973323071,0.8412182907572711
1220,-0.9141692287159006,0.09876417348192766,0.5086580519893226,-0.5445369049921476,2.6073794987060657,0.19470257369075783
1230,-0.9358758090353693,0.09525300750780584,0.5178795871201289,-2.110052195802704,-1.1079612785429025,-2.3665053608842106
1240,-0.8470567971075201,0.12513419600731535,0.5034399287622753,1.0526685728643372,-0.6604095670396041,0.0850222736152686
1250,-0.8394017364895251,0.13826617548935824,0.5326061347585772,-1.0003971760139951,-1.0479884394132055,-1.3013897203797173
1260,-0.8967601444201846,0.08728733023539575,0.4878830755282236,-1.8959631344969314,-0.6758867140249809,-2.3862604182163225
1270,-0.9065762925923878,0.10527008282706818,0.5172717433415345,-0.8507275661993716,0.07170026883590097,-1.428680462079043
1280,-0.9361162820498956,0.09065416467827965,0.5036055302329665,-0.9458721483271473,-0.7352304480885192,-1.4691000183301561
1290,-0.8931690206110621,0.12637790011040012,0.5195291643283737,1.7420468593055551,1.6769964636255161,1.5018100669231922
1300,-0.8840003151703889,0.12845861687746743,0.4969239929113778,-2.25729350030329,-2.0593678239610496,-1.7087380201042461
1310,-0.8882676970726932,0.11784617720329317,0.5092643938636447,3.168844704956944,4.810023096864214,5.005521136939093
