time_ms,ax,ay,az,gx,gy,gz
0,-0.5929283261395466,0.022728757822752306,0.556752615239715,-7.614588494242308,-0.8897175110618158,0.13546341322844224
10,-0.6053593650356722,0.009045144450651322,0.5495662275943987,-4.64444574234816,0.5935946259349678,0.9578101341614023
20,-0.593257139191741,0.019935362804254758,0.561668622158911,-0.6666536537758281,0.3574514928887252,0.7749264278822716
30,-0.6292573564389407,-0.010888358977336261,0.5261095998666511,1.8056168421692205,0.1718637213860448,1.3617540346857133
40,-0.6267178016237567,-0.006180563877199608,0.5290387698479145,-5.743324289662886,-2.09879732816795,-3.896653409792803
50,-0.6104579681988717,0.008607687674893573,0.5329559910135594,-3.498300868936518,-0.2474716015612589,-2.9408852741818907
60,-0.6124562677338659,0.0036652465987083056,0.5431778244179185,-0.24581492728456866,1.6095940637595643,-1.7670585679823776
70,-0.5954662229972897,0.01292797188411607,0.559558551568083,2.8411793614611973,2.3188354843185874,-0.527751603164069
80,-0.6253848022215468,-0.015436612074494845,0.5264603218603594,4.480491815107282,2.9376001489565273,1.508893754759926
90,-0.5813202531714972,0.03407724671341749,0.5686898228190804,7.145308329245729,4.048264555985437,3.6826964724369686
100,-0.6004194991852323,0.018309197771991192,0.5599855175178343,4.698810913802715,1.5321691324616715,1.5646792740778022
110,-0.6029953168826233,0.017116622515854926,0.5615561742811024,6.240696965147939,3.4650604742428417,3.242052312485346
120,-0.6088113057772389,0.019584205013317573,0.5469044701453734,4.902892468973334,2.6414283741357623,1.6057102755494772
130,-0.621690688892107,0.010647711459137534,0.5387232528956976,7.46091782397113,0.06326131662063617,-1.017357602551809
140,-0.6017606366063644,0.04766078341178051,0.5909340752250671,1.943166604134753,-2.557405876660343,-5.068103827420428
150,-0.5716060023873002,0.08154886406447434,0.6962496806771054,4.475539843606505,-9.37472463008876,-4.831982571138677
160,-0.5871313822531867,-0.11630722676044608,0.7140906190200585,2.129576267148292,-34.73296962738653,8.150880551100258
170,-0.5770437251938645,-0.002815626201833856,0.73523139162438,0.562967648259121,-51.87053452240886,-1.8140145274358332
180,-0.5422302190794024,0.016764606384071984,0.5949508634971155,-1.4554164448369449,-50.03755891051257,-4.760421935177606
190,-0.5677528593287193,0.05376034427644834,0.48285352715916713,1.7657827292007062,-32.64884589677524,1.5970648837497794
200,-0.4689521470850267,0.10532396303342013,0.48294019922567466,0.37311871167959887,-20.27516141761545,8.994779583361108
210,-0.395782952483744,0.10999778005980179,0.5132692534000322,0.12517665876613293,-14.506737159724391,10.195421645555475
220,-0.562995834549686,0.02200927863948029,0.5990870433991732,-5.0858097588241336,-3.7396146827250574,7.570082845957789
230,-0.6261987576124733,-0.04799406367231908,0.633928011191611,-2.2844455950082025,-6.017617093940483,2.3531625528116815
240,-0.5378075799831271,0.003698924272191031,0.642470463416777,13.972869736275799,-8.447605088062131,1.9826872260769546
250,-0.4661109506711181,0.06712400887707973,0.6450552265293718,37.00407773917079,-4.114209292105183,4.827434666744595
260,-0.5099361185087469,0.04657346883435143,0.628506022778193,38.934050142879684,-7.203586480179325,-2.929491181898828
270,-0.5590078881444929,0.08196129394919303,0.636110330047187,21.743588357622045,-6.993236797754742,-3.356068299299938
280,-0.5501628976515758,0.038776200805980876,0.6151458887957355,13.677909912369117,1.8387143439694777,2.831592150316087
290,-0.5666843922961204,0.00811396329342472,0.6441682336684547,10.685085230503267,-0.2945123159403409,-2.5636257626182113
300,-0.5708063777979003,0.006923697290438536,0.6642936500120539,18.659019860551137,-5.43051485356335,-7.483443745450359
310,-0.5706255282712,0.04625360889896043,0.6027961184265892,26.703565806638657,-6.625023813894162,-7.4334804893999165
320,-0.6277686424296587,0.16614882290394445,0.5300326768144848,35.608272091757094,-3.6759586329725957,-0.7408652879033157
330,-0.606990115016889,0.1848215943093135,0.5621639985606367,25.152670249038543,-2.8365058862616124,3.969654744811141
340,-0.5761409401850781,0.04545564242902773,0.4933874671946769,-2.6524122688827236,-0.6595045984746886,3.4108349811971657
350,-0.517814885005462,-0.013279052644596244,0.454068826592611,-14.161658323564662,5.702468714410311,-4.112119235730981
360,-0.5355279805282256,-0.05193516812311761,0.375261973680756,-16.73917350888378,12.119320864700951,-16.547706454082697
370,-0.5231731924845734,0.0389133827000733,0.2420459136463373,-29.910685520520314,26.195659342201445,-19.99355997144781
380,-0.48775366861184366,0.09383529006126051,0.18793564346543482,-38.2583573833974,47.45037643861144,-13.488116519480165
390,-0.5217385341158535,0.014936197650577387,0.3245654025218551,37.17443615656136,-13.278383970909312,-13.262985607003326
400,-0.6618806496818289,0.07726966982986518,0.7297116462763196,86.55066953254368,-31.515219996223735,-5.357053796867965
410,-0.751285081814178,0.24542436667484616,0.7955595045163949,37.087023920837396,29.82030244424765,0.10174228945147928
420,-0.7159820496264094,0.2521678983574617,0.6978306261634474,9.513694217500786,41.973768610779416,-3.1975791144201047
430,-0.7625267875293628,0.16157737623630833,0.5348889474879603,-1.651072066213057,38.466515329544386,-9.706143531647825
440,-0.8443742176867358,0.0485844578929656,-0.054870087632081246,23.184543840053045,38.44899803247104,-8.631046954867214
450,-0.6854063000590541,0.004156563452678929,0.2709206598662101,27.15450824751712,35.69893297930492,-4.464522258512103
460,-0.5495208540111935,-0.07889908610658808,0.6771482308902299,12.651281619151717,21.00431872655398,-2.614944715631484
470,-0.3449955425235098,0.0858293616575394,0.4979735229701375,19.614884255927826,9.309404974598404,-20.855173016935737
480,-0.48693335391097586,0.11772383739256562,0.27462707703229344,14.321972798104172,15.229730909007477,-24.2850355462785
490,-0.7496877197660086,0.08516581399670013,0.047404266593202564,10.09747929389525,18.30956858339291,-8.151446458924815
500,-0.6955668852795258,0.1328038710760315,0.03825772630638483,18.101583583195357,16.5965624649633,-12.817229726956436
510,-0.5434243157176689,0.054991154504993534,0.4950474231729247,11.099912679515358,14.279565207390455,-16.891207321198017
520,-0.6321235064221535,0.2254084951824179,0.6838706475671682,-26.635879238446677,4.162054336995933,-13.094386861623097
530,-0.5668648360211619,0.07810238259627116,0.5892985577105493,-53.30605097643256,8.707593363486504,-12.447736858944381
540,-0.6407630901039038,0.01905616076341516,0.5134794752769714,-57.36736408129434,15.245170210764904,-10.226856276947586
550,-0.5876652287947371,0.0728655527653108,0.5779500587702427,-42.13784377131881,25.110119892166278,-3.0690585758859337
560,-0.6142240257132543,0.03604919445873552,0.5341435504865825,-28.26506457982528,17.43458706501255,-9.86225437874222
570,-0.6147675904945141,0.016077927584290636,0.5058312698886689,10.723584662393122,17.93612029454646,-4.594240178729607
580,-0.6536619794032988,0.023121640862686057,0.48995006724190904,13.216536754003881,16.40537354049971,-2.945430580482796
590,-0.6467849089507388,0.08069006794591024,0.4953701580580994,-39.745601225158545,19.93433432296885,-2.6441472016977423
600,-0.6673633471857713,0.004700443218875396,0.4782493321604175,-46.003000109724645,15.724028145215577,-3.336829845965557
610,-0.6320986726675075,0.027884434660892108,0.5294460339868292,-47.64716822852151,9.256964890387051,-1.229068351117369
620,-0.6389118682511461,0.016469783370837276,0.46170460448317663,-47.06461411106513,5.214980169228944,-2.127805759472225
630,-0.6539239884385257,0.037599346676953346,0.4490512586315783,-25.946250564013535,0.3065899959078111,-2.1085938524356735
640,-0.6531117469640806,0.011243794470426866,0.46498205250767216,-4.916544362021153,1.6031651548361587,-0.13820145788253857
650,-0.62694612785549,0.0549652711722048,0.5087051290158545,-8.557670209461161,-1.1152207267779792,-2.9575804266251637
660,-0.6442814025674778,0.02060990859633216,0.4854661475210975,-11.021399102096881,-1.09017903732705,-4.404828503589263
670,-0.6384784162970386,0.034497862959962586,0.489026152329954,-16.407313175647065,-0.022072239624300827,-4.343991033970422
680,-0.6577753184613034,0.0009964505667733308,0.4832761757904208,-14.690807138868559,1.6622171640243857,-2.9717332783377133
690,-0.63956825909045,0.010406508691099504,0.4952687000180657,-8.48760746402731,3.772047517845679,1.8384034884834426
700,-0.6614822432357534,-0.023918851558383535,0.46236066461891534,6.481213822644991,-1.8811080614430022,-0.3673692247243139
710,-0.6557367302121356,0.01593037355713009,0.4820139383858003,23.005244168483713,0.8467005119368517,3.894802104091281
720,-0.6363419900634419,0.04825607947156259,0.5027136609944688,7.525774246105598,-0.9410633790936315,-1.1276863927192453
730,-0.6387627674275109,0.04487271202904258,0.4996962624044751,-4.081648789833679,2.7030737701723218,-3.1613682567250847
740,-0.6380581866733837,0.047628728883000376,0.5116294073527358,-1.0563549896925601,3.421258980743642,-6.761569137222914
750,-0.677717162659808,-0.00657812505392542,0.4628607671554303,-0.8962395155185039,3.3958318846917734,-7.6387138833055115
760,-0.649065081051685,0.01998970162370771,0.48614370343837965,2.0424711314155437,3.9457656115977704,-5.381271915930776
770,-0.6652637761623238,-0.0022613816583443927,0.47641320495971345,6.1535506730190335,-3.2822887692245613,-3.2031624249332973
780,-0.6247319729661023,0.03565105041847666,0.5032416872847956,9.618410455140213,-2.9050327531019517,-0.11011751572233519
790,-0.6501920083860316,0.022749688494505045,0.48675374739356014,18.424445399141238,-2.6555415535226117,1.5540420363287122
800,-0.6584519403381774,0.01782114479847257,0.4822576881122192,15.580707713124138,-0.8228340696296159,3.025314280412597
810,-0.6715725713498765,-0.0016270706050165139,0.4686955208573554,11.053844819553367,0.7379001620801506,3.1747779549997324
820,-0.6196462209766873,0.06488488230565329,0.523908876361182,7.700283240923875,-0.6239367309880786,0.22166370786122058
830,-0.6426992783026998,0.028890829907558247,0.4840605974918339,5.197575065348883,1.2193990146422753,0.09501913508004667
840,-0.6330680864219739,0.048922467704031476,0.5019398469429873,3.53830536809524,1.427069735033103,2.008495685975369
850,-0.6454544092706445,0.028466110548125576,0.48999374801290013,6.024531087411291,2.567228546509132,3.762854921874471
860,-0.6382178927354466,0.04222667641505152,0.5003674798839947,-0.03314601064737954,-1.6798334298118756,0.3961802054488759
870,-0.6454127971908742,0.027125627421359697,0.4848758964498463,1.789944249234545,-1.4244489560373996,2.3217871604213784
880,-0.6341554543334178,0.04645948791586357,0.5049155689822896,4.53887370961041,-1.0600604622707674,4.325400398312825
890,-0.6331106385170882,0.05883701553988601,0.5034208616108831,6.538520660284913,-3.1938051762709643,-0.0023170085841072163
900,-0.6549827502992532,0.03255621545161029,0.47884975925126533,7.441665509797054,-2.1694127878049794,-1.5042440150614065
910,-0.6482580469855039,0.02789696620849732,0.4951684493472191,9.848798538275304,0.8707828005527454,-0.4159062979392194
920,-0.6188015035392117,0.06015131638304089,0.5211772831034475,9.66910311665244,0.7453393955344887,-2.007930277223444
930,-0.6418408389283312,0.0478143192014936,0.487606592090821,7.539649739990633,3.0255682948130467,-0.29191334727836304
940,-0.6178954203056232,0.06603079059064319,0.5134878685227413,5.385642060707097,4.2206152973706335,-0.0748557658270772
950,-0.6420079806407575,0.04475411414472425,0.49740528679233004,-1.7376573120085541,2.3477864358688976,-2.1069319461811697
960,-0.6383792871433358,0.04680663895323185,0.4998977295315223,0.0987486557930366,3.098419076401365,-0.1662247903843448
970,-0.6724785915582981,0.011991609317009464,0.4612117601928864,-1.6932814331660184,0.33929537760501594,-0.5078250717935924
980,-0.651720031793324,0.027828540979497093,0.47698631286431836,-1.1479072502901375,-0.5560827916857063,0.822394844071519
990,-0.6384328609604814,0.036063784961974966,0.49023815439237495,-1.2049353642035778,-2.671619530969717,-0.07131485735894971
1000,-0.6330493615813924,0.041934243017426084,0.49972964578987744,5.882115831340949,1.7227493380661814,4.789668299932182
1010,-0.6484361755996275,0.04136092174711302,0.4832727010670712,4.928922109721811,1.9631097834051037,3.136038990653511
1020,-0.654430053510187,0.045415155125552914,0.48160408468033605,-5.291763992117919,-2.8845124402834563,-3.3924469697711896
1030,-0.6252935750571239,0.06864269250448894,0.512296569998786,-2.8013370611030846,1.347868026974056,-0.7228988996272726
1040,-0.6057031282666803,0.0827646858098493,0.53130669729559,-1.2722334003745086,1.172214441808304,-2.4213362088946253
1050,-0.6218853305414457,0.06606638266534814,0.5113523765442123,0.0025222359664093252,0.9378911871020778,-2.8008445932429904
1060,-0.6588877915272305,0.030269594688735867,0.4717148689788967,-0.27860452084084686,0.5319506726832757,-3.0688778293146726
1070,-0.6643842339684242,0.021655379858214037,0.46972878679290087,-1.7408121583866618,2.238863176759475,-0.37117327234051634
1080,-0.6513862050594156,0.027065328212364036,0.4810802458020621,-2.543677858029408,0.30386549352397174,-1.5201436228097844
1090,-0.6676937916014787,0.015250040461425831,0.46441124344317497,0.7466545402952169,2.049061807370893,0.2171876775273014
1100,-0.645771538875577,0.045845427308440836,0.4901798627579806,-1.5452167408802286,-0.2196415570664827,-1.9890385832865483
1110,-0.644092275210469,0.05021492190893547,0.4916810474230117,-3.5319003573427445,0.6700793355361878,-1.4745711050647443
1120,-0.6689679070031569,0.02245052674936694,0.46192173022902105,-4.38919383067575,-0.03634437980932881,-2.5666796111595462
1130,-0.6360412935593129,0.05329940436338144,0.49353269231587316,-4.342805299068134,-1.9423635366310976,-4.271652199321869
1140,-0.6372460346658085,0.04949551184189526,0.4958548533626193,-0.5030372729613827,0.5973036153747409,-1.5275776955536386
1150,-0.6488807499826538,0.038870107766165826,0.4880045382259716,1.571069846277018,0.3772453394137542,-1.425970330956825
1160,-0.6500842996974161,0.0393443524523613,0.48255069923793004,1.0912522679457823,-0.4122010131306765,-1.9434318946869853
1170,-0.6358521705023185,0.04218371381680343,0.4880898378126751,2.1085027208211,0.016396392105295643,-1.1820622285992002
1180,-0.645464027291412,0.02875677747036713,0.4811081594375318,-3.336139126202162,-4.470575911949057,-4.925003028770115
1190,-0.6529051807140296,0.02716123950457896,0.4790419270657122,-2.5827977781017433,-1.953695323655785,-1.67271878410721
1200,-0.6302849910724903,0.04697986862997046,0.5016209910676351,-1.251387805021366,-2.817353388561229,-1.8447516467253857
1210,-0.6643022019685654,0.010518839427673468,0.4663083175775607,3.841301218595241,-0.7050674554835235,0.6265467317641198
1220,-0.6200644451199147,0.05883386180506766,0.506965722474835,6.824545587340662,0.7873149821522767,2.2392564381510303
1230,-0.6447613713709646,0.0406542472333026,0.4855701399926145,5.174358885383367,0.4375615290833632,2.234411996188318
1240,-0.6363160742749154,0.04780547006247385,0.5021583557746782,2.968267400863646,-0.9076038933110806,1.0879636923128944
1250,-0.6452496748199357,0.03436298468468804,0.492558746500331,1.263819449148307,-1.0044373871328047,0.3484018422981857
1260,-0.6237432503308329,0.054930283712585556,0.5071225087497536,-0.7003139941268832,-3.470418043706031,-3.0350398455070553
1270,-0.6670076168074003,0.021413143527829054,0.46774923911780886,2.1899495653575873,-1.8214426118403302,-1.272217075024305
1280,-0.6495505622245432,0.040691882244102966,0.49039962628103656,-1.2174583652821416,-3.3357747214792153,-2.703522112830586
1290,-0.6424588926084529,0.042876054082134504,0.49414399274045134,0.21927513425984135,-2.0837936710546323,-0.7616152030930561
1300,-0.6322752228650681,0.04860401687724157,0.5029151915543506,-0.24455949420048037,-1.7050191799829222,0.11240527738914274
1310,-0.6700473011402605,0.009010053738751817,0.46572642275415155,3.6311455756390214,3.053010709238033,4.5795641567170975
1320,-0.646912186245218,0.03178013085650906,0.4865006225681565,-3.8567593288916666,-3.5769348655804007,-2.7441187659244997
1330,-0.6433207723718926,0.0367543618508934,0.48821828181731347,-3.299826040700096,-2.6339566364545313,-1.3780229280742744
1340,-0.660748755030622,0.006565936279734449,0.4776967713849736,0.7188482845403174,-0.8203924997061698,0.9359845448876173
1350,-0.6338528493712327,0.040661771281790146,0.5023324744058058,2.427578913086841,-2.2149864036634495,0.7053432080076342
1360,-0.6401510065131837,0.0376465227398565,0.4906959378878278,4.94765363949898,-2.690332251988214,1.4763786553559592
1370,-0.6530481032311759,0.029814984770334334,0.4803012538004402,2.5137747634462695,-4.388566083238711,0.10217100967314585
1380,-0.6432673014574987,0.04054146831715871,0.4970851324191409,-4.458670856377806,-3.997991499992889,-1.4740009141335486
1390,-0.6231883769992721,0.05428165472492817,0.5161736912279634,-4.244144584577519,-3.681394046060194,-2.032811247225259
1400,-0.6354461329075253,0.038883894008763444,0.5010061114870422,-2.0829554280349996,-0.5869915906658194,0.33631898589168285
1410,-0.6362286020398864,0.031003193560547485,0.4989399448605514,-1.6173014362264058,-0.22629063684911466,0.5193376512112888
1420,-0.6225645130578839,0.06260061195178905,0.5175763750351281,-3.804796274129956,-2.9526879168790954,-2.712574848241905
1430,-0.6390519273802089,0.04131846176889278,0.49747701796379934,0.017386358277108105,0.5468994869480153,0.3249028783077197
1440,-0.637382003808284,0.035301942420500644,0.5016538382452949,3.549168160444969,2.115568719314671,1.5461465545185589
1450,-0.6735100607606229,0.0025698014897693605,0.45708587544751134,3.727993687481279,0.6804865579734708,0.3598722796956791
1460,-0.6531896221995037,0.02673313984774224,0.4826583752251859,-1.6083536549562538,0.0606738879367289,0.2859791345561088
1470,-0.6522565372988339,0.03366362556287811,0.4862296812763992,-5.065432012156151,-1.1707517590055523,-0.39893072192825585
1480,-0.6561174979600914,0.02655212104422558,0.482590755927146,-6.453812387236092,-2.516067544848133,-1.372853860123139
1490,-0.6197453936607864,0.05256667872694373,0.5178315126694131,-9.010253187749333,-0.6780749170805446,-0.6682122656272359
1500,-0.6225939858210928,0.055869884531635536,0.5150639929426406,1.476014791775839,0.8386498367417949,-0.49204917465465936
1510,-0.6226374493640722,0.053947559856349865,0.5109437671058565,0.27058940783493446,-0.8401598840137159,-2.2957772713438107
1520,-0.6593746329794893,0.023794138122903263,0.47621723878424926,-1.954106497265186,-1.9680000556489352,-3.3157242345927376
1530,-0.6516731077385921,0.03238860839730477,0.4867109556821286,-5.249293940627733,0.18871129300616993,-1.8049551870474814
1540,-0.6585635803025753,0.02440347221284623,0.4852220043824053,-3.373549281260443,3.000300552107569,0.591788002082795
1550,-0.6695629209123526,0.007510269589625047,0.4698722123222389,-4.520190911585692,2.523894217026576,0.23579363239573492
1560,-0.6558564687553814,0.019947753270443132,0.4826820042162318,5.582117596463158,0.17765262255497194,0.36594127868146287
1570,-0.6360316135014811,0.04173062245428744,0.4979225893344007,4.166585410652244,-1.0648646137012268,-0.9250589913164783
1580,-0.6247314792119231,0.06060160347527647,0.5078474800369968,-1.6933282402487113,-0.17458604668198544,-0.5453062710895755
1590,-0.6550883418495826,0.028269054076861432,0.48273419257560857,-3.6767035587816705,-1.8891061676610308,-3.0732708650944804
1600,-0.6665714342348139,0.01341374587344087,0.469667363453107,-1.9455089824670158,-1.3403424562129183,-2.614567437704062
1610,-0.6393210230652404,0.04171182461761498,0.4973275030534246,-7.153128105131158,-3.5642071632668797,-4.499178654889265
1620,-0.6412383234553153,0.02705937492787713,0.4886457976932354,3.496808536776327,1.1194036955208528,3.033184176726133
1630,-0.6608236200611478,0.0034664746749433345,0.46870002051562926,4.0308093303872585,-0.9670614173716451,0.9690370837909871
1640,-0.6474849217949968,0.024524378897671784,0.48682986452118904,3.4699870231446566,1.0380334963631626,2.361329327882651
1650,-0.6362931589194991,0.04106384787431639,0.5063024943861794,-0.8511465045583108,0.4302311918218076,0.17248204020164665
1660,-0.6529060729250998,0.027726391609173055,0.4891154160277672,-2.7578938624656173,-0.446099246977403,-2.7921221738851267
1670,-0.6620429244660619,0.012885944823092618,0.47919766247452295,0.5580110393962703,3.5351213416442566,0.7722268665798897
1680,-0.6612586397340707,0.006003753962510221,0.47193256230106345,-2.4436744618451787,-2.313208596048078,-2.6723484115408604
1690,-0.6175876539899554,0.05538071493130145,0.5249399016728494,-0.7707301902697068,0.037733140474230514,0.47449515462967445
1700,-0.6207125179265545,0.056888877225944136,0.5238148326049532,0.2209413949464285,1.75094716584305,2.0075799073836493
1710,-0.6441383488328479,0.03701309355141662,0.4982342094362575,0.5774667947402147,2.586254899940572,2.1490084906772258
1720,-0.656424096355973,0.01600026176302681,0.4762176307243641,-2.9023743255166403,-1.3074769677670053,-2.0914290427132047
1730,-0.6272724161435098,0.05007687724953645,0.507906562923075,0.9217796511747681,2.5038563102267792,1.2342316986730832
1740,-0.619265309002263,0.05827648932461579,0.5163019267412582,-4.3919641720330365,-1.6472478500566154,-3.8208513383520692
1750,-0.6414297369963151,0.035121710336653546,0.4933689284501337,-2.651196521972656,0.748490711580701,-1.5454111049596917
1760,-0.6358501884267402,0.04043124261091807,0.49942818752900614,-3.6343896292117663,-1.7145614809925498,-3.7639013993573025
1770,-0.6660862608744343,0.0025497903223056506,0.4707714685185612,-3.1666667292301014,-1.1149092420469768,-1.922753571410663
1780,-0.6423920861858854,0.026664800963418923,0.49573690099385015,-2.764572447855503,0.6764268600416831,0.45663435697597093
1790,-0.6625558052724161,0.006473889435174494,0.46981234105569,-6.44170581101841,-2.333868497288838,-2.6813738146456645
1800,-0.6380398126091339,0.030299705381262282,0.49431422837682554,0.9266887053341505,0.7622878344782017,0.023828631612018647
1810,-0.6711349602761759,-0.00017171847218724196,0.46460840456321334,1.0024968542312158,-1.5405381499607183,-1.985960289303646
1820,-0.6279154750262963,0.045190053208486396,0.5111434070717921,1.37789662474625,0.19455720668664428,-0.15230920391410793
1830,-0.6257782673963899,0.04819711176045818,0.5118522755199068,1.7263329380113661,1.652036844119212,1.5603937118254398
1840,-0.6483042354143884,0.02563677842930916,0.489783687815914,-1.4323630115879702,0.5052160748118026,0.3190877113190148
1850,-0.6643842443691939,0.008125984650566801,0.4737546311001404,-2.615399935535713,0.14190978246829655,-0.38575337273374666
1860,-0.6443599770210031,0.02571929443912893,0.48801192258418846,-0.48904112972258695,-1.688968483487932,-1.309380400494506
1870,-0.6480984608751614,0.02476286174976354,0.4838831718326573,3.727612454281034,-0.21595413443055578,0.9330295575342585
1880,-0.639582315179626,0.036488694950650526,0.4950826107722231,-0.23169425563317403,-2.5685045156930215,-1.2019101634998148
1890,-0.6659207732454233,0.00934932420950848,0.47135387979628923,-0.9897329787460101,0.47318092122130606,1.5109744684451518
1900,-0.6504401708048996,0.02322507036585303,0.4918551605682285,-6.862802710563557,-2.1056625385223193,-2.2968985493505
1910,-0.6644610109652062,0.005566323769611234,0.47659103691806154,-4.802222671367996,0.3185075620698049,-1.0188149745797344
1920,-0.6497697138050729,0.019694384948201672,0.485184148119857,1.9490458051310235,2.4325932243091692,1.3209074079484546
1930,-0.633391171085519,0.038606175651329545,0.4997421377413182,1.7918432702685148,-0.04874189301941301,-0.4351981805439882
1940,-0.6667451940304612,0.004119320585916061,0.4643138969120647,0.007307781221873921,1.1610936785701869,0.8979547753274827
1950,-0.6606466157705444,0.008823687540695076,0.47533687911268996,-2.310200786444169,0.6212953490682687,0.024030147777972397
1960,-0.6575326653819945,0.012018741534101566,0.4839914609464467,-5.067648497145788,-2.2507072245301054,-3.6449816098707526
1970,-0.654040943649093,0.014846383898449167,0.48190004347352516,-1.8368851830883515,-0.8310187120331356,-2.917334269893552
1980,-0.6478993605953733,0.019936177128751016,0.487515994207537,3.055620964358491,2.487153408857081,1.7268078612622133
1990,-0.6374655935366619,0.03180066277233058,0.5001770442952577,-1.9457123052705172,-2.6998048223292868,-0.878400371166338
2000,-0.6206357500111355,0.04999147224401651,0.5173804340697333,-0.611996515751267,-2.751871721480429,-0.41217712028009257
2010,-0.6323506658381887,0.03710488092983938,0.5049516123120303,4.265432414143449,1.4019424992701914,3.05997288649987
2020,-0.6523064996454797,0.019934569774206844,0.48499644143370035,0.1649503532397545,-2.619521137664777,-1.8391881422169183
2030,-0.6333714869748537,0.040507525506499414,0.5039458673477814,1.3952847697619941,-1.3824642999076535,-1.5194795136504613
2040,-0.6238050448760054,0.04853941944264498,0.5100961782573741,-0.2597806252158037,0.04602545495809618,-0.8141557882135815
2050,-0.6571716951425807,0.011832080361672383,0.4795146857310666,-1.4733844868155912,-0.09400230510496588,-1.003957982060626
2060,-0.664026270944737,0.006510937860570477,0.47765897466875,-1.2142386988657827,1.4568890443552547,0.9465823725132165
2070,-0.6371512856180761,0.03142087016093121,0.5002381550501498,-1.076296856612379,1.93203290617053,1.796200194243529
2080,-0.628008337252621,0.04150292321760205,0.5026659790043992,0.12492323408647106,1.6051533762078236,1.1900754215026665
2090,-0.6623711818840354,0.007274075091508795,0.4698320186506318,0.7178938406370919,0.6568418309183411,-0.026731438723615608
2100,-0.6516810771740165,0.02235562959694214,0.48141909647115255,3.1903718682352595,3.345062831112118,2.527288447838262
2110,-0.6535692168728096,0.022222865650322034,0.4839171173549126,0.9801589625275584,3.289496187542427,3.0539504502582693
2120,-0.667849395163269,0.009383699911328112,0.47252373027193395,-5.348363686889451,-0.7883860164166667,-1.5992403587909485
2130,-0.6415177831442315,0.029484324529084206,0.4899788591170882,-5.577382340134329,-1.0999396668894277,-2.5002769019115867
2140,-0.6426320802625488,0.018348524271976734,0.4857239078133541,-1.1381722014832611,1.8032769601087397,0.49977530246177093
2150,-0.6100477575996387,0.0539149025091729,0.5233450188057873,-1.0286604327807083,-1.958591184681874,-2.729759884076261
2160,-0.6369164900803852,0.03460556735237081,0.49540649835130285,2.138287779827731,-0.20595679372910694,-0.4245035412033009
2170,-0.6418866692508556,0.03427184692348546,0.4962375300017555,-1.5586100469703632,1.0450568460697958,0.9013635828782842
2180,-0.656342160675932,0.020714532241288275,0.4796840223670582,-3.57018656464717,0.3921156497758461,0.008778121195689229
2190,-0.6270233900753934,0.04552759688508044,0.5061819050737851,0.19214807748743556,1.9668822935684511,1.4021688065713673
2200,-0.6586581169431166,0.004475184218354732,0.475266047928935,1.6916493654491307,0.30702377138859377,0.237477152815354
2210,-0.6183206451071213,0.04930018612114322,0.5142429894912368,2.0290555868695757,-1.2679673376769103,-0.43490497437237763
2220,-0.6364109080699039,0.041951953955095184,0.500297213370099,0.380303560766976,-2.5381088213460004,-1.8276402012809265
2230,-0.6632571316254622,0.007844406081615019,0.4713076158680252,0.9870239287562255,1.0269279090254146,2.088205524012398
2240,-0.645030500948783,0.03434619327787702,0.49606622786555626,-0.8310400075327874,0.49219308671737794,0.8402657369117755
2250,-0.6457057933314098,0.02686850425597211,0.4912377553412672,-1.7244994371801423,1.931893560024934,1.2567765827478725
2260,-0.6586520139040137,0.013496678497145587,0.4751675710735562,-0.30349545067103345,0.7902463578377344,0.2623643225475544
2270,-0.6414186706964965,0.020754491822014,0.49124529899007174,3.113553748161814,2.7757859409314705,2.6412507104125367
2280,-0.628110116360796,0.03894608028007101,0.5056439275439926,4.4768741888001715,0.9743764878512027,0.9929481824396555
2290,-0.6314975195728488,0.04552332597148055,0.5053952522450038,-3.8296212857552954,-2.997608127578161,-2.3946030062534516
2300,-0.6362622962092805,0.043274869945432386,0.506606486576073,-1.6828149951294562,0.5034567478209737,0.6948054883116168
2310,-0.6759188056491172,-0.0032987566528014794,0.4643808612805769,-4.964876227183516,-0.6204323075822884,-0.982717514251981
