time_ms,ax,ay,az,gx,gy,gz
0,-0.7076036279351897,0.061357569058301246,0.5662828588273792,0.07345881283467748,0.058230776160618614,1.4083920023065277
10,-0.7296030167935079,0.03638112937779947,0.5478775152916301,0.04027813346549891,0.5825278555663589,1.216787934244512
20,-0.7345495396536255,0.02771766103402195,0.5482145202438614,1.1417657947987219,2.4326088454565875,3.0841625043343637
30,-0.7278284165400833,0.03159234517112914,0.5563238817469393,0.1403587950386661,-0.23295686111596237,-0.41496370301207053
40,-0.703611885676234,0.05566592161473548,0.57435220352023,2.5485612762983485,1.4592463081753453,1.5405307899798504
50,-0.7209392650433274,0.04507170872344567,0.5563347750345103,2.775664437172236,1.7357432844096934,1.3052030500208476
60,-0.719351598255157,0.04935523597372382,0.5606749766780676,0.819913153201568,-0.19053104745456745,-0.3001252681711173
70,-0.7278691493471912,0.03876036154960957,0.556225412916882,2.559504076429624,2.2902636711365423,2.3893858922447087
80,-0.7245228620201591,0.03879123543062007,0.5576491792002408,-3.0642914568012154,-2.3147876171412567,-2.1747575251972884
90,-0.72226329895436,0.04445151198668667,0.5581054718403032,-0.5176078813672278,0.4965459155981876,0.47331043529895167
100,-0.702692080712134,0.058683315986127985,0.571633464226432,-0.7516283111251465,0.21377895132160102,0.3503347880930551
110,-0.7221598419103661,0.034549617863462105,0.5588107355236615,-2.381215745971688,-1.1790825766618016,-1.9269167341411735
120,-0.7274975516148254,0.03212348382513241,0.5572136568539628,-1.682839593480875,0.03431360533453687,-0.5468191359135857
130,-0.7206792822427461,0.04219335787699006,0.5678656745578164,-0.04930236680971234,-1.9759520479622243,-0.6913029602980236
140,-0.7291267146838997,0.035683174743177636,0.5631771981307346,4.455793597491367,-0.5343318354714828,1.1476850725159822
150,-0.7448085342354783,0.0312469499023651,0.5633157125433731,8.773894931832688,-0.6930492362695512,1.6778737906809702
160,-0.7601083248655575,0.03164206178128305,0.5476365475695443,12.650228765081149,-2.9707599575490296,-0.632918213859024
170,-0.689870590364383,0.11369446534277966,0.5011019287783843,2.839091646785434,-5.221423761607312,-4.048840202679136
180,-0.7629539277388351,0.12164444324178333,0.6288414268831762,-18.74837604855202,-14.216890313428678,-4.081855110162077
190,-0.8378866714634813,0.3719339262762892,1.009584476789305,-4.46099239456275,-55.862148636103804,12.117900399713077
200,-0.675357254486798,0.33645899192161777,0.6457472224576706,-10.49145584284051,-58.61655026686342,41.80567641840537
210,-0.5087377602169906,0.26032116856254467,0.4382677058208496,-38.12062376647321,-46.90295293747677,43.97733531599713
220,-0.4802241217146533,0.13423987082203745,0.40198231068617135,-57.55681903786508,-28.18389919826813,43.53000676678216
230,-0.47479749186972287,0.09417311281166196,0.48115804408781493,-71.34302470280224,-18.33690083384204,35.55606719535745
240,-0.6088612075162543,0.0763793857912991,0.5840240336980059,-78.90401142196592,-12.347545999814999,32.07568599582517
250,-0.6802621741343459,-0.06900950646843995,0.5675702126789024,-63.5479464029055,-17.923850217328724,21.650613507177184
260,-0.607534928790346,-0.1212908645211504,0.49755516624466317,-36.54769095053449,-9.866924325005852,16.336153891570632
270,-0.5436307452053052,-0.09942293469895931,0.46844319967241155,-29.54450304468403,0.9332510831089396,12.615815541175513
280,-0.500243446053074,-0.1263063073283231,0.5191275604080294,-42.9550479237808,10.786248741652626,8.051388304591452
290,-0.49922821161490294,-0.1810608336162173,0.5789967433685573,-71.05831513068864,14.890068656240128,-7.25956730780421
300,-1.1838562335931844,-0.252313567065197,1.4387324580931682,-100.95232528925747,-6.293203426423202,-24.78081250363636
310,-1.2587008737866443,-0.059955163968714184,1.2178235503221084,-66.01323583431899,-36.26440659086572,-44.11697054134681
320,-0.790885672866179,-0.26702638184350275,0.4719159227538249,-42.17388193848292,-42.1457698096308,-59.56944978706719
330,-0.6323367751791403,-0.3924545152983821,0.6267725800999208,-59.15405249710004,-33.03772252263059,-50.29157925713439
340,-0.5350001395743001,-0.03613252102547055,0.6706504493783846,-61.57407352275203,-26.621629423739357,-30.11057864004765
350,-0.6936927021488017,-0.013813386735166876,0.6166224393308466,-69.78563108194908,-19.42536832997291,-14.953027167380885
360,-0.5936840146193838,0.016058217425854882,0.7368328182895458,-62.22255637952927,-21.564150710936545,-12.014085792110478
370,-0.578536173170699,-0.023006583549164357,0.6873929136834058,-14.211610392525332,-19.296160164583984,-14.234508833243522
380,-0.8035141460705691,-0.04578409579811868,0.4840071072890375,27.689048116543425,-3.445581682565046,-8.132636799585661
390,-0.8065985111178918,-0.05672583581248856,0.6016679474281009,64.78280644674741,16.55609862295274,3.67882811004268
400,-0.8785659558769962,-0.010321837500928868,0.5366576205351926,144.46084507959412,44.72546957876939,20.693988997791532
410,-1.0158391144719547,0.18954409525932692,0.06124497170930522,178.3042580900686,59.31297461625823,33.57160328928419
420,-0.9793436750344406,0.10593612315174591,0.06032226098922731,143.45064534858346,62.80843935768308,32.46784729749266
430,-0.9253722723771897,0.1919231836225047,-0.047882057261211294,86.00199283071049,66.50779422217629,30.006232674056402
440,-0.9412788598878493,-0.031816749161309936,-0.35444742899124254,-5.582932036394039,41.75133986389473,9.062671312053325
450,-0.5272116366775579,-0.16274185889520354,0.6384867860193424,-18.829076461957293,23.821623821565527,4.474149061889855
460,-0.37513801382780854,-0.05754635628764416,1.1540462506134115,-19.295609683599125,15.243195962693067,-0.8734958965239666
470,-0.5694124311173936,0.008219323450465225,0.7864105520596535,-9.371427988339718,5.6364690234422685,-1.2173977009248762
480,-0.6572638332779093,-0.009095852432754306,0.6498379613916206,-11.476791940043041,3.814562920531582,0.9668034909717275
490,-0.6916574695578015,0.012998011493849692,0.6068140554328206,10.728916742183907,2.088335081947407,2.81622612474298
500,-0.7400569950079386,0.06003947799261556,0.5584559069007546,31.744910020797082,-17.722065716558646,-11.570559207670197
510,-0.750226537090394,0.09958958187643918,0.5260159726691117,-22.709623687892947,-12.73657055643318,-14.309102409444733
520,-0.8079236664989604,0.11497596192683313,0.5088910616970918,-8.180035045090005,-7.623713810488415,-12.980360484724457
530,-0.8755683771447211,0.24187539456948365,0.5339318038235965,0.5587808004271568,12.8966878244176,7.861150387244959
540,-0.7360489163894691,0.33023187710824214,0.6518606905110129,1.7070645373076352,16.184305944003103,35.714050069860455
550,-0.6390322845034124,0.16331451514387307,0.6150265653037903,-19.630422854257294,-1.996448729992193,31.87599053722713
560,-0.7095240791958333,0.18279256418506692,0.6558635868892516,-57.79021975383357,22.993833193158572,34.7147685476623
570,-0.7881539942700553,0.29834741777582074,0.3112595492405348,-38.2453186060584,5.713302755838983,26.07350930095469
580,-0.7467755442536388,-0.865808618112802,0.607752914513928,-21.770455886515805,11.732491840734728,-2.2444978703020095
590,-0.7367048406000024,-0.583713846324344,0.49427769639509705,52.61562372911694,4.853273991517488,-19.367395080659172
600,-0.6085863886880905,-1.1451552901364839,0.23466518790791463,-3.7346930844671036,-4.67254726996484,-61.05413070546154
610,-0.8424345611294696,-0.2690581608836616,-0.006287329573995526,20.406272280025874,0.6121473455252469,-67.77480941634454
620,-0.6056059610784328,0.7892294560474485,0.5815363334338827,101.37575162749955,14.205460156999866,19.827236524905917
630,-0.6031567657578976,0.07159692335937776,0.7587760603408089,40.10810118952909,19.904470989634113,20.335084360524075
640,-0.7543782229764876,0.4498660482584328,0.3960022870053668,38.40549250413884,6.5819825063953505,-0.053677868405579865
650,-0.752343718282991,0.4602838745105352,0.5339743404194006,-8.88400530207897,8.6760262327806,-4.502387095219925
660,-0.7311497449165051,0.0934556561111484,0.5644452835877933,-18.082403595486074,4.048383460341397,-26.315056188505032
670,-0.7538555071778155,0.0591930444593744,0.5526979459433372,-74.42364381814282,-1.6871983450327792,-36.499362872342175
680,-0.7101907463783681,-0.01807710198512586,0.5821652158414135,-47.21226244635745,-3.320898533920932,-11.89108071324438
690,-0.730614140589581,-0.044842766158476655,0.5478437614798277,-26.09013162424644,-4.3327359566089,-4.543558519721003
700,-0.6804916495830656,0.023406762333431502,0.5782661802718676,-12.817586678670365,-7.411279393863607,-2.10324566081178
710,-0.7067331372630549,-0.012925895638947457,0.5749936725669011,2.8802786992014315,-3.6997660941994654,3.6936868049447398
720,-0.6842239066361359,0.01784808255049021,0.6072914589162657,4.394319703926438,-2.0921652911374284,5.88088398300799
730,-0.7028558627608285,0.022777620455667502,0.5789570572355653,2.618280533697698,2.510646115694294,7.675121595782528
740,-0.7120805701039782,0.00022532663195751462,0.578261006588839,-7.979849244706249,-0.3873929409242972,-3.723105765277531
750,-0.721285572894069,-0.014971508025718191,0.5683095736516569,-0.9924724217842805,0.8194048146574778,-2.6461832589383287
760,-0.6990293786899282,0.006712673675412397,0.5842768702742598,3.941568872860743,-3.7483414885438364,-5.976944385803954
770,-0.7244878583491634,-0.030157168036819764,0.5546372176827258,7.124656850890699,2.6638513248875126,-0.006047317989512635
780,-0.7063778349385643,0.016232128898821693,0.5750469832238563,15.51410693714754,0.5700512632746572,-1.1368019862684435
790,-0.675522357775561,0.04171850552143168,0.605404540408364,14.517287930891404,1.1208609260578355,1.2583210841800638
800,-0.7282106960775673,0.006817749455261184,0.5585880947301546,-7.411036363204206,-3.8111837808061866,-6.174847931321176
810,-0.7195208960885948,-0.009434895039425899,0.5627921724075089,-3.969037856236554,-0.6904649029890926,-2.954223349784872
820,-0.7215572172220518,-0.014746304515525315,0.5663429561996497,0.7277500705739754,-3.024410176493772,-4.023642803128978
830,-0.7207847258133957,-0.009006037968085478,0.5630219405900612,1.7286803015245376,-4.524792375555921,-4.537981313209333
840,-0.708023260856469,0.008914177429450925,0.5726416392551791,4.1104530658722265,-2.5041559468515073,-3.1054413495709645
850,-0.7122912030456809,0.008650416392453395,0.5667027694971881,4.330164703852177,-1.2247489566840781,-1.5461652865631854
860,-0.7434083169509237,-0.02006483992577838,0.5402070810476957,-0.785601099009509,-1.0040567095305717,-1.8006664938881316
870,-0.709990756448675,0.006230742789023405,0.5768480426585447,0.5677424863316285,-0.0036189043643469407,-0.9090206192353567
880,-0.7227994419295519,-0.009849657257850059,0.5611631913073402,5.632932932600517,1.9794491264387624,1.7906891718928368
890,-0.7214961107217942,-0.012241540390025842,0.5565474581633835,3.449867494294395,1.2141113623467055,1.0024064987239132
900,-0.6901773057859943,0.026727348655033005,0.5928496160514122,-1.5250517850199317,-0.3950935435423951,-1.7026272758510612
910,-0.6939974338353837,0.019981199228059292,0.5963896502917907,-1.5581981856804776,1.393829902293494,-0.7870606978584349
920,-0.7229755047367453,-0.016014538113080002,0.562795416283914,-8.50462012196454,-2.1864418482629384,-3.654466127443578
930,-0.6952577177740921,0.008816716613993174,0.5884002675640618,-11.360440206277449,-1.9015845663383164,-2.5348369944360902
940,-0.6784228536873733,0.030062971152832428,0.6088037392828963,-10.297138608997551,-1.4800720264855873,-2.03361765664315
950,-0.7338354568439246,-0.02790879244431828,0.5509875314475631,-6.584381985419745,-0.08091409749304501,-0.27396395228957093
960,-0.704538445346671,-0.007148299269640428,0.5771243979018903,-7.03284723675133,-0.9459493674650007,-0.4536960079939312
970,-0.6836420768434941,0.009562405447390399,0.5993643292717116,-4.560704957514106,0.976495594592148,2.0568686500169893
980,-0.6804858136656134,0.019003499535995526,0.6037251265309054,1.011191601921903,2.2286648420464337,3.3358806584357827
990,-0.7277731391488347,-0.020620501945557743,0.5589001679348087,-0.767497910772686,-2.3785376783976657,-1.4486671076428708
1000,-0.6972507786294401,0.006003192371629652,0.5898651167723182,2.932643562098033,1.1936894909047464,1.4829291703764274
1010,-0.6974219971706884,0.005048199507400665,0.5895613971856271,3.52904996086415,0.18482727991482484,-0.5402875828861495
1020,-0.7181479158475477,-0.012590723782251092,0.5680083507445919,6.775868270790905,0.674085452266111,-0.1881185986355813
1030,-0.711157982391603,-0.005343651349159601,0.5678207491158547,6.812545862587079,0.027481183496089967,-0.03737829922716818
1040,-0.6971768716254506,0.011951251505523007,0.5826440954410873,2.399614533011189,-1.57443864338573,0.13485241952258065
1050,-0.7097943804019362,-0.0034756355186383674,0.5739335718420414,4.487099339832101,0.2862827107611464,3.335989386577166
1060,-0.7522780122578612,-0.04848291268903868,0.532283202790897,7.851684443991332,0.1384751756600228,3.0169541227370247
1070,-0.7042874093377652,0.013118589433153775,0.584261322545878,9.601052681205541,0.4299650913533506,2.846406822752473
1080,-0.6932581234173839,0.030564544292668826,0.5900006665386143,5.438516275043576,-0.5548893985715557,1.782043913029821
1090,-0.7013973826363705,0.018804871002072322,0.5822643838771748,2.989277742907122,0.464850039596288,3.237364270351236
1100,-0.7179156223201267,0.0005338133624140304,0.5698069309551237,0.36491436444444125,-0.26627815619341716,2.1047819542895048
1110,-0.7294013259376759,-0.003310772222612465,0.5599081097935306,-0.34870333295882117,0.10816044204429054,-0.46237668543661026
1120,-0.7014266800525439,0.020978281462056877,0.5774396917396067,-6.209415555112242,-4.3021609567217745,-6.799486866214089
1130,-0.7077598041200288,0.008923209547911499,0.5791032402597415,-0.2428983687602697,1.7133766895910223,-1.569825162553979
1140,-0.7024150388689321,0.009137043785305563,0.5874746596088365,-1.2242378232252307,0.26767298084278995,-2.263828396306527
1150,-0.7129221564182032,-0.005156818115532116,0.5731272869876277,1.3847577099105668,2.2437341193634612,1.4935473341058059
1160,-0.6859471265065301,0.028973682644031197,0.6013593622321866,1.9620898357071919,2.6113479471635785,3.7588611153327256
1170,-0.6845899467818601,0.041030799721719954,0.6053143882333016,2.262231582743336,0.9301744581852872,2.943738788318279
1180,-0.7176553672617184,8.006752975442052e-06,0.566970112204226,2.4131439007947457,-0.14695007676129246,0.4182387850215493
1190,-0.714888882533828,0.005677324486238963,0.570435490423261,-0.35007187151605024,-0.4374677943568885,-1.3243608534981433
1200,-0.7151976890489866,0.0025796563884262266,0.5741467339483037,-2.495700845446983,-0.1334582319452376,-1.5807301319202136
1210,-0.7160288609112573,-0.004128993419740138,0.5668114805634185,-3.0109185891561996,1.5162357619884133,0.4006696432308172
1220,-0.699434006870239,0.011234985557577914,0.5859226134124508,-9.337597461103885,-2.8180034857225196,-3.92236053661959
1230,-0.7199619558952771,-0.007883064380735548,0.5658529620498205,-2.8589463338853616,-0.5682369846586149,-0.27030262113771764
1240,-0.7175583633876746,-0.01161059310918422,0.560399809923101,2.238279353098946,-0.4985416855978835,-0.3109157560466681
1250,-0.7219304154553351,-0.007223108985950764,0.5604019093614363,2.225032630950484,-2.3184742431099052,-2.222395644524429
1260,-0.7048505723010299,0.015311766745365971,0.5885886729649124,1.4940545812509871,-0.7037290768358493,0.2795933760825622
1270,-0.7079340875522669,0.0063643572054587014,0.5745067634693724,-0.6801298414110055,0.16711680808846618,0.8192727092435521
1280,-0.7219067049620569,-0.00732754557373491,0.5604456030325675,-1.8623317310314307,1.3087784688320308,1.9161689744305321
1290,-0.6966608538010554,0.009861627459748576,0.5925967861086822,1.0646118082462985,-2.504984741385262,-2.0861669740336315
1300,-0.7099573133573411,0.0012485829729580586,0.5714547409212677,3.7845696702093665,0.4324867892022167,1.947269423875919
1310,-0.7114941219965382,0.0007958323871995748,0.583169970610157,0.14715299916857916,-3.3823973174344686,-2.624757995461514
1320,-0.7270311074797695,-0.011862814657915098,0.5558123767698044,0.29932933459385613,-0.5501618586714312,-0.24479961566121577
1330,-0.6884094962430873,0.019691995159015405,0.5957329451738922,0.4969429292977605,1.7038464139050526,0.9618827521632143
1340,-0.7237302809538897,-0.004859827984151882,0.56031429551056,-6.217590507278345,-3.1795479738588437,-4.5273125031251364
1350,-0.7086899486082688,0.015783601730738898,0.5771930296141914,0.3061854055670854,-1.289268231280431,-1.2890413476092768
1360,-0.713629492950706,0.003576036288063231,0.5724464740000378,3.521189730326298,1.5546176184951124,2.1102185243677734
1370,-0.6991326489374079,0.020284714854227014,0.5809883815308782,2.0187537458878286,0.8424000506576005,2.213057848493425
1380,-0.7149189953259715,0.001347539453101801,0.5731949361271854,-0.8459635023796053,0.4864602416619287,2.208006962608526
1390,-0.7055973962560939,0.004448254801977816,0.5814525047599851,0.5979899385994101,0.9616603330505967,2.4977422856285467
1400,-0.7338903401883083,-0.0192085381668532,0.5497816530960566,-1.0918207139664058,-0.9441295798590916,-0.06826307072626192
1410,-0.7160793398152243,-0.0004375211013662849,0.5706445150430323,0.45130777011752166,2.1613429548337084,1.8678998136381242
1420,-0.7185801689825762,-0.008838134293215184,0.5706702702494115,-0.9526970756293073,-0.9713097505123022,-1.7123717466515256
1430,-0.7225295658368187,-0.01275170674936453,0.5627253654442307,1.0801946196453376,-0.799693136869587,-1.0643976696535848
1440,-0.7122363476739785,-0.0019538900390282717,0.5638501950235462,3.4656864007036443,1.7111468394374887,1.5809861995624528
1450,-0.7026923428679944,0.013020952178831998,0.5789042560168949,-3.3600187678760864,-3.020690475171461,-2.8174845832401134
1460,-0.7126761405405131,0.0064562635708840105,0.5768659621730904,-0.6656608819211728,0.9103989544951406,1.714691250588985
1470,-0.6840649054780187,0.03229811170949863,0.6064465664560474,1.2743005376059942,0.16911682142881468,0.4474205189567714
1480,-0.7109320804985695,0.00435729837069462,0.5776566624327351,-0.9652610610547816,-2.192600136981491,-2.5624901672590754
1490,-0.7406748159806368,-0.024553538325346465,0.543521154339199,-4.737530459956366,-3.417165972239805,-4.426438101677288
1500,-0.7430780459783846,-0.032083786653359064,0.5401454750167364,-1.0685874873757104,0.722012683173751,-0.5710558750543406
1510,-0.7125968102101996,0.0018062076216683741,0.5719760148095449,0.2297995826337489,0.32688579510551863,-0.3872195732999929
1520,-0.71175464652543,0.0014586615627622118,0.572383162152575,0.8996114101001197,-0.03365235244107112,0.7517020806576643
1530,-0.6922354949726579,0.022428117255327312,0.5959437845329753,5.024597044324563,1.1607339452578769,2.2652703998615915
1540,-0.6894463974609075,0.03691758309550262,0.5970941824752503,0.30124754423097055,-1.8685639250163153,-1.1989829992911893
1550,-0.7049481482281453,0.026958995620346135,0.5828796143453495,-3.676447511525797,-1.5859638187925413,-1.490122309586861
1560,-0.6962624467210874,0.025348195330620812,0.5877151801960331,-1.971926565736649,1.8548047275064132,1.047583785649445
1570,-0.69310767560938,0.02281165803041478,0.592535958019205,-3.878690221562671,-0.6562560896793557,-1.9765667634553945
1580,-0.72615028243232,-0.013500869587694002,0.5622381341214037,-2.639009022624837,-0.9547318890022654,-2.1826427088833387
1590,-0.6984272861912408,0.01085270161312461,0.5867540155281132,0.3233551226050525,-0.36311002463918446,-0.11035390076841806
1600,-0.7403770512916704,-0.021619083702487593,0.5473365544863321,2.275025399451855,0.47781432886913366,1.3501985084385468
1610,-0.7067421944097593,0.016596206876707598,0.5815890407760254,-0.6813971932113643,-0.7785256573909817,-0.5990780144771992
1620,-0.7132327665977469,0.008152825036173686,0.5733179730337412,-0.21818303663256033,1.9820004386518253,1.7608051725755334
1630,-0.6874158404291414,0.030084567980845946,0.5989203330991735,-2.4955346161470082,0.1417330353321011,0.19686031006756058
1640,-0.6946136811637184,0.02116928389397997,0.592938470930594,-1.432999150779418,0.1624941911477803,0.05332003681427123
1650,-0.6910870244114369,0.021510913042800322,0.5942778021885536,2.770222643373149,3.086457540779917,2.5783031812384567
1660,-0.7380821299674108,-0.028709544229049446,0.5450169248630563,1.3194423951273144,1.3827826222104393,1.188987429673868
1670,-0.6867417712972933,0.027904842562815682,0.6003671711298814,0.9079167489907669,1.2037960970026602,1.7607126820113859
1680,-0.7006711343419564,0.01834017169949015,0.5887112286240587,-1.3581118332017108,-2.102410083085603,-0.9319961957808456
1690,-0.7083541965838456,0.012760116161008077,0.5791252743945483,0.6887734905551446,-0.24723816295813356,0.3783118561930553
1700,-0.697103039895539,0.019056369047950758,0.5882631302886019,1.3286086979330016,1.29174877180376,1.146131891536424
1710,-0.6850419391172407,0.028799415900833975,0.6061160771039854,-0.9511182059372816,-0.2650816715065808,-0.46612401328959124
1720,-0.705686699649738,0.010415512426034605,0.5873665778046842,2.061685289411427,3.508962068463539,3.61786268696606
1730,-0.7156703174992615,0.005432688536638388,0.5734204058416325,-0.40768262483481776,-0.28468115645970893,-0.3569376088118432
1740,-0.722976646684622,-0.0019303097963383493,0.5593140719769792,1.5648304557383463,2.1630002378169317,2.353495972316858
1750,-0.7186126448678892,0.00208582984314812,0.5662047536852827,-1.8205060193754585,-1.298321402311853,-0.19448610810705136
1760,-0.7089251638509314,0.012720878041593746,0.5816304696752622,-0.24501916322594303,-1.5858541880255312,0.19047435899257437
1770,-0.686768920017883,0.028490715599185316,0.5966212106833884,1.5227077250741206,0.9900409936435649,1.9713804254920575
1780,-0.7054300792126634,0.010378036556195423,0.5768611765261911,-0.8625151080999135,0.0490113992993253,-0.6327050738883462
1790,-0.7060426901071422,0.0121640274905726,0.5815259981837363,-0.2370824911003958,1.3935351879951487,0.44069168340368464
1800,-0.7265890491001837,-0.010735176113032669,0.561494099369667,-0.7409189095937698,0.24148547680035037,-0.6865787027758321
1810,-0.7158706731499398,0.0007273183180813601,0.5675585999839392,-0.40698808915544393,-0.8279350064754978,-0.9033511019251512
1820,-0.7002285952666291,0.017362156487994905,0.590563730389479,-2.30600011053215,-3.0031240381921953,-2.8534804726761935
1830,-0.7174395930435239,0.0016814711635313,0.567946240062942,-0.18661834048948056,0.10773730973912055,0.5711748467902036
1840,-0.7126857527848806,0.001928945529916311,0.5750829444848209,0.20362695481654525,1.531620519815708,2.0229389593209604
1850,-0.6793976518869316,0.03382360132438258,0.6088053888590521,0.7436396863894696,0.046959986004417725,0.4886385940943829
1860,-0.7300270906017572,-0.01725192260284816,0.5584826496869979,3.8465529460042056,2.5404770489488353,2.9441657189978443
1870,-0.7272300124765422,-0.014122248062709446,0.5550320609552467,-0.11255477041108075,-1.1736186287398518,-1.3689798551405377
1880,-0.6956921974709243,0.0200933506045766,0.5895766732802904,3.0865389188223133,3.0385520118954386,2.452849168456753
1890,-0.7184171231079761,-0.0011868667124752333,0.5672292842355056,-1.541265062698412,0.33552923511482435,-0.6081280766355358
1900,-0.7331791496847619,-0.02286433666585455,0.5580843595871143,-2.508080815979082,-1.3545907024780415,-1.475835735325206
1910,-0.676836805420187,0.040776811007781494,0.6099549481411817,1.0500041100361952,1.5251263497404182,1.9099347402129516
1920,-0.691717386459477,0.025735148782837287,0.5927297539187936,0.860380939074864,1.5281113872107497,1.6049888254041167
1930,-0.7101010542019031,0.00912059801790381,0.5722723499559788,-2.8124913942704315,-2.1896162408184594,-1.1193525782970863
1940,-0.7214440397714562,-0.0009985019545225796,0.5579127288467429,-5.626603196440085,-3.9116188072309948,-2.768191779710789
1950,-0.7016118359619059,0.0130352542276482,0.5838495383020494,-1.5716940060187068,0.6956138634685016,1.1835149027989393
1960,-0.6900349104270542,0.027951746289533126,0.6005885277044234,-0.4710468410185016,-1.5642116419777516,-0.8402052219545919
