time_ms,ax,ay,az,gx,gy,gz
0,-0.8253601555006849,0.17553947434845796,0.3600208816484915,-0.8169213654198899,-0.648858779027243,-0.9277426749303327
10,-0.8247149569227139,0.16386890845776494,0.35362218016435265,2.0350627370496075,2.223483555510628,2.8834376258729972
20,-0.8554440152415063,0.14196371262173396,0.32079665648865563,-0.6663987438930973,-1.2302529355821386,-1.0090435790979067
30,-0.8419632566048988,0.15227140057331282,0.34031222320578675,1.316454475348865,0.4516230952953949,0.375532444581548
40,-0.8670156275268157,0.12823058098090406,0.3134611305243409,2.305175749110974,2.297734981986924,1.273474538634717
50,-0.8346745391746123,0.15757659606868007,0.34046237582449573,0.0004678797391916012,0.30702109910722025,0.06315238487884756
60,-0.8586890421528963,0.13870009690618465,0.31301974752367534,0.09919979031824422,1.191697489528963,1.6029808284179188
70,-0.8386376856408788,0.15959292702378913,0.33834125835887685,0.5095245653467715,2.2222708192577603,1.763242903229974
80,-0.8560991899871058,0.1401655649988994,0.32532544900323734,-1.7767847557513532,0.013653155261313582,-0.7058042281202505
90,-0.841893748050252,0.14670288843639565,0.33416682482709986,-0.32126652944528533,0.46063857201978875,0.2830457292262289
100,-0.8361056473446731,0.16228719616923154,0.34491999856399735,-1.9508202176294738,-3.0439897498511495,-3.1090934756500874
110,-0.8450511630999988,0.1582644634879253,0.3324675000573105,-0.4022493823849801,-1.0724355540639958,-1.355390996528676
120,-0.854207643024734,0.14145571334373036,0.32701243432455457,-0.8133490018943914,0.31170497583056206,-0.9053836821363214
130,-0.8410987007335442,0.1484209053306185,0.33361086232464,-2.7114746998999752,-1.3877902662881747,-1.7035861972905253
140,-0.8331208549622882,0.15846302036133014,0.34274027652824524,-1.353971565716478,-0.4651016955884175,-0.2739856389602848
150,-0.8277297993333115,0.16604526418978177,0.35242143522902475,0.6829494517393524,1.6620078882335514,2.210419424526793
160,-0.8571226903875051,0.13892717389094855,0.3211193184453902,-0.9802761825611833,-1.9521201961008072,-1.0760951219233412
170,-0.8172789632171379,0.180376410730375,0.3567580646058037,0.8660468414222458,-0.9132956697296197,-0.2839950390421253
180,-0.8578128774883804,0.13661176295148947,0.3176142449847391,0.1861568890885743,-1.9115757149858905,-1.9268782534596993
190,-0.8324724378858303,0.1562534221956797,0.35066990418853106,3.1895138200883917,1.7680677254591128,1.7730282812043274
200,-0.8385884423306235,0.15103257994876923,0.3512137870333129,0.4129534037449035,-0.5870140499880967,-0.18497791541469333
210,-0.8425585744307112,0.17434694343297907,0.35531965226265405,-0.8488568179354907,-2.4084516410927748,-0.6716781729196939
220,-0.8277523150308214,0.15599401324533277,0.3543429875462889,1.1154253228026978,-1.2811967859123423,5.0064941894569985
230,-0.8547977823963715,0.10866236557121829,0.3274640483772203,1.691525697060266,-0.5600592182568376,10.528575024675868
240,-0.7663802759172684,0.24371186943248854,0.5132260651700189,14.982436387071312,-21.510700502453442,5.5887909984454875
250,-0.8188796456747421,0.2095066491571636,0.5373629368413679,10.298879288490642,-40.85185521349075,-4.744335262541555
260,-0.8696690762199604,0.1402487251686253,0.4724933366289142,7.111685805624958,-56.102343869771396,-10.146442359047958
270,-0.769465693991836,0.17609139491287823,0.3173186045100564,-9.471932073426494,-59.109109942194415,-19.72222952121559
280,-0.7454508040776101,0.2505158068601927,0.24138487468771325,-12.137781568982017,-46.22432096584174,-19.900823874977267
290,-0.8222620262008393,0.05073779618184003,0.3275319851484735,-0.4617976769501464,-42.54895365466666,-14.987812218093474
300,-0.8175392911974949,-0.0634333057197708,0.40038097815882756,-26.01880094228219,-43.01166104865765,-16.3947876810774
310,-0.7934237145529459,0.04307341881762814,0.400754518021262,-23.05830208810057,-39.51929402768133,-22.560137799287656
320,-0.7608150638214733,0.12539135971785006,0.3859122667630981,-9.278784964345679,-41.33685689069908,-28.66158201986167
330,-0.6751127204095111,0.27232315104376353,0.3356151524777844,-53.05314008594408,-27.96690841757888,-25.52166956519241
340,-0.7114418161814721,0.1548866176399831,0.415685961916374,-1.1879180139711265,-16.960738605942456,-14.579390365788637
350,-0.804440977348307,0.08234911362735212,0.4348254087322811,-12.728103041878475,-14.466989235534427,-13.9558042387404
360,-0.7977360489992903,0.029553223044447494,0.3984241488076405,1.9432956799748031,-11.178542711707696,-18.074320618355607
370,-0.7594449880131848,0.13119715471709262,0.41450884877579564,4.721709032428545,-5.980563761366249,-16.148154824255712
380,-0.8939776708291669,0.11977055719699788,0.49801068707063006,5.83298212227671,-4.819958746280464,-6.115307020533124
390,-0.9109524991802249,0.045971702212173116,0.38637679297569355,0.6754483085218825,-9.882310296988132,-5.624617861855535
400,-0.8679879570374976,-0.0753268825667547,0.30823142027893147,-0.34097296591930437,11.156652850334016,-8.431807599010355
410,-0.7483614795331746,0.022756653374531484,0.2845700667384914,64.33579497703816,60.034266718201586,3.2017892597884083
420,-0.9178846608504838,-0.09531119470695978,0.24730293439467121,102.36897390399595,108.08897133738782,24.992545069456074
430,-0.9713596691928879,0.04839438667446738,0.585318941161128,48.61342619474095,140.293272488178,34.613519720412015
440,-0.5728788246184805,0.4039171253235985,0.7503691645056392,62.06545937639837,117.17543455912259,22.879915680905537
450,-0.7011245176352537,0.1404697605418513,-0.11947986844143588,-33.61069407273626,99.16805597038777,27.42077435444355
460,-0.8320318054534377,0.11018328072964823,0.3736189673452246,5.625888342273926,5.005751877137463,1.8040109087526526
470,-0.811474408147099,0.17056834196741666,0.4240295262366874,6.005757613423288,1.3337536913474912,5.087666891941099
480,-0.8197453959290927,0.1668888628254232,0.3718143217315716,-4.428462868239356,1.2549447924092054,4.635981248970137
490,-0.8355208360498131,0.15600498861094708,0.3408761075617108,-15.552413952825571,-0.8285333513234203,-1.1308435484657973
500,-0.8485994863384541,0.14850531760895136,0.32695064211372277,-11.8608530713572,-1.4403689677432019,-0.6818986831992626
510,-0.8522881660061218,0.13073625069963116,0.33765474722376004,-3.7828929466441776,-1.5713128704558277,2.765751699100948
520,-0.8394044665386811,0.1561179209759014,0.33709416112517937,4.384566043043712,-1.5549165743690154,4.3474892155065
530,-0.8605217630314768,0.14561739221101092,0.3036906540509675,1.2248961116082437,1.0910798189778848,2.399093522728797
540,-0.8324582378915963,0.15961772944067992,0.3316801909240627,-5.315106640280662,-1.9194896240278339,-2.9179759034035637
550,-0.8370761215749544,0.1579417155477522,0.33092871021564363,-7.592334823976012,0.02745240628567125,-2.3122321341989927
560,-0.8484469467222475,0.14941379148198236,0.3329784262597799,-8.776034899374507,1.5840930015027548,-1.5001201531438262
570,-0.8370745873252043,0.1564224922475052,0.33952928956536,-2.234558705124362,0.6297018731508546,1.0019530153908431
580,-0.8458463296511469,0.15812157655791925,0.3224870995013939,-1.0290755835433198,2.739851534795463,2.2728201210285786
590,-0.8349699024514906,0.16234157160890567,0.33967829793036075,-1.9947044813728358,3.069335403459302,1.9171981068244446
600,-0.8054663226035458,0.18019411895628487,0.3744752914121339,-5.9560346301664975,-0.8434852713514829,-2.2092899134757187
610,-0.8418405134392661,0.14397528816583305,0.33247012161727035,-2.961261439454007,-0.5126596484858121,0.013525481591797783
620,-0.8239794634935589,0.1673060571463021,0.35189578612064654,-2.6260840763028694,-1.1201639329533775,0.8980972832894696
630,-0.824922392791516,0.16059473830825186,0.3549411184072912,-0.7917385190988757,-0.4701968878447811,2.154802070912339
640,-0.8357297325042611,0.15879820307690057,0.34307051966653374,0.43777974946836745,1.5351514861112818,3.4237255816512713
650,-0.8462362010797632,0.1523437050884635,0.33681784671401604,-1.448758958908459,2.281177009303774,2.1165721900776466
660,-0.8538229430228981,0.13970937022681248,0.3265941269952033,-2.647447429890904,0.45516191769704206,-0.8901821262259046
670,-0.8521760881666366,0.13772692588632457,0.3289839733014564,-0.20003364888885078,0.8085018802400032,-0.3244645423786672
680,-0.8230663231475253,0.17029060853372002,0.35449403446842886,1.4781709181755098,0.19891153577329085,-1.0330396703826317
690,-0.8737209199290641,0.12032037074364124,0.3080628944878494,1.5766840228616092,0.6368989033479218,-1.2855253376151632
700,-0.8273645592450791,0.16256304761377888,0.3436009084842005,0.5078892537063875,0.27333087867471917,-1.9623222077875266
710,-0.8294105641439301,0.15890783224909127,0.35064402140471296,-1.9681438625352428,0.3447894795308569,-1.9309971801180446
720,-0.818403505491101,0.17034938567808747,0.3571124524072855,-0.40006372967687187,2.4176733807004753,1.2368079974803192
730,-0.8423237963961508,0.14767815887944252,0.32874385696937475,-0.8541779465456323,1.0541659381494537,0.3126802249250594
740,-0.840402780588027,0.1453048128747689,0.33251238354544654,-1.0282873260512517,-1.711875437478016,-2.4110842557074643
750,-0.8204798378191434,0.16425127008458446,0.3497092457023727,0.1735074545159131,-0.9448931635697867,-0.7087767600398618
760,-0.823722863325287,0.16355214340673152,0.34804241807003294,1.6155440350025048,2.428546118603106,2.886941266777215
770,-0.8435854598105599,0.1474041925291095,0.3406984868265949,-4.247222001973475,-1.2268056501811644,-0.9648027041749785
780,-0.8398548885534355,0.15761098040406302,0.3324940931365599,-5.448948788920337,-2.2417196559818797,-1.9761354246492244
790,-0.8395044738564524,0.15120492881458453,0.3365188440277676,-3.3367094906741315,-2.0596502190546726,-2.412977950376096
800,-0.8548192105944138,0.12363993339729243,0.32006046608597216,-0.3465049387992519,-0.46009193643844026,-0.07806331775792288
810,-0.8574385777472534,0.11189057197355894,0.3284483893128718,1.1906975908807502,0.6863564492949623,0.8137144308785644
820,-0.8286980361797082,0.16278062042626418,0.3419690142269158,2.5489920771792054,3.0177835298362488,1.9125232843564237
830,-0.8425008317685138,0.15346805815547207,0.3373244919312417,-0.8726521154820622,-1.23692168740386,-1.7125179474283445
840,-0.8647539828601858,0.13422678015779788,0.32241381808930364,-0.1993033866790193,-0.3577188351055853,-0.30372398803549866
850,-0.862651378546384,0.12761232984225437,0.3161524603884457,-0.5560548209156458,0.5639310338972715,0.05126846556457204
860,-0.838153989168508,0.15394533648330372,0.34357122540057067,-1.8707782420114474,-1.3155936462135507,-1.1848521817344078
870,-0.8772676517487594,0.11347432791771803,0.30850866503331037,-0.11497579246592177,-0.46476803798263233,0.26655297025390834
880,-0.8278416859698974,0.1621540317803255,0.3482645242320468,-0.7546214278213856,-1.3856492125160136,-0.8879185227086196
890,-0.8661784631896912,0.12728277995169654,0.31430119559634895,0.98236505544893,1.539358671804794,1.743372613460403
900,-0.8438059123847801,0.14894338722023562,0.34102766740857543,-2.4076173119498785,-1.0242852712953734,-1.1998548131091646
910,-0.8520380310291803,0.1430563450757235,0.3265152575663499,0.569763047263719,-1.1260442484828659,-1.391801284544878
920,-0.8230124519238173,0.17025985680595937,0.35435920913222263,3.8028350724417526,1.0259581209572155,0.6054545501741286
930,-0.8359730201615396,0.15805033996741097,0.3425332904661966,-0.21505180007613856,-1.444871556806083,-2.7978549776214896
