time_ms,ax,ay,az,gx,gy,gz
0,-0.9501268452925622,0.7958219758847811,0.6159620162513727,-0.2532200099185795,-1.5232185878796556,-1.1648375379065001
10,-0.90852442434875,0.8323047673345608,0.6412815520063166,-3.0735374947625282,-3.298997218381198,-3.3084181311658494
20,-0.9385753003023084,0.7918227481806814,0.6208512819826335,1.313935795470094,3.101414178555735,1.929194748830439
30,-0.96670895337528,0.7797566391599745,0.6046881961217054,-0.9866923235169056,0.8956878653942861,-0.8667853581994793
40,-0.9623005997431657,0.7812950394468429,0.6176658874519189,0.7536286073877319,1.240376619810701,0.8899170159511016
50,-0.9474670945090948,0.7913452983548391,0.622270430064463,-2.259110896493679,-2.8604015415233777,-2.576065704301015
60,-0.9469104810277936,0.7960004250703007,0.6114894509201232,2.120338959284622,0.9574683503416413,1.3681730148465217
70,-0.9323857608011507,0.8137152978786772,0.6282655954947414,1.1716719877579453,-0.08416778596848196,0.28998843669268587
80,-0.9474929687652884,0.8000071861589211,0.6136756324498772,0.9157995442141741,0.43048413389173834,0.2585141983188304
90,-0.9129315059634731,0.8343392872681986,0.6460738809851136,-2.5293939315619025,-2.0158832913275586,-2.6339128691475917
100,-0.9794861417068583,0.7644171460554753,0.5876640495406421,-0.980133401215068,-0.9116524185103229,-1.2483191088992482
110,-0.9475580072993527,0.7968865627455175,0.6241473683996915,3.2447320630424157,1.7790298304602148,1.7873276147094175
120,-0.9337679058080931,0.8105853398266311,0.6274552704282634,2.391971742722088,1.1600043468157666,1.2215864137680956
130,-0.9470592788759852,0.7903348504780555,0.5990986363905821,-0.5500566166800118,-0.2479090563718217,-0.8334403996493728
140,-0.9585345206146969,0.7767429951732742,0.604241189529761,-1.0914344215052578,0.9470618746681129,-0.8335471775472669
150,-0.9606934998844971,0.7780631706098098,0.6223485158979556,0.0675239421577627,1.4155097850602658,0.3933790497027946
160,-0.943027591113229,0.7952296665289973,0.6341209339646247,-2.487755219965711,-2.5239696632799364,-2.448100930232554
170,-0.8996134259399255,0.8365002900077055,0.660409338844642,0.40923709842746714,-2.0688664343537146,-1.2510955363132474
180,-0.905213712570024,0.8464941823405584,0.6610885035040623,1.2874268931193336,-1.2384987110107906,-0.7518567149389486
190,-0.9368772793341973,0.8234044467034816,0.6637388494569921,-0.3042408897425932,-3.428379546163135,-2.10168416967059
200,-0.9273758321789112,0.8101094504423,0.658832785475846,-0.8107527539438405,-2.2375948487188593,-1.3504945791243266
210,-0.9217921845168292,0.8193311677448878,0.6695169699381286,-0.2801174811793161,-2.804241771301969,-0.22027038169893665
220,-0.963420770047591,0.7793081034648602,0.6370960227367625,0.11567053282087336,-5.241828186207931,-0.9768009269952406
230,-0.9474175528571439,0.7929640518326281,0.6321517612732912,-2.541381110816211,-3.9463774765099857,-2.6525593205314975
240,-0.9523635126547999,0.7951443804506494,0.6088534010896901,-6.158666805409065,-0.6355613795842712,-3.0528813361718585
250,-0.952827578692412,0.794381054937445,0.6229958096955338,-7.505321900731996,-1.740226482932286,-3.907615552565351
260,-0.9362702589023086,0.8097572994616203,0.6613374451114129,-5.459435184675962,-2.042780421732967,-3.530409976792326
270,-0.9371952626467535,0.7883310691837048,0.6534291013992554,-5.151514951925053,-4.364568317172478,-3.9151979527128287
280,-0.9274766760206584,0.7989684779357049,0.671357053416638,-5.180689250021105,-5.670496969758695,-3.7786444448299434
290,-0.927672175098642,0.8032734872311376,0.6575876988493439,-1.219679747722564,-3.852020392482718,-0.30428965224505927
300,-0.9224805101958029,0.8603616102980023,0.574622575721005,4.2406972402082435,-9.602634096368789,-0.5742608546741337
310,-0.9086116810973948,0.7947052713147554,0.6446496505588789,0.22323168311643382,-13.06984910522117,-2.993822687714928
320,-0.9199443569835725,0.7808069632130769,0.6624332553519956,0.3828897339119681,-13.445145916478893,-2.4740865032709
330,-0.9301502652851278,0.7818339742564276,0.6700663232820978,15.440544603878909,-8.948222405553377,6.339656048186162
340,-0.9281608583801629,0.7369703320188223,0.6280560323548462,11.266403117941783,-9.384156689842895,4.829971797103651
350,-0.9124567385698831,0.796578883672915,0.6888735470963829,4.417136870986826,-11.980488174269407,-0.5548950396489463
360,-0.960926585019393,0.7772322311119348,0.6411344295148019,2.085750192646191,-13.183719021537902,-2.471569460969519
370,-0.9191936160976092,0.8051633085317281,0.6669012904106885,1.3028304391591252,-13.043689274162226,-1.8878266682302105
380,-0.9136532974608665,0.8225543886630601,0.6495644559697509,1.1612574000209936,-11.987526382011016,-1.7477517655678922
390,-0.9228796955353666,0.8074401350215462,0.6133881830997678,2.8240661218956133,-7.71046013938943,-0.18166029101399106
400,-0.9330776991875711,0.7529934708622489,0.6514752345571843,2.1983120562415097,-4.867405548585152,-0.48630596233826795
410,-0.9547726385666484,0.757651237594525,0.6773996001415431,-0.2392909208005641,-7.7024541009896526,-5.2349683665500715
420,-0.9221062816979116,0.8007635484062161,0.6868486801524147,-2.515754478590817,-9.414508040266211,-8.458811925673636
430,-0.9091985027033445,0.8010850961186143,0.6243538480790907,-5.211461463313848,3.185959458018237,-8.658343445722396
440,-0.9183518025718734,0.8038879899891425,0.6703258425560578,-7.097418337263764,2.8981078718829703,-11.601912979656595
450,-0.9075074957392778,0.7514311027923931,0.6573523198393197,-6.533331391845916,5.836139696911889,-14.825161981228211
460,-0.9041501652567058,0.7908994145279179,0.6734670819562537,-9.656407743054773,3.8343006002569195,-19.626528693907385
470,-0.9412169324065952,0.7859951424417572,0.670131447163367,-11.830616505639469,4.205083644689134,-22.108982648905062
480,-0.9642031307491667,0.8140122982830238,0.7083869692955911,-13.90861651381465,-4.3561195343291015,-25.594389893685964
490,-0.9699269352674916,0.7213906542199503,0.642773945301333,-3.3379243332739583,-3.4232379056625484,-11.43623008234903
500,-0.9475638706662728,0.7071678067065214,0.6392737889902872,2.4498308309888843,-1.9371964133938273,-3.447988747726189
510,-0.9228255130009879,0.7561608059372579,0.6676929568737844,-0.6790236125891287,-5.66908980838293,-5.255126484817923
520,-0.924811133240504,0.7674448230626332,0.6565942203639861,5.963653269504051,2.252253175244525,3.4350100945345505
530,-0.9171100499747805,0.7778803599989301,0.6615370658625949,-3.6992777546333064,-6.811234498827345,-7.009614509640632
540,-0.9282773007690226,0.7710117282230243,0.6591694325731074,-3.706454306361974,-6.505842769337283,-9.413181677349906
550,-0.9481495875117717,0.732827928829462,0.6161418605149172,-11.86439806500797,-3.9452699642857474,-17.266985684105357
560,-0.9739819964757818,0.6975908054428099,0.591028947481239,-14.758385082155522,13.054541718153033,-20.742288771342665
570,-1.0516774953035015,0.6541192996614683,0.6729833192069223,-3.7243591126331905,22.810264963650507,-10.779932040734884
580,-0.8864778393663862,0.5524409250817174,0.5983643961266353,-1.7218160105634892,30.378703678941275,-16.831814658685932
590,-0.9074202660404225,0.5149553422725203,0.7817937109589332,1.1947619021340707,32.23665832244821,-14.40859005501886
600,-0.839043172226791,0.7784025471490978,0.28162990928731907,-1.1374495016287245,41.56788159252806,-7.95418758875815
610,-1.0583892542498166,0.7463146485807844,0.3756724915318922,-14.11962637330202,45.23472102628754,-0.8377009709581786
620,-1.0087332503454418,0.6987117085267424,0.6330267920345352,-15.383611924908115,44.032103640823344,11.053601039282945
630,-0.8819362469670609,0.8072177423288331,0.6234123433277655,-2.833675451309921,41.33341766295531,10.172029268747345
640,-1.0643548649609182,0.7410557098872718,1.0616502120010234,-1.8747824121636298,18.94489336734468,5.019698716439082
650,-0.9548790873876588,0.6999028136689326,0.8411379639008547,-7.744469671778177,19.557868938004646,-1.4245941638606767
660,-0.8899393005895277,0.6904868965162767,0.6091446431150156,-2.776653978699434,28.912272497974524,1.594653661376706
670,-0.9164826780018634,0.7358313005362317,0.7114314114021356,-8.927781039709167,21.304304335693057,-2.8849903017953493
680,-0.9610863346625214,0.71346641483959,0.6839673328481858,-5.936976676247186,19.626432604626388,0.9286856452830599
690,-0.9438171876440171,0.7090987566480303,0.6296696429566317,0.6616878804155057,11.67024238238012,2.127323905794283
700,-0.9470772716765014,0.6950865572436686,0.6338790756889815,6.283018694801603,8.334196510997463,4.671416188477478
710,-0.953424079429863,0.698475068503808,0.7149457397672069,2.547439186550676,2.028133633152132,1.6117028736870365
720,-0.9176188843444419,0.7454062479643647,0.590000360400415,1.2011299592377154,1.491265322990202,0.7456302697444944
730,-0.9597657910846331,0.7290810944400271,0.5869543910910888,-1.4659871210932365,-0.493093711735603,-1.441492027550321
740,-0.9661838233125595,0.706494401210832,0.5541042161999981,-1.4041357333689497,-1.348057925025073,-0.9035838843481433
750,-0.9439572778960368,0.7265198571896124,0.5725316920451737,1.031839711103796,1.8621182227956008,3.288010341554807
760,-0.9404673641225983,0.7281566245971198,0.5752943820299379,-0.8303612972517245,0.6335889797656069,1.361189839991916
770,-0.9411301159226902,0.7225417171312386,0.5652084697003309,1.6425121161472012,1.242129585473756,2.5488294641907694
780,-0.93343666667944,0.7357567451525646,0.5717679167775929,0.6437981410859701,2.273199718293907,2.0388638781232795
790,-0.9459206569509696,0.7312428102698256,0.5700388859442723,-2.573047847249498,-1.0411094218758328,-2.0715476268527837
800,-0.9470581942600101,0.7279327269732316,0.5796064616104294,-0.8523928727516107,-0.6668121294668496,-0.9660400160575959
810,-0.9564870071937035,0.716677044149682,0.5595335843517839,1.9263559439402305,1.2805079208242425,2.8071247394362353
820,-0.9540984500342776,0.7278315777068258,0.5596936837489995,4.3494043467395604,4.642483415556814,6.698177883113113
830,-0.9554334405863188,0.736855726615537,0.5717008842646657,-0.4444342351253806,1.1909794571624026,2.279895718419313
840,-0.9534465873275776,0.7393346461492686,0.5752554394033342,-0.8086675533962749,0.8957841251027194,1.7524470515153945
850,-0.9492567963434762,0.7443919097096507,0.5837688298911946,-0.16114977904963995,1.5224657984058432,3.308723174437702
860,-0.9636253920611917,0.7475265966188108,0.5924769892242843,-4.695997567044004,-3.4194905357847794,0.23426444642453337
870,-1.0094835485799738,0.7136126083320398,0.5571933262071936,-1.1482891586286863,-5.389272164902906,6.143145692347353
880,-1.0152712244375461,0.694402255176431,0.5380179896465491,13.517891374966808,-18.345675174760434,26.60995945085439
890,-0.9302678281042366,0.6949693061512388,0.532771533207097,14.019577432907413,-19.694012202336683,26.1004576533925
900,-0.8740760967898232,0.7527149217528242,0.5912472764678126,14.218887618888362,-16.740259673840512,24.724636853321886
910,-0.9193481848286756,0.7459291503371553,0.6150548926240607,13.498733556749826,-16.665150042492005,21.099264960520127
920,-0.911129128521489,0.7829600803390708,0.6231266871822914,15.702133412908092,-16.349615475408747,17.930639978527577
930,-0.9049891782427693,0.797617744488996,0.6061150510313577,15.029559523930539,-15.611323766622478,15.142197497273141
940,-0.9020502484156729,0.8274425027200455,0.6076887212830191,1.6993432724269777,-7.758957142209583,2.8426964470315754
950,-0.9446714107007942,0.7798123505116834,0.587326927394349,0.2061650059378597,-0.7453735036023509,0.2159585407446603
960,-0.9551542555188884,0.7616478762532889,0.6048857331796632,0.02454976910043971,-2.697349111501122,-1.1032107915916511
970,-0.9607579727577611,0.744497767327113,0.5984608562212691,2.754817475035736,-2.910786113231109,0.9383373784066955
980,-0.9287138833044072,0.7644543316945733,0.6289613129473457,6.132378588863801,-2.1339095406569495,4.171165924508385
990,-0.9589538023767983,0.7559686679513595,0.6195339108113913,4.619538042318204,-5.974535057834014,2.36975124547402
1000,-0.9620632973159734,0.7737900710117765,0.6022220462134942,7.362295756571168,-5.354556936719829,3.2279196281756986
1010,-0.9830726509302125,0.7475550388288733,0.5608875497981873,0.8245353754120155,-0.9457961033890636,-0.07281078515317818
1020,-0.9507207474154541,0.8024913270119441,0.6144566534488699,1.0130999630167903,-0.6490495921739519,-0.11968849945820748
1030,-0.946877445796126,0.7815761697007892,0.6162859306766546,2.3134842254260755,0.17155888703191957,1.6850676892700196
1040,-0.9525671752412184,0.7599263041187726,0.6190114886636359,3.236867773804907,-0.5407072529817087,2.165500076690776
1050,-0.9737085968724819,0.7515166797554985,0.5683587497350354,-0.10171347115478868,-2.632013416223728,0.3576917570681062
1060,-0.950593307995762,0.7696081634573397,0.6128541831352142,-1.3341612119249457,-4.086033474515219,-0.4434058165976362
1070,-0.9483910957001463,0.7546850871590947,0.6012640333645756,1.2528364907839644,-4.937409440054004,-1.534689258684138
1080,-0.9410727752459573,0.7738945737001173,0.6051147407996572,0.05334780714724374,-4.024898645294792,-1.6217798890314632
1090,-0.9405172072620196,0.7914340957946978,0.6070598068436179,0.6201309163163886,-1.746098612309937,0.43988356583275834
1100,-0.8971543970151082,0.8358670216447522,0.6626632371137263,-0.0504040989042166,-3.167356293559347,-0.24596426228804125
1110,-0.9670972051635638,0.7587685350622149,0.5883030409857345,1.3733205708016214,-1.859703960635662,1.0056925767304663
1120,-0.9679933573934669,0.7617864821414648,0.5879518160134506,0.9585417124449362,-0.1992330301361962,1.6061676503399118
1130,-0.9808181070819263,0.7537761130345597,0.588403859954478,-2.1601690726633205,-3.0346314897642923,-1.3795780607502948
1140,-0.9515640782025504,0.7752113757308008,0.6161968942811125,2.063154658509893,-1.6431186664972817,1.0958464247555484
1150,-0.9493577690659195,0.7737848259311986,0.6271735842349138,2.2155166253075,-2.588065814591988,0.8406630897365739
1160,-0.9533675023856859,0.7635774238859347,0.6301769087336474,0.09762003901322402,-5.020207876488293,-1.1515297275453338
1170,-0.9241124674957684,0.7960794667351431,0.6260030538058008,-4.674724240017779,-5.6815992195825995,-3.296231081318926
1180,-0.9274799697829295,0.8038255989017569,0.6237522070091023,-0.34218823261509224,-0.34311650532435456,1.471451364705465
1190,-0.9519669603506752,0.7598001087393695,0.6033426828902353,-3.9764398875464,-2.8814225271894474,-2.007389416074525
1200,-0.9549991656214897,0.7681861493126604,0.6031812087438732,1.1822216994204329,-2.8917966854397097,0.524028478096199
1210,-0.9490683732270071,0.7825575804386398,0.6181557767686043,2.300231631783326,-1.715437747460853,2.0173318766337744
1220,-0.9276677709762242,0.7947651387796913,0.5964152349910732,4.262702780586594,-1.8794149189356277,1.875569257033935
1230,-0.9259586715532686,0.7922439940950168,0.6065515812300808,3.1174133908075774,0.5827631137048409,3.0955962527042464
1240,-0.9355329086580697,0.7864619157098884,0.6137569813956164,-3.438746790666552,-2.406286572099055,-1.5996711451401773
1250,-0.9832654566934855,0.7476078103277005,0.5754836958856445,-2.278924587344876,-0.8600945275570928,-1.099623580385405
1260,-0.9399649722097684,0.7888922859588717,0.627334393918784,2.762623313124071,1.9357083689915007,3.114884475331811
1270,-0.9379239909190091,0.784094736557661,0.6283560974847422,0.4450857893873432,-2.337130690263498,0.29199358326174263
1280,-0.9296713284102233,0.7961781624285345,0.6248139510695319,0.8815339827638968,-1.379567922660889,0.5654436889974468
1290,-0.9346276373721014,0.8004627028285335,0.6200416410712923,-1.5694731785299734,-2.3834029772928647,-1.0946066133769081
1300,-0.9452397576679032,0.7947074450868871,0.6264310035821122,-2.680599500014518,-3.3457417019228144,-1.925088808761976
1310,-0.9315202796413307,0.8058687575125838,0.6384924207198734,1.88587621567647,0.8436702767473725,2.4870577355343895
1320,-0.9401827693155275,0.7930416217655276,0.6331164585317718,0.40467049433790003,-2.042790861877915,0.3765885892941403
1330,-0.9358360510914902,0.7727454218762749,0.6357881556962731,5.695979001824153,-0.19190367676506437,3.737890724888362
1340,-0.9441047021328282,0.7387272201540589,0.5819134565373215,12.900564828110959,-0.41064964915403346,4.541706396928433
1350,-0.9379163008033315,0.7712331515292128,0.6290520563338367,3.930660925622111,-1.6462414736433164,0.9961052713655909
1360,-0.9382963260152193,0.7996228311364838,0.622000574549794,-0.9347848405738943,-5.165011964687661,-2.696758505939154
1370,-0.9452324109324037,0.7865102949844928,0.6250797322065293,2.577475155987633,-1.2267556140973945,0.9461683054755495
1380,-0.9173583483255313,0.8096805085374477,0.6277336316102754,1.7941272324213027,-1.1328721581256807,0.18414348076715004
1390,-0.9322001993138499,0.8012297780640744,0.6282478336533096,-2.0599588083875546,-0.9167593080508422,-1.1804371320493146
1400,-0.9330125593615912,0.8015662182669765,0.647317661239905,-3.5025941128177926,-1.6106802429682587,-1.6850223469909091
1410,-0.947566120443098,0.7757441539164202,0.6332157940004194,-1.1915185998130435,-1.2348385613511725,-0.3537503023288393
1420,-0.9382625733945763,0.7805159738000546,0.6399123418137836,-1.0055055691326462,-2.33864787560352,-1.370192246537976
1430,-0.9477405990798433,0.7749519758235212,0.6236832457567126,1.8325179790528694,-0.3993004865886587,0.3980190464980386
1440,-0.9063138931244717,0.8152299918693847,0.640542626347735,-0.7535081547164773,-3.177056514613411,-2.646042581554696
1450,-0.9544622330947021,0.7754884691288596,0.5751440565417275,0.486219220213453,-0.22436865001389955,-0.9144730505359063
1460,-0.9633514158805853,0.7683083563005012,0.6177036853025625,-2.1695913516035463,0.44431160908370365,-1.5901025601011463
1470,-0.9675667361621443,0.7534877963494118,0.6063967252283076,1.5946357614419817,3.211727026564211,2.1637673460928237
1480,-0.9387954537776229,0.7844251923837358,0.633137965526219,2.2791578319945964,2.7622639174449763,2.422046114292204
1490,-0.9663935460490963,0.7702783578288863,0.615577275329481,-1.4024777444035632,-1.6105526304914761,-0.7440301811536923
1500,-0.9402022945436017,0.790665913386134,0.6382060375201112,0.7978328563405395,-0.11077937886256478,1.6141910977965335
1510,-0.9148322124429336,0.8007270794085456,0.6504908084337779,3.913475696155187,2.109617869229757,3.787811911859136
1520,-0.9363794721687552,0.7917409430774022,0.629995425671935,0.642481255464008,2.1772046074292914,0.9742128369462292
1530,-0.9464693585838176,0.7881083814864539,0.6194959542634978,0.13441965864988648,2.8673778729696533,0.4672432908326367
1540,-0.937004172142458,0.7917571030218007,0.6286635552552947,-5.08772822317783,-1.9578641195285587,-4.229158396519045
1550,-0.9251621485490974,0.8008007831300235,0.6440762022716235,-2.521902417007109,0.378434313539729,-1.4683738121176333
1560,-0.9464722149000965,0.7778276118133696,0.632331341517194,-2.58152072174765,-0.7085229185452402,-1.93025513413864
1570,-0.9620643513752005,0.7568332688431225,0.6259342286990752,-0.6708186887534179,-0.2569116198721176,-0.35588275938183983
1580,-0.9330197016209896,0.7922594047330552,0.6501787891061179,-2.420242793117168,-2.7344946012388394,-2.2241345143315217
1590,-0.9272528868863179,0.8137886397523232,0.6383791009127411,-0.8836690929724198,-0.06162976699849765,-0.4290186652634963
1600,-0.9259837951305435,0.8052143081472978,0.6354133503716619,-3.356425436070041,-1.2690738425580266,-2.277699440577474
1610,-0.9636900397042616,0.7606964767937926,0.6174713848708526,-2.533493711753524,-0.5851417286151906,-1.9019976534432685
1620,-0.9618716580341067,0.7666840964114737,0.6170733488719888,-2.4472649901780534,-1.6367490173481736,-2.0613968612743374
1630,-0.9524349937814435,0.7667375582334419,0.6160684352672697,-0.14335991669520767,-0.2654885073678754,-0.10568027929167931
1640,-0.930335970788074,0.7905224507468893,0.6367904383598851,-1.1578651316467818,-1.3556571356032472,-0.522751658857032
1650,-0.9677780220644001,0.759472703577588,0.5964567384114601,0.6180282824965776,0.8389510642602233,0.8093427404737563
1660,-0.922214960850721,0.802156529181178,0.6419600219065581,1.8461374852796886,2.478309730847494,2.1678147889318975
1670,-0.9504067619896698,0.7767654548310083,0.6189370034415095,-2.9457993364620543,-1.9263671755545884,-2.3573729563797357
1680,-0.9513832869431378,0.777814960954503,0.6197301712713041,1.2072372039620138,2.104032001806172,1.7854797551628947
1690,-0.9393551674038573,0.7937132730962984,0.6316455665287833,-0.6117249318225666,0.14886753833875932,-0.11162797775859784
1700,-0.9429693093485076,0.7867331796777656,0.6230898992268286,2.6557025272541215,2.998377227399755,2.9912902192832918
1710,-0.9328538045948463,0.7917868052384032,0.6312419179499952,-1.8920336938145677,-1.517584648552274,-1.4167607576243169
1720,-0.9416942336860329,0.7798348797139455,0.6235452284949893,-0.4621185577425183,-0.0018595395239097146,-0.26107770148524845
1730,-0.9254484090515843,0.7954522572947363,0.6418866131497879,-0.36788305535245025,-0.2773269912300631,-0.8554011832990795
1740,-0.9489219394196308,0.780631882530404,0.6270675350283982,-1.2012622444424996,-1.2105983917687426,-1.3341928476648879
1750,-0.9668002521716905,0.7675572017182444,0.6100570316671515,-0.45454784915890956,-1.4867385414252654,-0.44310997176182365
1760,-0.9551749056840638,0.7788770053396545,0.616901837913206,-2.2025205086042496,-3.616652139288827,-2.2900234341265397
1770,-0.9662536090306505,0.7585592042051501,0.6030268166763311,1.4935987028204873,0.489502684085168,2.0243676611178936
1780,-0.951031866026028,0.7762094131178667,0.6160248304769224,-1.2187383794346216,-0.4062269302814534,-0.846686876492364
