time_ms,ax,ay,az,gx,gy,gz
0,-0.8409819542141892,0.11328607782598282,0.3254584194994323,3.2059407316862742,0.9453108457237028,3.9311859757494534
10,-0.8306305987514913,0.1242679753305271,0.34146495584951103,-0.7939610647768529,-1.825904210538454,0.051841878466772684
20,-0.847615426160736,0.11537507417974305,0.32446066634670373,1.572047522198669,0.9725972869217479,2.385664985200785
30,-0.8541621258389193,0.09371791457685646,0.31225728937075165,-0.0891418957375012,0.6136319582710317,0.23384472002436352
40,-0.8344045612060629,0.11478694945506224,0.33335309729470647,-2.5184881357218467,-1.2901182967088378,-1.9102061179520136
50,-0.8440642178838221,0.10895794435584184,0.32939314405128456,0.8346513230535749,1.018526291730049,1.302315502712906
60,-0.8209477005586778,0.13139811801580573,0.3511584946316361,3.535967257605897,2.7042539573781554,3.895477250533102
70,-0.8601564804061615,0.09614273789792428,0.3096060350719939,1.884705050034397,0.9472291933799397,2.2557099683068063
80,-0.8683333135276985,0.09194198566012099,0.29712722883602805,0.0795492686933823,-0.28494784860892186,0.656146765972581
90,-0.846340478878543,0.11067463143452574,0.31315181119949065,2.2727805966050467,2.9931254406971277,3.54057065807414
100,-0.8413572278906263,0.11508959112233631,0.32198315278970957,-0.16966198530364274,1.236743250067116,1.6131669577070546
110,-0.85239460239224,0.10752624680874148,0.31156147638909343,-1.8225295102672672,-1.6926864362545064,-0.3154345344270435
120,-0.8587588481750336,0.1025837042220556,0.3114096706151394,3.0400499236014142,2.7214857168294624,4.363778935130524
130,-0.8380775018810948,0.12775936592118195,0.33308113968681347,0.9922218763207953,1.094883118155783,1.909533293002434
140,-0.8473132607369891,0.11556033954140382,0.3165630937849116,-0.49902172497738523,0.6778463832801468,0.9592896978372478
150,-0.8415427020285978,0.1206195716599023,0.32319771628317506,-0.9141226427613887,0.5434782939402332,0.11685562247520442
160,-0.8538300390387635,0.10102629109466534,0.3100799253264037,0.5748327183086357,1.0194870634396884,1.1945319294283325
170,-0.843076783400167,0.11217838175328564,0.31728233243734555,0.12980255570359778,0.4556861234529738,1.3053423402047468
180,-0.8329014859230697,0.12139445003024799,0.33137112154239956,-0.6387971833237107,-0.5211224524241811,0.8940852317449055
190,-0.848049972521812,0.10962366446675188,0.3216131523444827,-0.7579457785060227,-0.42382785076161167,1.2021253996478356
200,-0.8416718958107268,0.11572079153002922,0.33162411958098265,-0.03609004821746736,0.34572665631084465,2.0908389344914986
210,-0.8473246772436213,0.1099127497614273,0.325582761563242,2.291010890047682,2.2349433051190823,4.472814393748447
220,-0.8569862531456905,0.11407019269032305,0.32035120293660974,3.920626087018769,2.018637826781206,8.010050310589945
230,-0.8450726362070744,0.13435060277226857,0.34266579490915355,3.2311564424182038,-1.9372537915001469,11.237999098622549
240,-0.8216878594027345,0.13482253207185876,0.35217556460062455,4.675182970176663,-1.3980424578636377,15.992046849350382
250,-0.8269159736882699,0.1351873076772996,0.35222845285224064,1.7290908866935628,-3.598275599760239,19.455561987154628
260,-0.8819317675079507,0.10741544234567856,0.5121384655927202,2.9762288678288775,-5.669071660604961,29.46407605974227
270,-0.9495925353911482,0.05379265616903055,0.4895799178648225,21.983240413207593,-20.494648981582888,17.96724800076162
280,-1.025621751788906,0.1460944967103166,0.5406699042495047,30.39908823887452,-33.818660437181336,14.138023207075104
290,-0.6536925599531656,0.14967885491275557,0.2547994133261383,14.224375816864628,-26.030681699711373,7.042947033542207
300,-0.6193483887014387,0.14948136499180686,0.2324922766679646,8.225003194069776,-13.515891260231012,2.0478410153631277
310,-0.758603437007495,0.1351394356871236,0.34467419930527415,1.2360201964597883,-8.097727117341185,-5.105811751090368
320,-0.8710852867861346,0.14914738665472524,0.39100150919806453,-8.839568840699341,-13.214584884795416,-17.93597592458193
330,-0.8609211975972838,0.22739609502130162,0.38460679789544716,-7.580786620152473,-9.109855263058273,-16.17343992329183
340,-0.7804196828516278,0.2630594014953643,0.2502722729382615,-20.63321181255977,-9.154353086901732,-21.640747745409577
350,-0.830858919526653,0.24741115152845747,0.3843127101590118,-25.275215144841678,1.2133167556365343,-17.801179026831747
360,-1.0611372389521843,0.10096150378392894,0.6258744169825787,-20.609962056504127,0.8799980671350902,-10.473772311722135
370,-0.8870023409954992,-0.012035407543846997,0.40016438505335994,-18.383551290677815,-13.10691326502576,-11.653338608954638
380,-0.7617211482163548,-0.11837985815061353,0.3942245638727159,-24.533360254574667,-18.316843460762293,-27.389370157202602
390,-0.7337035867868338,-0.030886484929150006,0.2709667189424979,-10.456936617127358,-26.21010926556697,-23.38101634398314
400,-0.825059181166467,0.10689731935480677,0.20398575408913008,15.354340074685664,-27.254609426441696,-9.761788990213502
410,-0.9201963748642904,0.34488093698150973,0.13383921466704227,0.17689760947797628,-14.140561686481512,-7.0690987115254735
420,-0.8621294586123961,0.1352876288213358,0.3180645603185725,0.4831421432277585,-3.826460124571601,2.51831939344567
430,-0.8313162356467703,0.11810057088099599,0.38529816692910573,9.418023635538145,1.045075615358312,7.02123640835627
440,-0.8183896642737946,0.13651961398357107,0.36841044918068355,1.6956757307994934,-0.9856257568437246,-0.6420064515367934
450,-0.884728911546432,0.05725282407675322,0.24936589517627736,-8.629918253665414,-2.629584948839589,-11.841928880368089
460,-0.9016917294646747,0.10506564646266986,0.2047105501995337,-2.572554200206792,2.0086558957878764,-14.249011709103076
470,-0.9630263021976885,0.14583948501555755,0.20343193614897676,27.839628156527613,13.478295450831345,-4.313372645656977
480,-0.9409968487530728,0.19724661770181337,0.3562163077196753,48.588295872917,29.27440669380314,7.543295157604506
490,-0.7723474871991362,0.2949202035390548,0.5219583309374973,24.044529957400137,42.47423976132853,8.391572123811736
500,-0.7118899912783777,0.24323696212425092,0.4675924560542483,-5.703283425615659,35.83168548574075,-0.8223381171189214
510,-0.8015483062999398,0.10736572673500702,0.6020602042277935,26.205082274961246,14.058172027815175,1.079867957862955
520,-0.7132482313970848,0.24673314035002847,0.7354817676594297,6.97167119768039,6.8895862164415185,-9.410695273073763
530,-0.7536786435077408,0.16916929695904198,0.5161943485396547,4.777766765507575,4.846248095365839,-4.148770399188793
540,-0.8913324232444846,0.08263860366662976,0.3200355537428233,-2.4769623716013824,-0.7170918511970199,-7.934473237528147
550,-0.8525544377732382,0.16238425826822597,0.3644543569803561,-2.8946329896306295,-9.5019976221277,-1.940123107491861
560,-0.8504012928809821,0.15484951400827257,0.32600428252915964,-7.644670711191932,-10.525844647196653,-5.045463609877041
570,-0.8498887513869453,0.18223643188123848,0.30850278760656985,-8.540640665776245,-5.341240575312614,-2.4922923968564414
580,-0.8250223715862639,0.35622562557867293,0.3069740908644631,-6.376816397865343,9.130292270656811,19.74251478822882
590,-0.7686804697430547,0.24720200912443085,0.3867735903596842,-5.896686564430437,15.459567005826239,31.910281769517017
600,-0.7288606255778599,0.10214993118989889,0.3832711377990712,-10.726326222907314,10.581383358524974,22.166616344244417
610,-0.8201602433818579,-0.019601615324614557,0.316807612654179,-16.206354717268137,5.697977010725403,1.9261831074492444
620,-0.8550536515675063,-0.06662860379535993,0.38427952244917357,-10.825462584392328,0.3788059040091265,-12.187827812716233
630,-0.8719376089604043,-0.11642522753588651,0.3684565636078753,10.787707140653918,1.9426979061041239,-4.612303616789647
640,-0.8692352894109185,-0.33962911372260796,0.40689486711705514,8.949722683042477,0.9948785097099995,-12.86067711467007
650,-0.6728903436998394,-0.42521614719427636,0.4021077923394112,4.641217787398684,-13.421032066556721,-45.54136997822424
660,-0.7662699830049037,0.2172295833992774,0.14720165983637104,17.070455254417695,-13.216392963416402,-31.26926069880815
670,-0.9353748284524895,0.0950279911590943,0.28418218564516273,59.348818676153826,-2.37446469504202,0.7964356606217218
680,-0.8523193156041327,0.22742638849913868,0.31699521755816623,15.616256015263515,3.012657569759625,9.289270617828194
690,-0.8402031731288062,0.20463553510033816,0.32481980876321076,-2.9479871593088536,4.84474294966982,5.300656733599881
700,-0.8507243045284503,0.17136238201804013,0.33076717571435943,-7.799947747495746,1.1591395295285989,-6.347496940777006
710,-0.8555799102209585,0.13199263214534768,0.3185535562769958,-5.817489221181185,1.870111540796349,-9.6828150933754
720,-0.8440002164840171,0.12604371987953053,0.3268062594431713,-7.432083939412741,-1.329751827985595,-13.221738516469514
730,-0.8250929357469744,0.13728269270497565,0.3485154435570907,-6.622106321006836,-2.7549208796743545,-12.561214186268657
740,-0.831809927946532,0.12568315834383526,0.3457519733495288,-3.3855730548650547,-1.49142147635891,-5.0261351589589385
750,-0.8397191532110646,0.12244255784222524,0.338063995236677,-1.5914139782480627,-1.5180761141081327,0.21965377362256655
760,-0.8419036917723882,0.12593729390701744,0.33059140087737005,6.147837327029691,4.86176927970385,5.655988219357907
770,-0.8347623919325522,0.12921313803830647,0.338256995951371,0.6761159757879277,-0.289951927277181,-0.8227903940346654
780,-0.8448609608050576,0.12444774277922527,0.3304624109329161,1.0862565214173283,0.03354246915564578,-1.8178125039155315
790,-0.8501033538540571,0.12182541860304322,0.3196538708877833,1.0263624110623906,0.3900875188606594,-2.6009445925218015
800,-0.8587221395846059,0.10294887516138515,0.32094620332190094,-2.930173685878418,-1.3114523235320756,-5.991703001072844
810,-0.836840630361665,0.10836510379716255,0.334513376499652,0.8054586002721067,1.7794310283625916,0.05116619450003346
820,-0.8514263178229765,0.09516188707559467,0.3227985435436782,1.9691765332581765,0.10625108991164534,2.357197929308496
830,-0.8522521601627305,0.10292569664805351,0.3242243782270229,4.751940055053662,0.6115031907613112,6.409443888968828
840,-0.8521835214546837,0.10728316674673916,0.32676065514516706,3.47127520144183,-0.8211680536414625,6.189464748238155
850,-0.8452624581117175,0.11151409132929761,0.3246426640786393,3.791525271344085,-0.7375988525024668,6.091532256762557
860,-0.8383450798771431,0.12796244782690527,0.33483259278594496,3.553726247113092,0.11037361274858104,4.84209570765893
870,-0.8357983162769342,0.13505365448945678,0.3410396745338726,0.488743717952798,0.9039828592585788,-0.18089413608792754
880,-0.8454677852245106,0.11160927690700483,0.32521775732351776,-2.1898958789334353,1.2290183988410788,-4.075837071804125
890,-0.8746084014320117,0.07088739271568453,0.29624057165855394,-0.23531299904998226,2.44491451571314,-1.5041420275551913
900,-0.8267850282783792,0.119927778457032,0.35026487593042693,-1.2367612022042789,-0.5008167669135626,-1.7576557963920525
910,-0.8505389611820485,0.09617637582518167,0.32274287957754244,3.934350144805837,2.962097657234171,5.083854700980948
920,-0.8410756605261012,0.12460642965142522,0.3353339985843959,8.239647308784331,5.699889421898895,10.105627844604193
930,-0.839398022649408,0.13584025890636778,0.33162615050249755,2.5389380071482313,0.23095251002916894,4.671159888586124
940,-0.8523424019924423,0.12563620430628633,0.3276023843462214,0.5031833467031729,-0.8453954278423963,-1.4683868048996098
950,-0.818749669501856,0.1510604555324229,0.35860431271708765,0.02528665455791501,0.7506152622557889,-1.6520500509299776
960,-0.8110160548889781,0.15520417774185583,0.36045530860585573,-4.094334340445241,-2.5499667664667034,-5.720429551919798
970,-0.8367071096856934,0.12333492229280746,0.3299560225004796,-0.7637484449286835,-0.5762810660873998,-3.5724561534509855
980,-0.83941851322155,0.11883061727490604,0.32917721375785114,0.8401093093564902,0.9888676642442653,-1.2490153280025662
990,-0.8577088974586942,0.096369919951321,0.31317023967548935,-1.4158093253367146,-0.6966696014931676,-1.5108800101362134
1000,-0.8372669272424833,0.12329629185874064,0.33661094936034636,0.6929882958221664,-0.4855125163026608,1.9742287511236025
1010,-0.8529422075316312,0.11977366971263928,0.3189394753103036,0.0028882470459419274,-2.008722965965325,1.3921621879674566
1020,-0.8570287689496574,0.12145805508528792,0.31146733228083784,-0.766094166060269,-0.6567097317026647,-0.23260248096577257
1030,-0.8419704719944556,0.1365471011353955,0.33174615716571815,0.16342997695966277,1.2745792841124253,-0.9423059473014299
1040,-0.8408885891164886,0.12840426937313779,0.3352448674310017,-2.940259520150896,-2.5481717534465975,-6.438658349458351
1050,-0.8338001505807576,0.11966213102416812,0.3344796497961606,-1.1611473523221523,-2.979753772218943,-7.1196818833357245
1060,-0.8005144248202611,0.10134506457385936,0.33899390042660715,1.1489329490336269,-1.4524952479060464,-5.071713643250099
1070,-0.8349187852170097,0.09876113663999322,0.3429498825063463,2.1409838224463233,4.0909528666277595,7.311746578038422
1080,-0.8344041427131484,0.13432387399541462,0.3582109782311151,1.6948148718305784,1.8347574404224798,6.214677414142294
1090,-0.824950469025636,0.13196121246832912,0.35657920333712295,1.9581228343635335,-0.1475393027997619,5.4941865215295955
1100,-0.815895381818268,0.13851832783166534,0.35291700373256835,4.800404182528633,1.1057697815315402,6.925666450180996
1110,-0.8522664522641794,0.1196187456740501,0.32250253487817354,5.626522086358783,3.318343097269475,7.728820220501154
1120,-0.8377669429151654,0.13106574461298612,0.3369862719300192,0.7963935133543711,0.31860274583932424,2.5085584552951055
1130,-0.8662141497814901,0.09499627206822735,0.3099573451302446,-1.4602290278723717,-1.318234376580222,-0.7362224745155947
1140,-0.8278924991950117,0.13745791166358495,0.34945272800590327,1.7428754088218188,1.1475872433873167,1.7381974289395097
1150,-0.8453533817545413,0.1279514690290613,0.3309509801673229,3.3254579220840195,1.8909037241813127,2.775148076147971
1160,-0.8438573616744153,0.1276310132285766,0.3321494515866953,-0.7236331457616731,-2.324132595432351,-2.0738323379654564
1170,-0.8520073815452294,0.10775382640109234,0.31923620131870195,1.764964843973536,0.15344402781620725,0.06480398266632797
1180,-0.8625369913926036,0.09823439605040402,0.31106375488416715,0.7621033087938214,0.1462138047269863,0.04363608272009428
1190,-0.8517458722523114,0.11041455651127252,0.3178751360133435,2.29475731551458,2.390042781035583,2.6525191302409854
1200,-0.8451370177338919,0.12810666574513435,0.3330180785600658,0.6236949740334095,0.38520035650940065,0.6862487304368263
1210,-0.860133446951225,0.11220640627560043,0.31910916440040443,-0.2579256151126812,-1.4688972433298972,-1.0702946406965619
1220,-0.8349534570393133,0.13243369245636974,0.33749959352932796,-0.8597359167900892,-0.8888257763239733,-1.751894677627426
1230,-0.8535783411992343,0.11088622203365339,0.3217637138665248,-4.212643414879666,-3.4045174187927167,-4.368466409885681
1240,-0.8487354423743756,0.11425295911401256,0.3297596544429693,1.243016444766272,1.7085937928798738,1.603136933243078
1250,-0.82455365168866,0.1388252747238518,0.3513615938175835,-2.908038837753425,-1.9241532633391651,-1.298853929835175
1260,-0.8498632224982201,0.1180469124177422,0.3279168637193372,0.21473976852607046,0.9747510262208562,0.9958540470865113
1270,-0.8466148213135382,0.12431536472968319,0.3303733214309918,1.1815530352732244,1.905124772001167,0.4481338900004508
1280,-0.841417468906816,0.12533069268002925,0.3368372679893963,0.5435032759289593,1.7732173777469615,-0.3950230588384942
1290,-0.848287509431683,0.1124894094814629,0.33132072617240593,1.4860283246588568,2.561047777724525,0.9403849323453513
1300,-0.8302638745277541,0.1301480780913602,0.3424449709223729,-1.640453674130018,-1.1602043674772502,-1.8605287802645956
1310,-0.8366702847016335,0.12364245355189503,0.3449444631428456,-1.7384619000858696,-1.8383268395778443,-1.2684736804513999
1320,-0.8466911883943916,0.11228882748150644,0.3244291028800749,-0.40663846085712085,-1.0097563027453529,1.2360977939850808
1330,-0.8547481850657922,0.11667876243080098,0.3104389802895353,-0.29605215402109064,-0.47063532141928965,0.2713921253071373
1340,-0.8512431494786843,0.12639486972988298,0.32144353969344985,-3.2903842274479325,-0.2993463420429371,-2.6322117565427665
1350,-0.8555484294918309,0.10965720989243122,0.3232346338378576,-0.5235279713294063,2.2689344239107943,-1.6716402771675716
1360,-0.8159713573703037,0.1479712913739162,0.3572220357241029,-1.6882602725701006,0.43057579041469407,-3.023139136858629
1370,-0.8511124072670455,0.10083481058662798,0.3176222514529443,-2.1754985848875137,-1.004529614958762,-2.602227024613493
1380,-0.8113550353266274,0.14741337821756756,0.35878175722224637,1.3501424362458472,0.16973814145225932,1.2165116312237638
1390,-0.8546452175559329,0.11396013899447859,0.3177061252273765,-0.26060235783854957,0.9197532167198169,1.0868543866908555
1400,-0.8294064318412697,0.13775524159334182,0.3433886903306977,-0.3796482115189228,3.2682540647928633,1.5331792081590008
1410,-0.8574273029689068,0.1064139668758334,0.31389762577213365,-2.520853275306251,1.1283918513515896,-1.109883619877072
1420,-0.8433113245637722,0.11961855076809565,0.32968205605678297,-2.775454594035158,0.08121280086976579,-1.2383098177011802
1430,-0.8427024502121571,0.11679558387111866,0.33487556494662823,0.33517820530506026,0.6393372817798069,1.6203028270333064
1440,-0.847891932592648,0.11353350262894826,0.3252158381999754,2.3320531358089713,-0.6532794445169268,2.296331579621831
1450,-0.826898067531999,0.14212416944530878,0.33980518408777083,-0.13671232162486824,-1.4664918342336593,0.5082375147406806
1460,-0.8285106698813235,0.13713034190481832,0.3463820418857086,-1.088542267674618,1.4043049329443242,-0.9066830277908142
1470,-0.8184672551802323,0.14048461720028887,0.35352529349026723,-1.059401107503822,0.09734628552521074,-1.1202351694140191
1480,-0.8400400011732703,0.11489867006095414,0.33163123172805226,-0.3714921587214217,-0.38950047118968417,-0.08713092761441682
1490,-0.8641005337414334,0.0979351153775854,0.30968025373665725,2.8762864311174825,1.7349616794940426,3.7509129042813494
1500,-0.8346469320238633,0.12862286268456113,0.3433769803021205,1.6697994857188339,0.31132985387074097,2.5029090731162853
1510,-0.847843671738584,0.12403514640475048,0.32429951216443587,0.9172587703493458,0.32487587540713914,1.8456586604088936
1520,-0.8470853857876554,0.12442282168656973,0.3223592105519332,-1.8563823270824535,-1.6503702059078902,-1.0113015236085134
1530,-0.8093086077237548,0.16203919391625815,0.36164993631847486,2.1817939524737286,2.5339049324967435,2.7035656612802
1540,-0.8384923425588653,0.13257261304862866,0.33266983873558265,0.9660787355163628,0.941536691032818,0.7865274275090313
1550,-0.8293669023083371,0.13642925528199965,0.33846442074137845,1.0637094829682958,0.29255773657841705,0.07700204781349174
1560,-0.8019279775146256,0.16282939426759996,0.3672586022705973,-1.0748741132183035,-2.273613615746772,-2.2967840894302207
1570,-0.8534646245136293,0.11535303895600066,0.3255398805690731,-0.8803063582403432,-1.217606788253014,-1.6010505884629376
1580,-0.8525637668141463,0.11105667525168582,0.32411482751288584,0.7464366883381593,1.338976941608303,0.7570739201097884
1590,-0.8415663197798614,0.1330609966369686,0.33355350820860274,1.3324745940092801,1.6696448985928365,1.4812258092380688
1600,-0.8507422017422582,0.11408287455427024,0.32067317718286265,-0.7105298266534928,-1.171635785166921,-0.7996036497507784
1610,-0.835062088840894,0.13439070366175596,0.34622341878427093,-0.6519841260494119,-2.304652789046473,-1.1418977001446688
1620,-0.8369502594017847,0.13100052728109396,0.3432235817888924,4.519652469755666,4.008473155257463,4.744553360807079
1630,-0.8323569525825868,0.13700237790722514,0.35022999052063325,0.13920350649072055,1.0369617298368008,1.0621004004777577
1640,-0.8362259331048192,0.132203561428868,0.33892423733452315,-1.7433445111255295,-0.5239196330951937,-1.3445536944090144
1650,-0.8286329615954272,0.13831558275453215,0.3475891520367599,0.34345098710783617,0.6260329496747907,-0.005423947502209425
1660,-0.848593872306704,0.11613160079576748,0.3271065213873873,5.329051146090801,4.3820773109842746,4.560162290819389
1670,-0.8163367132968979,0.1491743154246623,0.3573316769408237,2.9583416427857214,1.5655175625108098,2.383282456958662
1680,-0.8443576622136394,0.11964063672463862,0.32728439803388876,1.5926014636651016,0.7660378437887396,1.598840641701436
1690,-0.8266581364699733,0.13659357197432237,0.34096452387893783,0.26122955948649657,0.06098696067616799,0.5297769669383476
1700,-0.8624121959486573,0.10926017920410222,0.30492827145706985,-0.460397266707555,-0.7679511196883828,-0.7507896942481458
1710,-0.8626184946730743,0.10888218721192976,0.3101387384989725,0.18930818095233182,0.1297086513085905,-0.8091251472546933
1720,-0.8497417065350151,0.11467182093644342,0.32560724509288025,-0.10516902923951044,1.4504232185099792,-0.08875652602883233
1730,-0.8572644687014468,0.10839065696641943,0.3245177523424889,1.694161824336527,2.6508506393197244,1.6243489139393734
1740,-0.841093583882149,0.12572145058537162,0.3319572309429673,1.700272490334796,1.9573003352426124,2.0789212668450356
1750,-0.7953213147065324,0.17636615750961673,0.3787306692713821,1.93907010745319,1.279227044963315,1.5256678449354042
1760,-0.8417841924598274,0.1302288183242031,0.3333839968340944,0.5213769911630806,-0.1514354445988389,0.30099387126009847
1770,-0.8243247399776968,0.14227404063457652,0.3502838633923286,2.0090459445133835,2.012384526525045,1.90717229051517
1780,-0.8449357292411019,0.12198823189129701,0.33292112123404033,-2.3566148381609007,-1.5467970987594006,-1.4963411827650162
1790,-0.8221013634918771,0.14499151456238088,0.35258974758937756,0.2914152409999474,0.8934119828791888,1.243721535526332
1800,-0.803891250953934,0.16253115741833846,0.3673005404626737,-1.4061461279234593,-1.7116304217366505,-1.2702603578089524
1810,-0.8316609448072609,0.13395493575990788,0.3399760297672521,0.9466038935018753,0.1367936020428973,0.45327099744073035
1820,-0.8143821923997387,0.15451856990311577,0.3621910161350552,-0.6773472746406455,-1.6640218663654516,-1.5138725438742406
1830,-0.8601275705853618,0.11350088059411356,0.3203718050385722,3.032933782566375,1.8312963962986744,1.835096508935838
1840,-0.8275326247091478,0.1424392520946313,0.34692313590989715,-0.545434794094813,-1.047582968292819,-1.4134470606602403
1850,-0.8430070318327726,0.13176608673214413,0.33348953016791655,-1.221401631985767,-0.40368825843481854,-0.9288840960333431
1860,-0.8419945324006944,0.12815231506385108,0.3282068149613626,0.4941194364125076,0.6533560018893679,0.3478645213460919
1870,-0.851708475957722,0.10831903340756076,0.3109757598054492,0.13755118709876668,-1.0333064262604272,-0.23577772502251432
