time_ms,ax,ay,az,gx,gy,gz
0,-0.7049871184493608,0.12670323879432593,0.6003206845983473,1.373482159400957,1.5759807171800582,2.1758995361340316
10,-0.7097320392177238,0.12722205884260152,0.6091610971758693,1.4163877544096768,1.6574293140375493,1.6876675061614266
20,-0.6996463980131431,0.12583774032894499,0.6119527332008392,-2.9560523427716703,-2.560559025261516,-3.106669292757199
30,-0.728563512871526,0.09083441639847156,0.577941218043521,0.18186178852243007,0.4702778658798645,-0.3169773809385591
40,-0.6871928084161478,0.1368451757466787,0.6199684832210959,0.0211879577163383,-0.635092056340083,-1.0356442248280664
50,-0.714725371624139,0.11797238050034124,0.594104257489461,0.18049233298741862,-0.772828999515715,-0.876591555215595
60,-0.7154203899218895,0.11877524317051806,0.5914021267296907,3.4535557868806253,3.690929285009101,3.229476437233535
70,-0.6986338015527875,0.12455582238573847,0.6031446745791804,-0.9044274919113537,-0.30510652292753576,-0.9859614409781796
80,-0.6986847827891827,0.11812595133197559,0.6037030634804156,-0.010384218773632992,0.6443996696370907,0.013521373470497089
90,-0.7004442138651493,0.12171568331839695,0.605497405193935,2.5078640821136373,1.5282547504904207,1.3793631826614654
100,-0.6998969920395651,0.12054213345095614,0.6041429844413848,-0.13020890011614528,-1.3709828863229017,-1.300739321829542
110,-0.7029080284193234,0.12201068141876685,0.5976680823380434,0.5099289121036326,-0.4191163197410388,-0.5687821708615486
120,-0.7175742138206114,0.10756784770595877,0.5864893296106949,0.18677288091875552,0.8902609672209619,0.5012433832537654
130,-0.7220841997201087,0.10155561004452343,0.5883911066901292,-0.8790625465074502,1.7753846823868957,1.4699090796705485
140,-0.704619147799164,0.1261779933919336,0.6055626056926713,-2.745372266290726,0.1665588852653248,0.21534857173674482
150,-0.6970783405648293,0.13731959107095537,0.610851401563822,0.6366867217463124,2.1993363232060212,2.579540731333754
160,-0.7044138091405259,0.12993218535736326,0.6060249932318306,1.5431176804420172,-1.4186114431930237,-0.39849608656286045
170,-0.7162999299378052,0.11280364329386929,0.6063475736821036,4.433383181763819,0.11251465893491153,2.364919194785205
180,-0.7114225921053888,0.0798806437752974,0.6159145092932179,-1.6880399634046568,-4.327880011220344,-1.648951600364431
190,-0.7068834787190772,0.02769131370158462,0.6680899267576125,-5.127156800410871,-10.295366471687485,-7.170743738368371
200,-0.6964791905770373,0.04789649701264599,0.6882391427206674,-7.073255281127482,-16.85103100101646,-13.935256012714818
210,-0.6877754863737989,0.09642368218099005,0.6677936178320643,-5.3608064905807815,-21.632082604522726,-16.414757781575716
220,-0.6494057877474978,0.08106240731618367,0.7155851954116637,2.601917722584694,-24.87499037068192,-12.213223363873396
230,-0.6405794679775223,0.03179078833027969,0.6611718064450982,5.285741440875062,-30.325528413390366,-16.090207433076593
240,-0.6727108403991364,0.1863043631577754,0.5357941766206082,1.8730910798782494,-28.097129124403033,-11.751719373790705
250,-0.6614938675131444,0.08146989253084792,0.6303742541201981,12.552525017506799,-20.754850438726375,-4.585192417916629
260,-0.6705274801622549,0.05606742440593217,0.5861004234421672,11.527769099711271,-21.55733206436277,-11.429030684968343
270,-0.6279661341440433,0.17390383806560153,0.5678230596017155,7.229259237525049,-16.963619012590925,-14.348087972898558
280,-0.6407838624500601,0.23720782120863385,0.5382887848123691,-1.350020885757163,-12.325582082935762,-14.338631902437147
290,-0.6112704351988374,0.2597521194567912,0.5657256573449895,-7.327970858426891,-5.436608970588239,-9.166441738725187
300,-0.5842530691307191,0.18930561662420492,0.556238150346816,-11.962954513812345,3.38677028219466,-2.3021443810655597
310,-0.6081554685755644,0.1572810137174882,0.5767068341051538,-25.439158265288487,4.3543088123125155,-1.543000828538363
320,-0.6359356310306038,0.11230836309028078,0.6550353408886169,-17.814566182082828,-2.8682954426614735,-5.871637205779058
330,-0.6658107460519215,0.08943353745757024,0.6394812460104639,-2.504652566366995,-4.208885851817267,-3.6535556129135367
340,-0.6894858232145185,0.0829948496631167,0.6353461354628535,2.2826067785171946,-6.250974774212386,-6.250079039131151
350,-0.8015661591563971,0.07925457150736312,0.5089183843642848,10.843452401082873,5.3135319398778496,-3.1135028883941818
360,-0.9381853282672359,0.10336195499779088,0.31933062387529376,15.555696122243104,20.92566226389143,-1.1861158672629697
370,-1.0519629950459137,0.07356595732971986,0.12937942038046668,4.8553345696377646,36.725219648862634,3.1965725462766663
380,-0.9611348461212738,0.045807523268630426,0.14978989083142535,-34.787887618354304,38.41086691382297,3.4523739052635154
390,-0.5153227480474181,-0.017459792913742403,0.8471668380762463,20.29293339942925,31.33545450419385,8.83379140239686
400,-0.8051209218255073,0.05683452063298168,0.38450151880816597,-2.4590251180083036,28.888552780936593,10.051190722244554
410,-0.7115231828728452,0.13266760364848576,0.5738708579940233,3.2943252089430617,10.944076474767426,5.136211710043588
420,-0.6823330288604479,0.0936111377376474,0.6458309042393322,5.75621794367882,3.183912386327945,3.4990929677730094
430,-0.6691432444035347,0.10247836513952188,0.6474785412519642,2.5306122899418866,-1.5628869263615477,-0.0761796950920508
440,-0.7062560610759793,0.08834871019303224,0.6030193501199305,5.098191346033145,-1.7864805653810962,0.17267318400409737
450,-0.6792825865002446,0.11459554972402444,0.6325632351160406,6.950645664305942,-1.6944698621660608,1.0347702287396259
460,-0.6982439408227212,0.0952107032819205,0.6194532182545728,9.069439482033161,-2.0359877036345013,2.713449450885858
470,-0.7182940140741864,0.080006885087735,0.5910462079280131,13.34260973360315,-0.22675905545188368,5.909835624099566
480,-0.678822872796164,0.13163637123730246,0.6287551191683293,10.030599492401514,-0.6574835379033286,6.707202996331204
490,-0.709924695872635,0.10306612244921273,0.595830218221109,6.549795219793067,0.6149077521257729,7.453466206883312
500,-0.6890901564874189,0.11899555318208964,0.6222478452310302,-0.41677037528122396,-1.7682877298511546,3.4798049542956555
510,-0.6992687623533687,0.09900425490840796,0.6146802230427221,-0.01472456734197658,1.1267720930414578,4.846068558483411
520,-0.6633604390186926,0.1321772336666476,0.6454121485074322,-2.209220147314539,-1.6686624611514174,-0.24393080865854433
530,-0.7023764055436066,0.1072074237308869,0.6031406584685974,0.6026990165892695,-0.9624401064779127,-2.949262334733183
540,-0.7284356436704588,0.09064936358257777,0.5844544860645972,-0.04229168115686319,-0.020018180141454414,-1.1718604209804517
550,-0.6901738162750364,0.11445119836033825,0.6134056862190026,1.0672888230193616,3.421954325866962,2.1055275055780402
560,-0.7153432976167636,0.08836285176878775,0.5942118795922939,0.31546989693618366,0.5695939735935139,1.1030101211449934
570,-0.6947542640935525,0.10793979870049178,0.6169595606003914,2.1639409925989583,-0.05268050638900859,1.8566481503159313
580,-0.6715458784080967,0.1357220099894719,0.6383571540713533,3.239532728533101,0.3491578242900715,2.8903345743621545
590,-0.6875311842643935,0.12439683614689943,0.6184594617117877,2.5573450139548273,1.2340831968333934,2.2930262614555392
600,-0.6910948570659706,0.11953026602542081,0.6160497779665913,-1.7684241510300966,-1.4944757880369344,-2.973638249419664
610,-0.7061405201374155,0.09753509981659804,0.6129729229313717,1.7326225403821867,0.5264623769093677,-1.1305236468313717
620,-0.689811268923008,0.09524737501243562,0.630684339728562,3.892045028137815,-0.27961256120045913,-1.5255156409550812
630,-0.7184684079808291,0.06475589262533545,0.5857520558342787,4.911378683248482,0.630099553594768,0.7147145229567557
640,-0.6886483660050448,0.11192965273228342,0.6199431164044255,9.831291380961797,1.7956311290473512,2.141249122942851
650,-0.719941327205194,0.09570022528385018,0.5866829522841859,9.114256515854304,0.7449115378956586,1.2496773227697022
660,-0.6926184060433311,0.1269715390047695,0.6176548589994847,5.01343050247801,1.820753270271068,0.7455850480827028
670,-0.6887955389607822,0.12097477299274706,0.6256137831057637,-1.6005847630769583,-0.20152896508252383,-2.3266468871349524
680,-0.6924447532735263,0.10374170034620504,0.6184375348083767,-3.77580433578726,-2.715697599806452,-3.7620843115951104
690,-0.6965013386770132,0.10078959177410292,0.6138086177140295,0.08915215271210225,0.2986254858965994,-0.5335205684623046
700,-0.6945506560053034,0.10393151626209159,0.6187226589438252,0.48824669469952764,-0.7618140932221806,-1.1455605330972385
710,-0.7241272207251818,0.08334202885785162,0.588497134496341,7.242225054186935,3.8982864829487784,4.147041745552537
720,-0.7055026098904131,0.10530365041714487,0.6007224235225723,5.357508795917291,2.46581803309366,2.989066242403121
730,-0.6944107178823828,0.11925337663744826,0.6123005515636257,0.8094945618445264,1.3006845886199403,0.2915824373425433
740,-0.6973793875766987,0.11760302444020407,0.6120554920856985,-3.255034139380459,-0.09649094964116545,-2.453473290437295
750,-0.6941428540232567,0.11320605638152925,0.6144512373707661,-1.913692493117999,0.3918159076133758,-2.4739339790606314
760,-0.6920931661479592,0.1036096071614196,0.614916029824609,0.0839347804386883,-0.809606250114096,-3.968181498945212
770,-0.711494061484168,0.0944723614410894,0.6020419520759652,2.9072413012190115,1.2387508105676739,-1.6873791969939542
780,-0.718860924460652,0.0853240667437953,0.5920764599647399,4.248156213180047,3.8800555594777095,0.05674451405981751
790,-0.6705637727243111,0.13667199016699655,0.6336280613099151,0.9288101241641544,1.1750335665598874,-2.3062482835290417
800,-0.6911986195822628,0.11257742027361858,0.6142415169735547,-3.2543651930866018,-2.7368918308685175,-3.92470446215639
810,-0.700273864523892,0.10301107133250381,0.6059826212790681,-2.6152958290179096,-1.7284160183069153,-1.6608486080094358
820,-0.6877053572571891,0.11761543705659692,0.6203055634260265,-0.22710014653992683,-0.6291278747270002,-0.2910349593854106
830,-0.6811587560128588,0.13022273175436935,0.6297210831417441,3.6933244983975926,1.8855103948264527,1.7677068132493001
840,-0.6977316427897007,0.1214929631857628,0.611997199487112,1.0639857071615497,0.9415398135677165,-0.3758635740840831
850,-0.6984107871280283,0.10889016707848587,0.6032501508747478,-5.1713932138853345,-2.8635584707552275,-4.432279567939369
860,-0.6782208369303683,0.12870731391282836,0.6264914150567301,-6.081178879437947,-1.2923749750060465,-2.9855540307110884
870,-0.7120603569597543,0.09018704505391778,0.5955595841030563,-2.915684861490018,1.4348455145089272,0.9079933444358091
880,-0.6702548146534696,0.12935519080648497,0.638402288411255,-2.5832399943927653,0.5140811283706365,0.8920807642770803
890,-0.706226479927638,0.09373740747325669,0.6040181137007444,-1.5854990376421,-1.0514666871363176,-0.5264094160093675
900,-0.69742932876063,0.10600522633459045,0.6120123686811023,-2.815851758313486,-3.505595188576189,-3.0814446934069677
910,-0.6809145094275014,0.12293735742356657,0.6293958355078567,1.2236936255832505,1.3663224747554805,1.7156153246187589
920,-0.7022399097619875,0.0929150717304445,0.6159646995363537,0.35087689278059897,0.43221934767885184,0.6269742007391392
930,-0.6801687048726888,0.11338824669752699,0.6279571995678572,4.718203411712833,3.1629011809574337,4.21821385137361
940,-0.7083145501003246,0.09306417357397682,0.6003303488544157,3.4594866363245957,3.177887204427731,4.120879795211581
950,-0.6935774093215845,0.10826520465017467,0.6124316456800919,-0.5056346997334422,-0.36624939839227244,0.2860768560881637
960,-0.6828988266451542,0.11876269501758732,0.6242026878546195,-2.891022839242444,-1.6454676772245982,-1.7527263088553937
970,-0.7132964264177666,0.09159012529270663,0.5939957277165111,0.1652555315421821,1.9849029808019223,0.8320898441063024
980,-0.7071240782235265,0.10022338034806126,0.5989263324182784,-0.9546166910310716,-0.19639679794366915,-1.8710670567179326
990,-0.7190040989187144,0.08674956244373014,0.5857852732106231,1.0606755619292463,-0.06898423755674143,-1.35611640508404
1000,-0.6837050154105095,0.12085435495123126,0.6206605930037161,1.1429234136739848,0.004649371723915274,-0.598071093075121
1010,-0.6837530953830546,0.12235974274066543,0.6319631399332587,-0.5343330896674374,1.8280299320651925,1.9796118645716705
1020,-0.6952476106247737,0.10891850709060946,0.6132184324396956,-1.1805236213176165,0.3996476164158231,0.6526042343852128
1030,-0.6704660901020132,0.12117969214435033,0.6366588360217575,-0.3236916580265956,0.28509088168407715,0.37234066179332537
1040,-0.7067285741043345,0.08919870294536517,0.5998048225805843,0.14446718403832493,-1.440604768285378,-1.1960304332652893
1050,-0.6815878787729847,0.12420167641818158,0.6233898248469071,1.2555270556554725,-0.6792086762872398,-0.8246502902751074
1060,-0.6718764152455685,0.13914917784861397,0.6362437847144816,-0.6882156624107634,-0.5725390724787693,-1.6255083990560304
1070,-0.6964077444304386,0.11401170947590526,0.6194634220575078,-2.863808905807664,-0.7030517823033874,-1.972128487068701
1080,-0.7026959719116144,0.10068210168611395,0.6107727336166427,-3.0274778500312833,-1.0322575344223353,-0.7683445754289215
1090,-0.7131168733780925,0.08281177518401149,0.5980609264647233,1.014051766951252,1.0566969276099423,2.8797904682735993
1100,-0.7090933907523286,0.09620165839489794,0.6042565589290962,2.829610253077723,0.7282755835695133,2.3254397421848605
1110,-0.7187095670007406,0.08199857067398007,0.5965875138172497,-0.3451804517575443,-2.8419682146163874,-1.8782697172905924
1120,-0.6938958030011068,0.10615037696302128,0.6165121850270298,4.259393251688255,2.1634158863352386,2.3172666979530234
1130,-0.6821644377317857,0.1261634459069439,0.628119054436867,0.239265270015393,-0.45811953565829616,-1.0758850356813736
1140,-0.7088234894569092,0.10118313506642368,0.6026057513825046,0.21324398759889585,1.5383929929273277,0.46740714047845644
1150,-0.6954413705863498,0.1012601953419602,0.6091116765779212,-2.692004573233646,-0.4144308507307284,-1.2132825133661536
1160,-0.7113848999508096,0.08945560410744943,0.5985329910739534,1.6087375316524648,1.8709758631301314,2.3976180457692484
1170,-0.6998384970644792,0.09880409229406335,0.6187268720192253,3.209380034299606,1.760779754918524,2.342849465093626
1180,-0.7205534024058489,0.08141101731049148,0.5928216185662672,0.4058847391791791,-1.5139364542898717,-0.9272139537977879
1190,-0.7233045923256664,0.0891553196689495,0.5853291735397633,1.0696567605382352,-0.8669993240497312,-0.5978675031309912
1200,-0.7270837660893935,0.08904278463998196,0.5792335606940958,-2.086736661162241,-2.858144322479423,-3.2281881947377538
1210,-0.6940598998861709,0.11541504136804641,0.612977630833788,1.3223163636424569,1.531339760257673,0.4672163438985564
1220,-0.7358407165051075,0.0655220205534385,0.5724365992151437,1.9128167228918735,2.2038240446077495,0.800270587778841
1230,-0.6615568291435887,0.14045398124960914,0.6449530625186004,-0.44585025191083416,-0.0913413183027515,-1.1681161873117216
1240,-0.69667319973529,0.10835125636071424,0.6085590263217852,-3.7065695206013047,-3.4451740572996705,-3.6390550528294607
1250,-0.7020101607791419,0.10803224894906271,0.605886197344888,-0.938763691072318,-1.092640313374686,-0.8885228280012394
1260,-0.698653405186242,0.10782857534765751,0.6104749981752557,2.6352746162890055,1.18618059709421,1.1692285166909087
1270,-0.6841941802549546,0.1271824669522387,0.62564227768304,-0.752631346505243,-1.0670206506946474,-1.5685012033810943
1280,-0.691327879588,0.11705436131138773,0.6190541543275563,-1.5151478695693095,-0.7250610715922132,-1.6723041185923484
1290,-0.7049171693631594,0.0973920764872239,0.6054565519197423,1.7126671199799075,2.3174027177610945,1.6648659714314633
1300,-0.7093359307573183,0.0911051583658565,0.6005744499053515,1.1187057552570137,0.3606999601268562,0.6177208929974536
1310,-0.7166084465782404,0.08000878590441964,0.5925703325013211,4.4826237495512125,1.8853146068790874,2.4452743336332228
1320,-0.7314151900541496,0.07341709431619557,0.5726886511130719,1.7006068156519156,-0.4952380813572513,-0.04967415534502062
