time_ms,ax,ay,az,gx,gy,gz
0,-0.8990413503771886,0.7288662711566563,0.5404768491655598,-2.6958422930748673,-4.410261366228509,-3.662061512191457
10,-0.8914149636679732,0.7289833162335602,0.5615959415839067,3.436412471419409,0.9953959499561982,1.7720848499742374
20,-0.8803176232039506,0.7464817195350791,0.5816420949719852,0.8152142538446405,-2.06922077788523,-1.822948472567183
30,-0.8641167641164645,0.7625821064433902,0.5705684058766146,0.9060507825921398,-0.6658585920194414,-1.2170975889467543
40,-0.9071155745042945,0.7242800011387859,0.5414749573078249,0.1539292502305895,-1.2560613326248238,-1.4631487466337714
50,-0.8525313652579324,0.7750819742854403,0.5887692948526728,0.8815240368234397,-0.9024419830966736,-0.2781502790293351
60,-0.9097016778587643,0.71498675975043,0.5317144069825188,0.29261305976640006,0.9225101633047175,-0.41095174671598556
70,-0.8777710222454921,0.7553469508867157,0.590513899507379,-1.6478506344712933,-0.13064993615618478,-2.9509816407143914
80,-0.8803329121751456,0.7465194957911813,0.5845746977006168,0.17189315326370824,0.8854917455739609,-0.3215859481629837
90,-0.9161669568620352,0.7079559568290262,0.5511495331042832,-0.36485319209273914,-0.15236238810168734,-0.23100834089942235
100,-0.8755156980916146,0.7554779294710665,0.6013658217342591,-1.0426117702897026,-2.5924718586789632,-1.8338018735849122
110,-0.9257043324184626,0.708479555473388,0.5342566398569606,-0.44830905329002857,-2.1496152364011616,-0.9970414913872209
120,-0.8892349067403109,0.7281906101901914,0.5740905532918358,1.409555735423876,-2.7236625129669103,-1.4986986083014568
130,-0.8786334687480419,0.7357324243848726,0.5923499067489095,2.187201259368202,-3.4553791785875587,-1.1662029935775793
140,-0.9066615566002637,0.6952848252289077,0.5874561235762306,0.9789025807333918,-7.429287034739782,-2.94124587705329
150,-0.8575519098010169,0.7290207665842535,0.6019512306505952,-1.7080352041594495,-12.149327155521643,-8.336443487676064
160,-0.8394344563777626,0.728472988513131,0.5969046953170312,0.7317833360892659,-8.24261313031641,-9.46257558551062
170,-0.8154227571367954,0.785351557885029,0.6011499120554313,-3.2814305329986513,-9.316554588445317,-12.986603612519398
180,-0.8892556590555253,0.7627956118711149,0.5720813112935736,-2.828819474106799,-4.953716781820763,-11.467254225135887
190,-0.8782947724136733,0.7169855084945421,0.6157416934651196,-1.8103660548503941,-7.6363005519535,-13.224296473396727
200,-0.8730283468225564,0.7299295536051603,0.5523242064956233,-5.1245069370612235,-5.695383913899451,-13.932078439095712
210,-0.8828709420135749,0.7022896320944462,0.4658194600912931,-11.554459005345329,0.8433562169688902,-18.89464088089041
220,-0.8562295107735973,0.7199066655948495,0.5173202776653366,-15.074578476379882,9.888828694158601,-20.981521348245508
230,-0.8493564937910439,0.6942304380387637,0.5264704381237442,-17.841541166680585,17.326328420817777,-25.756641131525534
240,-1.1432970078028886,0.6737084467992608,0.7391454868498419,-25.062275274537708,5.336290808965417,-34.88406872374711
250,-0.9326368175589327,0.6766912045196792,0.6011933232484397,-10.158903103848244,-5.6147823275747255,-23.221765367570757
260,-0.8922382037855676,0.6600204258746022,0.6049701197930417,7.045875588954396,1.3039634315439492,8.65076477245781
270,-0.868731355594029,0.6312886120754687,0.6377246525830608,4.642988980878857,-1.093112688405665,3.702921454303415
280,-0.8808793719924625,0.6964348640688958,0.6644989799904623,7.883328677096763,-2.76553171552419,1.3058355694727757
290,-0.8609050230696622,0.6803646508336557,0.7446018100435039,6.367996642571807,-15.684562094605914,-3.7237192057637656
300,-0.8251575232005157,0.6199975301822325,0.7563925253437326,6.2774346049456735,-21.550178968869382,-12.788828951982701
310,-0.9092121890815998,0.721390949481545,0.5518813836838928,9.53505880502827,-12.087783292164936,-9.213855781740236
320,-0.9204423214556744,0.6669863166061585,0.4624052064209719,-0.9900097169797384,-10.152352085156087,-14.238871105745384
330,-0.8973062083626304,0.6455598683374082,0.5546836233423202,-4.75055187251025,-6.799950289560869,-14.255209002548543
340,-0.8857171803885732,0.6680003696209501,0.5818102904667544,-2.149547103700787,-2.663585217174837,-9.0084193311854
350,-0.8718239625569175,0.6787093968256726,0.6102244623083903,-0.7513597780569372,-2.692542691694426,-4.576084071136785
360,-0.8859471597671599,0.6326752477068092,0.6971797726127038,-4.923107763462163,3.0112912757440946,-10.66149670241605
370,-0.8867863376991946,0.6264071107854309,0.6248914785936543,-0.6957881567697508,10.152581358924552,-5.70519256067499
380,-0.915177787833844,0.5871043502834329,0.8031961914730257,-11.752911443787298,0.5508136199206226,-14.393251725347865
390,-0.901671388550528,0.6172196015133535,0.725801156251168,-11.41685254513881,8.975376574352985,-16.2034098846476
400,-0.9239666424759849,0.694400458983491,0.7219508950016492,-8.493329149580104,28.517634309515415,-7.0751730310280045
410,-0.970541594284026,0.5267716653588855,0.5973279094770053,-5.918657815300134,18.62231244324046,-1.8780337933721651
420,-0.8851204850996257,0.6352133024086403,0.3359852890569137,-9.065262489063752,19.210347581951847,0.05844242400108984
430,-0.777690039255946,0.6951731156946759,0.5447078715027789,10.817037791746593,28.6088624357497,5.414620949916049
440,-0.8951552265949023,0.6141764957326875,0.7217912075996198,-7.3923570955146385,19.930795726213574,0.009550204331356227
450,-0.9180351313581957,0.5910717526758048,0.7976862176046833,-11.823041901959883,20.381439317193248,-0.3278447424049087
460,-0.9439103881459134,0.5922202449418955,0.6534037684503418,-7.7546511793475945,14.006017044284244,-3.9066320545321074
470,-0.8625766440632002,0.6555077153380036,0.38751254766001514,-9.677481911585115,11.587772944995777,-5.705302858179687
480,-0.9238104602374295,0.6321856355781504,0.5471118071964557,-3.1771319168735737,11.804912816286159,-3.771947383162401
490,-0.8980371129251207,0.6527315255456023,0.6172783034739688,-3.8839987112208396,4.965568677766039,-1.685643251725037
500,-0.8662183243475078,0.6498607291512666,0.5452392230822176,-5.071619650241581,9.911573094094882,-2.741000052461076
510,-0.8976585222685722,0.624401175344064,0.5177732334742814,-1.4966928514051245,6.641368764445547,-1.1693589694493771
520,-0.8807043950681013,0.6473554837641265,0.5518925514743219,-4.546466816521617,0.2353737341933136,-2.886256150794581
530,-0.8847125850348209,0.6542780775182818,0.5728865838628598,-3.823726224840005,3.8905401498670797,-2.694566368302566
540,-0.8865402523289951,0.640009667075325,0.5515253110047381,-3.4675162053249884,3.638256210957956,-0.9064995367644735
550,-0.8848217189401357,0.646596214847727,0.5635596141507407,-4.313462815494007,0.939519924313214,-1.3548648540199826
560,-0.9166977380524113,0.6227863100813114,0.5234506370278007,-3.4591169686186207,-0.5521863577793661,-1.921508460418622
570,-0.8981311598330617,0.6344455269293968,0.533933095194172,-2.258246991933962,-0.4315881181925786,-1.6176778448247215
580,-0.8920463928663912,0.6318038173977641,0.5347909374570654,-1.9953844473574096,-0.43738642330820804,-0.9768254466838511
590,-0.8981130213410571,0.6332111895276483,0.5327869332121807,-1.5498496017313972,0.3352940114093771,0.13861589331299434
600,-0.8826797503083926,0.6529997339258075,0.5528070382929083,-4.650350273812572,-1.8214539788416018,-2.68253218880705
610,-0.9012239056409592,0.6290345218950308,0.5309247218192136,-3.328495870727694,-0.3187076489240106,-1.6396405398215648
620,-0.9050228459208115,0.6288123058933518,0.5271731571919378,-1.488944570856825,0.47835621276763884,0.26916935722790514
630,-0.8954006734958556,0.6381829312948315,0.5411307327441884,-2.447643665343554,-0.6090492645826614,-1.1399977536869053
640,-0.894757601980824,0.6382779520909571,0.541690949566525,-4.5971882135124105,-2.3785780033694572,-3.2704042735217884
650,-0.8653296242218687,0.6642661421437583,0.572346003122568,-0.42389549971826446,2.0705731141245765,1.0244050944429641
660,-0.9029762715880011,0.6266745769103829,0.5305994779659794,0.40893161146052415,2.469145920887205,1.535267993217759
670,-0.9071555282563767,0.6232677942364112,0.5271699110325154,-3.6446230394891383,1.0978127797911834,-0.41461163200979834
680,-0.8865352029600037,0.6420051958736592,0.5510744871024983,-4.226466164750704,-0.48032694806826504,-0.8738094345917643
690,-0.9210577099908243,0.6073345871255694,0.5148958290201271,-3.2500564976200113,0.22033211855359258,0.2694777054043519
700,-0.8656631058630972,0.668087952284677,0.5773801780573504,-4.594297470738727,-1.8397202383199172,-2.173367119095754
710,-0.9176691198367075,0.618115564409168,0.5194631879872227,-1.8039557125569525,-0.15898271452370055,-0.5767964776170513
720,-0.8944537692473302,0.6520786760294278,0.5527953965186024,-2.8138913772836425,-0.9175414283753521,2.475926447171646
730,-0.8725907700337048,0.6929158629875545,0.5416474917768738,-0.6489727732262938,2.8578479866358917,9.333492318461781
740,-0.9230612912190487,0.7245847720418874,0.5201050904522022,-4.6376556833608245,5.005332624809618,18.724693781244667
750,-0.871309428126604,0.7633998761597507,0.5579266142124509,-7.133476671030876,2.3810566995494926,24.99518491964695
760,-0.9041577575378563,0.7973015668694612,0.45579561314150263,-8.127502642581913,-0.4058783445914089,27.273304156677007
770,-0.8961156303016338,0.6310317390082554,0.5060703434151795,1.0330908399592038,4.118084821729707,11.226872208399884
780,-0.8733408467642049,0.6529904623453325,0.5574270645873585,-1.0702572616739228,0.40987960885025787,3.6299271034302496
790,-0.8890858977191226,0.674302207103809,0.55001249782483,1.4417487886917582,3.5527521754210163,5.223136828051687
800,-0.8808170870572312,0.6697054483233272,0.5415571815201848,-1.6098675965853233,1.611425869260256,-0.39741565915936927
810,-0.89411055763509,0.6499324942207466,0.5382316159191028,0.5881441964261457,2.0063773987122486,0.054870058460963045
820,-0.9084613728065898,0.6487238102919227,0.5241470334593604,10.713561606630089,4.352311767682841,0.8671267485561563
830,-0.9174817651439431,0.6857882534661465,0.519106878236662,14.544744790204454,5.039834819610817,6.761630480730618
840,-0.8987162272616099,0.4138414583935571,0.4993539056269462,2.959316355232687,7.130036689361763,-9.412047686853482
850,-0.8997328713390431,0.5051355184151963,0.5663853530298005,9.774853431308225,7.475622451179564,-7.184955512764525
860,-0.80693667680572,0.6419355242236869,0.5686331134445592,24.506668609523953,9.185155539972916,-12.275303228927749
870,-0.8950672839531421,0.6672453682114308,0.4862412384929228,10.100047001956145,3.7217686646688177,-8.947576684780321
880,-0.9187312896458641,0.6864798880675431,0.4990881170419451,-1.2858441675724293,1.0063786558466403,-6.313055983102732
890,-0.9006550506958289,0.679362764118708,0.5293661565946514,-0.8378918694933182,1.2791871907334564,-4.920732602880798
900,-0.9177158892512711,0.631324983939241,0.5192599842665419,-5.306147316839613,-3.842013545595463,-9.84481056934962
910,-0.9035535698800259,0.6430836606638751,0.5310556097637008,-4.139132043964432,-2.924655902770429,-4.648502871482484
920,-0.8892539061673292,0.6735181405343467,0.557313948570194,-5.577745527865153,-2.622587225734992,3.4985304854934296
930,-0.9409125132771708,0.6653802752464892,0.5126242154227518,-9.767082035768105,-2.664626108664706,16.14585600057746
940,-0.9410148897837762,0.6210788774155959,0.5316344714874778,-5.177067200361621,-3.761006785328561,23.833601840463103
950,-0.9666886347834001,0.6127749590744459,0.5830824916927438,7.230211074107281,-9.89810681623372,26.44743286406117
960,-0.914715577549679,0.659122321493729,0.500905493047652,19.66032692294794,-18.687318532314013,30.662542752796618
970,-0.89039809850044,0.6551330908901025,0.5173370662664057,15.872928059815349,-14.616835000740547,26.514230390065883
980,-0.8648190139914814,0.6949066975254011,0.5346120008457795,11.518765424493864,-8.682034302297893,12.283419509628903
990,-0.8694351721741334,0.6969140480496905,0.513626751407272,8.930928853911523,-6.618748938079468,6.285768599080821
1000,-0.8732939489540462,0.7220975879095499,0.5292339488841133,2.700975255384165,-6.0224904798535235,-0.29593358902893296
1010,-0.88618149324013,0.6955070673615122,0.5203335980221384,0.06803288421037368,-2.9156234217372132,-1.433212100691558
1020,-0.9143224689129932,0.6748557221027547,0.5298860008299263,-1.3983419173451173,-2.0922556995590518,-2.010226032240976
1030,-0.8900170978565823,0.6980032321110821,0.5564720950919413,7.186347780040327,-1.627025120466541,6.4759403745647575
1040,-0.8591980141980304,0.7298643983072562,0.5510703931937114,2.4232148110431284,-3.3255861545062686,2.127921854032576
1050,-0.8701254954488528,0.7236236221972101,0.55176861601342,-1.5149521172958555,-1.465482693645891,0.1423394703446974
1060,-0.894081980678025,0.6946664204961482,0.5489042730755131,-3.029806098309741,-0.4007067690382049,-0.7452016768847958
1070,-0.9132118452688816,0.6770683411769769,0.5428530898634168,-2.992172530139971,-1.325650435551288,-1.932316543962557
1080,-0.8917087743794903,0.719170022863301,0.5394185649128923,4.256015848377647,-2.0139185102321058,3.504044471280663
1090,-0.8749046698750587,0.728964722489765,0.5489413177485645,5.200982433576323,-0.173789116458674,5.8525615262666015
1100,-0.8900193224135452,0.707179948052938,0.5435347495352899,-0.19044613426769175,-2.806115233005476,1.2877564113949016
1110,-0.8919826608682927,0.7030790441993944,0.5521587409347178,-3.1496578040910586,-4.407173330966658,-2.236430509111985
1120,-0.8791093250537394,0.7152245116327489,0.5768515798705289,1.2567221164132036,-0.2705648083061363,0.2217918183108717
1130,-0.9116114215326203,0.6731311778121909,0.5512721774605246,1.9004940268793944,-0.8600688442491458,1.087475029279224
1140,-0.9146996891469344,0.6857578378283954,0.5384397945844094,-0.563286591482562,-1.7664155939019481,-0.4700625001094132
1150,-0.8784509945256846,0.7265824675648185,0.5499250422885903,0.5527323065481515,-1.0065615077188592,-0.047018805920333695
1160,-0.8498320199787884,0.7433958655574653,0.5963238608472555,-2.7907442975554626,-1.45527221083068,-2.738462358176281
1170,-0.8900836885169185,0.7076506196218885,0.5740995809249395,1.0366470687493572,0.8353888790475792,-0.16204213927661648
1180,-0.8725559454514072,0.7328635208071119,0.5728959272670417,-0.4975900570955025,-2.626298450130428,-2.1056338173474405
1190,-0.8714639954796349,0.7288908991171955,0.5563644637095585,-1.275160753080653,-1.2583496477853422,-1.4786068481753698
1200,-0.9020260455619296,0.6909837379616607,0.5473594513123256,-2.1502730074390333,0.37636850795910504,-1.1729658669203344
1210,-0.8958489931351863,0.7039713178972801,0.5672687744451483,-2.8847251812811914,-1.945423902074553,-2.0906809971206606
1220,-0.8796494663055066,0.7213676682304939,0.5919435722939792,0.5183053805814207,-1.3832582964908973,0.1820344240771007
1230,-0.9069333977600438,0.6870413497807206,0.5348138874075531,-0.521571303453774,-1.1123956213327668,-0.5074392471995024
1240,-0.9043723943073212,0.6835559873003332,0.5285993415105908,-5.955600421055582,-1.8241002044104135,-5.443714700811778
1250,-0.9099230572888041,0.685337009397599,0.5522139257857651,-5.08021164761621,-1.0574766016083526,-5.001665689103461
1260,-0.9009150754330174,0.6944416604487452,0.5655902985777367,-2.329165179099058,-0.24468668609469613,-3.8913500521916227
1270,-0.8913788725216873,0.7055115096579682,0.574461559798551,0.26742860913995625,0.4839124560097383,-1.8205001543993065
1280,-0.9056087046737721,0.6913778583589835,0.5530217480052464,2.7480062375615804,2.1661967481160618,1.22168468490954
1290,-0.9020200596127022,0.6955878783191922,0.5489186925866523,-1.6907870373261726,-1.5110541746960748,-2.0399307293499365
1300,-0.88381494955483,0.7096125543173516,0.5598409715713669,1.2743922159507934,1.8113531271870393,1.2467025284021016
1310,-0.8856291583669711,0.7040038005101997,0.5711392368000551,0.27052478255687207,0.08149998797257943,-0.6808507538442523
1320,-0.8839232297900268,0.6986559950644,0.5755576160588901,2.021823870882114,-0.48818801285428304,-0.6258731914061944
1330,-0.9163554604055919,0.6756107793304146,0.5252717203322401,0.9667118542539141,1.4746364424114007,0.6557339860022475
1340,-0.8734512261535173,0.722510918808354,0.5816198857317693,-0.9207626228188909,0.10227653447661658,-0.3923676335388027
1350,-0.886054363065839,0.7031915440835014,0.56551579111867,-2.5712496786361325,-2.446890751320879,-2.494258219826319
1360,-0.9102117686918925,0.6753162510405366,0.537377347348388,-2.5601898809265933,-2.914732996712674,-2.926533667621381
1370,-0.8641725308039362,0.7208304609671881,0.5808217055935396,1.9966645825181848,1.5844918424494725,1.3270532953637686
1380,-0.8755981927140638,0.7129506566519744,0.5705041150200716,0.48430870297145473,1.3990046327113415,0.5826213096178757
1390,-0.883034612994796,0.7097255696380649,0.5664415380706326,-1.3184164487543655,-0.2478604394958575,-0.7175937641096752
1400,-0.8982680743281372,0.6896088209853649,0.5541104554476054,-2.7048691107419187,-1.95201603818722,-2.021028131498486
1410,-0.9042418814210198,0.686796673917282,0.5450404667700768,-1.8187061121447954,-1.3323411838843608,-1.328003648817224
1420,-0.9154560280265418,0.6825863332763933,0.5361559750988271,-0.2976695884262876,-0.18526754515037733,-0.02914550139590125
1430,-0.8903710945565122,0.7096984705550536,0.5625974941769397,-0.6297351188683613,-0.009642935670429481,0.01841680343542179
1440,-0.8915736400884371,0.6977602581471113,0.5699597393737612,-2.815439023562256,-0.9819121915120592,-1.3723181959528201
