time_ms,ax,ay,az,gx,gy,gz
0,-0.7774487858689002,-0.07836691740598857,0.3452462766853388,-0.0011318085882747742,-2.390449925118094,-0.6133611134512629
10,-0.7648238411999553,-0.05917737622161717,0.3680813566304181,0.1412960091785359,-0.3102227487024443,0.12484191930485922
20,-0.7645275990141635,-0.0612421377702565,0.36374219112037065,1.392241020893814,1.5653637373960798,1.7657722504330868
30,-0.7537188847282837,-0.05268455082000019,0.36310284252993086,1.771441836753,1.4671450589280453,2.695308911709939
40,-0.7580627986356299,-0.051572342937780666,0.3605257439770113,1.4684454182443307,1.3147807024894997,2.5351577013252875
50,-0.7545015446127133,-0.04399441898677933,0.37288719241385243,0.4838216487474686,1.9290676246645444,1.4857716102134597
60,-0.7480782654332675,-0.04283071461018966,0.36952268806204247,-3.899658487382513,-1.6042499032552504,-2.6942182600195004
70,-0.7499250899829519,-0.04891036898017654,0.3764117988156308,0.0370380355940787,1.4457744478416752,1.2745218471839634
80,-0.7548314104560391,-0.05111196556225507,0.3728570808798117,2.926182827533076,2.0301457670784013,3.6938781064458173
90,-0.7823438802637636,-0.07713197490868204,0.34901576762459285,3.2890941842265056,1.6325758718942434,2.2712050725489443
100,-0.7536960280879178,-0.050941086547345166,0.3728338575470968,4.198581523207732,3.136497862863491,3.172469624338131
110,-0.7736368492476258,-0.0693649182879374,0.35461257696597787,-0.9347412591830419,-1.6228314506606882,-2.1737374731549424
120,-0.7728946756582943,-0.06701333798610457,0.3534250434555199,1.6369446380397488,0.49167311444421125,0.7657818674334589
130,-0.7683737970514459,-0.06489028512193501,0.3572704108591725,0.8299947458159201,0.00880307575368644,0.8145042599689476
140,-0.7816263770967181,-0.07719197432360445,0.3725797052152847,3.510892233613224,1.6372104990610055,11.29958790817589
150,-0.7841754371647822,-0.07768587175738953,0.3657246834666598,10.523603405384403,4.634586399895427,22.8430565220375
160,-0.7685195255682756,-0.06331996136686999,0.37995912134553406,20.345057248921613,6.175952491681599,35.79988329938247
170,-0.785350352721637,-0.0777419750690373,0.39719532348229364,28.46551022257077,4.656159149126688,47.698298513537516
180,-0.7768950117924454,-0.10194738845446591,0.46126950619185547,27.02953691725727,3.3491534609752387,51.56391074111297
190,-0.7893312635488909,-0.030088856667500802,0.44824449808915584,29.53720376872428,-7.916573329943171,74.45904635849966
200,-0.7538075383892046,0.07618472964846702,0.4513138125720789,39.87400091574512,-12.89102339960795,102.52165128001452
210,-0.7356170301367121,0.037439510802898084,0.4585996722490347,36.78783332981537,-13.85287169522552,105.54987049502527
220,-0.8022807672878097,0.12157541700742057,0.5018259876693281,39.321184586283316,-18.842933113019523,105.82173675686985
230,-0.6461645817210159,0.03635056171267281,0.46338087510067044,30.661302741547054,-10.045491978649876,86.41506552382354
240,-0.6564694635940275,0.1846946804913179,0.42562102575673094,12.322198803690219,1.3884996770797915,63.37543767489176
250,-0.6169040464942593,0.174371813902802,0.44940106638887883,-11.410226879045378,2.7274562324927922,44.35386265388862
260,-0.6285579373526635,0.10702498835853765,0.41702407962914784,-8.788478705545716,9.33523127798112,37.63506431937968
270,-0.6591880475769375,0.10782092284726737,0.41231883526219903,-7.589733157781139,8.946156984807171,19.81678533291146
280,-0.6695580412299216,0.10634501856089851,0.3835276432226557,-13.34311984755347,11.1979552717391,0.22287918639646453
290,-0.6293866238235767,0.14991531287276755,0.3974965443278572,-21.29842352284987,11.787198507834422,-14.354469090988667
300,-0.6827621472711973,0.14744926398971817,0.331705405455424,-16.15184205099618,18.99259779739768,12.701120076362576
310,-0.7061438626402969,0.14568654441408943,0.3149805876509188,-13.236049091404489,23.568676959047593,12.559583770754923
320,-0.7753448843224765,0.14719321454290546,0.33052035667340857,-10.35802990521568,19.97494501332077,7.916130432060892
330,-0.8390473146851949,0.2006547303649813,0.3120314793615606,-11.338523523601724,13.883952163938519,6.167299859273065
340,-0.8589535834278642,0.23772356253626983,0.3032044068987897,-13.920073442703881,8.79779220578537,4.168376083234843
350,-0.8820206607304605,0.24736128444402364,0.2953460997584813,-11.72673446354041,5.4405286949312,15.016294671423845
360,-0.806667977700989,0.20554264860517327,0.28043337262612095,-8.482881726213,5.860930503440224,18.595130120863505
370,-0.7430324578947687,0.16195708484871815,0.24273608060355498,-9.442528171580097,6.752311740587781,8.957552537852955
380,-0.6999667811616298,0.18453026445588677,0.27640392856850204,-10.238384192604162,5.518321700924346,0.6598222103342746
390,-0.6763742805230586,0.20897236978191125,0.2623241709799646,-9.976056508024826,6.612387601249697,2.6728751349506714
400,-0.7945149942962849,0.1795286773418645,0.29223878514984125,-24.77691114411339,10.535424461953518,-14.07112157307922
410,-1.1277624318399189,0.16471319155038663,0.06395218724561452,-30.38157031571753,11.94273640430497,-15.996780142671508
420,-0.9442307191325445,0.13420579646313666,0.1844430574392591,14.172159850769242,5.946364817597512,7.133874415064557
430,-0.7987770969118702,0.1893894893229244,0.22701572309855883,17.88330811769864,7.953228797546307,12.079934107777301
440,-0.7955445719894729,0.19218090888117537,0.22464454571415943,28.05635842431106,2.6189882335977575,16.327331858137676
450,-0.7565360704938071,0.20224144425956156,0.09229739602011837,28.078225368290298,7.5473818979347405,19.417637300568682
460,-0.7702739059372858,0.16998318059245596,-0.2642395395572326,15.560288430143343,22.46137180460977,22.747651960143425
470,-0.903767020993531,0.12652767768374745,-0.03708326110418786,32.43998778895583,12.277294218663187,32.02122045242203
480,-0.8067297435430119,0.19216659276222442,0.18059476909102054,50.433820692284634,21.137200060282787,41.904416780013314
490,-0.9194014236251868,0.06668368689758002,0.8084193064699757,38.10248940832449,11.689146487781132,23.446198929403256
500,-0.8189619325527747,0.16680960387891774,0.5322171285863155,21.49214430792027,15.316784810678847,15.53958041253317
510,-0.5969812925631334,0.656752911178982,-0.07792843014012758,57.73155213006961,10.970226464773452,21.709760334222317
520,-0.3478150639677469,0.21376005838166126,-0.7935315356702575,37.944674789115616,18.134742303129904,21.290971602001076
530,-0.8177223924946492,0.25818365288517126,-0.0615008261595585,29.75067368099296,-1.3201272218726172,23.521578804818173
540,-0.8794581010223599,0.4700124467274399,0.7289012771547067,6.288225771554538,0.1341309101059374,9.873568142583535
550,-0.9528127413356491,0.3079272633011253,1.0736974826794958,34.89094994295364,-6.583950229765398,1.6440878556086063
560,-0.8325752080454953,0.3996916081518092,0.34258929482438066,22.500350128671236,-6.655236353813174,-0.6662621835361779
570,-0.698689447409704,0.03424765343726234,0.47540700649237827,12.320491475711659,-4.768054842291781,-8.38772900497045
580,-0.6450731406007808,0.1321085579734451,-0.32566793711698966,60.29552583734861,-21.241054967844786,-3.590394250995046
590,-0.6617107250908808,0.17852243745289026,0.062235913380633855,-12.542249087135676,-6.848556859553985,-13.995235743313508
600,-0.6380677424908883,0.36104020646375307,0.24070519003773197,-5.471538652313797,-7.240929768602569,-20.545932759916496
610,-0.7292945806156639,0.23412321874002096,0.3291955531158525,-8.206103362307426,-3.630393557338173,-18.818497545206508
620,-0.746635275229042,0.23844046191838078,0.3251609843867423,-12.147470901605226,3.1962177521302277,-14.65255270812925
630,-0.7655585395777846,0.22417137797107897,0.29641608487802396,-7.388656856000396,7.185056168578243,-5.205775744263332
640,-0.7623368280913633,0.2373562442563902,0.29276416081556667,-1.273216546825451,6.135097365616103,3.096436354889554
650,-0.7715842928830996,0.24955146184496496,0.2741800019500945,-0.8716898267952241,3.0919005847988354,5.670819193335956
660,-0.7613082180569799,0.2592170715866457,0.2907827366669584,-0.17823108690353218,2.847079352575899,6.133343948474655
670,-0.7535834723131372,0.27587925709426275,0.3068769955161668,-1.097379764096996,-3.440435145042568,-3.5159363041122367
680,-0.7697969275130252,0.252326827756713,0.2874962352507493,-2.626625162473095,-3.4333059263192034,-8.489919168661523
690,-0.7487128750140104,0.26539895522197327,0.3110188577890402,-3.2240869928173232,-3.750395736324956,-11.695467594841626
700,-0.7539591321714141,0.2489406619362501,0.3074039438476839,-2.77366207695024,-4.328659982427358,-11.488659021940114
710,-0.7713000080082807,0.22228334274783584,0.295754747064938,-0.7101899872096684,-2.7268089122191834,-7.015217790301106
720,-0.7721798677085252,0.2365231377992636,0.28633218956727297,2.001490234726367,-2.2940041680190784,1.4854623855032643
730,-0.7732106055256048,0.23978979309992068,0.2956987893431928,2.400193851122877,-1.9250766146465836,-0.10913340655508996
740,-0.7965232194839797,0.21774332804858781,0.26765703398567386,-0.39874083037861996,-3.481111610680344,-4.481917937911037
750,-0.7633274021276933,0.24091046538978564,0.2988169608375269,-1.6028452023399025,-3.0440139188444997,-6.592309822084898
760,-0.763391002028692,0.2433665281550377,0.30017635740851484,-3.4935238163806774,-3.3480655082211914,-7.9057393166765335
770,-0.7588901796949127,0.23508545120396263,0.3024306788485938,0.5464177557613421,-2.275361099546951,-3.0905717807515543
780,-0.7727827294554157,0.2151231025049098,0.2969232297007509,0.9727595730836869,-4.782822394329318,-1.6152967466333892
790,-0.7664553994868688,0.22397602876723233,0.3049321229437759,2.254478038296265,-2.298514773725401,1.7946133578837054
800,-0.753276995585972,0.23504999582897668,0.31658563955888874,1.2863467902452408,0.42728210313189285,3.723729415604334
810,-0.7555703241641313,0.24182456355927986,0.31486259848002024,-1.5687019468521313,0.47884387232647435,2.2679686918633326
820,-0.7723937478887306,0.22833886396679623,0.2968849190167245,-2.621666341469395,-1.2061719159087596,-0.3385321517948783
830,-0.7670596241372047,0.2294751668388185,0.29553269586362907,-0.8077979934164063,-1.8847090871444019,-1.1250689437442927
840,-0.7709833837173882,0.23025655551087695,0.29617916981207587,3.02372975548992,2.86253059152655,2.901198913566645
850,-0.7667427415900931,0.23297377420285692,0.30358382928390887,0.2922207464541554,1.3588086561170254,1.2767283589936536
860,-0.800604748792431,0.20299293486211356,0.2785125122464041,-2.0458863239093823,1.2159166564204356,0.2448816240144988
870,-0.7513741407561422,0.24258217904986354,0.3134063301202377,2.6359844331229176,4.690185646004955,4.257558066410874
880,-0.7592181508630779,0.2479069643352638,0.306554901114747,1.4791288415016042,-2.4285447073626765,-0.037323366046693174
890,-0.7621852441107471,0.2394680947456641,0.30530002460011496,-0.011133052793866671,-4.498852293655399,-3.382106085142106
900,-0.7799557931838556,0.22395183560687998,0.2923451587734046,2.829048707848151,0.3984313568504285,-1.014289100561811
910,-0.7520109436569361,0.25442905712586394,0.3246388128333114,0.05553363298759528,1.639206140541432,-1.9487215212454303
920,-0.7646029116534754,0.22999464676054748,0.3050829561842222,-2.858147307388175,1.0261155520863277,-1.89351598024411
930,-0.7751457294507423,0.22994610792637915,0.29406310110748923,0.319638991282055,-2.567589069128833,1.4208515087450353
940,-0.739712747830323,0.26638682591564095,0.3235590657985055,2.483300786879744,0.24561797198163204,2.97388735907305
950,-0.7459316390860203,0.265667791020915,0.31850685138202506,3.502433596290506,3.06111411755852,2.9119178898416624
960,-0.7702646291659613,0.23390902669873928,0.3021204742950814,1.2658931116368246,0.11648919118743706,-0.4488526113817566
970,-0.7717207362824338,0.22276058790044395,0.2890509111424,-2.4280031397978004,-3.1731625648625164,-3.4209596283091845
980,-0.7594259792256166,0.23658842744473038,0.3010821060803902,0.8524970931218557,2.1045535485039717,3.578345472972893
990,-0.721563401609447,0.2764918619813174,0.3382843174129871,-2.060081238705934,-0.2791511851358123,2.9765975142849213
1000,-0.7892301213590863,0.21850426518516636,0.2763238492813998,1.538830414993254,2.026307222615711,5.465681437858802
1010,-0.7954792558304292,0.21302662623663624,0.2694200253105523,-2.541662909484212,-2.14749620001552,0.6719419985810684
1020,-0.7659912946027032,0.2306009346239864,0.29261310433115156,-0.6989726936256107,-1.8126621270781005,-1.786088146971132
1030,-0.7879851463527804,0.21857013306342724,0.28498322458119313,0.07709469537841257,-0.15211086812605273,-1.9376672276734357
1040,-0.7686962831580715,0.22837627288229861,0.3078226938568021,0.33699456699875596,-0.840663354237839,-1.8517055979273471
1050,-0.7846813562977301,0.20534595358329352,0.28788243123432117,1.0457344375684374,-0.06215642884618444,1.582388276509171
1060,-0.7702481763111472,0.22541217848865164,0.29991515397711715,0.926033684453536,1.9545306368647197,4.540790503866011
1070,-0.7546964141671925,0.24631319344798847,0.31798369339918237,0.09981480280256405,3.0600550862038913,4.9025550516129695
1080,-0.7631824408821848,0.24179618949590911,0.3064012057358393,-2.535057499292174,0.9647460525474896,1.8573830133509819
1090,-0.769310149550542,0.23531329537837928,0.2887151163020438,-4.264046646362554,-3.603863666298778,-4.0665912051142765
1100,-0.760231653607872,0.24101930245657208,0.3076256736212789,-1.3783519299945142,-1.209699715337476,-2.508073263075438
1110,-0.7350334128122602,0.25783875802633527,0.3386234615935388,-1.8030641986183813,-1.2529339964615027,-3.1104870367167496
1120,-0.7960461863048299,0.19672596982769905,0.27600052064338126,0.7750172127796237,1.330382824867043,-0.02947037130925323
1130,-0.7660480049155514,0.23134270701000054,0.3056458828709338,-0.42631452266979236,-0.12268905813717201,-0.4406030957485536
1140,-0.7586926539670144,0.2407891938881678,0.3130931229860029,-3.302430146845222,-2.3968193320983207,-3.5723277401009366
1150,-0.7886465219289587,0.20746557969184898,0.2770516811383916,-1.6538257885544272,-0.2522987059445034,-0.5225219623245678
1160,-0.7682201051139177,0.22999675607577205,0.2945646847832691,-1.086699564421117,-0.7813499682324818,-0.20217670770608653
1170,-0.7693241131618244,0.2332248012593544,0.29857588676488805,-2.291275816153699,-1.5843428626646743,-1.073330032696103
1180,-0.7728561596599419,0.22904133125809936,0.2988524625611907,-0.4630050913310668,-0.37541685090419796,-0.4503479794882066
1190,-0.741299600131388,0.2585938430490263,0.3279755962639122,-1.2167849585816994,-1.4955818142448607,-2.19086108582191
1200,-0.7498416898885223,0.24814383596691644,0.31635179194875424,-1.7278326285867665,-2.1559437513226136,-2.280886643559269
1210,-0.7655251712626084,0.23385166152420347,0.3062407804027697,0.6905124116934143,0.6502676790944197,1.3297375365950108
1220,-0.7647625928677412,0.2338516326958648,0.3062454080361529,-0.18772594718407076,0.18276177193835016,1.0474529783249125
1230,-0.7835348220968014,0.21155919213429203,0.2816161302419752,-2.1265435824576793,-1.5608564222450585,-0.5700653935678577
1240,-0.7587748004181556,0.23871315254791772,0.3123073651980354,-1.8865996363020994,-0.5784256370250432,-0.16962639472712204
1250,-0.7801233554452233,0.2235784455926024,0.2927225535445354,-3.804504395696989,-0.3414257163680945,-2.5304269758685938
1260,-0.8003001457132483,0.19957713247128966,0.27091568634853114,-1.394027497497345,1.2366222301292629,-0.5634416326229688
1270,-0.7849935371314903,0.21240729001046577,0.2849777604640437,-0.288569608885201,1.5667625867679469,0.5614761763287065
1280,-0.7481976853773107,0.25102985352375207,0.3205712778109995,-1.6726748628976846,-0.4012971902025056,-0.606848464379355
1290,-0.7631965900032184,0.23997541034196465,0.3103203533596759,-1.2347772918216733,-1.303493058907633,-1.0945153149976923
1300,-0.7619381450347429,0.2328099938767664,0.31385596770584534,-3.9595893018970627,-2.063056228864159,-4.126667352012621
