time_ms,ax,ay,az,gx,gy,gz
0,-0.8950330491792968,0.06692744735651608,0.35804627234503017,-1.3043058657874425,-2.040404264165395,-2.893175342858286
10,-0.8877955312080986,0.0794713787771138,0.3744650422718597,-3.0211066913432356,-1.9966418633612202,-2.7551083574384125
20,-0.9215459876833303,0.04489443344665786,0.33625724879595287,0.08492228152388481,0.7797003130111806,1.0386464225891163
30,-0.9205237297113857,0.037615564857306584,0.3374510037188897,0.8012601697642074,1.8759596575048743,1.9938275861918608
40,-0.9229223252324307,0.03949835197998368,0.3327788668665969,0.038124761451802214,1.0979208231658812,1.1839828811037798
50,-0.9008444738102486,0.06133785157990631,0.34975740751179313,0.19670373748212655,-0.037265604145982234,0.2613584573824719
60,-0.8994004691585357,0.06359889961432093,0.3493278745515698,2.2961551820674613,2.881004147619974,2.2461945447588163
70,-0.9046621859719878,0.05739900209140696,0.34758535551865105,0.3153312459409323,2.075700785962324,1.3083757816661077
80,-0.9212881747357484,0.04235709536613062,0.3383229687399555,-2.8367071840474645,-1.6673402236844295,-1.777595561887871
90,-0.9096371753309641,0.056008324507623525,0.344495898113779,1.010266940672913,0.37181578894487255,1.1226663572181783
100,-0.9106464483443961,0.05758052969378281,0.346027255158136,2.3017798545956834,0.6604214435048683,2.19464322927458
110,-0.9124128538782195,0.05922097379412702,0.3490458007532268,3.7474840836610186,0.8961639871262598,2.8271969571579167
120,-0.9055936173450371,0.07590758448843556,0.3781596072321213,10.885998469095922,1.0467530501211453,4.158029395616904
130,-0.9170635522190231,0.03596634947969512,0.656969306663317,13.31008506077037,-14.50179822548662,-2.086091834344954
140,-0.9126739677838729,0.13047815009993924,0.3995941352753343,2.0630306559176623,-16.231657862461706,-5.815025836130625
150,-1.0091757884177814,0.12507787177753013,0.4555941626891785,-4.507689746888129,-27.468610456182375,-5.1753948963496965
160,-1.0080608389842707,0.14230683560664487,0.4115853468322553,-4.616181768650072,-34.16950885012935,7.641720136541415
170,-0.9148980304553811,0.07472025659757323,0.43222188947232426,-9.133240808881562,-45.318700076526525,14.183146704124592
180,-0.8017849990147236,0.07685304330463813,0.38686002865145275,-8.444366359099146,-45.534552261261396,21.026815924251437
190,-0.7903213444660371,0.07361757878083439,0.34850540947261754,-11.556204442925473,-40.25896667035632,16.09300214099191
200,-0.7861464906060934,0.0823891248517754,0.3248041904551844,-11.96875843169133,-31.418118582646326,9.370328268410168
210,-0.7307614232611471,0.1593238034582832,0.28853648282957245,-21.574876579522336,-20.440349256024845,1.21577046161197
220,-0.7423669921093805,0.24472324715035848,0.24076799660051212,-33.25558519889145,2.047718920590226,3.4326487484529498
230,-0.9320020384991594,-0.0013346771806005873,0.44566945767227756,-58.520320698924664,33.155520064251036,7.77949616341886
240,-0.8867959991572393,-0.09133154579975242,0.3718167411811197,-45.38591915091365,40.29679304005213,2.6166133116456036
250,-0.9250110882916129,-0.08959023292072443,0.43730219276627613,-34.15593247851856,31.180034074641576,-11.553441052830841
260,-0.9070311465587945,-0.1337977488032749,0.36009330530953604,-0.5091644424542835,-6.343227974434623,-26.511233268137342
270,-0.8543469167468464,-0.09374154713151912,0.4848645905485456,-22.329744340252777,5.038199156574784,-14.73196705453477
280,-0.7551578420578802,-0.14891210960309104,0.6674016175765175,-5.339537838217607,-11.470229957527973,-5.799628110510614
290,-0.6237262870616151,-0.30614352850525683,0.92137575887905,23.85722094779301,-44.08222043321629,-7.911852538925426
300,-0.6905329286160937,-0.13491562746746097,0.7464697589673079,36.827270342321455,-51.02420666728851,-13.970304642652515
310,-0.9032201399961167,0.02377976839119731,0.48369482428474625,-1.4697191923873403,-52.908434570179075,-31.391110941417605
320,-0.9010987839706524,0.1654019925818709,0.44610881770911087,-5.41600410662584,-44.447448715847166,-27.38648422109564
330,-0.7359215876301963,0.05816776054738651,0.32142207092085334,-16.982236844147657,-36.66758655121616,-25.046230144150673
340,-0.8547608435597779,0.06607914372907976,0.31006462406337104,17.138810434068727,-18.033917194924488,-9.945108650951873
350,-0.9479700379756618,0.059017661419097305,0.31707057392693055,17.09773222356684,1.0340231628100716,8.585910244710846
360,-0.9257499583432615,0.022576816170065475,0.3793059102326221,24.9001600996029,-1.4334291557293424,-1.9251952727175066
370,-0.9664512287292009,-0.17411607686495997,0.47477277607283724,77.52561041970829,17.610150359904953,5.20862343554805
380,-1.0750778123917493,-0.05432037653756677,0.122447131378742,128.44530580011326,44.48590549057055,27.41769605815126
390,-1.0255959814303597,-0.040774306628549084,0.5935787975457604,63.092766933474536,72.60291912577205,25.464745850330015
400,-0.9269578166384929,-0.23052855200172065,0.5821475054031066,-55.01273934803426,95.88641697634108,34.77760575166239
410,-1.0218696037078856,-0.23168038563054863,0.6953219789550998,-3.4340528997867645,66.42205310446857,34.52175265100222
420,-0.834737096965268,0.2548440873949284,0.4826217795328201,29.290043331628198,34.94129636460476,29.24650558112604
430,-0.8886339961808868,0.27851048106754506,-0.010022208754553273,5.137537580486298,29.378911619538712,9.19830559699992
440,-0.8783150573601514,0.1624641020526694,0.18755692709625266,-2.157429195246665,9.910180127711467,-6.414502574225148
450,-0.8790945832686359,0.05893384497814992,0.4227969762728174,-0.418572799253653,5.2091665633247,-1.5377056626629604
460,-0.8604783479037185,0.07926920197275954,0.43556125934878226,2.962787479288456,4.4845455378535295,4.419370718257294
470,-0.9146918327192689,0.08846464829797766,0.37940078849341674,-0.07519418056597338,-5.19349265042765,2.045195026715099
480,-0.9212188570525964,0.02209918230901084,0.42598992286255544,7.694016801680101,-13.156977114379442,-2.1841987463169086
490,-0.8896356258739393,0.12513945606364182,0.3382461460931666,5.330282532623923,-11.933028894902211,-6.9521040955262645
500,-0.9217337448102312,0.17721863105962174,0.2838497434215243,-5.406236746230364,-7.329294227072642,2.34888205463801
510,-0.8094926741364061,0.29058954090234007,0.32528057452848597,-23.158939699476505,-5.459899883932458,30.288277708387042
520,-0.7521782732485276,0.2527877816576008,0.2785009381061208,-36.27443478249283,2.9826536485552,30.553168520598753
530,-0.7492009961585173,0.1500229683182896,0.29406566834460385,-48.08829123717756,13.11366687640633,22.723540039695276
540,-0.7540929067251496,0.043025592288556555,0.3022058219138226,-61.135264791648375,17.274388652826964,-0.3144018170317766
550,-0.9243824732215544,-0.2398063978134559,0.4463571370431673,-59.93504188186985,22.110871588538878,-23.324397661683776
560,-0.9330789616847637,-0.56514411135377,0.4366556095366202,15.146862530658554,11.633255266686394,-26.525658011524683
570,-0.7891112985886934,-0.7209460932129316,0.3788723038630186,66.58191442860796,-4.082788457390739,-33.411411803870514
580,-0.7522621330571413,-0.11144256231814512,0.28246522967354487,77.25665518518308,7.8150790502858145,-11.618836718856526
590,-0.8382668501949216,0.4980848853874334,0.9376698144682966,66.05194424737286,-15.239840308314921,0.7238943320396887
600,-0.9598750886011191,0.23530814943037856,0.12983482628427073,28.20845980515801,7.276266271715414,-5.052821614588879
610,-0.9532904865121045,0.49357013865276816,0.646251831721917,39.60574302694604,-6.84861697963168,11.094148784604473
620,-0.8938164944613223,0.2269149687086531,0.40180397567860904,-9.592906423237679,1.1444587186942776,-6.019415707458539
630,-0.9318105370800935,0.07854322167484225,0.3472397765856803,-6.5302297956137805,2.8146525820962243,-20.08639439358402
640,-0.911110642026607,0.06204997282385197,0.3383703169665199,-10.794922961554544,-1.3899777166399554,-29.658617246212188
650,-0.9016918143427991,0.03578351434344518,0.34995025738056873,-5.741957802572387,-1.0115327529447637,-26.356455457926714
660,-0.9132266916963842,0.02086882713213517,0.3425166585886325,-3.020054079309161,-2.408966002622485,-19.523113279452186
670,-0.910499577211817,0.024358095497569097,0.3514849367786884,1.6117502257266771,-2.502730093707979,-0.9805797184490268
680,-0.8990901635687908,0.03800801185500577,0.3635646899441333,7.822955877891931,0.5192762196866492,12.756603500151376
690,-0.8906229176945943,0.054365710161448824,0.3613844196723703,11.950338388920006,4.953978181553211,17.136394222986127
700,-0.9125935013705152,0.06292171453630666,0.3486652515726172,3.8123845286740803,1.517534315002744,9.084195854998933
710,-0.9289239024574418,0.04887308617984985,0.33070457184248825,0.4436531676591153,0.5921897108506777,2.4493659646458124
720,-0.9113900795182202,0.05900065293257566,0.3383396626259628,-1.8464754847137215,-0.08289808750991651,-2.378288426246869
730,-0.886931655669589,0.05746506605653781,0.36536357197298297,-3.6880322608340297,-4.7740673395218,-5.307204332591788
740,-0.9014419592172929,0.046177367091309963,0.36051712223792215,0.9693868654146245,0.7853688039470016,1.4090628959209162
750,-0.8999634434028629,0.055861255199481555,0.3614584463317049,3.0391170611985303,2.9210810675714463,5.0875295292827705
760,-0.9140315629737369,0.044290227843826684,0.34560255465068956,-2.9812764705930404,-2.8950505644865823,0.0526176457441645
770,-0.8952656030117735,0.0607011092467199,0.3687566832101232,-1.5495234689656272,-2.491591972112487,1.2918166657224814
780,-0.8957944260820351,0.060696380204733946,0.3622198511133722,3.387104226295021,1.6576672602254803,4.469561073373892
790,-0.894819660169682,0.06327513223636454,0.3637639296599555,2.8798776042041467,0.9088336282625671,2.3987185633547177
800,-0.9051916830515789,0.05365820913866488,0.35120168167724514,4.41130117401117,1.0922966721982996,2.7885157520863766
810,-0.9003926289800066,0.056078450794085605,0.35628209517566234,3.6299419162570246,2.6125243916966836,4.475573441719959
820,-0.896436545196428,0.0644805638974485,0.36358999417274807,-3.8799566537005195,-1.4207167995478507,0.3383275656206566
830,-0.9116946206041251,0.04207412723200468,0.34005517649055617,-1.9628041155156346,-0.17543608806337285,2.183546567163271
840,-0.8791748895695023,0.07726185697595338,0.37122747985882326,1.4573630650408074,-0.3752508377401045,1.0184574027022748
850,-0.8836514562550297,0.08402652420643411,0.37504615385143836,-0.8310594217045136,-1.9231985219021615,-1.7787410240173607
860,-0.9108352267773109,0.05742419329882628,0.35119283493515363,-0.7492331063244495,-0.20702570747742574,-1.2934190203814293
870,-0.9240614323466498,0.048370220972485875,0.3337787807757842,-1.9812393172818599,-1.1437561906117328,-2.1146759847091205
880,-0.9023221306157866,0.06620846100457219,0.35733783069598385,-3.604350137378825,-1.9120480200102539,-2.993971991944706
890,-0.9154504118051834,0.0442198031412697,0.3443460100052549,-0.8321846095316998,0.9060331596348421,-0.3018455504423582
900,-0.8879485240143683,0.07065153426696802,0.3700437322224328,0.29524274433559006,1.539305352141832,0.30156103862427786
910,-0.8970319244026823,0.062335440651692324,0.3627594586074088,1.7703329568873754,2.8680951315624754,1.6714820984546783
920,-0.8843919353353387,0.08339507095419,0.371445220378551,0.5977754938921978,0.8694482814101664,-0.6468721518980782
930,-0.9039124425403362,0.061006333151259765,0.34835534347058017,-1.4573625014593996,-1.7621709204821345,-3.1509881792818817
940,-0.8713227805232832,0.0889963588921084,0.3753413777933632,-0.18511290840485306,-0.6645851412116701,-1.6500484849946138
950,-0.8908657763087038,0.06400315990102703,0.36688966517778887,-1.4042662710153493,-2.733970484682634,-0.7932060583150271
960,-0.8998673967945277,0.061826337099486886,0.3645680270349528,3.805086606176703,0.7907233449929263,3.6014306327683387
970,-0.8813559701324252,0.07700566218641938,0.3799538475817961,0.288990883615615,0.19695577401457276,0.9686680261741826
980,-0.8857723275412144,0.08244181988170289,0.3734259036141832,-2.4430141656281714,0.606212709135305,-0.32781073119537046
990,-0.9220528388617261,0.04694877222919454,0.33637670960963145,-3.4403303741163844,-0.7957332906429627,-3.0090633057806357
1000,-0.9079783233925443,0.05311263508947879,0.35464594989836484,-2.963007296475999,-2.1529997286504745,-3.7357165124308267
1010,-0.9074279883233911,0.040049900164858605,0.3495347458994379,-1.2193431800678025,-2.68668799504857,-1.6621903065930377
1020,-0.9023845224161502,0.048623564374941454,0.3507484538539432,2.622190728874206,0.45206133817843835,2.818429124843722
1030,-0.8834888585239828,0.07682198955983391,0.3752541597827995,-0.83365204016313,-0.9245012375261088,0.21579109511211603
1040,-0.8665168518975804,0.10413271093857485,0.393374080837565,-2.6856639950238073,-1.4183892844032182,-2.5829710692901755
1050,-0.9059980156978149,0.05611825654930209,0.3486820233600753,0.5920761825498451,2.198889868113072,-0.8768040354131028
1060,-0.9105639796833204,0.030851780905965222,0.3463571801168691,0.7733497676999436,0.18004207074576906,0.288986844167344
1070,-0.9133449020943205,0.03629902436323716,0.3443687474459842,1.4251137190046341,1.245242655841935,2.903422694236281
