time_ms,ax,ay,az,gx,gy,gz
0,-0.7884864367860466,0.08035107466608854,0.558776627712626,0.8994696717954918,0.19881904294692504,-0.42900901460131524
10,-0.748590719388669,0.12055234775719631,0.5903111255476216,1.9103364575887223,1.4031345570680112,0.3207697000747609
20,-0.7539075959602404,0.11055779015580822,0.5798116330526157,-0.8984109347233832,0.17156501375728764,-0.6627133027363836
30,-0.762630298361558,0.1074738450749758,0.5834318708892892,-3.2681212931606924,-1.6498161102701685,-1.6632480929824256
40,-0.7999862642729495,0.06299334935488968,0.5441639511919888,-1.5856368978509796,-0.08926529039852826,-0.12612881519675279
50,-0.7975458225864852,0.07295968775417122,0.5519948141771467,-1.1348313942112274,-0.5122423089394604,-0.7814723072938677
60,-0.7547061343131642,0.11469154206475984,0.5825814236793653,-0.389041840386247,-0.15570621983314412,-1.0006038418220906
70,-0.7563595304737494,0.10840597775105257,0.5877776409890629,1.0449336764912438,0.7044413109933483,-0.13229262984278167
80,-0.7551544993111393,0.1132832674469701,0.5792270619808285,-1.52705731628773,-1.1194156322853481,-0.2922831216681613
90,-0.7652112128140112,0.10899823927921677,0.5811553522025611,1.7946309325036984,3.785859977931943,2.8509968490124105
100,-0.7913468910571022,0.07740877155300907,0.5464098161233534,-1.1852496997477913,2.1599782803545486,0.393891796633665
110,-0.7821645034340386,0.08119660150066282,0.5597990475628942,1.3680894572022382,2.5898921215375013,1.9110538354435649
120,-0.7669150646294896,0.08830000093843486,0.5793565858005072,1.006314476244948,0.487419868553429,0.6702764212658154
130,-0.7564683376115383,0.11379171354145093,0.5839191023406136,-2.499831897515521,0.5554498529545218,0.16900030354063755
140,-0.744312904677937,0.12027060379390099,0.5993533485501628,-3.663765160187081,-1.8524174424585955,-2.0633441777299453
150,-0.7608547715207168,0.10798856787607289,0.5853833959492954,1.41531471484494,1.0102793100482657,1.340862798503718
160,-0.7646639233253743,0.10209087066254166,0.5750058662385705,2.0469981193650053,0.10956538429671775,0.5923042230241191
170,-0.7839356928180861,0.0732742515967547,0.5485807888685696,3.833052374100334,1.9257575419161101,1.9861468380671767
180,-0.7619277761673539,0.104410444622771,0.5745447863378614,-2.1238104132200823,-0.1306805598248278,-0.6017919651180486
190,-0.7807927893625425,0.08369238848808849,0.5643683210888057,-1.4397903355552069,-0.5803702223646883,-0.1009997732959742
200,-0.7896337758327596,0.07298791383072051,0.5582710796024332,1.8926890898929885,-0.671429174312931,1.558981403757305
210,-0.7591906558507701,0.11365338028625152,0.587696540976699,4.6315416237905,-0.8149063488714573,2.9528916928970474
220,-0.8248269675630922,0.11944465723496102,0.6380029541281763,-2.8677485110799856,-1.729122212632972,7.9709664571822865
230,-0.9604581132730879,-0.027505959590411463,0.7428212457658386,-10.404288960032625,-17.3292453349429,9.696320205300328
240,-0.858401893694184,-0.02591938950445418,0.6893166638038283,4.347584232351134,-32.94891188281678,-4.884585594995378
250,-0.7066825688174324,0.06991709923686452,0.5480313417095608,13.381078633107734,-35.2396330491275,-4.628449545734546
260,-0.6909791013818718,0.08086647261614525,0.516205045414116,23.24053255554558,-28.94233629652676,-4.514795482778805
270,-0.7459098298996181,0.10931339874678328,0.589809737274282,14.120020318774229,-25.902962170256384,-7.014269986970621
280,-0.6376613539064219,0.11846341768051016,0.6470486236868104,5.906597240345851,-24.60741153835694,-5.941548221405256
290,-0.5894503060762035,0.13376643423427736,0.6259296361657063,-4.134025486083672,-25.069575351985527,-5.605094009780219
300,-0.5804092027631012,0.20822202610346083,0.6141616202555785,-9.12465536376983,-21.616415600640483,-1.0472018047626825
310,-0.5602774806354088,0.16766609653428144,0.6575464055767805,-21.24911083835363,-17.98522268844499,-0.11611049577527965
320,-0.7156564118891453,0.10955862420886095,0.6291571110653126,-75.82449539836175,-19.550933490299272,-16.218579742633967
330,-0.7695135596969854,0.03131561949871982,0.6368158934075439,-74.1818882116604,-18.75839448798191,-19.953203401722917
340,-0.747620259803255,0.0012299048987672364,0.678423837333306,-58.51230021036203,-14.857312664461169,-14.922632495729726
350,-0.6966327010965931,0.04701995985847594,0.659452909348162,-45.789035425129974,-14.234578596267143,-12.857436749395344
360,-0.7188592490489013,0.006614541934271998,0.631943317366723,-53.11739466066277,-10.448462754930521,-11.171157635956986
370,-0.7178618328860972,-0.009382591944121613,0.627567794575392,-43.157012155071506,-4.376847949513177,-3.0538201108642316
380,-0.7194503143934635,-0.06381289047890984,0.6140330826972558,-40.85656436176141,-5.311570292657537,-4.037316349279941
390,-0.7265353992420525,-0.08033166698987428,0.6661039043609986,-45.30265544277325,-2.4692349715894584,-2.5201237467130135
400,-0.6917960529336266,-0.11887572313367259,0.6548446362608445,-51.05925337126312,-4.1996331992215845,-5.900360574325465
410,-0.7083835588022951,-0.09883571567175944,0.6302317591527044,-58.3965241268509,-1.8299901725733871,-6.770401643261111
420,-0.6852451482580189,-0.1990561899644927,0.6313670296007184,-28.904166729117833,5.148154592061472,-8.446372377368197
430,-0.739314608127896,-0.17768644676198952,0.6513386420162786,-8.038309403959444,6.444979105234705,-2.8233725034975388
440,-0.7166391723288565,-0.1196889536984326,0.7065074000629297,-4.045525531525653,3.9398848590796876,-1.2979661041716795
450,-0.7676640961359139,-0.13422890421337547,0.6674855383238696,0.11794017527998635,0.35661841606310696,-1.9312594041057907
460,-0.7169236001524557,-0.11393942053510578,0.6397524918150221,6.034173675409866,-1.2151031233192813,1.0583620196460968
470,-0.7165789948594902,-0.15900941010731767,0.6605726422463583,30.024762125672915,0.5136207165915286,6.045294422377506
480,-0.7275125906510982,-0.12527736295618766,0.6446204089833942,38.89988104662738,-2.2336822586775,4.165129324001666
490,-0.7259803092187209,-0.1019593442719668,0.635066386620747,4.167336604692707,-3.015509478114522,0.11874637822527434
500,-0.7266913373962596,-0.12914526281015207,0.6438575642035135,-12.92090701718289,-3.786920401269253,-1.2942189817026901
510,-0.7068739279393134,-0.1272894340669855,0.6511083426987365,0.6903770557820645,1.287985833479675,3.6547687473906363
520,-0.7320964326306335,-0.09193000945156142,0.6154187297893633,10.54088226238188,3.580383887195986,0.2703734928295174
530,-0.7421558254128546,-0.07397586207827203,0.6051071479469601,13.145874315627063,6.6689512127238535,0.5821665457278872
540,-0.8066548788571192,-0.1336463095990447,0.5478614544205718,21.10451472808844,6.288356916135411,1.400542504726067
550,-0.7237053908909211,-0.08696033537263095,0.6102400547952982,27.008005203522387,10.020424848292464,5.066533815622452
560,-0.6710305271097977,-0.06965769467290013,0.6865141767720322,27.991419504191434,8.100233134138115,5.397771699657702
570,-0.7384448854502387,-0.035311805428532655,0.64123833734509,36.904750987823924,10.629443549552443,7.909755880376671
580,-0.8066610315773142,0.004231084423491706,0.49615595570705934,48.131578485366006,21.476127586134513,15.299568785674191
590,-0.7177941364904564,-0.01653576030902728,0.6303564383525118,36.32115030460467,13.400146597100331,11.774440800538127
600,-0.7417841000582802,-0.08254643786047565,0.5876308933865663,14.530080549414807,8.07099019532341,0.9640457107615403
610,-0.8755739417906442,-0.12431280765813565,0.3951592594085163,22.74854648688297,8.678224404723412,3.7294624161871077
620,-0.5645514410406458,-0.016517032767416884,0.9467574656361941,17.042130997155354,3.7216760534236135,-0.06367023363923174
630,-0.6758045931829716,-0.016227661306249197,0.6733885884477129,28.294094482091133,12.78114165304492,6.680069335562762
640,-0.6056666690654557,0.09503793555894618,0.9118250314229867,22.59278054303129,5.9652469111601745,1.76405627581019
650,-0.7808134839703678,0.0396735594114359,0.5281451221430916,34.33969625924054,6.465987940793957,2.8444717596004265
660,-0.6680620629095413,0.03104696007396403,0.5850903915598036,43.33717718202499,7.916552426267134,-2.1727869867546383
670,-0.6692388122413301,-0.022062702295217968,0.7235050824335001,20.71338188257988,9.044380729185187,-0.4011364106601625
680,-0.7538794866625365,0.008977973494795902,0.5202751345465446,25.8443235031656,11.818188782747615,0.1647339020062688
690,-0.6595750707656785,0.023436832738183443,0.8192448775752424,19.482466492471964,4.923426795613321,-2.9567018639026923
700,-0.8498881692601686,0.006162357815289353,0.5917922245329921,17.219635364436108,4.213962333199646,0.6414063855683809
710,-0.7544776904410294,-0.051823187684028764,0.667548168152773,5.82603494717373,7.781685211680509,-3.492120250505157
720,-0.6405768957055927,-0.0377731478086004,0.828886716897459,4.398203411428604,7.428148266647099,-0.3577612378585512
730,-0.7302779640104389,0.010083880469077468,0.6648917699430883,8.671490250428546,5.944983950428468,3.5770890834713986
740,-0.8845468472296726,0.11120724755853581,0.431340699800575,5.562631786181985,5.673699794042892,0.3462934127877426
750,-0.7119709493682164,0.08058309659067694,0.6160375660321185,6.702255652269054,12.430206478491904,-1.5090328503623793
760,-0.7669936677215684,0.08017651800764396,0.5968096750582657,8.675374642449478,10.487230844424051,3.174754910728971
770,-0.8061427620046464,0.09027812271718734,0.47220446723634035,2.092182185888077,11.096132104735535,3.2411101513932414
780,-0.686178570233516,-0.031727860116739004,0.7287432680893169,4.236556750808434,8.43712207666325,4.303384203843513
790,-0.7306577029738424,0.03803454149525785,0.5955138502748133,-4.375463551526918,11.712655809932654,2.0455013785401666
800,-0.731315759294874,-0.004193140988051966,0.6691029648712671,5.48414916958322,2.384316561550635,-0.3577519522834106
810,-0.6894818412925008,0.05383214742731909,0.714524154608557,4.259566199195222,0.19110807975335442,-1.8840599160907876
820,-0.7913230161176474,0.03909035156394118,0.5478778099710729,-0.2418339567581574,5.391391620289509,1.9984701916125966
830,-0.769431167311161,0.07447514425384558,0.5530219121643833,1.9797944081283445,9.29124905167696,3.4477282128253615
840,-0.7522877025536997,0.11072655083347266,0.6380960737449264,-3.9452795585078206,5.577795961661355,-1.1637577461272333
850,-0.7736540490657263,0.0906572491356304,0.5803387476107059,1.5473063760767778,1.6614715241975826,1.0363876905028098
860,-0.775558305099643,0.0874048950420766,0.571088363467773,3.2978837916473562,1.8281461165760358,1.1951450277024844
870,-0.7782504830655582,0.07878423539325054,0.573073677567973,2.0535589533060494,3.4733042716419416,0.9972762721909239
880,-0.7637651849869058,0.07853190310487028,0.577996566859657,1.1662843373960938,1.3632031540040002,0.3650681724031972
890,-0.7841440663381029,0.04863937548196387,0.5535037478006345,1.1511149895559947,-1.181907326470375,0.6996485796797198
900,-0.8022900610965,0.047346242071081096,0.5452680193574162,1.4364599837312249,1.0102714047655583,0.6012112454305095
910,-0.793088044889841,0.045874108702339836,0.5476459869645695,-2.155703537248761,-0.739581156759767,-2.5329407097428263
920,-0.7541535335559089,0.08637644673895802,0.5918345502610257,-1.8137274494761777,0.36253915554085736,-0.009942371965958596
930,-0.7902741038379343,0.054873587172718924,0.5513976692891241,1.4060809931243505,2.0964341090627605,2.8363034065983217
940,-0.7579887086874887,0.09174004536125122,0.5869764306852665,1.3974380408361093,2.0101560988942424,1.2069666724120878
950,-0.7654041227675171,0.06422969721964797,0.5721383543292196,-0.47825658476564703,1.3865023550955398,1.135777082182526
960,-0.7568249007288036,0.07112006199632068,0.5870559165879965,0.12079842590634482,0.6888729130823084,3.0186560529217497
970,-0.7660673480339681,0.06323055314564296,0.5763118175789353,2.2377664552840484,0.28129598485043317,3.1171052401922825
980,-0.8028376366275156,0.04674054528925778,0.5549129254003016,1.503619156239404,0.2675744626047582,1.2035474865853693
990,-0.7444585841652099,0.10043637139356897,0.6066196009291441,-0.8989548206913038,1.6931374837440873,0.793533974510741
1000,-0.7894996304715161,0.051607794694474934,0.5626961128813158,-4.634728345437729,-3.807607297955637,-1.4892499662265473
1010,-0.7842298487687396,0.05440149775157635,0.5623728372129708,-3.176297835380355,-2.0761979179865726,-0.5714301630137968
1020,-0.7426306248554733,0.09795049173899761,0.5984936977755471,-1.2777712471905396,0.30458083315644313,0.9840701378903273
1030,-0.7866286329434565,0.05461279143668163,0.5539296782454707,-4.515919770498127,-0.9740415305080546,-1.755574050301031
1040,-0.7541275611597037,0.0871164140903178,0.5977968774931227,-4.926170650710076,-1.212861628242849,-2.1795229010883093
1050,-0.7839282365449417,0.04567158504476243,0.5592857992008198,0.1623756313789777,-1.3368367599339819,0.6009755046584746
1060,-0.7699959037370662,0.06933124865057196,0.5731772705431073,1.157689671941184,0.14766647685700504,1.0880458726826063
1070,-0.7597420848911076,0.08264237795067186,0.5959638040754177,-1.3413560217760698,0.5100247914635719,-0.11461874877416384
1080,-0.7780382816944148,0.05764012245800819,0.5653492456661712,-1.823417793295996,1.2358916143313676,1.0515423605316512
1090,-0.7790407975476705,0.056179614031815525,0.5657656594478196,1.3094124173549218,2.12453297393326,3.324073385516564
1100,-0.7718228245252883,0.07064696749891972,0.5762866260749656,-1.7148065563133752,-2.0760617214735713,-1.0102344932893939
1110,-0.7814886245173949,0.05953367309847128,0.555994404270336,-1.5546693121047097,0.6837210507622382,0.8996286730312839
1120,-0.7645086468977353,0.08262030952026538,0.583705028551985,-3.8554932425126007,-0.7430828089228216,-1.1000809436325267
1130,-0.7821600218688392,0.05410968602255023,0.5635893095664113,-5.969470332830149,-1.9648587653537983,-3.8191278879871104
1140,-0.7572810193348227,0.07884002999208803,0.5886690980181898,-2.282995263300942,-1.398379166087961,-0.5516441822779817
1150,-0.7716041167580827,0.07214660188822898,0.5712347047188704,1.1953606941228725,1.0304782252834195,2.9148146687282086
1160,-0.7766672574342828,0.07397401168890581,0.5730990473933225,-0.3396918930352686,1.0281840404729223,1.1024337515475255
1170,-0.7775219287898533,0.061504178200752775,0.5668256251175028,1.184617266516634,4.553153509466628,2.974492374754666
1180,-0.7785419360682286,0.0499983466285113,0.5700064550351541,-0.9922218732459018,-0.012916060176790173,-0.9357583542435969
1190,-0.7561095050079827,0.08276279187047696,0.5890287452590757,1.8470558469155607,0.9118854777472911,1.9701076622830538
1200,-0.7544323130244437,0.09342377658782616,0.5900973443680402,0.4712473763186169,2.2691021713497013,2.1219320765188536
1210,-0.7950947031889488,0.04480262173354865,0.5507541650556298,-2.9453000719423725,0.30437140679647556,-1.55064168160248
1220,-0.771098983523314,0.06358886291538132,0.5745546477393522,-1.1667702242478195,0.208628445566708,-1.4406173723978661
1230,-0.7836581625389638,0.04807786301440795,0.5680388222926595,0.7756859301983874,0.8356609330299958,0.7796137780482595
1240,-0.7493267231228321,0.09198246335914315,0.5995268184729501,0.6023253827092273,0.8707669061010375,1.402940188607403
1250,-0.7591707371306237,0.07141223482582595,0.5930673191977629,-1.548428615235028,1.2831189531636742,0.7773024341045829
1260,-0.7681208099940284,0.06434645514382126,0.5751493316398778,1.3907879400635492,2.9158316387885175,2.7978679805941287
1270,-0.7658276425828225,0.07342243551651245,0.581355750592196,1.8821909691893874,-0.7357877580468011,0.5075773911583114
1280,-0.7713331411248793,0.07136019628472381,0.5670979207715251,2.606199505731388,-0.11105045559721285,0.571659609217259
1290,-0.7878483270082132,0.044639033321758434,0.5590146209942878,-2.4743824410492667,-0.30672716250572124,-1.2490849866471985
1300,-0.7634793641318945,0.06692280738000028,0.5824977695387462,0.6572235074824855,0.002838072908752459,0.26344692350442517
1310,-0.7358087331573144,0.08846254463815831,0.6074645677463029,2.931916779168826,-0.15395544415429083,1.3560003601768753
1320,-0.7508317238442076,0.08124239196562477,0.5922435669309228,1.307513124128627,-0.847254446057706,0.4365649662046305
1330,-0.7663416960649923,0.07984002017421261,0.5813129162071801,2.153151699485703,2.7740992073763495,2.372746745104875
1340,-0.7646204543612258,0.06647520074201091,0.5802941726358315,-1.8142107615120415,-1.488435144125335,-1.9334736093429894
1350,-0.7574601987372038,0.07353149354627175,0.5868453872290598,0.4990212955151463,2.1980358611856237,1.6656958997382696
1360,-0.7468743844214223,0.08414300945292737,0.6031013143919118,0.1447128838412517,1.266163763168707,1.4316117819626923
1370,-0.7791344550976185,0.0500557280418458,0.5720920276996572,0.12794686295664515,-0.42388884794827,0.1717176562983196
1380,-0.7946544282138421,0.04288483989733197,0.5486138625103409,-1.007846860469177,-1.0345038366739945,-0.5171665530937027
1390,-0.7792657769679855,0.05444825162470243,0.5652230780168453,-2.863582391050646,-0.7365794106574975,-1.828319445218717
1400,-0.7477944910358512,0.08200555966643933,0.5983425941619949,-0.6612598773333005,1.0779273659492092,0.5210647955261309
1410,-0.8038783612796688,0.024486139471264608,0.5427639989166922,-0.6760174707273104,-0.4581680294989255,-0.4519457659851449
1420,-0.7687701854402827,0.058775276134822606,0.574365813229346,1.9036882114408884,1.6845843059755854,1.8109016870177157
1430,-0.7622163173229434,0.0762574247032884,0.5853608621415,-0.37867266309785785,-0.6966945427449859,-0.49852882175733143
1440,-0.7664368638891141,0.06609950346488032,0.5799435676604691,-0.7669456071996653,-0.03632303979372234,-0.8975775817672204
1450,-0.7562465173176047,0.08254958804965355,0.5915709623557145,-2.8004469083156946,-1.270967227120811,-2.9725978456791933
1460,-0.7754950067722025,0.06140618607620769,0.5660699039492031,2.7384280432400727,3.6820815258866872,3.4587195992040165
1470,-0.7598222039061674,0.06629926606894775,0.586864287014899,-1.1988610763379208,-1.025663172246723,-0.3820789076203374
1480,-0.7643737065398306,0.06687488021805348,0.5806182462416806,1.8632286943800946,2.013244735748688,3.1100840610756393
1490,-0.7327711218589006,0.10780273141621258,0.6219007963802603,1.9963559105961466,2.3103687476243273,1.6741635914722368
