time_ms,ax,ay,az,gx,gy,gz
0,-0.6167922122203756,-0.055643741599785794,0.6025606486176422,2.636376839617439,1.8326431439167934,2.9547784918616484
10,-0.6214820678789059,-0.046200799649076404,0.6073085391110808,1.9974931637544737,1.7696874524337767,2.7629017607000668
20,-0.623952806539919,-0.05281623332088664,0.602119792276424,-1.9745022161667065,-1.770943502927662,-1.7384946748480132
30,-0.6247682052334843,-0.058957265199204315,0.5921733062055814,-0.8549573756171125,2.254556421498267,0.8480274160251993
40,-0.6312577348958384,-0.06707150033290755,0.5852132539875006,0.31653457453019773,1.5276368635622675,1.4100182755195583
50,-0.6194779640278375,-0.05536390654984471,0.5955787034872718,0.7053305953816578,-1.0105838264598674,-0.17009218349383115
60,-0.6170275475361569,-0.05056417456838842,0.6003647326430751,1.7175964478907382,0.465727747969729,1.3442477795965422
70,-0.5921700716598385,-0.023595871452444774,0.6259958056007362,0.9023231528819136,0.7445663611764299,1.178981341459386
80,-0.6142129239103143,-0.04394567440960638,0.6034793983643012,-1.7522379610379424,-1.2659372881094766,-1.6302440200494899
90,-0.628407614291233,-0.06312367612870212,0.5903722497154126,-0.2035462661771827,0.46841985826012267,-0.4874202646623004
100,-0.6011152124400645,-0.03683444084236028,0.6187806024890257,0.016819099157322992,-0.2477939364358095,-0.6846920336424627
110,-0.6109627472567689,-0.04536211712405101,0.6070540987747823,2.9123620842120115,1.0603674864849033,1.9023656147303059
120,-0.61974984658551,-0.05535076657943106,0.5969234346264025,1.088854736858596,-1.0960831756498783,0.3387649481972258
130,-0.6207514786671069,-0.05143206041197032,0.5990750700874561,-0.46110678246000947,-1.4715857561970103,-0.6239437241016216
140,-0.6219042885215276,-0.05160340179406008,0.5997248842029329,3.993652753428295,4.048433983554659,3.971028603768811
150,-0.6059279067463621,-0.03125080534442101,0.6144804711678764,1.0541077407946078,2.2981815385969946,1.6744594993533042
160,-0.613512569030699,-0.042698587885782874,0.6086891860944825,0.8088203770811462,0.619077436786757,0.7126509524123035
170,-0.6441610638477713,-0.07094997694499648,0.5960966109313562,7.788987996289015,-0.4592667697059397,4.350156266315417
180,-0.6434120780676439,-0.07339482369810246,0.5852013529725876,5.8694992505675945,1.8250925459706129,9.049861805454894
190,-0.5813374954832862,-0.1323211678797435,0.637784368298341,11.65037847758287,-1.1925769613870951,7.733729886831681
200,-0.6521230198559219,-0.07321799094444442,0.564162621523054,14.266244035979362,-0.3777676915279478,10.51378094189972
210,-0.6386187901957119,-0.10039229651958628,0.7685098909478746,22.153718169033432,-7.274386553804214,3.6483425979936115
220,-0.7644273122047346,-0.16938023702480526,0.6506763468492796,0.8325318908842645,-14.716722090776935,1.0060443566476716
230,-0.5514515243717384,-0.21099466900991604,0.5968556806155407,19.724786431224064,-54.102486514924344,-25.143612270044468
240,-0.39712239082586803,-0.04078872769122827,0.5055537381999802,-17.511141680439966,-54.419186498024345,-25.442598668698846
250,-0.38156147254040124,0.037059123281144614,0.5170067733125832,-33.845097664220226,-41.53994764249099,-23.80136027548322
260,-0.43058063809782704,0.05723668991448554,0.5603748489513487,-38.08902605814642,-30.606260543724506,-22.376071023567647
270,-0.5219277141417721,0.012984061788081924,0.580428683790214,-55.66326562279947,-24.00152656887243,-15.784557047535476
280,-0.5776386589378358,-0.04068471209753274,0.6142659997544235,-59.11603394082111,-20.517400131365214,-9.494018283994889
290,-0.595461518612185,-0.06525114139885557,0.6128313289067993,-28.94176559484858,-12.23638002128282,-5.561007534139451
300,-0.6027039065527469,-0.04296973008247455,0.623953129905078,2.113260226641293,0.7207923933034441,2.2608646324953856
310,-0.5416849019254069,0.004935602739611928,0.7260336795571973,-8.973130124066905,1.046359336113436,0.9616439572872949
320,-0.5819124461995182,-0.05867278187093519,0.6717830594750384,-17.798667450359986,1.370055736550872,-1.6675597699581177
330,-0.5807443128278172,0.021683173288292175,0.6324731831106559,2.1578228690898267,6.36992634945136,7.141674940632203
340,-0.510198925769495,-0.03627341635594221,0.6048491421928336,-11.759371766932913,9.387424162291865,16.056686342793167
350,-0.5465131145323568,-0.08253751790603375,0.5755836602546966,-6.25545279185798,11.993270320944152,10.448020614683129
360,-0.6002895307544296,-0.09594209755147615,0.5849223480086068,7.565141765304421,12.802573961719514,-1.1952630503754311
370,-0.4892172647501092,0.030581197542043526,0.5597975289963539,7.026151658361383,22.312451493083632,7.411852364606135
380,-0.441971020593007,-0.05242104614137955,0.5125298930486148,-1.5917746479543644,27.900626250593284,9.20523304194925
390,-0.4279388103285201,-0.02184200278697927,0.5017775701055117,6.0341872525319875,36.06518358842857,14.260197791408396
400,-0.9162921567473211,-0.08557023205173997,1.338088086821153,-16.612963986496382,22.957289118508136,18.460317369504583
410,-0.7608365446027406,-0.23165861170393476,0.7451165846077041,33.146896094566095,6.0899572808069244,5.676439258292001
420,-0.6814919034413929,-0.17410704520140047,0.5450978884920245,-5.789120436205851,-3.647014299905941,-7.183836851420738
430,-0.46385958095377783,-0.23105926112346742,0.6318933994109337,-23.89760254220839,-11.781375634572004,-15.38974500247036
440,-0.6401449891088525,-0.12069006207112631,0.5336463180095657,-21.124739109645247,-8.492444476955866,-14.841038965642339
450,-0.7452715866612563,-0.04392040610495371,0.4633277735205967,-7.792273309808433,-6.859199199325415,-10.534320292562668
460,-0.6301696053558534,-0.17885735567711133,0.5774957396953987,0.17726503602523636,-12.546915279608204,-12.431008705761958
470,-0.5337987451727357,-0.3050848797336797,0.6585041969991834,21.16410772506708,-12.995793063393382,-10.327342191878358
480,-0.6168150129922955,-0.17894103071686804,0.627761419419467,20.100774186583376,-8.945477895338389,-10.76797566599615
490,-0.6839719803042928,-0.08593885644916723,0.6136178830955584,6.690595521638203,-4.859674448603997,-12.60818319230928
500,-0.5988126765670436,-0.1689386264513464,0.6552952929331493,6.26151549163818,-1.47805133752191,-8.70123297555648
510,-0.6141332756169875,-0.09893373639504771,0.600487381075314,-12.441406740798655,-5.706623462256194,-11.504018032735575
520,-0.7149861793788239,0.01934947833365764,0.4903504970177386,-8.933099416468911,-6.308019680520215,-9.556890421743837
530,-0.5963252245393158,-0.08989621315365674,0.6332678356263516,16.08295110099974,1.5585531106542863,-0.015622881122588472
540,-0.5513334505360281,-0.13942863474937753,0.6208600001985273,-6.128370153734615,-6.061443107947554,-7.901805108859884
550,-0.6036080658243552,-0.11868936104115378,0.6174702239292817,-5.491947420170381,-1.3600998832503097,-1.9642917866170624
560,-0.5695853682320298,-0.0932394469568989,0.646678544694717,-15.089651678842321,-2.050498795325749,-1.2925301183656863
570,-0.5745061916904866,-0.11577429835693027,0.6510066303548279,-11.378460510256746,-4.092602149759872,-0.8169292857888576
580,-0.6274485995112494,-0.1535278800006842,0.5859309545313253,-3.774112100373345,2.8397533226845617,2.4417071323534234
590,-0.5762786670639699,-0.12293641949062896,0.6661743544174893,-10.69952799657283,4.680500117586889,-0.5828964639351275
600,-0.639244673275296,-0.10805192148714406,0.5800558743638657,1.2345796606834416,15.907627188868757,4.122633354316458
610,-0.5545000616659209,-0.03705962512433529,0.7822931979693062,56.78090245950165,19.321381216914308,5.932855364933918
620,-0.4434846861863305,-0.11010507827051993,0.8716500327607999,49.295878451148184,20.53609135202673,10.516815785573138
630,-0.2274913686225377,-0.11227036727122675,1.5434938769536457,41.99023065294241,26.903973056338494,12.644118522196097
640,-0.3240659688196731,-0.02101198640464024,1.1934672280823295,6.735157668273142,22.773176421099915,10.695885133955079
650,-0.5415889780092087,-0.09807018409983835,0.8537528697175083,-4.545205744769237,23.607710847807972,14.93260283803861
660,-0.48435159028305635,-0.008728028055007898,1.134826122445491,28.64680278143386,23.160463166816367,17.903672394708558
670,-0.5526303250988571,0.04781996467376567,0.8061796852047312,36.870321716717825,20.291984753830246,16.79023924496198
680,-0.6460564375822807,-0.04705397081357489,0.4002702159523987,17.04923776709145,14.868454686442643,9.513063376940107
690,-0.6016687372666342,-0.09587191515134867,0.5245932895241847,20.380529813643957,15.546177795249829,7.345740609031665
700,-0.5765169176110686,-0.05711818511363717,0.5955648361497874,11.81998177615326,13.748085554882664,6.98577990341104
710,-0.45583493379804807,-0.03385323735196205,0.8546380247595529,-10.173457880001695,5.8256786646892476,5.395871709838014
720,-0.500418403736424,-0.0483440419399613,0.7513704653564354,-9.535348476992365,1.1773908424562336,-0.12290370223977143
730,-0.5909170773387683,-0.05159589985087206,0.6443027994301851,1.4111618694628587,3.1683844352798713,4.930368570937878
740,-0.6423208899206017,-0.0909538295498416,0.596954632245447,14.683600980339376,-3.9950391447754736,7.284075045209452
750,-0.6336748822858862,-0.06386140409291781,0.60908312794494,18.897931377157807,-7.864726232590597,8.991036997432051
760,-0.6520189548993686,-0.05609209293024321,0.6123467153098124,38.601955559211106,-6.932758406000731,12.684750138594369
770,-0.6337523804821374,-0.0024429433641646233,0.5808157898378644,29.378902640149626,-7.3647857049257155,9.507782406973824
780,-0.77431322144664,0.08832924759342729,0.45731582637305873,18.613203814917654,4.041414901325515,10.998767316497414
790,-0.6205093873694608,0.23871015840613852,0.5562579790418655,46.87238383669632,14.253974223969164,31.815562167823092
800,-0.5845487392443829,0.06916110214978206,0.5770234832086769,7.641552262332596,-5.4925398125127485,13.381095674868694
810,-0.5356037686039398,-0.008645332732002301,0.5690627421899362,-14.349834122306842,-7.678000743908093,4.244026948580191
820,-0.5677049285406699,0.06834213650605901,0.46494719202878587,-6.486031137102206,0.29263475202957057,13.640126958081161
830,-0.5192036750678258,0.0036132922974794176,0.49122163182352613,-8.8564748557515,6.665529157923417,12.006370059194348
840,-0.553745300587625,-0.04965605825813886,0.5453636414170852,-12.940525399652755,10.014961052181308,4.820821219263614
850,-0.632704459503593,-0.034672879605799775,0.6091629837441193,-12.646565675156019,11.853314093123025,4.178663895347476
860,-0.6205383201355519,0.003395961619765303,0.6109089852562583,-12.57021293821054,8.927474271338786,1.7784235839288893
870,-0.6216316468472686,-0.01201507722841946,0.5959966321371246,-13.630503164626601,3.590208762963929,1.2022294501840174
880,-0.6602704528798279,-0.08647999247089047,0.6198470029679647,-8.758258474972825,-1.1649626448294201,-0.20437307984772046
890,-0.6039012181512757,-0.09251379664376012,0.6323734068631469,6.909820753297636,-1.0088787905334697,-3.862847668722982
900,-0.5872137349566324,-0.14766813756611522,0.6216402462604457,13.22692220179904,-1.6328869309505583,-3.8482878653220522
910,-0.6274363240364865,-0.23900419761411212,0.5771119622581464,18.25008098550447,-4.141148360616475,-13.98449690297015
920,-0.6981162423783357,-0.012859512433824707,0.5964672078724954,31.13944922498217,2.368654109339681,-20.30936893909318
930,-0.6013868734808879,0.26324024810025276,0.8069648502142954,45.03019930865795,-4.384954469107689,-32.228489588049236
940,-0.7007737501697099,0.22808664720383418,0.6786706104133605,114.052438555781,-0.9524540059661203,-19.31060072821627
950,-0.6542218994635683,-0.01996651584593006,0.3852880328669492,38.19329163707097,-11.017775749680169,-20.5423322276563
960,-0.6687019852276334,0.21381011814862227,0.7049790066071945,1.7425736824775204,-5.9138108124117394,-10.192729226359193
970,-0.6476070063266051,0.1316362678204744,0.6322515760058504,-7.443176759727755,-2.3517488021846362,-2.501259759152749
980,-0.6242211283674274,0.016010212693259546,0.6165462275190342,-9.85283090160452,1.270482395977512,-5.632772961156832
990,-0.622262040860958,-0.05923738380339877,0.6117536575047495,-20.129334765784694,-0.6169677400289273,-12.251799462836516
1000,-0.6124211332250059,-0.08245811425808153,0.612392407895395,-7.819213783969558,-0.20792900085364036,-8.169615995743044
1010,-0.6575612388708871,-0.13919353493220266,0.5541119010797695,7.1011357528565915,1.3798303606710962,-0.19781708171458867
1020,-0.6280231084071967,-0.08391182766232606,0.5872515857619319,14.55086289862308,-0.06874682456880155,2.7467371128582787
1030,-0.6066239529367841,-0.027731209703724637,0.6183137845459838,12.177540594171877,-1.7459142435221406,3.367675843575478
1040,-0.6365810937094961,-0.04682273160296836,0.5932044889964939,4.567545064890129,-1.6741293687137,3.586874988440469
1050,-0.6225202323521426,-0.038480130142696634,0.6064602948678308,-9.468537864148587,-0.9905988308924819,-1.6272263177566675
1060,-0.6396086684655794,-0.07944911055831613,0.5854385478042843,-19.187438457229252,0.8426519998813536,-5.625496171907453
1070,-0.6055174817226633,-0.07211002564219199,0.6201626562957783,-13.742785155150262,-0.14542164878429145,-5.737448693094582
1080,-0.627329229749834,-0.09190911987360678,0.5997675959118133,2.545354537728962,-0.4775269757483564,-2.3503689052068206
1090,-0.6121570738048533,-0.059790029293665024,0.6086744506160352,13.283141930922788,-0.43035437868091253,1.6444919227056491
1100,-0.6112405437624719,-0.03647454704545225,0.6116542247739799,20.80127919713101,3.9949583455006556,8.01010470849727
1110,-0.601514701427181,-0.016717602926908888,0.6217462371463641,4.798634312607614,-1.055921853425932,2.2257452103056385
1120,-0.6229677319759827,-0.0595904947887512,0.5956327294601992,-8.244341257825509,0.04166754303853387,-0.882438010617127
1130,-0.6126941262162485,-0.042128421449951485,0.6119672968780602,-9.02253635794707,-2.6279142856590076,-3.7417937267431887
1140,-0.6247316896556595,-0.05503103976020461,0.59834960967026,-1.7587148503339893,3.4809943887956543,1.9333724390463884
1150,-0.6270818294441366,-0.06210101188852675,0.5979346838533202,-2.410484051461152,1.5599036117153482,-0.5569899302343488
1160,-0.6042429967008457,-0.05407249432104999,0.6129586209188922,-3.325085656026025,-0.0012595316342445817,-2.299387898244517
1170,-0.6083072231054415,-0.053763477993690884,0.6135971797277153,-2.381969043667839,-0.2159233175969777,-1.7716794316744369
1180,-0.6090736853717296,-0.047481197864148034,0.6130645808564614,3.0810346122037062,3.3620703087779917,4.769100638473754
1190,-0.6330169165807286,-0.06563837538409616,0.5909787908234951,-0.9601467566882508,0.2121573013016576,1.6584004154045597
1200,-0.6321815727839555,-0.06382597278727643,0.5969023800240587,1.166271981230217,0.3918996502842737,1.4780631973674099
1210,-0.6338842822076924,-0.06784996864154928,0.5953883801829446,-0.1299519770311468,-3.0362938963362875,-2.062584865100043
1220,-0.6253902406527868,-0.06298213131503604,0.5997745669247642,6.653257762388994,2.516045573648422,3.118204936898959
1230,-0.6245170257461028,-0.06656719256436862,0.6020481097048349,2.8945825187219643,-2.1500459646213366,-1.7260227140138142
1240,-0.6028836620270471,-0.038895752528810876,0.6229494046906846,-0.4765556124007222,-1.9394234127649246,-1.4514349112627853
1250,-0.6123045565131995,-0.04610682031943369,0.6120208572657061,-2.6472457140685224,1.3137046024581847,1.5619096338714957
1260,-0.6022252183846487,-0.04144599975250665,0.6237596542831183,-2.664152128312708,0.3999287447754366,-0.11370098822781283
1270,-0.5994822148522139,-0.03883026477142796,0.6238695471217849,1.6760646689822203,-0.4980066637607164,-1.635341949831938
1280,-0.6121422426452582,-0.054277988345799236,0.6085505891710031,4.748143994172027,0.6027169736859102,-0.36100744585588584
1290,-0.6300590326628761,-0.06491517738690163,0.5909268916704288,3.28185402523102,0.8046973794775327,0.06361165901045773
1300,-0.6082870717596529,-0.03934321274650967,0.6120597503107608,-1.613394820491974,-1.2035620021116658,-0.9797488881025394
1310,-0.6473414756930541,-0.08222966989101574,0.5756789611826415,0.8114728934541424,-2.4449062417480523,2.363827069695639
1320,-0.6252563584824852,-0.0595732178733184,0.5916133616555823,-1.104791746486205,-2.936319401634027,2.1329394741687353
1330,-0.5876968269450134,-0.008823826608314059,0.6311429695030512,9.670459828939357,2.1852648427094525,5.396007754277825
1340,-0.6174671509756489,-0.038344594710205654,0.6056629157070946,5.511129006261886,-0.5901541277568897,0.5621587176124229
1350,-0.616665403645592,-0.04570549609615637,0.608435309440247,3.1274111677401106,0.03611588536146493,-0.7813376124336436
1360,-0.640067421251746,-0.06384485497140135,0.5902884322793315,-4.234736243863781,0.27047465673172266,-2.0780671399020028
1370,-0.6133312821548933,-0.057795720031692255,0.612721042120433,-2.8651902157229387,2.211535172031352,0.4020447327591756
1380,-0.633655495543912,-0.0801303929883187,0.5887372221866151,-2.688258492636055,0.6051328268341403,0.04837395733238303
1390,-0.610040476093026,-0.05288959774901097,0.616765811104099,-0.9841318880206857,-1.0724330474656865,-0.7427483277717605
1400,-0.6041647274852144,-0.03989082652104001,0.6201316271410893,1.773594962655431,-0.22160601406155525,0.8896362316494796
1410,-0.6465595258667788,-0.07491545715207433,0.5796833489717579,5.317763979665089,1.1521983792347514,1.8710804255172864
1420,-0.6160917269898516,-0.049934525766054574,0.6099309386461894,2.210110978137397,-0.26133855142531964,-0.263423460743366
1430,-0.5954412897115102,-0.030156843939994977,0.6265788026418571,-0.24818321186747705,1.0630267194774734,0.3784608854734672
1440,-0.6245025486206579,-0.05794461204546676,0.5977625089177023,-3.2470302454976006,-1.7371265849870516,-2.5789893034599944
1450,-0.6491890669750278,-0.0918294535882739,0.5732840884546744,1.1301543575413104,-0.7337128028794526,-0.7577650031972591
1460,-0.6392959946467516,-0.08404265952699988,0.5809175235621448,3.847654556137712,-1.102839524686085,0.20831956403008456
1470,-0.5932182051934407,-0.028572202814777913,0.6287156021286076,8.345900034727258,2.39012694933203,4.792747597306227
1480,-0.5972612502829435,-0.02808672150138491,0.6251315925587235,6.513619298965197,1.0281445972630094,3.5196617322439296
1490,-0.6044125913075938,-0.03148208191555021,0.6195182372591883,1.9678609029051763,-0.14453654530699445,2.123022924245416
1500,-0.6119890962692944,-0.03791100470912135,0.6169410766160448,-4.083735528902509,-2.8923833307539275,-3.906958954089268
1510,-0.5887201944959498,-0.013970060820267444,0.6339045494416176,-3.880158710765861,-0.4303916324959023,-2.3102994565554758
1520,-0.6046808331830542,-0.039200543192492,0.6175835951793133,-4.887612002286383,-3.4865753335746676,-5.292141624292165
1530,-0.5853704157858578,-0.016933509340382576,0.6427375098668575,-2.26317106298958,0.7831082803770194,-0.5366340743325531
1540,-0.6063383030671979,-0.036636481060377674,0.622326190134052,0.1376586029308282,1.4900175237543862,1.5113473357486757
1550,-0.5985378211662173,-0.03553760870862971,0.6203778806458723,-4.596237112465439,-2.0108296685488933,-1.2840945041496634
1560,-0.5936368624302859,-0.03426206922428972,0.6351474211038248,1.3826039551955152,1.6034323586397912,2.186583241451066
1570,-0.5916362605190867,-0.024705459591099307,0.6365428721560831,-3.476260370866963,-1.4065060100934257,-1.6291387706775218
1580,-0.6176054636703272,-0.04680508819546889,0.6093361208050294,-2.584008323528277,0.5050875485712403,-0.04554041407063347
1590,-0.62859803968116,-0.07275727094192042,0.5927940030537945,-1.2826572361166035,1.9699336798057745,1.4279423090555894
1600,-0.5994032440406294,-0.03661822282489931,0.62346705615821,-2.791409994412042,0.565770965533338,-0.0917566006909466
1610,-0.6276398618527156,-0.058274189872224755,0.5972553390907444,-3.9556091136062768,-1.0382108158236576,-2.0897696354975395
1620,-0.6036757401468071,-0.04378628282099016,0.6212407258092532,-2.3449288708791647,-0.9840549234549142,-1.804145454408454
1630,-0.6323926769927999,-0.08090042069987995,0.5927406804428649,-2.5225216157868307,-2.1933931572553447,-1.9374412200356697
1640,-0.6072532672891542,-0.04976841207815832,0.6160625768319763,1.5129941392580069,-1.2262430225273144,-0.32431812399102855
1650,-0.6081471187977354,-0.04216375305980735,0.6149315996680716,7.711020421136755,1.1092708560586968,1.044448780802747
1660,-0.6186999758475729,-0.05485590427984122,0.6068468234359585,6.57180101814596,3.4969529632550684,1.4569745286190607
1670,-0.6114053124535661,-0.04462389697299795,0.6104936356822893,-3.1134393172988535,0.09517280157601749,-3.086035844493466
1680,-0.6080455701710129,-0.04705131532527607,0.6119329948339091,-2.751407082289409,3.0016772235213587,0.36545618755307796
1690,-0.5926077964627061,-0.043505007760907974,0.6281258612568685,-2.350854478789908,0.10716570950639309,0.33904835582329873
1700,-0.6082901418494616,-0.047643529608557,0.6144055271056877,-0.1601177594834159,0.46908166074208385,1.3047825721449746
1710,-0.6276138911918714,-0.06922650763875168,0.5909838222326427,-0.35805164435993064,0.7023541577658909,1.353666569358721
1720,-0.6183785122739269,-0.05402903219942329,0.601654470776084,1.9467925832522952,3.4419728174929825,4.129753870575682
1730,-0.598277208508823,-0.0376304400166944,0.6265096123228143,-1.4924675910684826,0.8211265426032763,0.7694904884731233
1740,-0.6462312053256891,-0.09634682877566386,0.5805059068828045,-4.234143282052,-0.07685940376265016,-0.32623651237604007
1750,-0.5929042590238007,-0.03679714720630453,0.6323213334377425,-3.270194601155402,-0.9810157075342307,-0.8402014853220595
1760,-0.618596102323466,-0.05673414678257831,0.6050601789509709,-0.7731882016525786,0.7389367652910109,0.5008502034864919
1770,-0.5943174789658978,-0.03640465402673368,0.6289815914842543,0.48062117984085706,0.5651661948506514,0.9103433122623787
1780,-0.6290139266694514,-0.07818463108625055,0.5956333314195916,-0.17289340929488906,0.1982476093985814,0.9195894908282738
1790,-0.6081237244493664,-0.050855584577511756,0.6225416550807462,0.2937649079886774,0.715494945257479,1.6365129097558802
1800,-0.636909454723271,-0.07395456008812484,0.5900086896406768,-1.2592164774942836,0.21269639513308303,0.7447483573692704
1810,-0.6062020976159935,-0.04424434603537594,0.6143278941384611,-2.7104798815785625,-1.171773200562585,-0.9831595407881177
1820,-0.6341135133168836,-0.076527581389077,0.5861345494040585,-1.6857911030261254,-1.5367212084676645,-1.0394653132233045
1830,-0.6041060839324843,-0.049289305355582305,0.6159046823859713,-0.9610117129919518,-2.424907379204026,-1.2236654845054284
1840,-0.613398366147816,-0.057130711630721066,0.6067565813363468,0.4341435645786591,-2.079860383908487,-0.5286590363012309
1850,-0.6182978650512077,-0.06051904850195107,0.6064891575590228,1.6941385745698465,0.5943164135312952,1.6275751984823934
1860,-0.5978616648223628,-0.037005514182736496,0.6289831900838578,0.4147076525998669,1.0193133516039734,1.3102433921371441
1870,-0.570258242471303,-0.009799536601145215,0.6523801862468914,0.16410875822793725,0.11681524106519915,-0.28863346241400606
1880,-0.6048279191717577,-0.04975346375153246,0.6173641577953931,-2.6717777825704907,-1.83736267601257,-2.1119382955557993
1890,-0.6490302063844148,-0.09817965663056179,0.5731068657960414,3.504909146200582,2.1929425001609695,2.144463038430573
1900,-0.605387500314084,-0.0533753459071535,0.615664797171428,3.1859954172411182,0.7120862217124084,1.0286592614409127
1910,-0.6317673869250463,-0.07328312482821078,0.5939567413232281,-1.4001734512542434,-0.6654166938488357,-0.3832040804566992
1920,-0.5902959209290838,-0.029131608909910567,0.6326699244454342,-0.22474835194043696,0.9190893818382402,1.4450455932904764
1930,-0.6214994595118986,-0.05715523509853249,0.5984734446824552,-0.7259608002971865,0.39929128571036054,0.048349037956459895
1940,-0.6299826026575297,-0.07372131669190077,0.5921155966584416,-3.5843893444185784,-2.1760125850284537,-2.308797773708265
1950,-0.6283363839183813,-0.07226161215439295,0.5947146902833503,0.7875329222485299,0.18524117983595334,0.27409777426381204
1960,-0.5853613678488476,-0.03464850214679937,0.6362466013968714,1.2590612907742902,-0.751786482080177,-0.40588239076325605
1970,-0.593154705582274,-0.032423753938254724,0.6334767807076663,1.7036826697498437,0.07318982179104161,0.28777726927377395
1980,-0.619682760499422,-0.058329811751373674,0.6025196475437186,0.14527382680664858,0.14059726693647695,0.3612093915939629
1990,-0.6147313190002023,-0.055587898582590514,0.6044798189460997,1.2722874477337893,2.5107370192757115,2.5300188965303954
2000,-0.6023034338947993,-0.04663984693831701,0.6232922128363154,0.23697712365238333,0.9755322682444802,1.077187546579866
2010,-0.6266885446755673,-0.07278132637494665,0.5964144018923553,0.31532654239163294,0.8554027667481584,1.233074903689055
2020,-0.6277186264014792,-0.0695296291486256,0.5922543696805632,-0.388837021381443,-0.037032986839659054,0.4957854135422066
2030,-0.5916819130349397,-0.031105947548550485,0.6349511141413502,-1.010649047232061,-1.6779478554119664,-1.0990695711685747
2040,-0.5880512692701002,-0.02920730361559942,0.6364824777346971,0.3442178658789701,0.6210810933510593,0.802127179512828
2050,-0.6119044183825815,-0.05458816660461461,0.6101962690317191,-3.1107664588414377,-1.1151230240948848,-1.4166415041433167
2060,-0.6207846299256785,-0.06655091577414816,0.6017881082103047,1.8016140977238324,3.4767049489379254,3.0062901901159464
2070,-0.6070489718386115,-0.06332354152005229,0.6208568567006468,2.3472407252068757,0.673702491221157,0.7796990027152461
2080,-0.6171348273429833,-0.05829885996354702,0.6066743329064023,4.8305304597464325,0.3943355752294632,1.2429298551183854
2090,-0.6346743321921198,-0.07504128361697096,0.5866975659766325,5.117935243343571,0.5778287863519322,2.12313423248453
2100,-0.6120542871037085,-0.04583931619793062,0.6144085808251775,1.5449131168413939,-0.49135318514166626,0.09052093982619586
