time_ms,ax,ay,az,gx,gy,gz
0,-0.8447440450397385,0.07560771151092198,0.37002747131126706,-1.0139330768991939,-2.2750809293110006,-2.119398789093684
10,-0.8272358537497188,0.08406768692382294,0.3780610343269317,-0.8241352845313193,-3.0000669750609403,-3.260999886761636
20,-0.8047730026121758,0.09602875799680849,0.36076194142588125,2.0274943321833714,0.16720021238855853,-0.06975347486538541
30,-0.8071593180049486,0.07689210679275485,0.32300847625058954,1.8216279235047215,1.5715174468159532,1.1221905523505216
40,-0.8300797598522992,0.06259506077376589,0.3699635541237106,-2.564353875667225,-1.3791168596238663,-1.9984806279496392
50,-0.8413606673642294,0.07467095097927222,0.3773408899708182,1.5938674633773124,0.9010921843136206,1.1612670314600868
60,-0.8314349463234548,0.0814031470229896,0.35279842735419736,3.1305667048473644,0.763777202376058,2.640933570879855
70,-0.8200724144338264,0.0741580602709963,0.3331474840092685,2.673349550495823,0.4900203327179571,2.026968166694065
80,-0.8230145348937257,0.06936552988626585,0.31562501813676636,0.1460296329019911,-0.28501555645325616,-0.15156009709073404
90,-0.8046717613218355,0.0879399563050785,0.34418863449314874,-1.7904480279109511,-0.4800672761303253,-1.410234914020387
100,-0.8285138490332731,0.06684170308835352,0.34116936793036695,2.9026484615619554,2.902818552024552,2.2095074686682223
110,-0.8277691454591186,0.06713584328694253,0.33519111757696496,1.2101947439830272,-0.13616046793195802,-0.002208210855126125
120,-0.8109060719718105,0.07947233239788859,0.3390208768389611,2.617602594241797,1.7445813494011366,1.8196342195012796
130,-0.7807499155343655,0.12065360072138029,0.37506758841233623,2.2443985071284094,2.322741663895283,2.0403186535274
140,-0.8198435145934977,0.09428421968752469,0.34826528986867306,2.207126673146782,3.200507955731074,3.205796491291822
150,-0.8162461819948472,0.09070023373252846,0.35941762326235904,-2.5528618039921636,-1.4289189353463247,-0.9306319098698776
160,-0.8045104082536849,0.10042975187484873,0.38213473664107106,-0.8709146321427651,-2.078173947918144,0.668265615649108
170,-0.835728841984861,0.06615182879148829,0.35077076906826016,-0.486160326115506,-4.86196606645231,1.6957398150383016
180,-0.8175001192580941,0.0711400545660412,0.3291535251633637,-2.326203576733979,-6.232666304102239,1.3146326042514411
190,-0.7897276696938413,0.14061868453853152,0.39637751131123444,-1.5478367815592,-5.45822746632872,5.675485884891194
200,-0.7973994875921275,0.11261937512696386,0.3904432949720104,-5.1398198273620554,-7.852716524025522,7.126622996889248
210,-0.8035362634629684,0.10606513324370058,0.37363312321653036,-8.790445547395626,-11.893090068948947,6.0905390531286105
220,-0.769050148072171,0.10856991902233279,0.393948497064905,-6.203996098850749,-10.288406989648351,6.6390232329199295
230,-0.7528996531387452,0.07962099865807148,0.38678097196457584,-2.562547007255506,-1.6904511304723888,-0.8281790159959486
240,-0.7643523641440837,0.12199955881365754,0.35782810355945865,-2.941865345594884,-0.6864065336999823,-1.1273294611328732
250,-0.8143474262426936,0.09604484466525125,0.3857853173032407,-5.8148981186627955,-1.5366751883948437,-1.5443321537315433
260,-0.8444311355660026,0.12294111656959782,0.3962927072585426,-6.087369786336438,-5.092999685196845,-2.4364582220344313
270,-0.8516771017282713,0.06479400002820192,0.407078891262552,-5.61815456459071,-4.328861493841347,1.102128796562036
280,-0.8378076269524225,0.03519801330621738,0.3524127730079537,-7.158752981913356,-7.136549184035902,-1.335421271641125
290,-0.7680408291547736,0.10488639275131569,0.305645395407463,-6.3083808418261125,5.987003719533281,-0.720936810651741
300,-0.7150947049064318,0.17795417311037504,0.2854140075442939,-11.049927523493464,15.93273077392003,-0.473189849652249
310,-0.728313020213897,0.1351252894280867,0.3109909125645599,-9.835881685048612,25.007160672815626,3.509189219336055
320,-0.7683052400126881,0.08904241993155886,0.37554957262108707,-10.029454185932478,27.762716201814637,2.5141222053163794
330,-0.8490172985683514,0.025687455459973495,0.36942349574575467,-9.223574667693747,28.360643960009902,-0.47827156505376855
340,-0.9968325985306006,0.0841463236128235,0.49732160513752816,-18.585059912773207,5.312439637975839,-6.224239790934001
350,-0.9831912301790803,0.05175852763504065,0.42375789519259377,-18.485762497828368,-4.043048391579605,-6.443019812032598
360,-0.8192492003534294,0.030201410664318903,0.3438110946582772,-8.953265637001653,-6.2454930506088235,-8.979097694758709
370,-0.8923981225977453,0.22537435799183203,0.1800813411677132,-12.78421166958142,-8.884593694963538,-9.619674767675939
380,-0.9049433931776207,0.16405773986163633,0.37152741824973035,-8.694356823421002,-6.084114171416012,-2.047841876277495
390,-0.7201585003132924,-0.2346346830797636,0.7474746241239226,3.6596799482843347,-18.8000718617571,-9.46163506375948
400,-0.6175828965839754,-0.22460053049889767,0.5691623595219009,11.736857495114311,-28.75501581987598,-18.265191444275093
410,-0.5909360492590741,-0.014486508557826183,0.5734462835030503,15.852105651823724,-20.20993929824285,-6.547247911520179
420,-0.8794929323666034,0.14009666290102682,0.20091118125816457,-14.18196647908615,4.605346235395893,6.065767036210403
430,-0.804246219390429,0.1396291762475074,0.29912237410262205,-7.159255340411957,1.1391931502003367,2.9693350697863683
440,-0.8521690860641574,0.01963198252702013,0.28112609529527144,-6.560274411294502,-3.6689274971249066,-6.733559063441418
450,-0.8912943787568764,0.05327725721001464,0.21145992283062867,-0.27120784856067315,4.506814807667415,-9.98155667358541
460,-0.9515480819674439,0.058897484340000514,0.3991061149699465,11.624187450631831,12.869285113175547,-12.016796433439852
470,-0.8576729921553679,0.3816585204511813,-0.11568231141556219,11.747247216425853,36.32169421356224,-1.6517439797298281
480,-0.7721059945118119,0.01793135962827044,0.2608406392481064,8.01430943136764,19.131040300983333,11.420928459413984
490,-0.7774580207022089,-0.1268306329994088,0.7060477142356943,6.597004792325799,13.090740925217972,6.452161602267134
500,-0.7628249012484501,-0.1325526809812912,0.6112176579160749,0.46768916988353904,4.341388297114072,3.4433718608929853
510,-0.811414860737168,0.008099692603788932,0.44052605256872557,-5.8425680168884995,3.752032121672033,-0.1062644005665363
520,-0.813794964726188,0.046689674205195375,0.37593293419271995,-3.883123074118495,2.0716493059726644,0.10489354144556184
530,-0.8001713617502215,0.07576933107293678,0.3734761896432536,-0.254038436924934,0.8969764565960534,-0.009332454170707827
540,-0.8469489451531726,0.02861731853843097,0.32873420359841937,11.874546306625186,-1.8156861049732957,0.4115424446591971
550,-0.8540856739052081,0.014354300574895546,0.31686096049863505,13.792984536317064,-0.5193311412770434,-0.3109286458384233
560,-0.8986367850454838,0.04560660859230303,0.3832506435445175,16.261372459963997,0.7263597807756743,1.5663532433254166
570,-0.9342905515058975,0.12218048283513376,0.40760646014034774,15.923779426418989,-11.631892110988348,2.2623774571191166
580,-0.8566072262857174,0.12417654308179114,0.35315816810946,12.30276851684443,-17.46620906663673,6.811604517450923
590,-0.7186316326500306,0.12146684102029057,0.31258509491242187,6.835499671179919,-12.604228171816736,10.394140857561133
600,-0.6490407760113085,0.11114042534140525,0.29362084174694697,-10.240553273700577,5.280801402495141,11.031040219910336
610,-0.7261652025643639,-0.031345190960526015,0.2698991787143942,-24.511940728027152,21.226575910339196,3.0062797887992803
620,-0.9045801968625857,-0.16923858947397327,0.3868172306504395,-24.43424633564817,19.07820264624968,-15.764754316035685
630,-1.045867248553299,-0.10594008461032547,0.43780469108414266,-11.251570209178567,12.870091544983552,-20.088943581709255
640,-0.94206393641029,-0.01634298489262232,0.3115489683588554,-0.7910814996351749,-0.3753133001997819,-20.01881540707649
650,-0.81112914679952,-0.10527265421434975,0.302206879461441,11.735198692374185,-0.83002804663363,-18.298346163782224
660,-0.8819372187670379,0.06816290905504101,0.252130453295795,23.79586152721201,-0.6967673642137351,-7.5805385006583705
670,-0.7309995111207098,0.31696559720336076,0.3235980543636282,30.20066913375705,-1.112238439602943,9.193588888483394
680,-0.8145249792482232,0.25745200193800244,0.2552689927871411,17.64776860862699,2.8958743547908257,15.211071679860899
690,-0.7907748760268385,0.2531039226665705,0.3377202370456672,1.952701741792022,5.477155935511147,17.830232871821988
700,-0.8532763777910668,0.06013038056277149,0.3229722910099608,-3.7266709648691942,1.8849926060902398,2.8731506981451975
710,-0.8415629235854094,0.06512755142344824,0.32576267555446453,-3.607651552807562,0.03979284345091472,-4.892631710597969
720,-0.8457785706036628,0.04548369002390423,0.3141961773893947,-2.4314580696494144,-1.3084639256130557,-9.190973211979587
730,-0.8462822706087885,0.017782513142960792,0.31028238017940657,-3.4515335255982547,-2.5080122156485523,-8.992547743294534
740,-0.824399842237675,0.038942096564585985,0.3341312666050998,-1.2978207669486201,-0.9680360307621203,-3.8690387033242657
750,-0.808944515229,0.053145218387915985,0.3538538191386335,4.639555391094133,1.7360352976847104,3.7219197638612913
760,-0.8196708841540147,0.05559295539638579,0.3452604225058405,4.2833069683907175,-1.1143816573364758,4.010188157009501
770,-0.8427317615521579,0.031686590361727954,0.31561913764098126,7.969189963528622,1.233052364192836,6.692454451016278
780,-0.8253517291455862,0.054559574967761836,0.33340616844494786,5.088238561737198,-0.8972378566287493,3.1873647096724174
790,-0.9045747533804481,0.10291936545826315,0.42569892801160136,2.3189149335230623,-10.753612488274381,-3.819971000277316
800,-0.9458932799450753,0.11250209869242223,0.41831559648654426,4.57489776463953,-14.910663675430714,3.4739549145106916
810,-0.9403570023496254,0.05870610892001176,0.4216831719941378,0.42947318784065125,-25.79430525576663,3.5308083358327873
820,-0.8690526703577227,0.05034361966715801,0.41448193415305035,1.7026878571802295,-29.954093175029854,4.228829681523922
830,-0.8287834033860176,0.06300418078675551,0.3693439323740509,-0.5982529446753899,-34.01298994435854,1.338938642081974
840,-0.768251214050031,0.10844107953786314,0.3209072089150896,-1.0121399365130568,-29.739881607374496,3.763932671837801
850,-0.6790831157873619,0.1359905834112574,0.336096891801953,-4.623590265120938,-17.073087353596797,11.119369547467834
860,-0.7275473318876877,-0.01688514987881356,0.29871648298962,-5.248170608753622,-4.201548757334262,13.941897310129578
870,-0.757968135411394,-0.05558275725632219,0.33538229672179004,-1.6179901756509465,-1.2362709849683138,3.641447358017078
880,-0.7775278129736608,0.07011385522309155,0.42491942711448083,2.740021008408067,0.8376260762650298,-2.394829076597092
890,-0.8362339846165879,0.09740415660121544,0.3911877886571186,5.7012950950356345,2.996922351629207,0.2821652462836295
900,-0.8339434433829177,0.07610891378180148,0.36371770281787735,2.73220680846383,-0.32759640478399277,-0.512901642780156
910,-0.7973180884916858,0.07177155708800488,0.3513005228439027,0.40491253528117366,0.47453287358921215,0.8329573919860184
920,-0.7628804705565487,0.048451688734923434,0.3626008934421189,-2.3801801348569183,4.618682211336181,2.6659538686773274
930,-0.8380589666218612,0.001876024933628468,0.39922929131673673,1.8078278862925596,6.022147034965873,0.3511517935417523
940,-0.903651721979474,0.032735314093165255,0.4227499075135102,6.168404803418078,3.6049773846049558,-1.7818691345973567
950,-0.8946576108784776,0.06706489081834546,0.4184807337943748,6.212521675397164,-2.642961399249593,-3.3673713417508306
960,-0.8264309501940241,0.0998846703492213,0.3685345432536496,5.081579386760703,-5.263295583283778,-2.75853729200087
970,-0.778546466805835,0.10824330624244223,0.33882226302744495,2.6527959083997334,-4.327941764442276,-0.6924356655563954
980,-0.8198995011462078,0.03481340764950748,0.3650700310729031,-3.6605007313543108,0.12062443447156124,-1.122146172760709
990,-0.8163937623485585,0.05868511729396045,0.416583807308293,2.693161797848864,3.2243601343584767,0.21982812569934318
1000,-0.8579512566131179,0.04490588568272946,0.40049440054055463,5.653740939998781,0.9004253483281885,-1.330250702919586
1010,-0.8343326066291303,0.08887406658512478,0.3880316490969419,3.5584128372203656,-2.8936282707643333,-2.9500642325971067
1020,-0.7939935788201833,0.11075398872215539,0.3599861834824217,8.263200457494463,3.284807519186577,4.057369638681208
1030,-0.7776594207693256,0.12113976532624274,0.34816619964389156,2.221251517710568,0.4993116121032646,2.1399037169211503
1040,-0.8048417061339291,0.08951958793155271,0.3900783830018669,-1.0892411421219022,1.5695045839210051,-2.1220530645153683
1050,-0.8375368274877512,0.08203218256465801,0.41505385343807005,0.1756650248186851,2.2081753587525568,-2.8158091451718015
1060,-0.8670568311380487,0.06585602555198003,0.379414991082326,-0.8122986573519899,-1.1423563452382395,-3.7041842551691655
1070,-0.8399020566385292,0.07741177033746074,0.3726745746660383,0.7440699733806652,-1.0703897830732347,-0.9080353530666007
1080,-0.7574240799717169,0.12824514330879241,0.4029981923633237,-1.5510068567844457,-2.330806839693027,-0.7212901761185027
1090,-0.7635841977274542,0.08878690942779413,0.3571848036711048,0.3097254750265046,2.1753071325814988,3.1952694988920207
1100,-0.8276935851309142,0.05256988756459413,0.3516246164580919,2.08775638938951,2.7057877811734854,2.147149939512712
1110,-0.841327935628087,0.08021015722695021,0.4001334821131364,5.141879139164152,1.7117914018756515,1.2810718662215703
1120,-0.8144447111882066,0.07209364620113558,0.36431629574690544,1.8505300288563147,-2.250234221574991,-1.4928662284840828
1130,-0.7636635588780016,0.09053373540900023,0.34906424720874035,-0.045989961188405815,-1.7520145790841446,-2.2500425829159605
1140,-0.7339027138831763,0.11617815528243597,0.3650927718690953,-2.975007354430212,-0.8106292752228699,-3.441474321709396
1150,-0.7662148768668454,0.1154623604421605,0.3689972721028573,-1.9257883192504313,3.0713399048857224,-0.9087556959966816
1160,-0.8388097902876179,0.0733838020664955,0.3525728590656904,-2.370744719038791,1.9303624481411603,-0.7019776910239346
1170,-0.8237267008323639,0.08956944116850805,0.38568056539996504,-0.4271640448781774,-3.798969598166984,-2.377381333183854
1180,-0.7775799829112529,0.08657685012559431,0.36793931210624753,-2.3771536566944937,-5.225805376618629,-3.979448513857109
1190,-0.7516554744677751,0.10025113240365394,0.3630437344098246,-4.227380868390517,-3.683255662758225,-4.32887171461106
1200,-0.7397651188653878,0.12256005192688932,0.3772013475755599,-0.07895276883635782,3.6599538752998813,1.3828707194701317
1210,-0.7897706739703886,0.09530320872713645,0.3732020494454537,-0.16534984839811617,4.953817080998615,2.4841069517806957
1220,-0.8542715185092792,0.015382196085209802,0.3531055538375233,-1.5504297276115153,2.3028971195928953,-0.17176255081483593
1230,-0.8135660037806247,0.06500239672676393,0.3814563585233541,3.673872804793593,-1.476659030826122,0.19165279575813043
1240,-0.7593569380546599,0.1180885735806574,0.3862670398096831,3.4520115998994587,-1.1618006583052205,0.42821932981901534
1250,-0.748146369392826,0.11033003317360365,0.35091668673922544,0.7560334011695797,0.5273729217855023,0.3313776569479288
1260,-0.7485285182394729,0.1158608950185046,0.3572718511019418,0.1661608072992724,4.5432232760188676,2.425569180816386
1270,-0.788118332066148,0.09427952630897768,0.3886807700076438,0.8948413022697332,6.77005223174095,3.6441460359813216
1280,-0.8508542662365682,0.04456952891577184,0.3894970492420612,-2.8377745540549384,1.3290807795964459,-1.9438266868627467
1290,-0.7931184603834043,0.06971578711459718,0.36906500834051287,0.7149724560179528,0.46194760195075407,-0.8068259029257493
1300,-0.7712316174404291,0.08086316807770576,0.33965513764914845,0.0416388137554739,0.5252351415834637,-0.8589726176777741
1310,-0.7550176144123608,0.10973525029011816,0.3753591484891058,-0.8437191189519687,2.9152423290930902,-0.21513263950363046
1320,-0.7982996814107117,0.08183885267159634,0.37335602910539634,-1.845628902978584,3.1966911028867346,-0.6848676752726455
1330,-0.8470258128223606,0.06599478213937292,0.3784770337382675,-1.1839047468098862,2.1953302576546183,-0.761010726016187
1340,-0.8813447412520122,0.05641603590885666,0.3637474821959392,-0.15432509649937218,0.18378272384641375,-0.7055915040481948
1350,-0.8113808762788466,0.09321194191140564,0.375041261878626,-0.5554914752861679,-0.68568553285944,-1.0009350218601878
1360,-0.7628613650233064,0.10582571975698216,0.3705688008445832,-2.94794056890894,-1.0139454288121166,-2.6494897781699533
1370,-0.7749572682873511,0.11424996078703992,0.38949090357906163,-0.8946095738515907,1.9472472482909533,0.5638515386498388
1380,-0.8027431387580004,0.08687566444660881,0.395679509782188,-1.8586384933233484,0.24497097554388048,0.1356025780297636
1390,-0.8268366857383171,0.06093146695352708,0.39105709051600246,-0.9737237265204335,-1.7405446752320817,-1.168696082242612
1400,-0.8509242709768619,0.042609134336113796,0.3712985648209698,1.2947372073782384,-2.33539052871768,-0.7565689278832449
1410,-0.7941881905126053,0.092059111937014,0.3754514454649153,-1.8863949130128883,-4.034140588543805,-2.9446539611813103
1420,-0.819911223070328,0.07823746184981449,0.3502667633595195,-2.503578277606568,1.8463529547704223,-0.5630479792352713
1430,-0.8569740628742544,0.04327687513143288,0.3855594465371167,-1.003269932711527,0.9530240826121981,-0.9211005078884701
1440,-0.8595484792390368,0.036157320807535205,0.3935683605060362,0.8669356081240819,-1.3519755447378081,-1.721002298275995
1450,-0.8221180449158771,0.0706397268002922,0.3689657562612341,1.5630573429945749,-2.386365235349153,-0.5345591029832865
1460,-0.7912583723181811,0.07019701658532138,0.34245647614316327,4.002796264230542,0.6354749294366036,2.9131213308705637
1470,-0.7665861932026664,0.10176653438478792,0.3674266127388566,-1.5981051841051415,-2.4638687515094655,-1.2938829123064215
1480,-0.8311547653603392,0.05621609699056179,0.3555771660291511,-3.232085496457043,-1.2087310936524278,-1.7699441270942478
1490,-0.821584192123918,0.06932544073557449,0.38405438964202987,-1.631827405625839,-0.9588523880668246,-1.9507941856335473
1500,-0.8491326977466707,0.039248667954110805,0.3517595168011405,1.7338733012244667,0.4237473295272307,0.8995103417692571
1510,-0.7860710891482383,0.0926842012428855,0.3852319571127788,2.373848367062105,0.5487669655100236,2.195618008654658
1520,-0.7827662424580895,0.07091737776296288,0.3580495795128619,1.368174700050552,0.320944392104988,1.3138764444107682
1530,-0.7909558723862958,0.07482900243762851,0.38390979302209494,2.4451543451552458,1.1333931017167829,1.1280146062121643
1540,-0.8039654435270355,0.06311530335448019,0.3576694958355957,-1.0086912561874342,-0.2851907185857595,-0.6336981784971973
1550,-0.7736842382680547,0.10280096446711826,0.37941041943006903,-0.6668979097248138,2.134423530125254,1.3822837182817536
1560,-0.7882634439831728,0.09406110826491595,0.39206296177290606,-1.3044466839534496,1.9592489140123093,0.7736147203250473
1570,-0.8234559161500007,0.05907524463116847,0.3843902908449107,-0.547859188582074,1.7105944931507124,0.2701596886918268
1580,-0.8211524128021074,0.07327805032200545,0.3915814954072864,-3.340866474505593,-2.9953336068264487,-3.705141805165639
1590,-0.8407335419588124,0.04676749617059291,0.35450365831635966,-0.09278848870559686,-1.1738668541927695,-0.4728565697643976
1600,-0.8246187417045809,0.048201373959145304,0.34964344211201326,1.11319759411167,0.24560328622777028,1.3423184338604377
1610,-0.7731244002530918,0.1089484176582273,0.3824790085955632,1.2399783989094213,2.070352865713882,2.3503456569944916
1620,-0.7884905253937748,0.09424822778272376,0.3711617815645071,-4.03041776411646,-2.076514894164611,-3.1480097072198725
1630,-0.8286522124494913,0.07241375784552566,0.36596131665029097,0.49176887807531755,2.228388619748273,0.775582518279371
1640,-0.8199140847376608,0.08615064258344332,0.3885447941176311,0.2381338096509913,0.4683645421287581,-0.26072840383847906
1650,-0.8049632581855537,0.09123272053433693,0.3898552951637123,-2.211299108354279,-2.81058928744118,-2.8862061446099156
1660,-0.8111338501412628,0.06428972755133187,0.36626594846,1.0161646103722237,0.15532360647401533,0.3099107119102881
1670,-0.8132726784427321,0.06410715349303818,0.35525510081395406,-1.3783364201006656,-0.19479825587547617,-0.6168553264215735
1680,-0.8181705956082682,0.08412352743959339,0.37508707261962043,-0.0026364441926812754,1.2899959471812443,1.150778894619522
1690,-0.816043610194628,0.0705294177410706,0.3735253054256816,2.7411667091327687,3.8445964960842685,3.8181718357369974
