time_ms,ax,ay,az,gx,gy,gz
0,-0.7768569116906677,0.04007180021814455,0.3124281951530072,1.7606035404292593,2.1554701676730503,3.4819966627135193
10,-0.7706156177055238,0.04408368829808052,0.32123377778250073,0.9157472522479437,1.2591478020280813,1.5922057798037526
20,-0.7877730921629473,0.024051661903179686,0.30732298118918244,-2.131741345839684,-1.162903072645498,-1.0303733356907157
30,-0.7746651455040148,0.035458491766037145,0.3233993066214126,-2.5378849123926233,-2.3095786074621567,-2.278247201159655
40,-0.7508066599574428,0.05843780380378821,0.3456551518213455,2.5743590095859092,1.937284886199536,2.159877243608202
50,-0.7913784186731263,0.019453102501072295,0.301268591468209,4.303590665548822,3.4030479820174286,3.7134321781069
60,-0.7980768939512638,0.017054640910399235,0.29392475221470926,0.5275363575323591,-0.3566095299542984,-0.31782058671054725
70,-0.780466066295978,0.03665090487319097,0.3143413384926263,2.272576145823294,1.4852864181896277,1.7582097180378196
80,-0.7757296166946575,0.04071294024660088,0.32410631767507486,-2.5401913043218283,-2.7133062860316124,-2.5495157172062086
90,-0.8069219333350661,0.006987045987099715,0.2918307450727893,-0.42483112677286977,0.3125465584527347,0.30218043461887084
100,-0.7829915043655582,0.032184720546388206,0.3128228054431541,-1.4167354131291954,-0.5066077934028848,-0.7700481036526872
110,-0.7721524179119361,0.040018756259916924,0.3194917095086819,-0.34391558872841566,0.5390733430805055,0.30224324684855247
120,-0.7966762227621044,0.011779223591327524,0.29713156573159066,-2.7063178349886994,-1.7900338679755563,-2.3779186078427723
130,-0.7816244330486135,0.027030071416828606,0.3185897898267651,-1.0974978351735138,0.07314921618966491,-1.025843058135835
140,-0.7666429597411402,0.04510194838756872,0.3349445643955591,-0.44323883589429697,0.5425831623360294,0.20814808909914345
150,-0.8004099644525452,0.012890418674719326,0.3022631870881729,2.567563157081327,0.4252548241392833,2.981056266355279
160,-0.7774927953257494,0.03795041809239093,0.32884667483921903,4.588992240732944,0.08986755950664604,3.113157075223543
170,-0.7976535607292332,0.0287930921189153,0.3209095811402547,8.70551723709827,0.35143257221973667,5.047230136259514
180,-0.7711213392860102,0.06783236297026188,0.3471808069833102,11.659498305223098,-2.312145975411354,3.370512902676263
190,-0.7525046887311522,0.08565528984849799,0.28783151232139187,7.200124580044525,-3.53981050262788,-0.0544888480401205
200,-0.7520719236388063,0.13835977111920772,0.34229416839500143,-6.9628088089879006,-8.059825930106086,-4.741719985591738
210,-0.9134818451992028,0.1925968460444881,0.5165008974677375,-19.09492845347379,-32.386127289703815,-4.457887855042241
220,-1.0023023471317116,0.39097677538677683,0.7078851288333348,-2.1628336072137797,-64.80339409546085,25.39754091821156
230,-0.6106999082306809,0.28240027809481594,0.2706453725826581,-29.558287374292213,-52.72609033479866,43.27838357888261
240,-0.5468747153042167,0.21801398783936027,0.25126918745091115,-50.22710878491597,-41.87732031494588,30.894923641878286
250,-0.5331195705277287,0.1054214500617188,0.23299054953160667,-66.34664584451093,-26.635573165560643,24.977164707182588
260,-0.5256856317637527,0.09377022653695433,0.3128538781052311,-73.9885221986738,-15.77419824203965,18.500520344782007
270,-0.6749992427156513,0.04485962245460229,0.33413880499865567,-80.30821659481539,-11.11695950584697,12.415009315983522
280,-0.7480191862968961,-0.008782138024729885,0.358616838667387,-70.52005124470884,-10.18571229538664,10.835362102218134
290,-0.7390174091600915,-0.16525021057140737,0.27000264743182156,-44.04231632336846,-12.90579548991823,7.9602385788329855
300,-0.5763335900517728,-0.06099841693392623,0.313785263953274,-32.67484211398596,-5.365902279145736,3.8689674675553425
310,-0.5828075051102266,-0.08528434202470617,0.2930627788748855,-31.650028743003737,3.6867111766335445,2.846289502662441
320,-0.5571005577789566,-0.1226036501041227,0.3678281442363663,-50.788008162080594,9.030572006890353,-11.074061372728622
330,-0.6000158383317666,-0.18827113683955266,0.3800631909054066,-69.83653363232835,13.374642685365046,-30.01614689946342
340,-1.4208211227091205,-0.23068451668015041,1.0133847346590938,-92.39987461570003,-10.187384227951569,-53.238556464284706
350,-1.5336262230431654,-0.08907397128920308,0.9191230231498096,-61.640445142702966,-35.41734702632211,-61.16384151404863
360,-0.8105521738814415,-0.0831577479474991,0.19120592283769616,-18.16715536208404,-43.77282989486016,-63.588332498051194
370,-0.8446117999418258,-0.6050698524880167,0.25789355991501484,-37.97935779712091,-30.446038510120538,-65.85515133893207
380,-0.5561534654596094,-0.025618543787643635,0.5804276209476119,-47.09067578481466,-30.786357519295475,-52.77448036421134
390,-0.7259913863308862,-0.05381539045319325,0.3425636221169711,-55.51466048263669,-23.05427756925353,-37.28400014647838
400,-0.7432170385163968,0.06047075728891664,0.472945093869303,-71.22147931946314,-22.240564114090336,-34.96424923968783
410,-0.6545816706405116,0.023361374610302185,0.5583824258706509,-51.949303838069774,-26.311235209170132,-30.367612749938196
420,-0.6962815652636271,-0.025657884186171518,0.4468056499057031,-7.0950314444721325,-19.99158628765595,-18.13583187532364
430,-0.8092099095733185,-0.022437475286543905,0.26385520538596535,29.914809998513675,-2.0746890459139053,0.6523916324287655
440,-0.8740783716203434,-0.0521873438191766,0.25666119804506027,50.64347823470374,12.764440593728947,15.932652719030099
450,-0.8785653596967903,-0.08970015018094908,0.4800778502658008,114.18792805305334,39.24010639060581,47.37170136399345
460,-0.9542175129712255,0.20712688252991893,-0.1817033996418885,174.06437794980252,59.70426608513746,83.92297908693986
470,-0.9174814403744725,0.05997031713119258,-0.2731254360823593,141.84294880792882,56.965489172935634,69.5683134107179
480,-0.8666966794127184,0.1641186809717988,-0.06145910917004299,117.29917004413937,66.3630443183739,67.24325340075481
490,-0.8042741848238226,0.12960828990795745,-0.499513978690535,42.036865094331745,56.78447579236425,32.59906699100364
500,-0.7329917716102564,-0.0660107596374678,-0.39869513419277564,-8.283114505504413,39.43267102022507,8.276384097525373
510,-0.6034497009036464,-0.12841065807873112,0.4838761892044779,-17.69951938013198,24.846547721950877,1.1721231074256573
520,-0.6177567159399514,-0.07888967168498706,0.9553201547601162,-20.23153725477447,14.981211515340359,-7.161022640573636
530,-0.7258795592203944,-0.04224780134934001,0.5329294411062157,-4.453177353785368,9.490557793088556,0.045919804767875494
540,-0.7088072207431381,0.013604111003971704,0.46275920519661506,-14.862565289837066,0.764963396031821,-6.114176664232333
550,-0.7616456241027227,-0.020950439816065404,0.3712024486527225,-7.4701133176466685,5.297740817604979,1.4164372681312445
560,-0.7792603246634551,0.029896414146031097,0.34405102282433286,35.36370997762758,-7.220375474727551,6.5705375143978175
570,-0.7956806060015836,0.06564065084812029,0.3015311071634768,11.40819991674346,-14.135540577260054,-8.518380817672725
580,-0.7750115618051818,0.11533612310388254,0.3074906231761015,-14.877963941873187,-12.470600059891417,-18.961054373834767
590,-0.8319068747304187,0.13679961759308806,0.27757187997938715,0.38886222880020993,-0.35914955034650253,-7.031555171220871
600,-0.9291256947053063,0.20055727867311474,0.24173347457153205,-0.38976007140308466,13.466645021757069,7.856536232278358
610,-0.8445170493644919,0.31753891520509514,0.39619792976888957,-3.7230016691849865,21.995059956821603,38.01526897351291
620,-0.6951359909621476,0.19624916284062974,0.40574269763798626,-18.635712616200305,-5.560292457238208,25.830593744803764
630,-0.759285641772922,0.14601926714397104,0.46869323361045173,-52.55836946525339,21.302121693236078,23.29825950330225
640,-0.8022502007731932,0.29603115512239775,0.168686368252709,-48.524658093073,16.738190273339807,23.163903504740563
650,-0.806112368653121,-0.2325360850551501,0.18479839343857904,-36.022766330421334,10.309090488528888,6.819904288144381
660,-0.7653531885819234,-0.6590854126951985,0.37746307718340766,6.571315570251336,12.907869242364484,-1.6884848061409552
670,-0.7444504339101131,-0.6314255313856179,0.23941516084889258,50.59987587096905,6.731460946448362,-9.878051287026066
680,-0.6169255862799167,-1.0487050452447613,0.018598839829283335,14.257336108863784,-2.1548492442205505,-55.9284887332748
690,-0.7496826710308727,-0.3258197059851423,-0.23674606528505202,31.394136092866216,-0.8866665640892808,-66.23791054314508
700,-0.6536062667258813,0.643937892430327,0.31412583172643077,82.56286703596038,8.882251998724708,26.46509044064998
710,-0.6968381437255882,0.2590939799784989,0.505112023130708,49.480258815563,17.90444735570175,33.747906247760056
720,-0.7418339995374978,0.27005093836737076,0.32098394543341036,35.65157774644502,12.19496734218239,18.510767815518335
730,-0.7615823090061365,0.4355658973986222,0.24083219592063682,17.34988602008266,8.211171269822506,3.342550073949501
740,-0.8021651926606195,0.3007930789984898,0.29253366533721187,-10.61693683923308,4.535943155307169,-16.684743964970558
750,-0.7724866406749933,0.09224051069982739,0.3368150508706331,-18.663527920315065,4.9984922280413215,-32.395513730596676
760,-0.7990123781748398,0.056078484605450764,0.32350508283598783,-60.03981928673962,-0.7470952776965092,-50.275051871920006
770,-0.773799714720456,-0.019349452397244,0.339532604792545,-41.22923189673281,-2.342411873568235,-22.86254820866429
780,-0.7869578537890949,-0.04183465204354946,0.3149143895814895,-24.62858489057003,-2.3518025722123697,-10.397522063346416
790,-0.7593986008755677,-0.003398697660279796,0.3288048560444582,-10.609654132024438,-1.8126990155130756,-1.377189126511022
800,-0.7648441969338615,-0.007303107886491824,0.3328841864948619,-0.5959009286128079,-2.082056174772715,4.026107673647214
810,-0.7623445648492719,-0.003790316368860505,0.35020989703149935,0.4462478148993503,-4.617000516868067,4.237409477905685
820,-0.7731446431733533,-0.002729278549690115,0.339559407398064,6.041906288717074,4.253858952348499,12.410292290158694
830,-0.7532510696140469,0.0293192045490978,0.3515547507303563,-0.644719334980747,2.765372592362853,5.918105688671141
840,-0.7772950126715312,-0.01000659922964906,0.33318343391365596,-8.30992915018726,-1.7319894993477236,-8.341926180590171
850,-0.7909986912024737,-0.026502100540052337,0.3187179859547846,-0.28269197937633816,0.29621719847180594,-3.2340736963199475
860,-0.7855845306175141,-0.020905213016430866,0.3211039694733135,6.167200866913809,-1.359813084482382,-2.015659581052274
870,-0.7910510728729806,-0.034537776835717265,0.31273394173869173,6.037914867009269,0.06689061152688736,-0.9460976330099666
880,-0.7589256312853456,0.01093369828650385,0.3457473524313078,10.602025657386914,0.09695699145200981,0.8746846236543806
890,-0.7457964323473852,0.036320306256357966,0.36048827794868504,12.877659897371053,-2.089377762021976,1.280347874905552
900,-0.7693410089320144,0.00937482861607463,0.3372678083641058,7.675255464658753,0.647375650780237,2.1261365600268167
910,-0.7761341197488312,0.016578258403183412,0.3327142574332995,-8.849383247134009,-3.0427620755776426,-8.196481589301111
920,-0.7714337707124881,-0.012084586814246599,0.3311677443601282,-1.7787219318745622,-1.310656674790392,-4.245350396876303
930,-0.7603973890692461,0.00735261677689207,0.35209598711553425,3.9502210684035206,-1.1032291794076714,-1.1744810186202583
940,-0.7399746565042914,0.0306294082926901,0.3674761574324132,6.9039267018402395,0.5041690929496856,1.7046752842491868
950,-0.7772914794902328,-0.00403315769340159,0.32539960419291364,3.3466988035903458,-3.2750135837992422,-2.2314457324703714
960,-0.7598816231952099,0.01670597869141134,0.34140151865124446,4.604655754014372,-1.299864731776113,-0.40543003457435345
970,-0.7809655860620772,-0.0014805728922348844,0.3224027573462107,4.331857969200645,1.4951294936297417,1.6971587358395297
980,-0.7923765901077289,-0.013358019729927909,0.3154659701710544,-2.383858747040558,-1.48919478916798,-2.8353824525792515
990,-0.767129084226962,0.003824139682906592,0.34194731083586544,-0.4690558706524057,-2.5607650708047167,-2.70181112604472
1000,-0.7868008841040222,-0.01579910258420518,0.3180375471957744,4.697864854922926,0.48210078063471234,1.64854723476972
1010,-0.7671959320107861,-0.0011828862343211568,0.33302749817446753,2.985471873331181,1.332571925108715,1.4171681168952894
1020,-0.7572600377178773,0.01855178759616663,0.3494649662212392,-0.7271396645519749,0.2053147853597361,-1.3914591543584163
1030,-0.7705552507029453,0.003760040273524006,0.3426966906773477,-5.2225976614613785,-2.9209699066025925,-5.595021999032357
1040,-0.8006141972349893,-0.03347005927594404,0.3105924949306831,-4.923861370882705,-0.3363126462679309,-3.4401869528501385
1050,-0.7690151292301103,-0.004607753645805208,0.3372667020764203,-9.178785203017187,-1.3609985934025615,-4.645253829445948
1060,-0.7649321109055961,-0.0005217342756067638,0.34526581267749795,-11.313393576950606,-2.5297324988427388,-5.840419147215796
1070,-0.7640959242035184,0.008343714669523094,0.34811139215337883,-7.724676086957996,-0.9094304366467001,-3.61398878158572
1080,-0.772586485024301,-0.011530385353012554,0.33379425758887626,-4.744113477071137,0.5088790709326846,-1.0488005125337838
1090,-0.7468505681712304,0.010315998409615383,0.3604453431360854,-5.985697629865798,0.05313653270806129,-1.0471693413713916
1100,-0.7562960900280675,-0.0023207473893353033,0.3521918496257926,-7.972563574204389,-2.6625265600952788,-2.932118689032547
1110,-0.7776039856282385,-0.017794648310529744,0.3309205199272728,0.8565499893167496,2.315441279516604,3.068038881641818
1120,-0.7564778569110696,0.010432558950348145,0.3532880362545792,1.410521204818775,-0.03698259992600997,1.2321918811787378
1130,-0.7893133677435392,-0.024481627251013403,0.3220197633768362,0.0118988772714963,-1.210011741811082,-0.28282073760000126
1140,-0.7838980162039472,-0.024019041725607874,0.32444333952876847,3.344033317125435,0.8077963139342452,1.077017274051708
1150,-0.7597908513136824,0.007098454708799193,0.354430880009667,3.9847392299549504,-0.1146233043868582,0.26740999139253163
1160,-0.7662234217348364,-0.0015178869404470288,0.3410481949602511,8.393549659442678,1.2441442710553288,2.7509105464740147
1170,-0.7784378458957218,-0.01383371167719595,0.32216380919674176,4.48944579846488,-0.5716758346541747,1.453135053611045
1180,-0.7789141860169578,-0.010677175554388829,0.32575314733942856,1.5438413938496947,-1.244653103453717,1.7644095951714847
1190,-0.7681331346014607,-0.00367016429425563,0.3383299958540677,4.918963945047785,1.51576215092029,5.509938019477387
1200,-0.7600972473358103,0.0023806003848466347,0.34732143179300257,4.4057775521301235,-1.9837844624290213,2.6464890070411884
1210,-0.7600470283260387,0.015590530201842832,0.3542992061875827,7.719800380897728,-0.6894873228995674,4.145303442858275
1220,-0.7982901685651842,-0.015694918974288076,0.30969208959007094,6.789329604297955,0.6922595428014843,4.726566431212535
1230,-0.7369236679410684,0.04474865031817232,0.37120994698717347,5.022004653384096,2.3432646058546407,5.665783916763346
1240,-0.7731793619764137,0.0024011795840412995,0.3360043089195203,1.5381456315453474,0.9267800798149989,4.194715505183987
1250,-0.78464457161756,-0.0025714660163248908,0.3303504578250927,0.19941622990192392,0.03311198411936833,1.1698458077469251
1260,-0.7752862474998176,0.007899117109411519,0.3328234962270617,-0.43393680507735277,0.06904715863372635,-1.2898970394964835
1270,-0.7793541975160336,-0.0005197656767975175,0.32381775838356025,-2.962566341554928,-1.9152841589274165,-4.987281096108077
1280,-0.7640467939587865,0.011129030887172132,0.34565455138277834,-0.13796204145454416,0.8182496457490184,-2.814082401951439
1290,-0.767586590191765,0.0045367218120034485,0.34634320518221623,-0.912705851956174,-0.13722375459596228,-3.1333374593621146
1300,-0.7495546940834219,0.01725725974790881,0.3607677855606762,3.0269113350086516,3.6018194977753075,2.366124582180571
1310,-0.7874265248773179,-0.017095423056836985,0.32290345899186296,0.20135116237402106,1.4764390549673088,1.8502197725686074
1320,-0.7616567275065371,0.020674459405584163,0.3511535155600388,-1.4895366550548306,-1.266205907408303,0.7519897110885005
1330,-0.7615988272632535,0.01749459682910342,0.3481083813265511,2.9317349711128404,1.2254564584215515,3.166296749030297
1340,-0.7722039643677996,0.005174298221556863,0.33600293719988317,0.525516885393136,-1.1921807041481989,-0.6833482691872657
1350,-0.7681014939605054,0.011399792025455506,0.34322154084844775,-1.9294317075385101,-1.8984081126069974,-3.0284861881236895
1360,-0.7722193662572507,0.004996678651076628,0.34130485211251543,-4.9002417866904775,-2.994082139581613,-5.049352188634212
1370,-0.7771784234349594,-0.005484891946784068,0.33098956018424025,-3.089029540783619,0.6334127126080006,-1.6456164566316864
1380,-0.7444140204502359,0.02667138844502194,0.36694995663334085,-5.56194594529071,0.6626604990940004,-2.396427935048433
1390,-0.7832832376441576,-0.01140101872805328,0.32697656924924845,-1.708263661130371,1.7591566753367802,0.9465536941599824
1400,-0.7685407236471629,-0.0019837159925649465,0.3364074683128354,0.058854145169926264,-0.6510643580123681,-0.0958829301454901
1410,-0.7801672992993088,-0.011252235808659099,0.32365950119040776,2.9396400645128704,-0.457618195215717,0.7391608539637404
1420,-0.796733883263454,-0.02072842795359036,0.3138738149488256,4.8221842558350865,1.6408643967544423,3.1691908261588932
1430,-0.7532484297148593,0.024997091167875178,0.36123895567279046,2.8022598789004416,1.8465047547681062,3.178954364676761
1440,-0.7744742362987882,-0.001159381854784607,0.3324153901253408,-3.8563929068295164,-2.4436214478597904,-2.0682581183140876
1450,-0.755795452953341,0.017735379889063305,0.35147815572931707,-2.5617208023713487,0.408928375448516,0.15168576557845487
1460,-0.7464325382672108,0.021341831016805837,0.3672518049666142,1.2791868395231702,-1.8445584403000042,-0.9276931088323936
1470,-0.7740738748258681,-0.0044725108919817964,0.33340915286822503,4.572555704726298,1.396049831243599,3.2560461029736674
1480,-0.7851537149451538,-0.013229487397916411,0.32880165077160195,4.104632060641749,0.9968983040935637,2.770722117820058
1490,-0.7686947048473098,0.004846860148021005,0.34354661466469594,0.3672232523295549,-1.3619146301623448,-0.2854346136004333
1500,-0.7739102484370393,-0.002462881546183916,0.33378745580727537,-0.05755426189245433,0.1629141822086082,0.18010737521180098
1510,-0.7803771198881467,-0.009858581855446344,0.3282684109975551,-0.3286948777581703,1.3798241731415541,0.22898423824422875
1520,-0.7643351715793445,0.014868646691584664,0.3448114511203674,-1.3301197256196595,0.7723650323933742,-0.8418091826363305
1530,-0.7798167083386487,0.0023831569417544426,0.32853550921264546,1.406930403379256,-0.5453835067140687,-0.07000569423064029
1540,-0.7868991341248863,-0.011006516086950382,0.32207977680285144,2.1244850039802836,0.23877303561165764,1.12156852480673
1550,-0.770089031886785,0.006184416871475175,0.33374648641382293,-0.534578070078531,-1.6033909333164749,-0.21199263819440328
1560,-0.7663499391064253,0.009430781156443323,0.3423645794774609,-0.8640070166132291,0.02645046334457718,1.3420830487363453
1570,-0.7567788410767481,0.015286217827322306,0.3547914028247082,-0.42873354546357456,0.8515695650114828,2.1498511100391924
1580,-0.7617975329694581,0.008867598854778207,0.34724837387300495,0.8380091250611741,1.4085564327908509,2.6108557878424064
1590,-0.7553010433876018,0.019016753855868214,0.35260579088942245,-1.8451200974963458,-1.0796550623806367,-0.6929391762920504
1600,-0.7550187499757315,0.01969387726441032,0.35711489496602183,0.6310373081182814,2.0908593982121246,1.0923339038512305
1610,-0.7719958959490919,-0.002821181541439651,0.34182767895225763,0.6624155387312263,0.10722943346488022,-0.5452210325818291
1620,-0.7582205577772373,0.011137112647148091,0.3510170810599058,2.065628003667262,0.13093297424316983,0.3516307703007468
1630,-0.7707102801341141,-0.0015196494259323637,0.33181056697976946,2.7057751797453644,0.9941929076686283,1.3535694340945374
1640,-0.7628204922743055,0.009762497550554215,0.3409545558988101,0.7120514075408231,0.7093654698190476,0.9679837036378596
1650,-0.771223569155398,0.005877616834687751,0.3392649705988482,-1.7059153599817167,-0.1542596606424511,0.21148638322572344
1660,-0.7746406930013083,0.0033366687477015666,0.340159241199763,-2.129175645211921,-1.310455070093766,-0.7382760953907115
1670,-0.7746078606900084,0.0002705504006873293,0.33886281305803934,2.4227630064324654,0.6152053086181386,1.008758680847845
1680,-0.7734568919147339,0.00258383266172819,0.34039509368376664,1.4091040857371095,0.4827119416834213,0.09518785075889502
1690,-0.7586669358779408,0.01697674748279854,0.3496574244699779,-0.5406018045503519,1.110027065681672,-0.40015363653823754
1700,-0.745927710049559,0.023448672979407812,0.3612675394994672,-1.9143830562757564,-0.3093281458226753,-1.7595589314413145
1710,-0.7679527332805426,0.005024395895186637,0.34017984034597626,1.3845294438525788,1.6687569448136927,1.1816160832377545
1720,-0.7515190151155474,0.021306458574462037,0.3564975324002407,2.2054702205706342,1.7413372942227743,2.6238602589859656
1730,-0.7598382379761879,0.013105726031160975,0.35086354827661875,3.239466120709316,1.0693657556865461,3.0381799613114726
1740,-0.7590743493311171,0.021238781511902585,0.35467336856211945,2.9802054240558267,-0.34793070912708113,1.6322769151315952
1750,-0.7833293262782139,0.006364169935033848,0.32592297321667774,0.715972917555376,1.2176899946255622,1.7844671923474404
1760,-0.7834831133671495,0.006009097961149809,0.32899645691465657,-1.0607275567955883,2.3199866671874614,1.2749284837771793
1770,-0.7673177346747158,0.009043710719237494,0.3397906044536655,-2.5002057768028814,0.8452963069538405,-1.2599167151601827
1780,-0.7785136145839789,-0.0028803233480541,0.3328956365144852,-0.954872724437358,1.3235407399867563,-0.905051562156796
1790,-0.7986080526320547,-0.026090009539828478,0.3142578728741359,-3.267181974368776,-2.207913217150916,-3.895319709751371
1800,-0.765074571594111,0.004206570982809726,0.345065256924233,1.6636471910481831,1.2444561910708656,1.415237570162874
1810,-0.7713434554817803,0.002886631013677024,0.33841687635168166,1.1866766405146558,-0.2898683477486475,1.1529250678904561
1820,-0.7861215084927712,-0.00227585463365311,0.32692165806524665,-0.06177587901937409,-1.0495754815342755,-0.5266109240011678
1830,-0.7632254046138636,0.015958174084541286,0.34656557952874717,-4.440067634451587,-3.1970907572184006,-3.763941213311764
1840,-0.7735348756088607,0.006776285318495777,0.3362523434809153,-2.2150684682445867,0.6147324244813093,-0.37288664646485203
1850,-0.7936377870169824,-0.019619744286535786,0.31693226075476455,-2.5491805631195477,-0.23433112993538607,-0.5606451307795295
1860,-0.7517234944989446,0.024726208940108556,0.36055917311057406,1.8156323939478136,3.0091285284441427,2.379065271093408
1870,-0.7276561946358941,0.04242767372333753,0.38002097296328297,2.7292739900389056,2.8440161903365717,2.389234677884038
1880,-0.7564142901507497,0.012003492626563675,0.3506447255545397,-2.4298912367111845,-2.3547456645608915,-2.4922658694120843
1890,-0.7470143723739224,0.027143854256350273,0.3644391666367297,-0.8328303117493265,-0.26236882410003753,0.09189113276880012
1900,-0.7603395886721577,0.015908181986599355,0.351895803033137,1.9145155569591734,2.0183525377447733,3.3516640716153745
1910,-0.7763343585083782,0.005628798457729947,0.337081464093909,-0.36867928546196316,-1.583692175366535,-0.22823629898296138
1920,-0.7778616721745185,-0.0019110036797962415,0.32828406564201323,0.7749087625138815,0.7336880635593133,0.8328848452803919
1930,-0.7830434274824047,-0.008431063378360444,0.3295754977750056,-2.211040906090521,-2.489085485702302,-2.777159978059076
1940,-0.7881295581001966,-0.013638011711150639,0.32884564997456434,-0.6753174248298376,0.6946616429168868,0.3856760940783547
1950,-0.7838640576481389,-0.006520819429217388,0.33290640078384115,-1.6574186717525898,-0.44481533102278004,-0.5527212507682921
1960,-0.7772134043485329,0.002650214640438061,0.33464398646751764,3.642429510677405,3.947184810841489,4.002627739040152
1970,-0.7932689394911832,-0.014240320954390833,0.31257661787520796,1.319349364166781,2.0048129136225112,2.132915301526528
1980,-0.7688709701856576,0.008676016212938295,0.33694943928879,-0.868537453089987,0.3057118540507286,0.8265931669093894
1990,-0.741787204184519,0.041064512223728304,0.37344221191709026,0.48769811568132826,-0.6816018349333076,1.2556078113422218
2000,-0.7665853636882077,0.008875738330371892,0.34266988694953,-0.22640565680669517,-1.0682648469503293,0.5680522029316543
2010,-0.7765236709561574,-0.003013872498637062,0.3295121835257862,1.629522649469422,1.8479342886932844,1.7995858050309976
2020,-0.773473482775597,0.002575142524979099,0.334767693316583,-0.19839881747733445,0.9938661578645462,0.07367559758651199
2030,-0.7561473166387047,0.020620323866973076,0.35613898757718804,0.6987594083585252,2.134012836016768,0.9397343055210245
2040,-0.773844621942448,0.001400389228077505,0.3371993312383106,-2.3802582838583057,-1.6335780494082073,-2.4571357002669245
2050,-0.7809362306812405,-0.005778337256787636,0.3262832909091138,2.583564248352832,2.1999016638087547,2.2556443284018894
2060,-0.7850871382558124,-0.007677840023285966,0.3310669868643395,-0.6535767516046411,-1.5329359771905267,-1.3501257983678432
2070,-0.7676445753361973,0.011592461741752184,0.3424440613477567,0.10358587048062606,-0.11076485637628597,0.15110694914611367
2080,-0.7698925216035611,0.0051408026569780265,0.34113442307232306,-3.0431014741011984,-1.6325975981358338,-1.594126372569188
2090,-0.7769991903052585,-0.0037012686494740715,0.3346677230653754,-0.2547882597959379,0.012880487370227275,0.4260965621214705
2100,-0.7557461968064861,0.017100923098756098,0.35715812500525096,2.3661232087761563,1.6317058391065231,2.400766313243646
2110,-0.791390517839713,-0.01902531666300695,0.3191823508424462,0.7733161547134649,-0.2390550294702084,0.3874014901894308
2120,-0.7706436114556775,0.002211841387323858,0.3371001002462364,1.0328706649287134,0.20871481251025553,0.28221667775137865
2130,-0.766640937759386,0.008999363682087156,0.3438623372683025,0.08206041361083649,0.04173168486283041,-0.5194474987066555
2140,-0.7560697772978637,0.02142098473961536,0.3547064762470893,-1.8105249792935094,-0.1780341990193122,-1.5557589178733369
2150,-0.7543986283392948,0.017702461661807847,0.3631110931965471,0.7411554171076903,2.077488839887313,1.6546248803743122
2160,-0.7784843990981126,-0.002920936354648202,0.33387472606923146,-3.551406481230878,-2.707031972807525,-2.456614757460045
2170,-0.778992460678337,-0.00248807402783386,0.3306878466450561,0.3278939210094591,1.054715894626207,1.138073671966129
2180,-0.7480981046936129,0.028257502414755713,0.35861071034674424,-0.12072466680291727,0.5773876806165372,0.9252717511402083
2190,-0.7326107061687367,0.04453261926739986,0.3715312070878114,1.6207022253030154,2.7116519875814076,3.3817889406571995
2200,-0.7523070124836143,0.024727880868738887,0.35244995147258273,-2.458156578155161,-0.5569574500466805,-0.18373986162735792
2210,-0.7434762171971577,0.030151430424360193,0.36549685416873207,-2.0953954650698097,-0.17749739074790222,-0.15836009918834365
2220,-0.7449969218005159,0.032691639208638816,0.3695613158351173,1.7386454550309869,0.9008030342434398,1.870942180017857
