time_ms,ax,ay,az,gx,gy,gz
0,-0.8705699641892485,0.11425679586154441,0.4092434525455358,-1.4653206794417508,-0.43088145102160685,-1.0242307773629682
10,-0.9060264161736702,0.07605766265226188,0.37212527069051327,0.13658417622539787,1.66928302696637,1.135264985160337
20,-0.875065352928779,0.09818385900893922,0.4048812084480297,-1.5081110645894618,-0.8170893321203426,-0.7379512613871843
30,-0.9197861680778189,0.0563130360749189,0.3567449345191218,-0.7107879389676239,-2.4339160542704783,-1.4129364698162792
40,-0.8817911470405314,0.10303465715813014,0.3937143262135096,0.5856589001988421,-0.5292006601268973,-0.547763982545139
50,-0.8938981232424709,0.09150536673309778,0.3889714863836079,-1.2994832908364153,0.5915049217376319,-1.2206318555256863
60,-0.8723388256119161,0.10588068948678543,0.41321706930269897,-3.8095182064713815,-0.17250472160350472,-2.7467413371976965
70,-0.9101904775592441,0.06125729828407775,0.37083752941036563,-3.309453449112095,-0.5242090330236107,-2.501317681703705
80,-0.8640253910587087,0.10953593575867938,0.41360873574328666,-2.4777392675428733,-1.2363455126856502,-1.604386619715652
90,-0.8950552641043361,0.0869533734433546,0.3879754320931075,-0.31400908208839506,0.327201321165858,0.3725242002122729
100,-0.8992628580984182,0.08005315651528236,0.3828445037582955,0.0530884834648212,0.5263567418443534,-0.08199309062070048
110,-0.8917757351976632,0.0805754931154851,0.3878140071890167,-0.9339016107591649,-0.8743701871250626,-1.2459566472371844
120,-0.8696816732797401,0.10790757639591265,0.41744773491168774,1.5143748028089887,1.2447778988608145,1.5151489820689803
130,-0.899800378881665,0.08114802292714314,0.3833303013462256,1.7868540638223078,1.7857331806679702,1.7887294413523627
140,-0.8877302681021386,0.09179631053379411,0.39205228579295814,-3.051009899678778,-1.8724852102224354,-2.5355044661627564
150,-0.891903784900863,0.0797228586575132,0.3902341084153202,-2.2014521521475565,-0.5654944981145091,-1.1339144169860815
160,-0.9087068006878538,0.0675121532165115,0.3797589111585535,0.814122949385254,0.14778404896890165,0.6139277918966992
170,-0.8740782189616169,0.09427736678648513,0.40633972812034874,2.622990800687104,0.4515483526813316,0.20066524826858773
180,-0.8790371929609437,0.07776500678852909,0.3962880836461832,6.543076458596368,2.9036374872692234,0.9395557928684385
190,-0.8522473876791143,0.043033203574928805,0.4641664654914036,8.578514065483773,3.152131736746875,0.768945880300331
200,-0.814121806570202,0.023978510116113592,0.4630416771408664,17.621492742363905,-33.62388585409521,-9.796856244710458
210,-0.7393073299687011,-0.10528586226377695,0.10202645220327672,10.026909175273913,-55.797757782886585,-27.390045716018268
220,-1.0812361030599886,0.15814358450963867,-0.08132863348352092,-4.584891341457835,-42.205472103843704,-22.801429508809942
230,-0.8827833923231783,0.04606834053652296,0.33095745384337766,1.1150671404275818,-25.986922072885438,-7.052855905294936
240,-0.8679385740758777,0.16919193016857692,0.3623938102420878,-0.7018805133448772,-7.465593424128594,6.065614107510263
250,-0.8891366560696033,0.13499619231926613,0.3650406385527829,-3.7831504381853915,-1.3145684377260543,8.175823019810226
260,-0.8908699168988671,0.08631430818466823,0.38727368895777,-7.841804906324831,-4.077683381070445,3.6393095314263304
270,-0.8652837327551126,0.1537821380252428,0.41227248318138454,-12.697920965091914,-2.3692822460441905,0.2279939102737366
280,-0.9447731014275579,0.14835913642858892,0.26183455138723466,-14.90673441660559,6.55876358955194,-3.509973039940406
290,-0.8961119540815345,0.162913366470359,0.371598216011067,-5.284473426294445,18.662279756923148,-2.3166098173627105
300,-0.8001776873832281,0.12643529546625826,0.577911184432732,3.5514827214431874,23.71690637278671,4.649153698399571
310,-0.8666237095249544,0.10467316649064362,0.28415649869649495,2.4929703823982083,25.3689297792306,14.816766831563946
320,-0.9113071463943572,0.028250764592011902,0.1829200216630553,0.6079869688178277,20.386818944985325,14.287630392800802
330,-0.9873390016238379,0.07290765111375001,0.11339863920628084,-11.706341668521086,16.244429542509373,3.032054697703433
340,-0.820251827554522,0.1699425574545413,0.4816975313539682,-2.8852514646063785,1.3492979929804554,-0.4270095226100745
350,-0.8721455173502606,0.09124635908643175,0.4170309507265685,-13.138518414170528,-2.8626125446294743,-8.41792992524488
360,-0.9051306847090876,0.03339369296354641,0.3934817574678926,-7.849475036070187,-2.6789103570925406,-6.0157151800272235
370,-0.8811314021064782,0.06487933087080427,0.3941501496947813,-0.7273710876470454,-1.4980985500072097,-2.19869191994296
380,-0.906432117585799,0.051243427264754476,0.37838501241576544,2.9764095732964666,0.7074002878738475,0.7419953562744944
390,-0.8903567891437029,0.07149038481712792,0.39242310126376206,2.2791876550179495,2.181367460628111,2.1393475455548767
400,-0.9237280647628647,0.0386112409213902,0.35930992464542155,1.8145213665574655,0.7481139051467345,1.078801119813487
410,-0.8855331780284242,0.08757783814229089,0.4097721560452726,-1.086789557798891,-0.5439898987587295,2.0761476376986456
420,-0.9067858539522597,0.0676332374875647,0.3835002318651345,-0.5300205419703071,2.07211087760224,4.116669851028991
430,-0.8832221108358916,0.08363852518949765,0.386732487816125,1.9089192801640078,1.5410939039435383,1.8689517692914046
440,-0.9072746736318522,0.07381111809651843,0.3729615891022699,0.5120938737876701,2.0272885209598397,0.004552048066100767
450,-0.8962773726636877,0.09080593193712763,0.41112199490046525,-4.877688936012453,-0.15473043306058054,-4.125353182412481
460,-0.9162817346673311,0.050334066103916345,0.38669041294197204,-8.169155336307632,-3.439903490020763,-6.614214359504018
470,-0.9138069480738855,0.16961421548301592,0.3384134155322705,-1.287751321539377,6.406181502703719,8.606995097981233
480,-0.9053562385648849,0.2973479855160485,0.37414039617948325,-1.488352891808265,14.301324827529621,28.4772159708385
490,-0.8921498964647427,0.18039015049697077,0.5181443030647492,-15.360660175553777,6.172577733488695,34.90640919709558
500,-0.8289146205011587,0.19121347213616816,0.489541787635062,-19.78161824376409,1.0383208316857733,33.96447161406067
510,-0.7251372478856637,0.08029641858331756,0.3522377316783209,-20.303201394363484,4.907416310193372,27.555902513674123
520,-0.8186894614530329,0.009147124463930881,0.3437450437419396,-23.656665570847448,10.510496251475082,9.60769498150207
530,-1.0495187510937642,0.027536370862836217,0.5345777140887445,-26.355719830068836,6.580482168029121,-4.795323899037026
540,-0.93060146875737,-0.3858084650495168,0.38185804090540704,46.93419021284009,8.98617644208605,-13.860677521243463
550,-1.0765990039790514,-0.024078750301269592,0.28421161743508633,88.7894005539989,-4.825097792564097,-33.66484437248814
560,-0.5859127469133987,-0.9944030182845016,-0.01871804500904351,2.2497134271222015,-1.4250561091553942,-61.070524397410495
570,-0.6981447085641137,-0.043610248733502444,0.28283107945354585,12.210377335371478,1.5760922592910713,-21.544090375099668
580,-0.8664553331493179,0.06644815601172224,0.28696374813326847,29.36768608823682,-1.1149762455925305,-10.625931411618996
590,-0.9163918146065486,0.38194216777893325,0.3840108986992456,33.4785492839085,4.866726139197279,21.88764421286471
600,-0.8679967250505273,0.2596390973864294,0.41990313847745087,2.1486395605159645,0.04202536248069633,8.929407729432953
610,-0.9108820982937503,0.0966226783776942,0.3615519973945488,-1.9791116789125347,-1.4091364266707014,-1.5275787662955618
620,-0.8944994507919818,0.12289943029969362,0.3871110020811033,1.690871800033795,0.2866142740089508,-4.064067835241499
630,-0.8671151205240335,0.14268778896357975,0.40828579383350166,-2.389484601738595,-4.014274323396311,-13.560575674861916
640,-0.8828825215334856,0.10086881853477479,0.3865221824095608,-0.6623199824004989,-2.4789130553708034,-12.75616571399859
650,-0.8559832840933463,0.10804918983861783,0.4163923100186504,-0.7844571351155092,-0.5407352343313039,-7.027803089427298
660,-0.8780744000836986,0.08846933833832953,0.39664628877123986,-2.9848813636733365,-2.0041625167319848,-2.8634775260412555
670,-0.9097102832488781,0.06826438893490727,0.36665684589023406,-3.713387572686423,-1.332710733133706,3.0682838555408716
680,-0.8597748329143702,0.12988058635443248,0.4165220244352141,-2.6536139952130937,-1.1159272981709107,2.2694965656423625
690,-0.8726696299377094,0.12083388297994359,0.4101282567694682,0.37626021464505344,-0.02472666692661052,1.7991187579476957
700,-0.8775186418816616,0.10801705300961671,0.40059511706052975,-2.3335962597049535,-1.185294171177344,-1.7836627011521262
710,-0.888138402692669,0.08884937674465569,0.38886057747370173,-1.053164120993554,-0.025443086977330734,-2.5332103833905486
720,-0.8976963936656602,0.09200539153722441,0.38006404206838773,-2.095601184196088,-1.1576515535438445,-3.8845304795380713
730,-0.8604756229938957,0.10981093862117533,0.42116995353935854,0.24921108195094085,-0.44692628029854836,-2.1763076087751383
740,-0.8939851647404181,0.08703592759800721,0.39180362143361297,2.890884003787267,-1.0484181653620583,-1.409275907619825
750,-0.8917776001129514,0.09331321376250497,0.3887962281311391,2.494780600488083,-1.3029456336376808,-2.3930424072824574
760,-0.8885253683123527,0.08515432366111098,0.37901935083466437,2.7290221018814607,-1.1359653264942526,-2.4427941445501906
770,-0.8890933161667055,0.09495070717770127,0.38710855811631606,3.6768534624769056,0.6973541080246988,-0.6773345566384801
780,-0.8693156137527086,0.10788693876371774,0.4069936470697654,3.0379356060613336,1.2946660607522729,-0.8443314238242923
790,-0.8846661472939985,0.08788815870398607,0.38971118610095246,4.195665068669976,0.11422176838276926,-0.3021677160866565
800,-0.9249616701934994,0.06661987282871361,0.34829744500555004,3.2057540930099266,0.4210400054637768,-0.4097569787633265
810,-0.8879948940193783,0.10780350286654984,0.3917223344441164,0.6642045826204239,2.2933060158367033,-1.974289168725183
820,-0.9041287749073615,0.08013306088840827,0.37730732357848923,-4.217856447234214,-0.37008166389493596,-6.825947150160463
830,-0.8881314441617321,0.08918986214988561,0.3907652477667136,-1.4419822543883876,0.7669179033021298,-4.912022033325703
840,-0.8944333392317825,0.07713943406330612,0.3869065083548979,0.595446107518622,-0.8035320092019329,-3.7858205948319705
850,-0.8767241003337076,0.09962985462016831,0.40658150355495953,2.1005952151793243,-1.0039758784938024,-1.3372242515055974
860,-0.8995864355434402,0.08824805796360895,0.38686884016428785,-0.09843539438619553,-1.8104865355792392,-2.0940224480520087
870,-0.8907152139983006,0.08267933653049755,0.3807834737933089,0.29874535133108104,-0.5605362986713857,-1.4607656132070128
880,-0.8797066108435111,0.09275854248201601,0.3929508263812684,2.443927692165915,-0.9225347094487824,-0.7914984451647148
890,-0.8649183810311956,0.11105711735480207,0.4176469060603575,6.632387275238868,1.1935674942006231,1.3378999228975643
900,-0.8875247108118668,0.08849590486527761,0.37729649541715077,1.3762133672088792,-1.3510392054114362,-3.303286955731612
910,-0.8920197916917163,0.08977844175267452,0.4007628604908125,3.944485203712615,-0.6394391472346597,-2.1898510600940178
920,-0.9049011364104887,0.07279879901132685,0.37904097311452445,-0.2832762711045258,0.7378874795305363,-2.7782836708219776
930,-0.8987523214009151,0.06491356706923182,0.37545876177597837,-3.7049882120226885,-2.9095227207320873,-4.693876834509228
940,-0.8862329175767928,0.06825947123768114,0.3984976889059246,3.7918766902794427,0.37683079861660085,1.8362553546253442
950,-0.8776370483743572,0.07782069205631556,0.3975555992601485,2.9576417482571493,-3.3731895261233005,0.4688790439787631
960,-0.8943326174881376,0.08173829853088338,0.38434273105128686,4.092373406205224,-1.6177276984819953,1.3663613557239742
970,-0.8930199728081156,0.08807751753507856,0.3920809108894332,5.547703611586482,2.0245795652566922,2.7657024458007036
980,-0.8936761356688403,0.08607177080862392,0.3950981702166159,-0.8909756316738433,-0.2939181170719374,-1.7854328809125097
990,-0.9005488868151005,0.06795244754244076,0.38652081089947615,-3.2761708942479353,-1.9695985467586223,-3.3120600375473623
1000,-0.8765544301689246,0.08002646689912898,0.4044344489888054,-1.2934124162651126,-2.7132412209345986,-1.5216653773412638
1010,-0.8781464217671391,0.07896582021061128,0.4010102127631474,2.2059540673688263,-0.8761629905580292,2.5013904503649464
1020,-0.8885779096166491,0.0799272284439109,0.3922406873627235,3.225700717556531,0.6747234944576487,4.513299547823618
1030,-0.8823213198170128,0.10277553606058887,0.4010135046002087,1.1593823892589548,0.29553671512801727,3.3625461689438954
1040,-0.9021874211710122,0.08695605896839675,0.38443673365550624,1.4399303889793238,2.113515516815866,2.687145475712713
1050,-0.8713100927009327,0.10529977987705322,0.401936868938353,-2.308187807489592,-0.5808116898091535,-3.5822051057538964
1060,-0.9028357294474465,0.061730702906243995,0.3787226182616505,-1.2549206073967394,-0.21809914484531023,-2.1077168900415773
1070,-0.9086278628306251,0.05820704749279937,0.3752612277818538,-0.40533120676649476,-0.5868166499069186,-1.2260050370172473
1080,-0.8851827327988037,0.08290216831719942,0.3904943860205,-0.7153636245133494,-1.7913085198994443,-1.271301319701284
1090,-0.8680321958836835,0.09526453840934637,0.39646304457643505,1.5952421166692763,0.2553245934905185,1.1300798100174716
1100,-0.8939160682567256,0.07487704429776183,0.3800369040871558,2.9151112126679415,0.8966156478800962,2.2118276436369575
1110,-0.8660847261867501,0.11294824389768938,0.4163832161758735,3.7314267533822285,-0.39099869438235446,0.9960293877112261
1120,-0.8623324427147938,0.11149732773449271,0.4144503766947884,0.4878637393329912,-1.1026117956039585,-1.0143935658519758
1130,-0.8613174640164342,0.1073033522689707,0.4171565405113568,1.8381821747437534,0.3405403525537175,0.18556573527185416
1140,-0.8963723862339552,0.07010834814103652,0.3810947718861222,2.838538147098409,2.5476277943427794,2.265509657674877
1150,-0.8660994240364649,0.10472426392406042,0.41056475128070197,0.41780752634736895,0.46216881621075345,0.48231317871866153
1160,-0.8925942317473234,0.09025106281863648,0.3902722980770676,0.7320799146779691,0.6666724905246055,1.200211470242681
1170,-0.9015887118707258,0.07862615830513733,0.3766107080126792,1.7506008669679156,1.7998270137539418,3.0956364265113656
1180,-0.8955653822753136,0.07923069536512492,0.3824798677748038,1.0902002428828734,1.1197767570328272,3.200635997392542
1190,-0.8849376434412283,0.09427543586928573,0.3994771458748854,0.24347381602193363,0.3044773414615176,2.637539235740336
1200,-0.873492667612948,0.11099968355251102,0.4099739313863124,1.3162904393390702,1.7739028151271636,3.3984942844122736
1210,-0.9072642806029335,0.07880233835834391,0.3754291457486949,-0.2900726075706296,0.512835308125677,0.8346215732053364
1220,-0.8958253139956721,0.08438350891844819,0.3829923799518792,0.669332787427459,1.5571341730186663,0.9623673403286447
1230,-0.8921985880624106,0.08525748340964494,0.3870820237823659,1.168268301770499,1.5931957042131193,0.9589125612366456
1240,-0.9031945497025786,0.07551922813042589,0.38197613206525344,2.14911117868616,0.20397664401407306,1.5289237121733783
1250,-0.8987010749608719,0.08212172048972383,0.3828569676532256,0.4153359264825376,-1.5785563696963925,-0.5818798963547767
1260,-0.8692817596560923,0.11187416637074052,0.4035706500855824,2.673582055724408,2.100670121915173,2.4178117937162797
1270,-0.869963475518128,0.10743135767265592,0.40458496233355423,-2.7634345183533235,-2.5536763682409354,-3.1997104276296136
1280,-0.8797855593491146,0.10431189926416745,0.3980698816844712,0.3928683599259327,0.016167647657192363,-0.6450910832724992
1290,-0.8787814125657594,0.10800012376951695,0.39654874009651137,-3.640735952900854,-2.1244048578952315,-3.247021606996802
1300,-0.8674877179386054,0.10809106049274567,0.4111929363257627,2.8481947792768607,2.620963381891976,4.031342212726916
1310,-0.8860040303168402,0.10071189088461772,0.39759424785649033,0.41652713755829307,-0.5383228279369745,0.797929971757616
1320,-0.8791801090601498,0.10995658844505257,0.40154621194116774,0.9533073847410566,1.2671497123042041,1.2085794773155405
1330,-0.882973089225537,0.10640193730671964,0.39423763630821945,1.2246554846237607,1.8597799383956088,0.9529571482713493
1340,-0.8706678932850372,0.11563595371033435,0.4052807941848764,0.362959879002348,0.9079018658492236,-0.0024398302769258473
1350,-0.8811770913994765,0.10313543383208076,0.3971099845033767,-0.3931402882050232,1.2056237400950272,-0.48584202592700154
1360,-0.8758569406608868,0.10351510993636591,0.39983595590771603,-3.502685289473868,-2.870553282516086,-4.04381203177732
1370,-0.8873216297319153,0.09042403990956717,0.3868987721033994,-0.5498245205254326,-1.5113374156373434,-1.571248142831016
1380,-0.8992129379793413,0.08224483643930415,0.38345294923281215,-0.37080176339000015,-1.166523894789528,-1.1574292431935331
1390,-0.9324777967186004,0.04894468260192641,0.35427652687721545,-0.823070265795065,-1.5313689447867362,-1.2880629128739451
1400,-0.8947190766448155,0.0893324656722628,0.38563461222554907,0.7068367231580577,1.4206904943576244,0.9996640954671691
1410,-0.8965096511854567,0.09108600211955786,0.3853071652096993,-2.89172554929191,0.1528054838011292,-1.198828798610512
1420,-0.8806161460782616,0.11643008498639067,0.411336101656497,-2.7735240813068183,0.39108143796227846,-1.2766945572777937
1430,-0.8956970859522339,0.0819420611407879,0.3877625863565515,0.3448544488933874,-0.7435396207364624,-0.8462364773417885
1440,-0.8850788062919303,0.08703023128997153,0.394163633325225,0.4417489476640444,-1.247369023211798,-0.7448349747485086
1450,-0.8495209093636,0.13370253677270721,0.4331927486925262,2.981065173442909,2.680199946952865,2.9451718882500972
