time_ms,ax,ay,az,gx,gy,gz
0,-0.6900409071821244,0.13181306776252905,0.44101297133573947,-3.1415996279657166,-0.9520079093767866,-2.1847571217364705
10,-0.6984129218731264,0.12529314937236327,0.43436777553698835,-0.16909014895970048,-0.11543463410530774,0.19190942363065072
20,-0.6710092345561592,0.15221221065113794,0.4632311888640779,-0.025796114217306765,-1.407963672839578,-0.06999200277902728
30,-0.641962776890361,0.18102957172543255,0.4904738307654924,1.417804394553475,0.5262383870026381,1.5516504990548894
40,-0.6340839601840965,0.18682408013277518,0.49716212445109126,-0.30798344437026504,0.18107260762596386,0.03428129470461749
50,-0.6627384785845131,0.15806063026833417,0.47274366929295086,-2.7985732567598864,-1.7497509277295178,-2.9643137016277112
60,-0.6585947034103254,0.16593294784156015,0.478648818917089,0.9139276448169585,1.3386923004946076,-0.1849208652037565
70,-0.6840398355448863,0.14321749009287132,0.4500219619870515,-0.8938630343108148,-1.0413730731190358,-2.0611024384459844
80,-0.6636638752631334,0.16115483366959957,0.474928465214106,-1.013609733327976,-0.7543278328752985,-0.8038081599798558
90,-0.6848312439205926,0.14080783663323526,0.4486864293968027,-0.4279051434294159,-0.4070414040280572,0.5521921973723066
100,-0.6890830507153005,0.12174146756307842,0.44497657844415545,0.7625951813613765,1.3906632198231144,2.37934694443498
110,-0.6341952680615965,0.19045059947757678,0.5049674752800632,-1.8357367146988715,-1.8351682241494822,-1.1359055926140869
120,-0.6986985313952047,0.12606563137843085,0.43951088471694977,3.1602648686200543,2.3787136781815903,3.0775605869990725
130,-0.6684909280185924,0.15705649322644227,0.46713278993349805,1.733575156556186,0.90005807794657,1.9523997589929025
140,-0.6843095833173499,0.14253806527210924,0.45369785173493316,2.922112004333959,0.8848098585323149,3.3700265015964668
150,-0.6753308940428369,0.14739727001893219,0.4675913759205084,6.1721090033358195,0.8824469064022638,5.152609669024389
160,-0.6767365638060852,0.14678121371839686,0.47419612086652546,8.608648382827768,-0.353105677418939,4.750314054694747
170,-0.682647066054231,0.16168651988046423,0.4839243901584388,9.132681758381272,-0.7149830788034536,3.835905297713872
180,-0.6743070332943617,0.19119056664199804,0.5221455307873174,2.1210721999342015,-3.80731893006194,-0.6159219499336134
190,-0.7150011855140175,0.12814328255542165,0.5999355085751366,-5.327865053952834,-6.082356162047997,-3.5913128953243363
200,-0.8112639379020833,0.20311461806587067,0.5414697650544645,-0.8996980459919517,-19.993447802703127,-1.9082218584945396
210,-0.6131942041295757,0.17299382305545613,0.5663620479632536,10.732571182795107,-49.435161497524135,12.153117074537105
220,-0.5553651444793435,0.18483000759526474,0.38277441915812715,10.273910199455539,-51.608205577067,11.09618303932595
230,-0.4936802930029014,0.20401974092438036,0.34459554096212375,0.5056758073945637,-37.24079703506596,7.453332552589353
240,-0.5224261647584788,0.17306825616431698,0.3284289094050623,-1.0676166036396886,-16.609191900269543,11.649767988854414
250,-0.5126912715900527,0.24808187619501848,0.3846336262896644,-9.981075574725015,-9.690798927072892,8.438755259740129
260,-0.5787748124622396,0.261336932672823,0.38019819031436664,-15.876920769317206,4.869238343234013,17.17064214582587
270,-0.5921074557352921,0.28185838964626597,0.4443649450366064,-32.45955489006331,14.183854187620687,17.777984390639354
280,-0.6184333089885008,0.05250759263966984,0.49114637469508476,-47.878423690485434,18.255126314368876,-7.534194374807987
290,-0.5826382564123106,-0.014734799783930977,0.5329465736418281,-53.23828283681368,14.528873669408863,-18.012669943158933
300,-0.5454771663122969,-0.040470295422723325,0.5830037168366973,-43.3509273586874,13.899950081213014,-24.491629058590057
310,-0.7213183946573589,-0.07769605959005155,0.46217716961853483,-18.263138793487002,-24.142697058535393,-26.391286020232815
320,-0.729283706622759,0.042001505774328415,0.5972236903678511,-2.3464303733711467,-30.25044006210503,-21.303319173884653
330,-0.6412189562765985,0.06455631485187874,0.42794241086494245,-17.697703793537997,-42.15928307120589,-27.444674128339408
340,-0.5904436904309683,0.11442004468102855,0.34054376748941695,-23.354728925132395,-40.18361148011107,-23.966627957675275
350,-0.6909824132002852,0.23155274636943923,0.4198436958667186,-5.856510065009282,-19.584108293443105,-10.909921429033346
360,-0.7147107956453754,0.35785467222937417,0.40001860081531654,11.853410256982173,-4.930990789425091,-1.849585489420981
370,-0.679253684875155,0.2056315800906047,0.41796013974415364,12.066487794390447,-1.2895997098738992,0.5595869560492902
380,-0.663183630089576,0.17113863320237918,0.4695564864198124,6.098525881333087,0.37018418141253684,0.28677274103466843
390,-0.7616031285613021,0.08902160434514346,0.3711467452139318,-38.64553007737277,-0.8008486527002843,-10.637971066215167
400,-0.762740672705111,0.1710714244151414,0.35491407080148507,-39.187455257934104,27.748965318332942,-8.095224106504112
410,-0.5043932066656697,0.1315452561124859,0.9123797616973257,24.653146739386806,54.05186981533207,-1.7154462033154005
420,-0.3842001241464199,0.3072095316409291,1.2420091715960107,35.79428425134874,62.879751524294505,3.771453744759974
430,-0.5030846559265472,0.27224400754090244,0.9083159185231247,19.8236896962549,54.59532741726352,13.580094598601491
440,-0.5847069147912578,0.09068121156179476,0.5900180901574733,11.572753744451667,34.47669026991772,14.443492157128844
450,-0.6512442301766815,-0.007518993084671133,0.45191630664839105,8.034752932756765,27.691226382690854,6.649344971698015
460,-0.788035218656723,0.01193431646783422,0.04420134834996679,1.845769691748689,38.992618754497585,5.481736506225147
470,-0.6416589653518785,0.20572258464031137,0.45692671103187715,11.178332150466778,6.740334784884624,3.5428013825435696
480,-0.6687153476401193,0.15523950658196148,0.4794550958882287,5.976145930030631,2.1164075434843665,-0.5708163370883012
490,-0.6591275162143371,0.14241441938933885,0.4900275513098435,5.95242902030354,-0.5362398363685065,0.4266438728555726
500,-0.6860313321122425,0.11934864069797961,0.4712380394288834,11.908679865374689,-2.9059969576179503,3.9909049160606402
510,-0.6823767556773068,0.12645438200339673,0.48267250585142946,19.40340188144491,-2.2654381534787653,7.639748933132513
520,-0.6775917010090591,0.11928576143722591,0.5034130486119051,9.973799077958219,-8.807923585137955,3.2827795835236593
530,-0.7246043704635856,0.11412462505424684,0.4334797814844694,1.3583129868538566,-12.94374404824908,-5.66423082722926
540,-0.6832329391200388,0.20039875898849088,0.36323783991513364,-4.323673769036252,-6.8394716040572305,-0.9858397570881704
550,-0.5524030781475157,0.28640230584389237,0.33259409562651276,-15.889769237579932,12.490483595820296,28.013909663815962
560,-0.45975935914379396,0.3395196653459825,0.3203530741231883,-34.072656200354295,27.05513707239966,34.72020566894222
570,-0.40218871094082886,0.31532295934002635,0.32650201076557633,-49.18593711438787,38.42468567560532,33.66849058674763
580,-1.1606437969103343,-0.024920266450786877,1.6389172151544287,-85.4350763791315,20.191271598099235,29.341273630050896
590,-0.8829190760649319,-0.39560562687467427,0.7031903267170704,-27.992318854497093,4.243647669901583,-9.108302296017214
600,-0.7204820198299223,-0.22508221602379125,0.5002810707000067,1.2855083956304942,-1.4324407932821013,-31.953941370729115
610,-0.6580695723206761,-0.07300123287100818,0.587031177805957,30.181045447733553,-18.055972447405015,-57.356966963642165
620,-0.6983150499927765,0.07608379594346208,0.6218201688239392,65.776424423458,-19.59064599988536,-48.12037794468945
630,-0.7115666628279514,0.3285179906518154,0.48940750439622793,53.05844578603134,-10.48413387076936,-17.002163205159793
640,-0.6623193122913986,0.562409629794916,0.3302988436535396,14.997565860960353,-0.03887871078357019,9.070135141669361
650,-0.6535632766510281,0.6061877948406389,0.43448658043601546,29.683201595157268,7.065986272977452,22.781487700573773
660,-0.669398090473751,0.32121106590383786,0.46102858262831564,30.83787306625323,7.093634377515059,27.559702210580696
670,-0.6664473340173872,0.22365262746208273,0.47170130473109073,12.828695732017945,6.678855745170626,20.572342635701204
680,-0.6850434207642895,0.15948383187298876,0.4526107155549248,2.2012580092946354,-1.0068571040169045,-10.832070369668408
690,-0.6544982084608157,0.16686399520610906,0.4741779568263651,2.5642647798214915,-0.4464701712519257,-13.474563525694856
700,-0.6871918280877641,0.13442379527152185,0.4540578390962875,1.0570177911152758,-2.157488947151767,-14.476670207863794
710,-0.6847665631662835,0.12876264552214392,0.45971599746105807,3.281404031998063,-0.44251856684384494,-10.990605953648767
720,-0.6681916782566109,0.14154077440023424,0.4733686751071854,1.1967559896512774,-0.040732392484762736,-7.2864717895148665
730,-0.6653329881048236,0.14305012983034954,0.4724758941979059,-2.237895201879715,-0.2452247542500447,-3.318031156205187
740,-0.6772055344905815,0.11935011884088836,0.4552135000868804,3.5552010916198116,3.619092806583404,6.461145710537513
750,-0.6886563126706038,0.11214085313457128,0.450649519395673,11.929884451054011,6.373172770163098,18.63161039842395
760,-0.6666649840779314,0.14919111304584642,0.4674599606396058,14.334877206727503,6.28632926894022,20.12323807567436
770,-0.6918312209531277,0.15134681568814673,0.44766650081272724,10.583311078218575,6.585116830501636,19.294433595725987
780,-0.7004593545372175,0.15498089730274417,0.4352368776353693,1.5370386533998701,4.6475812974063615,17.187677985787126
790,-0.7248240357190258,0.15741695582551185,0.4098753410679329,-13.094881172420752,2.4301972815932875,13.408578662548344
800,-0.6865293441705334,0.16712222962261314,0.45226450931932605,-23.172304042729394,-2.385579734373608,10.45775841165941
810,-0.6940033855292461,0.1439422698816032,0.4437262662363115,-18.724057905637768,-3.29178635044363,14.699577607675266
820,-0.6761216673079761,0.17554469729519023,0.4574428420559083,-15.008133694464142,-3.1445699939132554,16.998527632929974
830,-0.6789294767172223,0.175678914794185,0.45271361462170223,-20.782611428945845,-4.7832764900125015,12.801883940927496
840,-0.6757282763244853,0.159244293765203,0.4522347334042273,-22.90719981879192,-5.74832573282352,9.845301084025673
850,-0.6633406877829319,0.15339543390344593,0.4583635373870338,-19.134862118523365,-8.250092481129755,5.678697263758776
860,-0.6602363530201903,0.17634399166446893,0.4692103752984741,-8.24009263857526,-5.579033967639674,6.96821528286655
870,-0.6806839780983843,0.15209577303266897,0.4559523124836605,-5.623581987428538,-5.555085996368537,5.417251385032413
880,-0.6687004714687056,0.16854562862128128,0.46619959309541614,-18.130890553376336,-5.867088789178858,-2.142760113863344
890,-0.6621735624966332,0.1600860119467206,0.4695906188352837,-26.23895092209922,-10.373142260502558,-10.638297530036432
900,-0.6706017861992638,0.13352426504792214,0.46251532338997053,-27.31081281757455,-10.199821731898822,-10.693580801270064
910,-0.6643576550826035,0.13781454087047937,0.4782349132954645,-22.038201557158775,-7.775780626223602,-6.165240686195962
920,-0.6578068045487376,0.14839203574449322,0.49152884019403925,-9.690638201216132,-3.5465949718760537,0.41061788142768163
930,-0.6545101313358214,0.14841656737271428,0.4901092275206199,-4.139078128094718,-3.6420012898007794,0.7214462934209245
940,-0.6591537888650566,0.14854822109538554,0.48166374279179136,-3.224211048451413,0.8567277356184372,3.471986402024185
950,-0.6523338877544748,0.1629728083767073,0.4882876141696903,-3.7782560742916,2.2072452973684795,4.826287327188772
960,-0.6615635752240676,0.1714413723095258,0.4839828085825365,-9.271063748822893,-6.662393101449945,-3.1451937888262544
970,-0.6770063024214271,0.13608259881763818,0.46370890195733067,-5.891087873109897,-3.7591064870825814,-0.6633368150107801
980,-0.6719049111949085,0.12753541422962755,0.4759796134590475,-3.552534913785514,-3.6101120898173957,-0.018604696849111146
990,-0.6785202386133876,0.12353275166536035,0.46805721309232395,-10.26786529419373,-1.189061296727259,4.1601796605239345
1000,-0.6413441014303568,0.15248285606216067,0.4992474963926267,-10.007359344422706,-0.27042418104748966,6.2906440994146555
1010,-0.6548639099149053,0.1495646969769021,0.4915855636861237,-10.284478386172733,-2.2207575157113246,2.004061986326345
1020,-0.6593095612214831,0.16309516890526435,0.4943691668591419,-12.3613170863636,-1.852863605816177,-1.7313401516935105
1030,-0.6826803094341923,0.11499491663945888,0.45970950703437213,-8.983090450378878,-2.7010489593021,-3.611016783889032
1040,-0.638132191364538,0.16102765532578478,0.5052917142640544,-7.92192727643679,-2.6573165795301774,-3.4021110527200613
1050,-0.653811933506996,0.13723206774203214,0.49297784775871667,-11.151095424438,-4.209383558084029,-4.5339157358965725
1060,-0.6386525573655663,0.16029196039642912,0.5067363537117042,-8.773890952566736,-3.9965171604075946,-3.6143912043134065
1070,-0.6758935417280756,0.11947607171258902,0.46540793166998745,-6.972070222117185,-5.6662080902161405,-4.905235402206451
1080,-0.6609736058067525,0.13202198732954729,0.4875179104908005,0.7009693945522076,-0.0031378633964882496,2.180871625296319
1090,-0.6509913433945301,0.1429626054692922,0.4951078159461517,2.1686799127359233,1.1941069028548903,4.617249470174874
1100,-0.6644650199480222,0.13355656169414687,0.47958541732559956,-0.016676839664274995,-0.8667400603715881,3.506911039365027
1110,-0.658576512764761,0.1386783735717175,0.48797109739962646,-2.9203984058304693,-3.4144559847462674,1.99023990305722
1120,-0.6675784938523934,0.1233647887333005,0.478684333951601,-3.183611864098698,-4.07624898847548,2.075497259048927
1130,-0.6561076394301633,0.13702645275444011,0.48950312802491525,-1.4315364200617362,-5.497763580611385,0.5384321265736745
1140,-0.6452496167433047,0.15142747357538022,0.49853479186285427,-4.492361158709831,-8.548105212968823,-2.5785455941956688
1150,-0.6646054887431656,0.13123967740455753,0.4929111864244772,-9.252174413103358,-5.133644925515163,-5.2813105477515
1160,-0.6752527911125328,0.10695746301971597,0.4827735596641654,-13.244481868461463,-7.099863452351351,-8.557151952969193
1170,-0.6534255831853638,0.11211701846857308,0.4969010114294607,-8.997128091986323,-5.6600423972022105,-6.2622600406340565
1180,-0.6460234164759616,0.12036440711667923,0.5022871119935873,-3.070386387078667,-2.946151559865483,-1.6668486082980372
1190,-0.6304758040592671,0.14370724511339072,0.5154961753772171,-0.928560705801326,-3.416116008852185,0.17192555104231189
1200,-0.6430959188788922,0.13353486182328694,0.502908421538586,4.391099209979823,-0.27040470963335195,5.1795494700572
1210,-0.6606955043163331,0.11852294262874749,0.48981287532797757,0.44979260642039304,-1.3520775916036236,3.1075788648949834
1220,-0.6471237946679179,0.13869879440768293,0.5055196241344323,-9.77866330377348,-2.7694918655603304,-2.472016130649388
1230,-0.6620129864821206,0.11350024257144543,0.4872331150263027,-10.36051162717885,-2.8409016094434305,-4.227120677619668
1240,-0.6680990599297995,0.11033042828214402,0.471627051993608,-8.870756243553975,-2.6730321476103502,-5.280560320616262
1250,-0.6516404987621253,0.10889020568038875,0.4970787908862346,-0.6611905962080802,2.405782568590688,-1.5410082273910293
1260,-0.6469535601110318,0.13065566245221114,0.5138076978266062,0.035269169381519916,1.6994510554655546,-3.0715764082441015
1270,-0.6636043873337173,0.11229955790729099,0.49324981098025095,0.4882668862701396,3.2133048544202754,-2.537137118211388
1280,-0.6844570621092788,0.08588839116435282,0.47031263487072994,-5.115539573044293,-0.668008558064372,-5.611140435670789
1290,-0.636381026330425,0.13536349309450754,0.5160177334322982,-4.309369198901685,1.5519477039652416,-2.0229265977700006
1300,-0.6470100136062017,0.12810798255144423,0.5049388797660228,-4.357650616703976,2.0739158259447534,-0.1995794240366502
1310,-0.6800691201375799,0.09608616141522044,0.47390246377068834,-6.789929982135792,-0.9428336170648374,-1.686329473855525
1320,-0.6393542894266709,0.13816395023494402,0.5088599800651639,-2.488405959816989,1.7749282871882688,2.2095964053141484
1330,-0.6820345993218054,0.08723861062040744,0.46828185726086424,-2.4670246377004057,-0.5990751679426949,0.7019017809660411
1340,-0.6527298199203755,0.1250750263410924,0.502890681717005,2.4635778540939097,0.247607796557215,1.846906818105141
1350,-0.6565813281336105,0.11932071887851023,0.49633329265591986,1.4252809565715916,0.8157801427474393,-0.15022185505353405
1360,-0.6627238615780696,0.1160250905774912,0.4837525479891703,-1.037453300382262,1.3371956661847093,-1.1912831727390658
1370,-0.6671803751913388,0.10540949631217056,0.4836351141362192,-3.99707799737848,-1.1667985892638058,-3.5308262346093997
1380,-0.6569308014531583,0.11290588799825196,0.4918521947634554,-1.5388146152509594,-0.5320253467651459,-1.959949134631048
1390,-0.6179925162942544,0.15307002882527337,0.5309386793999601,1.5169047386880596,1.4016334383530922,0.9989408765885646
1400,-0.6870001805498571,0.08434626022155717,0.46670646997441856,2.296765131209466,1.5734636609974642,1.7237052443197545
1410,-0.6639422037970237,0.10989372043576773,0.4887358567523478,6.04623219970848,2.895864625802683,2.8062944779389882
1420,-0.6633404781296427,0.11915560606879233,0.49292899301191057,5.498720344300312,0.11101426836597983,-0.2318955325199893
1430,-0.6328805177031085,0.1502065474080938,0.5109574051803223,4.174914284817662,-1.3575229996725966,-0.9749499946616589
1440,-0.6776475597859987,0.08938918081762819,0.475488359862818,2.080835309022236,-0.6084717340146941,-1.2889336821823925
1450,-0.6514382064847402,0.12353410324520277,0.5035197534458494,1.5990774037832494,-2.001237165569227,-3.152360105477205
1460,-0.6625082087894268,0.11295502325066709,0.4867611661367004,4.7473857550778895,2.260946108294983,0.9735876409502788
1470,-0.6383494174192514,0.13747523052195756,0.5107104502026772,1.205294924008713,-0.20589221164265292,-1.4929755962231386
1480,-0.6511868345428442,0.12376780436470465,0.49979446570809904,3.4585048910665313,1.5749794749094088,0.71647684676741
1490,-0.6447408574369043,0.1264493170371686,0.5084104193773933,1.5565214611905067,-0.8768282523211546,-1.2195318130921002
1500,-0.6536665638506178,0.11658357599099538,0.5024468094608668,0.9226394535746858,-1.265411240530171,-1.2487060112586164
1510,-0.6658039540115507,0.11018630057757864,0.48978060456969347,2.8607200159909754,0.02573732585919214,0.5582150164917199
1520,-0.6531404470760921,0.12222394638445892,0.49787524665981947,6.1649325756068105,2.325916396591632,2.723282314521958
1530,-0.6525069310705228,0.12885983416259938,0.503394897849709,0.7998199107238122,-3.0030484652358647,-3.188052771300016
1540,-0.6689344006481803,0.11846076510682656,0.48906136035770903,-1.9072777997465775,-0.9247147334780725,-2.033850700476136
1550,-0.6299938297064075,0.14544811884142972,0.5175128820563885,-1.8995699100174546,-0.08117025289876945,-1.677149945893864
1560,-0.6239253554810729,0.1527845686047403,0.526289357402064,1.2800546505780241,1.6137797266971226,0.6692699107208577
1570,-0.6641270423111322,0.1134885014987283,0.4876386682203804,1.7703356120789464,-0.19534846476289286,0.05790316888685093
1580,-0.6723996469500909,0.1018921740923889,0.47749511880892553,1.997693539398584,-2.0022241488137613,-0.9740726054280819
1590,-0.66035067487792,0.1158645209696599,0.49142961595823204,4.1066763109428885,-0.6772760820682733,0.1974551612910369
1600,-0.6540813124829916,0.12789058686527485,0.50103632334992,1.266326617857508,-2.2473599086015357,-2.2175855053152373
1610,-0.6536280158684262,0.12154205350496239,0.49739837156090566,0.3397594880910079,0.28970240888596427,-0.6532112913562986
1620,-0.662097753902713,0.11547486395558694,0.4954294799412195,-5.318685680647609,-0.7235152352102661,-2.6616360838650444
1630,-0.66153357579164,0.11479202515738175,0.4930511698564191,0.07736694409615363,0.6424585995623262,0.2757764468337027
1640,-0.6418521951525447,0.1277556711189922,0.5128123604572898,4.27321273821732,0.32775182636212086,0.7028126697104242
1650,-0.660497574332434,0.11126638340930649,0.49054450643369785,3.063781683480038,-2.706996162685938,-2.1061683814808907
1660,-0.635037842806335,0.14042466357096325,0.5151130014358168,3.3367633334054485,-1.656519293432749,-1.4184275455127877
1670,-0.6601565358760133,0.12109581793233273,0.4912545269390128,1.8662909035490884,0.25344728123189597,-0.5589253883292986
1680,-0.6731874490806214,0.1050231133120244,0.4804196358560775,-0.9545870410983058,-0.3965282177631182,-1.7758317770165184
1690,-0.6623653433689005,0.10803704848701812,0.4933578691141298,2.2921266905250635,0.8720413936847531,0.0597543000177696
1700,-0.6690887009981006,0.11018714164154675,0.486815701479878,7.359607199113235,2.73406356140724,2.6275665688216407
1710,-0.6737946715699777,0.11097290203939042,0.48093778261022146,3.9359238330603787,-0.6985589582952125,-0.3039648485465164
1720,-0.6586514372014093,0.12361994144720806,0.4888720716337516,2.3613090502218914,-1.3968311923851155,-0.8280548849669083
1730,-0.6360203668653184,0.13922656042857467,0.5163511177559892,-0.4961093572966071,-1.8016062855213895,-1.8377885844644726
1740,-0.6482056729719464,0.12704466897571945,0.5012488073393311,-0.20401507027512475,0.36941935831599915,0.10864756012591067
1750,-0.6275450067760618,0.14468391737433467,0.5231686477946228,-1.4194223319845716,0.899513161989766,0.004111185265048292
1760,-0.6727440019837756,0.104813933981189,0.47995998443177945,-3.3117878505479177,-2.204010653356853,-2.955248408454647
1770,-0.6795161701747516,0.10490420991832221,0.4741674660731007,0.9287990977010006,0.9891775941809696,0.585515757783662
1780,-0.6718087645343858,0.10804546093071321,0.4797727065321517,-1.0856732869635901,-0.038384127183003436,-0.5698597251886472
1790,-0.6432783998926359,0.1267254115403801,0.5047549105467396,-2.772877913755401,-1.5152936688927563,-2.0536809248566126
1800,-0.6580652910455969,0.11710013930053433,0.49325301598300075,1.7239928601653025,0.7526046793850076,0.976910064388047
1810,-0.65447918708315,0.12199810915849794,0.49745826766186935,2.4709962708340054,1.530193723655943,1.9817528393159294
1820,-0.6688965627737194,0.10933559171781883,0.4848454330566456,-0.8924472280740906,0.24231778563970885,-0.28996993997268694
1830,-0.6611867250575575,0.11564121717303492,0.48547328269738466,0.05466862362387703,0.8946471808680687,-0.0021309687231855223
1840,-0.6403318652932125,0.13413023301393656,0.5088343735634884,0.359335038388457,-0.10877259315418487,-0.9667143801833374
1850,-0.6439073498695873,0.13015214653540297,0.5058404462798641,4.825016669160902,2.833682764685604,2.5424983170893602
1860,-0.64348969196587,0.12979230245723514,0.5078095184697653,1.9626576811235212,0.03419800829186487,-0.1335561458053629
1870,-0.6304240604152912,0.14399830261466418,0.5241698859036684,3.2417405116083158,2.562554947700322,2.1892069361439006
1880,-0.664339422385378,0.11429050830950722,0.4908172595253349,-0.34752066815861804,0.0788257506782244,-0.5441308385772747
1890,-0.6559911907968667,0.1250652556170763,0.4962836996744105,-1.7391752759085088,-1.038279139262869,-1.9828964757494822
1900,-0.6501332231793114,0.12948025545821237,0.5022222910572842,0.45068922608957057,-0.2835052745827289,-0.43570701744547835
1910,-0.6522878670261392,0.1243362793595934,0.4990727762253734,0.8033493798186042,0.08375619289890018,-0.11188923522206468
1920,-0.6543938506659381,0.12012956242457326,0.5004481503584067,3.954492961404022,1.3174512644563157,1.8646510739843198
1930,-0.6436759876221676,0.13590922073668174,0.5093742838418573,5.026376772606943,1.677500291687723,2.188330253000979
1940,-0.6234470396912083,0.15433047635341762,0.5287388528941915,2.090420025244958,-0.5173861291255799,0.0659039540987969
1950,-0.665165857116643,0.11349799312777288,0.48952024122061216,-1.8500382979644163,-0.12885381075677066,-0.5292229679759085
1960,-0.6434075625592134,0.1368181470120584,0.5110120565373941,-0.24212178781017313,3.4245550274146246,2.4291542095853402
1970,-0.6316632722629157,0.14985444633377293,0.5217521657949248,-1.919497136762508,-0.17709279547157758,-0.5816803493611791
1980,-0.6681705764578436,0.11490046837603658,0.48749060788639537,-0.6024096627421025,-0.8977352100293523,-0.49989369220178087
1990,-0.6542774363870143,0.12584544848308005,0.500277588414297,-0.07816736097314236,-2.265024824423805,-1.5803443659631606
2000,-0.6455160349128259,0.13875873019921886,0.5102132495919691,6.839475727266706,4.418761055291176,4.6568497559232975
2010,-0.6411890052457501,0.13461629790842827,0.5104282167412687,2.7852909087179487,1.5113347284640815,1.9046690648047737
2020,-0.632562743378934,0.1468100029876045,0.5192456206514926,-0.32172435155487933,0.24232930192834146,-0.37594072492722563
2030,-0.653850430859056,0.12897096291572893,0.49696514752095966,1.0779196116329164,1.5993752567254031,1.2369525843001365
2040,-0.6602015646763785,0.11569358407229548,0.49014656922941663,-0.45403474375015324,-0.6357423248497139,-0.5361996762297075
2050,-0.681581226176491,0.0961896814287841,0.4689853926372564,3.231818619997477,2.1640058891876777,2.6445973987371643
2060,-0.6742954615725248,0.1071079434228352,0.47477595864247235,1.488489685744091,-0.33503522280738324,0.3011311273966403
2070,-0.6397716351607584,0.13864836904472141,0.5078755363600126,0.7022448736742273,-1.4107352578539114,-0.9661196058575985
2080,-0.6533351208957562,0.1271789990445431,0.4962259373934414,1.711668918595524,0.877877093977387,0.8744674081102637
2090,-0.6275028824369432,0.1586406440411061,0.5218190519311351,-2.220082629469467,1.1601444415722384,0.6686626678709895
2100,-0.6509157165058305,0.13143553448715056,0.5035613458564256,-0.1518129004488471,2.307650481569719,1.6578617938711508
