time_ms,ax,ay,az,gx,gy,gz
0,-0.8172275144313945,0.11333582108549135,0.4964375302792791,-1.5808127222747874,0.11922685065366889,-0.8455055121370668
10,-0.8321809651688284,0.10767101273289477,0.49798454494224226,-1.4290655051755843,1.1943754043557795,0.04061805591756523
20,-0.8605714906540821,0.07944563342164952,0.5009941486311554,-0.745474249041907,-0.8446236477712791,-0.895607104984234
30,-0.876425219191908,0.07049713221331896,0.4992329542872462,0.6145955309661062,-2.4540268670548517,-0.9091905435565935
40,-0.8461954146146334,0.09360115751238703,0.49126765491378865,4.140695461665574,2.126016598471907,3.0154154505441726
50,-0.8252820251310415,0.1053955268832297,0.4775038512156973,0.370275577868961,1.5477801703773615,0.18320394368485238
60,-0.8728048220482416,0.07302556478971702,0.46688388050942103,-0.5377252216862286,1.1515109754996633,-1.043084530039038
70,-0.8583372673388195,0.09641521559991224,0.5017346430635138,0.9350076766083453,1.9803565690429394,0.6534885840129414
80,-0.8570352515992478,0.084541015263007,0.5012463654108616,-0.9641056512091953,-1.845499699800191,-0.671177592251999
90,-0.8624002138039328,0.07532240652198437,0.47363553718859447,2.6925178111808554,0.18688707020234174,2.1986034080494674
100,-0.8510352803369486,0.07497005337889781,0.44035379359700405,1.4869575517165514,-1.7861383352640865,0.46347731036796025
110,-0.8355214169651276,0.10427742035683878,0.45828663024807403,-0.45299493559503656,1.5802294008786344,1.6290938593227766
120,-0.8472159772183661,0.11429884807940535,0.48028442552700157,-4.758082774220966,3.842518219538136,2.3089347610754207
130,-0.8543271500785904,0.1037579775365454,0.4761499916501196,-6.684710589258307,3.7266102818376,3.6745934277817587
140,-0.8470682234194199,0.0986353365406781,0.4380455851261459,-6.284240201781848,6.155792777790821,6.017329132755443
150,-0.8271371942497021,0.1392333094516921,0.38161656620540374,-12.30705689908988,6.91427218714187,4.608001380177534
160,-0.7703062391122797,0.15310328892520245,0.4583105616276804,-13.88316718264667,17.30902745276106,13.34377105548316
170,-0.7587155237564123,0.08077865734613753,0.44447268623234953,-18.500287269434356,24.065765838857455,12.190205950410938
180,-0.8078983045904174,0.022339652687324258,0.45911950228019105,-24.096552207748925,23.425791322851627,2.4433290802396694
190,-1.0030507211338802,0.0007123324297005837,0.6051386820813648,-28.741437866807686,13.285250347521227,-4.263493179506378
200,-1.1304388991557273,0.02831257151262631,0.7304371792696949,-27.127596358821744,3.148435794550981,-1.7802434409205552
210,-0.8627275907746971,0.05486870799016124,0.46663100915592093,-20.155480522450027,3.149397861752089,-2.4690014556782387
220,-0.8137995814832368,0.11589913038034821,0.4631682013831982,-18.517452323197258,0.751222613632641,-0.363270188846061
230,-0.8602090683953925,0.06465504170134077,0.4674351977287861,-15.730138020894636,1.94148941604838,2.5611998058764964
240,-0.8406282882731518,0.03645062618739857,0.5218061237716617,-15.113959314935155,-2.761085659686383,-1.4997404678951354
250,-0.8147924732679943,-0.025604751104716956,0.6467728275925639,-14.228781973024534,-7.6181608855370495,-0.6805897909256879
260,-0.7755356955042151,-0.11688641840631406,0.6953127661755829,0.5527183011494188,-20.233026250534976,-9.624506653180159
270,-0.7947668468823158,-0.03656034686281415,0.6512318501877945,15.729407165262126,-32.910091579015344,-17.537973115126967
280,-0.8314282333296829,0.36268065606472916,0.6950211423432494,-0.38303998458361255,-32.49536512755384,-5.516832445258116
290,-0.7986696401065909,-0.04081675678199931,0.37216816686863047,-10.553716055227296,-29.007770863019946,-16.927268703896946
300,-0.9609890043703627,0.36206336165717035,0.2577648954043883,8.629051347290146,-5.133291398876496,-7.806314041698185
310,-0.8753079445982123,-0.05511167592828488,0.39890935445550896,3.3900617806369056,-10.909250238777632,-14.705890365167154
320,-0.8394107657307305,-0.09246338231449319,0.4601973567664872,7.634413345015485,-5.509507831811954,-14.537301159698677
330,-0.9389816374715253,5.5492107350817665e-05,0.2568197607871852,1.40472944817536,7.691890502716433,-14.689655637548725
340,-0.9311468988039667,0.09971628744032407,0.3509618035049411,12.359052922239764,26.453896490579726,-10.868352884303743
350,-0.8268613492194428,0.24502790268953004,0.7559228890481783,49.21281409100181,36.78364677542849,-2.3161287762983305
360,-0.8783436573807581,0.5621160892424423,0.06609329633384961,38.610862364023035,38.98815144132536,24.923883783747197
370,-0.7236983744336372,-0.04190731813305633,0.5338610979004131,2.0485121507379773,54.786172847048775,15.933672774560861
380,-0.7155824472065919,-0.17962092318184084,0.6497307631499418,15.083248887498135,37.17834600602006,4.507494533155182
390,-0.7633674481604856,0.01019868740526287,0.6137252236861093,3.9262682764697994,12.048466277078887,-0.8086174310401816
400,-0.8445969790813862,0.06737657626878102,0.50324196574323,-2.9679239272171736,2.2591169776539446,-1.9270491542259913
410,-0.8494307162869634,0.06470389060684337,0.4771512486205255,2.120155085623181,3.952357832868804,-0.8828536308726793
420,-0.8750434851334364,0.06143857566392545,0.457034141946739,5.037971539476833,1.5411943561035277,-1.9271574761689372
430,-0.8740887480011521,0.06576451127214969,0.4634984464897938,5.129373822953618,-2.7929845675626623,-4.964709456618925
440,-0.8717935827731014,0.05259428227870575,0.4719163360021925,15.79677714363253,-0.08397182154117733,0.37650738353134505
450,-0.8691024930220033,0.06902688898499677,0.44509044629118455,16.868940697429917,-2.668454376037375,0.5303969341422909
460,-0.8294789750191466,0.14611712587554582,0.4798635807998207,7.818578735114995,4.4950038488625985,14.387468089941082
470,-0.7828157617125587,0.13778930242702964,0.45994206262915804,-5.787958041618596,6.893674980837933,17.892579953423592
480,-0.7407678115346219,0.15732909407807447,0.4577017788299172,-19.564568012697816,5.009376748403924,12.410994323078901
490,-0.791008047252494,0.22182403369318116,0.4541043252332219,-26.933244631325092,5.533725650614184,13.16868507196026
500,-0.8908231936916461,0.22761354884706977,0.41932586872136923,-24.070805585980885,6.10196350530885,22.692580331971033
510,-0.8824346453335538,-0.11165163210855586,0.39522295854736345,-9.68998535769355,3.24196899301562,17.880446741225004
520,-0.9106780644345127,-0.2787993540629491,0.4219255339377555,-10.542113351173313,3.2415527686188077,-1.0972522155026705
530,-0.9401226089997184,-0.04049598619390924,0.4459668093180352,-4.623064948616618,-3.9522764014058827,-28.59356213809681
540,-0.8054661292500797,-0.18669787324610843,0.4725239941194405,20.910261808614717,-3.5265428953291775,-35.68227640634644
550,-0.70872228550134,-0.032430040658189614,0.5909477508136733,21.372552406582752,-3.905245135599411,-21.814247653045864
560,-0.8869751528217615,0.26748304905706244,0.5090207605881063,11.069210972257808,-1.1822628629835186,1.8792606077210547
570,-0.8548051735040881,0.26323967656548575,0.3851443522297142,25.526685794177766,2.180682681063717,6.989096124299195
580,-0.8165464124964291,-0.02107872632125095,0.2953300375774429,23.21740958238087,5.533504853806444,-2.744005208780005
590,-0.8480885691122949,0.33028354897541334,0.43427281881809593,9.392093095753602,4.817241999575851,10.54032169071301
600,-0.8731774315482395,0.13984828781702724,0.46064258996422963,5.391644117033639,-0.3475968329349728,-5.307907594941373
610,-0.8810132032903102,0.050812328594549115,0.46376247236945384,6.9479720387165065,-4.295061176340886,-11.716516920043194
620,-0.8976400309068902,0.03801300273972802,0.5119336608376357,13.588042084331443,-6.122570369123046,-6.033419142070514
630,-0.9820467309033665,0.0501217421810398,0.5360603253572569,13.610966792872379,-15.00544868070882,-0.9978243074053603
640,-1.0538741404583754,0.12800144608149483,0.5172138401936771,11.948161177619687,-24.7859587063215,6.493701262271024
650,-0.9810294455871882,0.09142123994903037,0.49445689244266283,13.702457246234298,-34.47694992406156,12.228610777649337
660,-0.8423463499516322,0.07811722008154445,0.45288136784778865,11.730170231266548,-34.385004313102414,16.733695109725826
670,-0.7131470768842965,0.09931115529294424,0.42638607801468775,3.5717689500230216,-18.18452792332011,13.891553017702355
680,-0.7102531175772855,0.13599421487237134,0.43987434766376254,0.913082189207379,-8.993326244389237,12.949666660744867
690,-0.7649180180588523,0.12965840527721617,0.4484677358024097,-4.522829122511479,-6.101311009077744,9.099173278903704
700,-0.8313297512082448,0.1264737512454255,0.4501735830669703,-6.729627851074804,-1.0141335634889117,8.86820664331202
710,-0.8925295006528338,0.13980846970096095,0.4770113579738452,-11.714830878081163,-2.734941018975695,5.3993027107469596
720,-0.9386383863371351,0.06664877414255331,0.5300038982866263,-13.91334424691183,-6.047848362124355,3.995700558759159
730,-0.950090994384557,0.033339315795904684,0.4615889984921751,-7.79056561424324,-7.564944201620924,5.430934655153067
740,-0.8053806145884473,0.13485189876010364,0.45905716906072747,0.5963859091083864,0.6516816445578002,0.49442391269424946
750,-0.8059496538494647,0.11240481885635645,0.463495294173301,1.9594142251839533,4.858662587850029,0.5003295132782002
760,-0.8438818123041336,0.09083775361164055,0.49609655061749247,-0.7600944801453942,3.470764061430365,-2.1912644829887866
770,-0.871884111386765,0.08842677473562624,0.5273780001798336,-0.552053726445829,2.0819228494978637,-2.7671134295883757
780,-0.8962442887063068,0.06532658971009811,0.5105663150340419,1.0040761995844327,-0.20768651114479497,-2.4057319298283946
790,-0.8437902564015112,0.0874305288317677,0.5124801703511009,3.5754921871261476,-1.5093938845250303,-2.3276893374400816
800,-0.8071636747114048,0.08407474768571985,0.46212758670983695,1.5217947174052369,-2.5833002366923576,-5.176211487489621
810,-0.845095755301264,0.09586294853709552,0.4961079324500577,-3.483657251892931,1.4181385725456517,-4.099985264075271
820,-0.8593519071328456,0.09996321478646152,0.5334749215706344,-4.937944129528963,0.0720148292689291,-4.280463506383423
830,-0.9085777583063739,0.034718826073462786,0.49956301762932903,-1.879545371596682,-1.0717931580884166,-3.361157150416765
840,-0.8697815662976998,0.07430585274969914,0.5136482852484233,2.664003005530636,-1.4833783983703523,-1.3409250866719256
850,-0.8636445843205978,0.08534500803967073,0.46395060186969783,5.323192799639894,-1.27966141426052,0.9848119209706616
860,-0.799257229565161,0.11563868638143417,0.46770793869620225,3.8079010736495076,-0.6832806127196696,1.564879223091858
870,-0.7809078433526386,0.12229673356522341,0.47103173574665147,-1.6878224321110256,-0.8361454355386135,-2.655481292411257
880,-0.8727429674530238,0.04992010036860649,0.5157189286696428,-0.9883660448892407,-0.07561432470379992,-2.8589560785492303
890,-0.867350273554876,0.09417041124339226,0.5259225314402585,1.7675164890560695,-0.5087183523471176,-0.9213495734779473
900,-0.8591379892488227,0.07661489545504012,0.4784086773028336,2.52942843735064,-1.9389406165803162,-0.6405002420940694
910,-0.820247480537659,0.0931633116786447,0.47749474661615254,4.657410438184866,-0.1884415802155177,1.0189371623576602
920,-0.8263121932957435,0.09447375890456661,0.46667419785286074,3.5597302993786046,0.07985344973981168,0.6226899759784825
930,-0.8361122579526519,0.0925713784586963,0.45779275532498737,3.566592545173798,2.6728125146770383,3.072505616481115
940,-0.8202702195255085,0.09347798606776393,0.4556148171192441,-1.094934926998972,0.4656634598683963,0.14454715564728127
950,-0.8562789440258037,0.09506991222983192,0.49205818897139325,0.05038148644116597,-0.22449074393097063,0.7122399334470888
960,-0.8273773846649095,0.09229302492157712,0.494750374208193,-0.8544176812993796,-1.2339518971258756,-1.1236561293314902
970,-0.834178954835181,0.08391540140375184,0.45975466527607034,-1.7958151740587682,0.23163754425569505,-1.0442430117917894
980,-0.8359375147049385,0.09262877291186106,0.44737350009067667,-1.5165926699840808,3.182674168396373,1.887101059898095
990,-0.8423403964730785,0.08487779039700886,0.45955365029219225,-1.7277371749159047,4.115279044645595,3.949364312928792
1000,-0.8509890181583811,0.06706628136545226,0.4921041297238431,-2.9578637233028284,1.5683457305876796,1.9818567614006617
1010,-0.8897967685555481,0.03258715069937836,0.47771188105541695,2.496733165419492,3.2152360769604567,2.232676983570408
1020,-0.8147334632480409,0.06833175066945933,0.4807868468083279,0.1187866954194472,-3.8690697263541214,-6.598216307822866
1030,-0.8282767186414333,0.11891456900964643,0.4829002672662919,-0.26496410947158444,-2.925315544845417,-6.202870390638673
1040,-0.8211866325994858,0.13566827000333082,0.4635101898045367,-2.5204314484871064,-1.7797916749401126,-4.516452688444757
1050,-0.8344114897097114,0.11123533301529265,0.45261228304519296,-3.3713795321203985,0.08395747559762534,-1.6247413056849709
1060,-0.8556027066927524,0.07590459911944938,0.46498148341437173,-1.2989142847408077,2.527277875159759,1.3603664828450186
1070,-0.8584519765096552,0.07728119998311385,0.49784799702116966,-0.20457444468094022,1.9255239791428207,1.3749527069694745
1080,-0.8629599294798499,0.09592682371578888,0.49349621843449276,-0.5735982909073344,-0.3692051640643951,0.5396733336165591
1090,-0.7960858947865237,0.09782063948612514,0.46167025285658214,-1.3694122044643313,-1.6967683405972622,-2.6894165270915926
1100,-0.8440228167491267,0.07712793215676474,0.43009662700538454,0.15159191132055527,2.1945105444902495,-0.4656780851588489
1110,-0.8402567997666393,0.11216291086558546,0.47882562028398307,-1.5448287826381424,1.9937938105837625,0.33475267284466126
1120,-0.8525417104969848,0.10517869181468226,0.48764437737141875,-3.8126729334318963,0.1593854490621065,-0.2118875487384997
1130,-0.8539692245020124,0.09286335931789474,0.5085597347004824,0.34109201556532875,2.507925024193079,2.82381442344289
1140,-0.8804962785864601,0.06054444180685035,0.49365802072517495,-1.2854629807619067,-2.5144605057898954,-1.796335029922622
1150,-0.8618109754625858,0.08286620204451527,0.475782732667013,-1.7238140727634832,-5.508536435649092,-4.453439645939399
1160,-0.7880086408648745,0.14017936167110043,0.4879211770878184,2.1086438718106577,-1.2131112149810812,-1.1488236763890545
1170,-0.8139630279345748,0.11332258642728082,0.4695012622808383,0.36623070508604116,-0.04808253284843245,-0.12487143877317053
1180,-0.8556756466933803,0.05620277888341649,0.4594201528112388,0.25730103095668644,1.2851115470829446,0.8768672063465859
1190,-0.8278735874630088,0.10559371580490269,0.5183728090649602,0.4406772883698029,0.5854322529860483,0.7747365280518144
1200,-0.8400414888071396,0.10593278912621175,0.5076684267361677,2.028316480896321,0.9337732085683863,2.788880558413192
1210,-0.8391982173061957,0.08922085563721814,0.48822636862378604,0.7579009248919761,-0.8379496976344982,1.733230245619864
1220,-0.8419405387376563,0.06369591256474634,0.46468419117126186,0.5555969730283734,-0.873368400957824,0.6763374425061377
1230,-0.8274714231705307,0.09167155522979374,0.460342764169778,-0.010725349752710223,-0.9131836654526584,0.630776443989354
1240,-0.8023579247178405,0.11896411446037122,0.48581134330913256,-1.6909187742660892,-0.9036749224974937,-0.9544113870319613
1250,-0.8586012879786218,0.0769514289545292,0.45928097311048016,-2.7104971729185503,-0.6773301067433393,-1.6656062939189318
1260,-0.8577018733081131,0.08293631313907818,0.4763040043711492,-2.3811711409581244,0.0808047564873633,-0.4202867323494264
1270,-0.8683620888305883,0.06496552179253662,0.4795168403783923,0.627002074416061,2.3071465245839153,2.52706135884893
1280,-0.8514951235547843,0.07565844305272051,0.4947797835220901,-3.8428498967306917,-3.7378453264999223,-3.112000041810866
1290,-0.8714264519963557,0.06447054105669642,0.45436745733071204,-2.0226051871192263,-3.1388646892211076,-2.3154905066665505
1300,-0.8499929046377346,0.10467490625568872,0.463632769933842,-1.3969089300239705,-2.400764847145857,-1.1383451019487973
1310,-0.8634691157172625,0.0761642904985982,0.4677962068139318,-2.6993171444532136,-3.724136972608394,-1.1087615741349999
1320,-0.8654257370785908,0.08372081036260576,0.47953427946726496,1.3430072780854656,-0.36961467946638393,3.5848834179185562
1330,-0.8816483852441671,0.05648886736471947,0.4556472649300944,0.27749876012461305,-2.058070621828662,4.171121935367846
1340,-0.8449673100211547,0.09593513812579317,0.514716688418036,0.7826558441297247,-2.9558353615966038,5.909922550006098
1350,-0.8711494692902678,0.06789592846538875,0.5110059068294297,-0.783988113567893,-6.148187103985121,4.8896044256345395
1360,-0.8353596122603132,0.0671851146760021,0.48315231019709376,-1.6193396640813655,-8.520385296150932,2.2293680180838416
1370,-0.786216459470913,0.06550629005146935,0.38452374898577824,5.506189847594165,-2.2155970004383,4.366282784371055
1380,-0.7705689524754465,0.14603523623069953,0.477910195535885,4.286329563642678,0.045625645625614386,1.9154437768218524
1390,-0.8217169062821631,0.11401927183864353,0.4860303960583275,1.3402011596300327,0.9794454783296243,1.0104630159006343
1400,-0.8562858297936428,0.0691247532773266,0.4965320576316446,3.6205620608100197,2.543731714159385,0.051108048020613445
1410,-0.8681589578714526,0.0685697826401344,0.4833212675970257,3.975444302952331,1.744067392200654,-3.8245533692970755
1420,-0.8566219615466588,0.10794862804306209,0.47866218870279176,4.472403744411213,2.549084445507232,-4.129235866126395
1430,-0.8464527505684628,0.11583212507471824,0.4802527420085158,2.262932132249263,3.409158014685644,-2.377792568196819
1440,-0.8673970016654861,0.04933148786211035,0.4679118690317421,-0.6481527577862152,4.543170589776266,-0.3090322723007064
1450,-0.8733531764193959,0.04592988848335391,0.5058021456327897,-1.7627155027258328,1.4614353610693318,-3.130026784262025
1460,-0.8728718367367395,0.0863493549048652,0.5254962927143281,1.4394519486011892,1.455657091472959,-1.0981538019176873
1470,-0.8427709680978959,0.09646991594981018,0.503486119756779,-1.046837366037551,-2.762256528355122,-2.3237848765200404
1480,-0.798359433396984,0.12493400829616966,0.4940515262808405,3.241826079743426,1.2922349428801891,2.900936311094714
1490,-0.8394692795121353,0.07706304929008839,0.43552836149974017,-0.1473658762838121,-0.22183633603543632,0.7542328423758006
1500,-0.830773741662793,0.09210132791829798,0.482984200522425,1.4841986449940516,1.9044960014546661,1.3085510084714864
1510,-0.8816287301237855,0.06527755268713623,0.49595825844917296,-0.9243332089527776,-3.422962731375601,-4.812603932284533
1520,-0.8772350489051092,0.10127012673334765,0.5065052328534791,1.162380247535594,-3.79183713932419,-3.3968001625084985
1530,-0.8559781463815838,0.09395606404795406,0.46929970173228697,0.10556076185191476,-5.030607541642043,-3.521926389775259
1540,-0.8120707696658965,0.10528272904132815,0.45350849592640236,0.7456142064939786,-2.1306281474823434,-0.7827887924464225
1550,-0.8150378426842291,0.08467162448105127,0.43846198891880556,-1.283942637712689,-0.23569645895771785,-0.3857578063324931
1560,-0.8354091932644779,0.06577237806685361,0.45197377359384,-1.5439499478265772,1.9351706070613144,0.20644852184425141
1570,-0.8455466344272272,0.0739466092376712,0.4893322008298319,-0.957212389636511,-0.5671373890603728,-1.0090538756697278
1580,-0.8573818742102007,0.07977669351981453,0.4918237218655117,3.9433730890219847,-1.2108479746540612,1.3103638211561592
1590,-0.8309966949688531,0.09976968526854238,0.474111224582086,4.55490222080612,-0.05041980422731562,2.021707960144356
1600,-0.8070470976911605,0.10464865840989526,0.4587052883757117,1.5894068936253631,-0.6357557560046141,-0.15154258748249516
1610,-0.813437000678576,0.10057829781577732,0.45531509332742787,1.5520127916743547,3.1823793072596565,1.6314737805471347
1620,-0.8057500393703779,0.11730936412848125,0.4971124739856163,-1.637873581605891,1.7791750761151868,0.18048854537163697
1630,-0.8313169777316358,0.10203578311045236,0.49888849605405977,-1.198831903904383,2.555714598206646,1.8800082651571266
1640,-0.8575403732989061,0.07650632562961492,0.4738724694716296,1.546761882867158,1.1902443217634031,1.359134594147384
1650,-0.8220257692044483,0.10459883363137353,0.48724170281488377,4.6021685258115825,-0.14111538287479397,0.40051734513026327
1660,-0.8185822813078906,0.10185737705461215,0.46454652525646223,3.90549754643987,1.5215473254113538,1.8229902475765298
1670,-0.8235466904280387,0.08841739303349617,0.4526105149192079,3.8682506064795272,4.612703315303744,3.1555693633434285
1680,-0.8241153763358372,0.11408786247424167,0.4814831599078668,-3.955435038849425,-1.0116517182103908,-2.297620086105903
1690,-0.8411187144059603,0.09340560332584175,0.4879443691212675,-3.7638563238588265,0.3212484894604044,-0.848464618408761
1700,-0.8620962891573234,0.0776877466538814,0.4904019447989245,-0.4461672003630015,2.955397738498177,2.2307749249578137
1710,-0.8445488553710119,0.08372029086363504,0.4870113269807903,0.8192214721178712,0.5845859733744393,0.9560873096544036
1720,-0.813500869155587,0.10168094377678866,0.48041832700464915,0.47137859186908004,-2.1414332737858945,-1.187956287914744
1730,-0.8220938932999713,0.10680776476287142,0.4719659722112819,-0.8666144293514568,-1.3807060386791394,-0.9727177077815691
1740,-0.8021992533446223,0.1449796195149359,0.515595206594574,1.3686840355326753,1.88070290083073,2.744867464283704
1750,-0.849425406415907,0.1154565598944464,0.4781312696194723,0.3528167305405717,1.8722756459438723,2.8241925691086642
1760,-0.856044064012731,0.08321108761245098,0.4912590281438499,-1.3732370564963339,0.0732809295508069,1.0199326384186984
1770,-0.8311216114237603,0.0923389887904143,0.5156368040004632,0.12413442506633876,0.7110411179311378,0.8991210808700979
1780,-0.8090386389187265,0.11163011093984518,0.5098509235178976,-0.9730700717934795,-1.5849617644668526,-1.2422709865247559
1790,-0.8387627744959214,0.08089148272844796,0.457778776998926,-1.5603451702454263,-2.2319426865749263,-1.6120305333594613
1800,-0.8091111178433058,0.11089170511176774,0.4968296523065153,0.7284764668924415,0.9918889254948684,1.2405020585386755
1810,-0.8368356116559958,0.10101271854809693,0.4932251830321794,-0.7243753745164173,-0.9531561349782153,-0.4660585136451967
1820,-0.8253803151905257,0.1329962786118205,0.5094087508531343,-0.054765325061533976,0.011641223833608272,1.1613600849585572
1830,-0.8448904405769072,0.09306582993696003,0.4999582433037156,1.040145364691392,0.4400594870651588,1.3260726627116393
1840,-0.8453018682629041,0.08648094304263462,0.49726737430459356,1.8231296787254634,0.4537511437290053,0.6304629064228886
1850,-0.8548087021323215,0.08013316354763943,0.4749027943397387,-0.8642308662409582,-1.364148576894811,-2.6586736231339945
1860,-0.8726999022856134,0.07696300693357205,0.46371302796076397,-3.5141574567018137,-3.1767800636955257,-4.844427352002378
1870,-0.866029308887634,0.09344734894829831,0.48622669388326617,-0.10821267416107894,-0.027971845855640165,-0.48669889487650725
1880,-0.8391181343745617,0.10053884430505498,0.49575637959353897,0.07890887965215379,-0.08143148377661522,0.3622157160883219
1890,-0.8391317859484088,0.08497044368651908,0.4915657571801884,1.6915292939229913,1.7929807474751067,1.774104603467693
