time_ms,ax,ay,az,gx,gy,gz
0,-0.6831127909196746,0.16577492908902677,0.5484498028562702,-1.2308172094471375,0.8386693874827196,-0.20959313043945488
10,-0.7150639201964959,0.13596739206964145,0.5186484255430407,0.2871890553508735,0.16126432858123402,0.5349760033859718
20,-0.6859541478117323,0.16399628681329015,0.5489301715237155,2.0100459319164474,0.49580759508796346,1.8094465747274864
30,-0.6556936043438395,0.19426690828377485,0.5764841369924539,-1.0896863815294706,-1.7283200963903487,-0.9196972167086005
40,-0.7083882840436531,0.138397124082179,0.5230753143011528,-3.2988908563800265,-2.3926225811649156,-2.8434551857367207
50,-0.6576368388679622,0.1905874375512572,0.5813652375936396,0.2879658237605017,1.1984642363744555,-0.17561263304210595
60,-0.6828162519401296,0.17130666615928342,0.5520200890865858,-0.32535383522274386,-0.30726657931235646,-1.6493107287915747
70,-0.6813538650312456,0.17125592324161756,0.5570165452944941,-2.064337454252723,-1.8910180437033905,-2.374735521596795
80,-0.6854529146274111,0.16752333143748718,0.5506643360278406,1.7146135052943756,1.810495224001642,2.3938299685175655
90,-0.6777607968478602,0.16460956526327075,0.556364644574435,-1.3537956880361393,-0.9908551863707997,-0.007297640311426101
100,-0.6878306343176832,0.15893775532173032,0.5505574156573355,-0.10505322263318614,0.02921985684855693,0.7734558069082106
110,-0.6867534024615396,0.1656087747239793,0.5528948845697832,-1.0140358547893895,-1.6650882174646529,-1.1112707464923213
120,-0.6649238187012355,0.18732103618474155,0.5718201488877818,0.10456452567823393,-0.8129118945386905,-0.004758342748972799
130,-0.6847616676884053,0.16927138192471378,0.5539660718182782,2.423630709444682,0.5040758058566954,2.5278794871343635
140,-0.6986462214714916,0.1507424724550623,0.5457270769696537,5.881301567270565,0.7088781746544228,4.346037108015084
150,-0.6850195827599793,0.16618083071512707,0.5689110873887901,9.401704062620832,0.6394337325534613,4.812761435191746
160,-0.6793375739268386,0.1967782092039815,0.5934077728789738,6.522453309598097,-2.331945261935002,1.1809604588515306
170,-0.7219795621256441,0.16404841993285715,0.6059716682257829,-2.231098587904376,-6.632640588427792,-3.9207646711011583
180,-0.762321185228162,0.1523473102540545,0.6738722864830504,-3.5413204636817115,-8.84872819014819,-2.0279631645686935
190,-0.7590612398913521,0.23423012828623663,0.6590035602881882,0.4245470965176106,-29.443072594117325,-0.24551506577942728
200,-0.5834507776637455,0.16150589403514273,0.5854031802116102,11.011292779925471,-52.94931676946835,11.020771477832216
210,-0.5883016749318496,0.18033937963816385,0.3439454447121283,6.446711510052321,-43.841762630599426,7.026724064356982
220,-0.5006434690913794,0.1948565778822584,0.40770252219451975,-0.8556712730321638,-21.75646329798126,9.674266229522043
230,-0.5187454512382195,0.24392580848006773,0.43652361553640284,-4.152030202623603,-10.301941147725978,9.21960457995345
240,-0.5625745786623246,0.28401869466233093,0.45754708181862513,-11.613024244126844,-0.3642788700771091,12.845719049498502
250,-0.615377825124885,0.33557313241454,0.4969079668462457,-28.114234067049928,9.60899253550057,20.61375960742967
260,-0.6350656051276792,0.07308685300978904,0.56097125537497,-39.58762634411789,20.61071731994009,1.980125906808706
270,-0.5584357731230577,0.018829668648496983,0.6426053779395217,-45.8825818691026,17.911418338641134,-8.61243929945752
280,-0.5509142623094827,-0.052166659837661444,0.6597372036605985,-46.59577941153809,8.378141405061314,-24.25476788463489
290,-0.7100113969686949,-0.04259305562930636,0.5812469218548539,-16.352651789241268,-25.149326171080105,-23.361535839758023
300,-0.7718814765743472,0.029088305115461864,0.6932647042964291,-1.814067811359106,-26.79683701064389,-18.56147683248924
310,-0.585352449171404,0.10367472406283752,0.4550775138302821,-19.935550776950183,-39.505967576468294,-22.27623052665424
320,-0.6810626576100905,0.10499855731983465,0.4242690117226276,-22.20998962335771,-34.521659158644226,-20.21666383546978
330,-0.7471245880664553,0.3204696586945009,0.4772877738675658,2.3847142961798573,-11.641798923441963,-6.0999964285802015
340,-0.7023971438475293,0.32526977103718047,0.5083467206592972,11.68155813558492,-2.720757427639686,-1.116212858740516
350,-0.712499191004259,0.17793462577049735,0.5043252585005694,8.40529418610382,-0.8295849819213192,-0.5278489019907638
360,-0.736099843073443,0.1398793963695749,0.504909891050874,-20.717652531242337,-2.511289875252402,-6.466312919661268
370,-0.8358090134690074,0.10751316106566323,0.4048062217634107,-37.82146152223937,15.859513773229668,-5.581742325350965
380,-0.627240772388854,0.12744418845128438,0.7706891914655799,2.4007688055858827,44.638174978210806,-2.668877698890231
390,-0.33816877033627935,0.2493456964963295,1.3195893778139538,39.43661254817332,59.69375420379815,1.108070804049718
400,-0.4248880713948066,0.3446524575104761,1.1269393833719574,20.055608578094606,52.395393055582,8.850991487033733
410,-0.606095353918392,0.08756973764755148,0.6531078596571477,10.084078145513116,31.911610313274636,11.954606432554561
420,-0.6455330886366734,0.010965889545863793,0.5529282607029528,7.107766516824449,25.016038961702787,4.925160272416064
430,-0.8415533304297406,0.016563097881250797,0.12751432242493246,2.6975300651928356,34.026577040576726,4.991856329546906
440,-0.6989084768610617,0.1761398596714033,0.5079718156648982,9.685622644226585,5.428933785097708,1.7945672238496937
450,-0.6836128635724061,0.16123129035260902,0.5671571387373412,6.424058264317991,2.420738992675591,0.18060273428987328
460,-0.6995446760278318,0.12404592217585533,0.5521825628499374,9.446106026644518,1.7345889333758107,3.4448273544360024
470,-0.6657066349884243,0.166444327779491,0.596656517503285,12.128952531861897,-4.81319123709882,2.3342688670598966
480,-0.6914740112140021,0.1403759880891803,0.5781242266361593,17.06860332064172,-5.244477513132282,3.4447274767372322
490,-0.6841531746844544,0.12165399611156077,0.6068599539858945,5.091979026960452,-8.702267776648277,3.357053896133489
500,-0.7934196365479912,0.1447717527767545,0.43945555960680077,-2.655324518836787,-14.75040349311147,-14.326456826220078
510,-0.6105353851269945,0.2787868825152093,0.405429064813521,-8.728523943360951,5.261938947336437,20.668158660288036
520,-0.48874132151719485,0.36660115129777837,0.39619924314166904,-25.732957149956924,20.987660526956258,32.815508645829524
530,-0.42697849145385924,0.32884955036720603,0.31843474847793773,-41.243767270229796,32.948261080598115,33.32508009404796
540,-1.0299695468950927,0.017823466201134935,1.6335886484469475,-72.55853742354525,21.252301133036074,33.15765459435275
550,-0.9277566588266097,-0.40645597038090103,0.9045684801095243,-30.11189729481892,5.655742909899724,-2.897206158694044
560,-0.7203338641672097,-0.22737972773551735,0.6064927415831306,1.235178662366935,0.7930062967997427,-27.63141919548439
570,-0.6613962277028923,-0.0748695334071115,0.6869046531051557,29.543116082766087,-15.227149824886585,-54.31404113048698
580,-0.689344335902079,0.14262454534217373,0.7471215680647502,58.986914508468615,-20.31709144944436,-48.08728617050311
590,-0.7175334531449938,0.41789090532531925,0.5078550124228564,35.772186516729796,-7.375239779890002,-12.065554365508632
600,-0.6927849089430187,0.6361680005358227,0.43177707500878404,22.32807564248738,5.0299888259941365,13.832184683899921
610,-0.6771891966228456,0.5353122704056495,0.5280783569553009,29.514333900973252,5.869187113831051,20.396133196103072
620,-0.672828197317509,0.31069675426136006,0.5601433322740578,25.892409198052597,9.19423661558867,23.98227547343756
630,-0.6819225548388245,0.2150997427677555,0.5572126413236596,8.709997582826986,4.016493690657567,5.404130702768593
640,-0.6633649620951679,0.19444377805251828,0.5712291906439527,3.0810631162963187,1.2513496150206056,-11.060695004043946
650,-0.6975359637492465,0.14842808031723817,0.5375332353699883,2.7788486709078786,0.7832048254502788,-11.059020114586973
660,-0.6725415236399895,0.1722568692026165,0.5760549668876674,2.266718148975378,-0.18422074932168764,-10.717608554453205
670,-0.6752056226664868,0.15830858729133557,0.5677726917063071,-1.91466650721292,-3.5772595994295013,-11.257483628209826
680,-0.6724958721789701,0.16436261008480604,0.5683571162392191,-2.7370421180332194,-0.6335137678056706,-3.91376352161125
690,-0.6855659913499609,0.13602664382220028,0.5471146806327413,-0.5914205360496656,-0.3583618035140308,1.4847325293563731
700,-0.6614342443430046,0.16453992895647496,0.5792170868430084,8.726760275523672,2.411713031794454,13.048638592560637
710,-0.6697962359892269,0.174887140359178,0.5660864684544685,14.055645090420713,5.492658369872714,17.26321594966731
720,-0.6771439179425776,0.19770183874916217,0.5642215069354036,9.497296188657696,5.242678077522238,16.25128288973137
730,-0.7106891361823677,0.17791323949807994,0.5262394313554588,1.8751446113454149,5.2242156609916055,16.785116620736016
740,-0.7300543252850183,0.19453939650022065,0.5082034766998174,-15.375666335144965,1.8795336759642542,12.744411558361136
750,-0.705182866074479,0.15713619206801577,0.5384652811086531,-21.81585329480606,-2.7294550350202376,11.985833776350844
760,-0.6783619396724369,0.19423204315020556,0.5581862322538367,-11.458378307670756,-2.594507192677938,17.40228692983257
770,-0.6819018323617629,0.2070484122774676,0.5522713420593444,-14.610283098974298,-2.500419252571596,16.02465242172191
780,-0.6815358350492623,0.1912879757958754,0.549440308060909,-16.86175686700358,-1.0710908267932826,15.640340135051382
790,-0.7040999575526374,0.14331655556478576,0.5183403223843505,-18.260827176330693,-6.4569596928406865,8.336036032466037
800,-0.6573516299360377,0.20160395078299692,0.5704303964126869,-11.669948471778774,-7.417833676558856,5.405584118866545
810,-0.6871996511663171,0.17428433113471706,0.5487987901472543,-5.161970518392566,-4.947360688506171,6.008908577208109
820,-0.678369165615157,0.1858292309464763,0.5573171221417891,-16.9252582951419,-7.338742112597309,-1.6863336484332137
830,-0.6865452148737822,0.16413506172296644,0.5454483677863637,-20.979271921407864,-5.768124524956581,-4.278968471934787
840,-0.6886887961618863,0.14061005862288423,0.5442601366091508,-25.456104698266,-9.035734618126943,-7.8342980082489255
850,-0.6873235580593766,0.1397492610626927,0.555774803938481,-20.285233970355115,-7.202090367875933,-4.138359219695051
860,-0.6932516481773778,0.13582035917419535,0.5545770743985255,-8.503738206737417,-4.042474336174522,0.44061505530798173
870,-0.665625951856706,0.16239059158187766,0.57747137378272,-3.4324505656504383,-2.3369387382743634,1.5133004883712795
880,-0.6858196231293637,0.14902505311558817,0.5548892704095397,-5.03543188333165,-0.7806122171769888,1.9999108078600625
890,-0.6572594225381684,0.19059347427061968,0.5857626211106287,-5.053573250531201,-0.677139628398052,2.5064494918852898
900,-0.6950039444946647,0.1574530246125376,0.5496449412631428,-5.8105752097302235,-3.644246953653042,-0.06894293183278621
910,-0.6959533904913676,0.13396868941903062,0.5470032554141999,-5.2479241562706305,-3.9869464685073446,-0.567475799866148
920,-0.68822476586037,0.13359383595562832,0.5607489167852023,-6.616102781433788,-3.826293811573953,0.7506552275789782
930,-0.7001033814787022,0.12471632871704902,0.5415248316697931,-14.569182435357707,-2.8775964535375076,4.02101122826004
940,-0.6720980955239569,0.14216573936311308,0.5671937549669916,-7.572879259509195,-2.143663668047796,3.7213987762866614
950,-0.6950289070574728,0.16047426887134408,0.5630285192234259,-14.140622514343411,-3.272504031944501,-1.9893538834997655
960,-0.6739049793856791,0.14724711443786867,0.5680519292085789,-10.681760790198927,-4.3847521336636195,-4.584718350602978
970,-0.6638320471266174,0.1595611440791584,0.5783161846405935,-8.74116052494303,-3.6936626760040174,-3.839526845450642
980,-0.6445311946346449,0.1691288087513218,0.6010384081022992,-10.495132094739649,-3.817446270655214,-3.436758819160688
990,-0.662490733893198,0.16072880394668965,0.5822477383237193,-6.527771532467231,-2.0535396104113843,-1.1229239920836236
1000,-0.6778733841516686,0.14048976622316953,0.5623268157466023,-2.78145879194188,-1.8579747678074576,-0.7900403624684311
1010,-0.683229707869069,0.1321858934129886,0.5669880740428324,-1.1075800277199663,-2.1798743905780777,0.18270039215974698
1020,-0.6781698565510345,0.13973847982938645,0.5642923243269589,0.28102010148918855,-0.7289708659694204,2.68014923676638
1030,-0.6739172937421293,0.14980283585767912,0.5711323736068378,-1.9477074876179585,-2.9999691083886737,1.4050662496869832
1040,-0.6636170511766912,0.15240549080353338,0.5818752269716924,-3.243051386757846,-3.5029647507252384,2.161301041828061
1050,-0.6646051204296363,0.15026168425019512,0.580949801780163,0.43937889200909597,-2.2831103057534996,3.4078159412757225
1060,-0.6690294046198672,0.14956370059599244,0.5739212268177463,-0.21269665059937481,-4.366600259867709,1.4762582734374243
1070,-0.6877759618591759,0.13087929256821784,0.5634916305394086,-7.306935530346188,-5.909807200641162,-3.4924307008338227
1080,-0.6645619462051957,0.1431385974237947,0.5922989169785173,-12.37016316869719,-6.618879884056919,-6.878091398215486
1090,-0.6719737162375151,0.11759767802740058,0.5788066561887681,-8.067216675465414,-3.841688748568127,-4.024426185449033
1100,-0.6696729764878294,0.1157187999583965,0.576578565383039,-2.1431505266512394,-1.4626513121357099,-0.27518193946787184
1110,-0.6645437711853276,0.13006734590871508,0.5798486540375989,-1.2102603689699063,-3.432186074064869,-0.24693356734863225
1120,-0.6666597273206856,0.13122146578608104,0.5774943221015878,3.691643347041782,-0.8862234247250216,3.9824596001366173
1130,-0.6617925093499885,0.13950587029688177,0.5871422810835129,-0.1729027843344506,-1.2760309747546854,2.5594113495970263
1140,-0.6652788405434679,0.14019683922978637,0.5852701656020132,-6.964820847453282,-0.2859837666823788,0.30129459570842926
1150,-0.6205468470722286,0.17663353945372048,0.6244883945132629,-6.317121438027842,0.563009454664554,-0.43846975378323183
1160,-0.6590509703259073,0.13521751028024873,0.580731848871053,-4.632167111253224,0.521854552477538,-1.869444816778144
1170,-0.6834954046220821,0.10019076065101505,0.5673999785426438,-2.494916771402937,0.04232560303011512,-3.7748785184764664
1180,-0.678663266843479,0.12268401978365497,0.5819250845457795,-2.1036368008136805,-0.1815563026191005,-4.893740632016995
1190,-0.6755474723350546,0.11727812010966349,0.5769419342209231,-2.157396317502198,1.4684595554740882,-3.7916403484857697
1200,-0.6349168246720442,0.1542204751755643,0.6179344408233414,-3.6547942101817057,1.5273497936147977,-1.9227240655641165
1210,-0.6521321556870051,0.1441039013007972,0.5960530592610098,-3.378484982994785,2.7712258679214896,0.45244420435360966
1220,-0.6884740895665054,0.10728243731340725,0.5665756302542042,-2.86012215526976,2.9729270006080983,2.314935960124316
1230,-0.6547059501782903,0.146152209067843,0.5920796750874865,-4.505411230940566,-0.10755363089057948,0.44215990841350905
1240,-0.6744994513243162,0.11524552174325424,0.5735641566213979,-3.3812671195272177,-1.2273627373046172,0.13321633905004354
1250,-0.6588959819229399,0.13961114732323865,0.5959766220788543,0.9821947123252804,-0.7949293780897208,0.6648718700353019
1260,-0.6631935260063185,0.1335689476145681,0.5882610248074673,1.3267279140548,0.7499273880513428,-0.26641294067143
1270,-0.647744824316613,0.15278324062462909,0.5965125841068754,-0.7389100521414508,1.7534681887715386,-0.615920031514548
1280,-0.6511574352457141,0.14049959070635912,0.5993098913041224,-2.4183305479150246,0.23614864516940048,-1.7256309177093594
1290,-0.6735040471411852,0.11742374870942571,0.571469456562587,-3.657813170654908,-3.1667139921891656,-4.252551462045064
1300,-0.6575533676977755,0.13408690226497316,0.5923848426521611,2.7115050017379847,2.737689508389626,2.634687550650312
1310,-0.6882023816836274,0.10364246819305789,0.5627382762744639,2.5509049823760233,1.067594861962832,1.0265268929289872
1320,-0.6884538015552156,0.11055842801294702,0.5656224659736416,3.0148951745062487,-0.955034236728713,-1.5284460376237108
1330,-0.6853741405218096,0.11917957178268386,0.5628531321153175,7.042514129212767,1.9207690867802198,1.5760599156397475
1340,-0.6446049229894392,0.1500545503908635,0.6025761913741093,2.3013975623028866,-1.2998415990522905,-1.7517043146395437
1350,-0.6363020580705354,0.15518572475438225,0.6165912887245054,2.016715271587407,-0.8209463730979403,-1.9540471614702795
1360,-0.6637750637700877,0.1332736691724181,0.5861081797133675,5.418711183751485,2.6958594303203935,1.290876329249522
1370,-0.6319620851507948,0.16457885972366645,0.6146888917019729,2.1031321893724764,0.6759047243478364,-0.6877856556455084
1380,-0.6838598937815141,0.11245568424321596,0.5655053432891358,1.5048933844868981,-0.017753431142819742,-1.055215668260142
1390,-0.6880155618220716,0.10392706115827191,0.5631348075125516,1.6421063847684634,-0.6210927366318857,-1.1018325330204952
1400,-0.6601465760123526,0.13001443507000804,0.593949949668898,1.322946947715882,-0.729216286523385,-0.8781700322440669
1410,-0.7021046686876082,0.09459209768629559,0.5518524875386428,1.9237755631965652,-0.8459146090410783,-0.5811313435031684
1420,-0.68374828108505,0.11335987237371886,0.5663194971332166,2.091613903837122,-1.519645797454891,-1.512770144843881
1430,-0.7012769963822942,0.10252551697775826,0.5537346671444197,0.6741782457806593,-2.0116447161886972,-2.5678705900852545
1440,-0.675391824080448,0.13229007239307153,0.57984481814581,-1.3295178558251588,0.325594973248452,-0.8153439114091764
1450,-0.6506071458759246,0.14254880152600197,0.5926259728846485,1.916989495831045,3.53089777708945,2.1085852101408236
1460,-0.6838012888450798,0.11682628101565047,0.5684139097470392,-0.13471741168162876,-0.6724127354619128,-1.2082368223104016
1470,-0.6722479954902953,0.1250350981335633,0.5769616817935816,0.6843708657285883,-2.3252478169361828,-1.6862575940971467
1480,-0.6622256799791283,0.13057319282491006,0.5850368636701805,3.5982600740398762,-1.0227042201383612,-0.22483975440823384
1490,-0.6525911511413763,0.15202773152679272,0.602481547152329,4.558670986867463,0.42711842360748653,0.4624447115907149
1500,-0.6333848571782693,0.16328004745592306,0.6153570515719694,1.6571706445134038,0.5158171613540179,-0.2212627685632653
1510,-0.661705097734123,0.13631463020744783,0.5935685484893908,-5.289158506296574,-1.6280125658867945,-3.047777313333994
1520,-0.6651212172998071,0.1322933979120991,0.5887584534702077,1.0105982502609687,2.121547455631495,1.6615217607773995
1530,-0.6595159965362091,0.13095502222146826,0.5937995659456414,2.912254015497545,-0.449086451244449,-0.3595873520026601
1540,-0.7083839031640949,0.08411619721268931,0.5413146199186538,3.5384905876700694,-1.8555257929219025,-1.672661908559627
1550,-0.6588913452656868,0.13766832610409105,0.5894720251019548,4.858233158226556,0.2819798081925009,0.10340718135794441
1560,-0.6528041255762742,0.15097097504113594,0.5972932285665222,1.639055464345387,0.7463824471179227,-0.34776712684794325
1570,-0.6820405485432524,0.11335314211551094,0.5707859951698602,0.07980522788718458,0.4353988419104301,-0.7861674817873736
1580,-0.6578257843991662,0.13577058416795534,0.5966226333371918,1.5417656754020432,-0.8136409557390608,-1.540722725614041
1590,-0.6892557122327959,0.1135406955176846,0.5653500062242601,5.0747823588238035,0.755238922173411,0.5440226196483411
1600,-0.6810110129947653,0.12425471633133096,0.5691827558672224,2.048427584174565,-1.90719717679691,-1.7193819238177417
1610,-0.6517028761068734,0.1481957238697047,0.5961765849679647,2.1316652466120964,-0.22923116459975723,-0.11587241556657552
1620,-0.6604841010591029,0.13501216851947243,0.5889828142928707,2.556636643648483,2.376759518939556,2.168996949764336
1630,-0.6728080676628905,0.1218861280358907,0.5751749737917909,-3.458245971690091,-1.887373101431829,-2.3937796668787983
1640,-0.6568242375478236,0.138394649119906,0.5941586590384001,0.5534627844351709,2.3848669112426197,1.5818543974529329
1650,-0.6746049831367985,0.13092719057994626,0.5780502402220767,0.017373466574761368,-0.04678790000139671,-0.42028198879890627
1660,-0.6885642289050463,0.11499728798279811,0.5625977337104556,-0.7609548538219587,0.09554557634288585,-0.2700013513213603
1670,-0.6691433379560288,0.12083123841185933,0.5763997799387693,-0.501608491970227,0.8827690655757365,0.42370304538211434
1680,-0.6549268630691949,0.14120299016000806,0.5950159558399889,-0.11756480333345798,-1.05333760390821,-0.929391602407496
1690,-0.6591489687178271,0.1384077291161178,0.5914057351840505,3.9067657002485037,3.1165918036930598,3.3870880734706885
1700,-0.6786440088714341,0.12068223805255737,0.5733762795962846,-2.1335283789561226,-0.9438603120773763,-1.4625831380876317
1710,-0.6630664355573098,0.134828492701104,0.5806761398757385,-1.7612601222788866,-1.0399730748864089,-1.882283844922822
1720,-0.6690205643743848,0.12564515024233763,0.5802212984772249,1.3881373351518587,0.6101687354311915,-0.21110499289654716
1730,-0.6790814894395231,0.11602047577438368,0.568383731565167,1.2198401094379445,-1.1394632565419136,-1.326402784664897
1740,-0.6591118035267125,0.13400549300287432,0.5922965078576623,3.023046698833629,1.7137943604258785,1.2892734302574087
1750,-0.6288122259233081,0.16859635236212925,0.6257324657359103,3.1439387426262497,3.0469154893925987,2.6019998877194395
1760,-0.6742429191680193,0.12781156083504425,0.5777367951562312,-0.8050953180532008,0.04513023480427547,-0.8781929892243711
1770,-0.6670507058125511,0.13453777638084616,0.5841155232585832,2.4846286612481325,2.187999346627759,1.8085342536620796
1780,-0.6397458633349067,0.15895440951864043,0.6107357986692697,-1.4856946191654756,-2.172790340963669,-2.4194444812209146
1790,-0.673007870283475,0.12273082511942468,0.5797576658123876,3.515759774474644,1.395105938066345,1.572978191498887
1800,-0.6919341900843798,0.1079298827814482,0.5602522271947492,2.510389676817516,-0.5859589355593394,-0.33068884120842956
1810,-0.6703470291294991,0.12879485994373538,0.5803351176789657,2.258517242606729,-0.28683886895989386,0.05780563906083519
1820,-0.6869179485527412,0.11278029155128509,0.5665006222637171,-2.6638569028649863,-1.0658382084597002,-1.3528230764592986
1830,-0.6707565229930098,0.1307717808082197,0.5823937525100561,-4.368383347006724,-1.057131752094044,-1.7596783965203446
1840,-0.6532685269350462,0.15028989662833492,0.5996551446357433,0.054995149156813694,1.423969242726095,1.2637135936955237
1850,-0.6777242545949103,0.12572943241522933,0.576533615102528,-0.5820092626479932,-1.3159300376751206,-0.8943625614532846
1860,-0.6734332404744142,0.1294380125839427,0.5805347592907394,3.3724715409292902,1.2371698924527175,1.61069252880712
1870,-0.6693718253990741,0.13318730307757293,0.5837074782747127,0.32549808717584283,-1.5486391479643686,-1.394750735072528
1880,-0.6735628646686325,0.12432536321929011,0.5764738570248211,-3.0331907648025687,-3.5041472806741254,-3.526652136085036
1890,-0.6726499893109995,0.13006746538119954,0.5776459203639942,-0.963030249901324,-0.2339655161451494,-0.7930094641660612
1900,-0.657306198064657,0.14491580765882953,0.5918037051148495,-0.05059053239805453,0.11137273871174747,0.05231496846390629
1910,-0.6680535260349877,0.12652201963040474,0.5807089608214813,2.7004223462589447,2.0138526934051457,2.311488625793675
1920,-0.6701224116971478,0.13443075798129722,0.5788173577366332,0.4007996461448262,-1.154399150908433,-0.6154428583731749
1930,-0.6408292754380831,0.15894446061769937,0.6047616731638088,1.7398503571905175,-0.2518734686353408,0.146677978822831
1940,-0.6661154676551538,0.1348540320311203,0.5822305325536802,0.8870578629872085,-0.5390260954011346,-0.5700411138907355
1950,-0.6863279208358526,0.12232584008173782,0.5617097627807686,-3.265637106441151,-0.05285476009503909,-0.2921094798443466
1960,-0.6455245767387596,0.15824036973962682,0.607844084442272,-4.433402637866022,-2.1094374099859436,-2.553645431608512
