time_ms,ax,ay,az,gx,gy,gz
0,-0.7524872724597708,0.05842295672716341,0.5260145255097051,-2.7213582282168405,0.29349618111888476,-0.7280157186557253
10,-0.7127395499111887,0.10140990134370395,0.5659777725293806,2.240759101698142,4.073415002336266,3.125409972664248
20,-0.7439109137319201,0.07602684566698498,0.541300322641668,-1.2096593346902769,-0.8690474043353089,-1.0983633633733128
30,-0.7511596620282116,0.06346335261843582,0.5301930614801361,0.9243126634841373,0.5812947815283351,0.13776234213102814
40,-0.7453965306050574,0.06827762312563443,0.5349526017577773,1.1498907098976905,1.6163591459073388,1.8890767766716914
50,-0.7196367593121084,0.09054467891521431,0.55613158364454,-3.4463613171712586,-1.7714711155555714,-2.364188922775837
60,-0.7322212660266041,0.07714419267940613,0.5497802183238129,-0.9445400405710611,-0.1765377881900223,-0.7699521262869138
70,-0.7593356236616741,0.057262981115559636,0.5245601308284065,-0.9788384265238825,-0.3383626678702375,-0.717792802406661
80,-0.7526728846295084,0.06405289084024939,0.5305816045370011,1.369888656778719,0.6315293367995736,1.2793307174461142
90,-0.7444951480317372,0.07279558198982596,0.5429402790157439,1.1159986225277867,-0.5630464768641015,0.20288179481679064
100,-0.7267243006404498,0.09052255815275516,0.5625273162377108,-0.3262295132435914,-1.1903986146872265,-0.2593092991590269
110,-0.7568851697674984,0.05787922574645339,0.5401408228623266,0.5176361917388472,0.06334034891629026,1.2910716337612294
120,-0.7232478953126893,0.08508571019470759,0.5685191858066421,4.50147135899477,2.741425495457327,5.595905910195123
130,-0.7490282738175772,0.06305274792003118,0.5448411596308885,3.408660407747865,0.6154039914282899,6.191722829507208
140,-0.7624895977230625,0.05760491309358085,0.5289977217137338,2.0055148950118,3.549030817729978,10.6404433286717
150,-0.7433614075948358,0.06737104088476617,0.5642631747918885,2.6242045577208795,0.9796098002265303,1.662730507222732
160,-0.7807217128636486,0.10100890583339536,0.5792537719642208,9.912299979236353,-10.996969326110573,-18.09862674630004
170,-0.7914232678597347,0.11613348468758168,0.5226699548310686,14.986042300675132,-12.89017903654957,-9.135748390214255
180,-0.7880319444221504,0.06735753894711433,0.44469775683348706,13.78288450701516,-10.85236702707499,-6.174840157557838
190,-0.7214824982674758,0.11381655463135258,0.49432724379512255,15.285272588131498,-5.843046831297388,-3.0875832555528167
200,-0.7193757077464815,0.17091763367348087,0.5138775638704676,12.580473645630768,-4.6516234135251295,-0.680202946294574
210,-0.7539198372756508,0.10352643784878163,0.5382953022836404,7.554024507707393,-9.39294570243279,-0.9830624658933294
220,-0.6945497573606721,0.10595483117559776,0.586111742130359,13.280425055049978,-15.155776202907742,-4.372504746259486
230,-0.6684164984474205,0.11666504732435169,0.5131453362317151,8.529083913829048,-15.95475898018272,-6.996425207973408
240,-0.6944931410104662,0.10101977760506277,0.4961412935502856,5.3524570227179975,-8.632289577161515,-3.9608669372907337
250,-0.7271561233187461,0.11967968434783313,0.5081459378692164,2.7067161410561935,-5.652992978100227,-2.476843503142521
260,-0.7089961017265806,0.1198162271862261,0.4964131056373302,-1.450529146014123,-1.469130824646824,-0.764399654058717
270,-0.7437285994173479,0.14896674349483124,0.5541851254993868,-6.902128590287304,3.0533553673365654,2.2119397616221246
280,-0.8036301863529491,0.09167449336523682,0.5963402196215145,-4.935147424500251,-3.4817462508726673,2.685962230650505
290,-0.7603910180801577,0.003884139721929237,0.5720509442046325,-3.300142367993839,-9.586223887144055,-0.6201695175484194
300,-0.7507063909074887,0.04459855095388171,0.5270834659288623,-6.950706453317028,-9.468342759033662,-3.8136800459313367
310,-0.7057973883892136,0.09126639193098987,0.539796824800848,-2.512034326290852,-11.671641602027353,-2.385861135632471
320,-0.6753102082832351,0.037977908991918885,0.6248925267071151,-11.735975860892214,-17.17966673762426,-8.060477926149904
330,-0.7042866886155383,0.0700426862467983,0.633023548028308,-8.5077661153043,-13.155699890341541,-7.0793204937513305
340,-0.7654132019845158,0.012087145853586632,0.5759734276782361,4.221955340568105,-3.0902955600449595,-0.5244954397713757
350,-0.7862591585999908,0.14506450597182893,0.49817111240972395,1.8681280553755657,-4.957936503432318,-2.9704296557158196
360,-0.802995853926769,0.1065264543325862,0.46188322462317966,2.8276340977043066,-3.6019716081526623,-1.581086121616002
370,-0.7410499800220457,0.08399316340428896,0.5425965315634209,1.9797589648844132,-1.5521481066250422,0.20671303210032882
380,-0.744287418977125,0.07153099686284918,0.5308681282933656,0.8733170260785004,-0.9064321572450305,-1.6031498522770677
390,-0.6534566454399809,0.007638461955789346,0.5318376937653874,3.590577417246316,25.066518868087524,-14.56230962469821
400,-0.6619155573288319,0.12645973395804658,0.8616600171676864,36.648668806373,38.294838748756625,-5.851300588441375
410,-0.7341211436328846,0.050033012439312,0.5373545627728601,17.240302910003937,37.68123263217575,4.356073124892671
420,-0.6950866591365242,0.046379285818951406,0.3992963843440796,3.655547278989654,33.29086065046653,5.216838423225186
430,-0.4603027639421064,0.1310954105281423,1.1620709149624033,15.562554440627867,15.89505462085258,5.909328297413669
440,-0.5916128918332846,0.10161269467418807,0.8739257909068335,7.93243757419214,9.252940824714916,9.008083564973612
450,-0.7360635316010471,0.0556164182005589,0.5784657919603975,4.268852578039895,2.3221241471688305,2.318119520043161
460,-0.7605991480307055,0.07317882826577254,0.5413484228768214,9.24676785193446,-0.5749802381397295,1.5447875343372082
470,-0.7533561627171264,0.10352527457360755,0.5341940621754082,-5.710230398565985,-7.888307332461565,-4.026193727807355
480,-0.7647630321067762,0.04188870241127242,0.5139822091643678,-1.9702752397084273,-1.299352662496121,1.8412648842281152
490,-0.7361154673562984,0.07400249316595407,0.5415937310285058,6.223458099651326,1.3563614067151342,6.458977607231507
500,-0.734821975395655,0.08263029720720264,0.553235251913843,3.7693919258389927,6.784723958494582,9.891638046681674
510,-0.6884289698078365,0.16676038876264154,0.46134967570336755,-9.002845672216157,11.998627294739753,27.865609804216056
520,-0.7132928610830145,0.0750215666688536,0.48460968302382545,-17.957195325271904,7.310323621358413,17.41726223053889
530,-0.7687438989890611,-0.1969611059118019,0.6973448700520107,-8.432671148749362,0.45043196154381493,1.149744089020234
540,-0.745388800656056,-0.1637715776347589,0.6400955847218107,-6.815053453950268,-1.9360433827736436,-9.895810010707848
550,-0.7509147085372664,0.015618255864032045,0.5437924578784833,-3.3542656570208016,-1.3474537342060384,-10.298045881200306
560,-0.74243046081303,-0.016364756914660113,0.5651125208618383,13.671802741151746,-0.09262914131075006,-0.44413178981458806
570,-0.7600263924632796,0.007904633840023882,0.6578184344907215,-14.840832263007623,-3.2119080158099544,-23.74409096809073
580,-0.7691638490121153,0.15467653107518395,0.5277446254653361,54.909754638657766,-6.7786826419560295,-1.0438845931299465
590,-0.7065117260752992,0.03472636358054963,0.49534646344272465,20.454223836468984,2.5742073296377304,2.555034207629347
600,-0.7129849373303229,0.009643137175174055,0.5975401566567871,8.24507540434275,-0.2717308894918453,-9.657772348091838
610,-0.7476649344466301,0.3216334595375243,0.5471347992927377,6.5540718301162055,-2.586934859055822,-6.7933604707508035
620,-0.7297285112171729,0.10465556398732057,0.5579860969315814,-1.7827379935737606,-0.48219578501389165,-6.96860314061907
630,-0.7355322260636347,0.08399186591099217,0.5516406227910354,9.92150632415125,3.007192002667923,3.6967216745782663
640,-0.7350259067119844,0.0990829660280102,0.5353320613529676,8.756287244751446,-0.428432570846933,2.935672060381255
650,-0.7036955892319111,0.15322590225459204,0.5770832369116611,6.934453557802625,1.5280079285405235,3.156490209435757
660,-0.7444501469491286,0.11019805366127818,0.5370152590206495,5.426320602059028,2.16510515601603,2.35907666022524
670,-0.751054944080263,0.08903550135128555,0.5222256161250607,4.328711246010071,1.5579038346802467,1.2853663970463631
680,-0.7376148122482228,0.09880708930616947,0.5337180098398999,2.263662509703183,0.4349634765298172,-0.4569613052102285
690,-0.759520052636377,0.07327204383446663,0.5323649778473584,1.8891528280352543,1.2489977749814205,0.07629573936785988
700,-0.755533671129795,0.08386571006137081,0.5189511051205289,3.616081581338342,2.12827925249942,1.1406131098011867
710,-0.7506256529687202,0.08459879300344662,0.527086769350236,4.682557944339893,2.7562860713249973,0.4683469371175606
720,-0.7514290722619854,0.10043777147130911,0.5208501018234182,0.13075088796313694,1.1981140615894028,-2.876582732567841
730,-0.7418762860658825,0.11376236690668415,0.5374955074583023,-2.300911153649291,0.3319900253790197,-5.534352420692012
740,-0.7453957302412357,0.08369005949493726,0.5229251152831182,-3.330136205910164,-0.8680054215631218,-5.181613738242671
750,-0.7430782179483975,0.08032390513912296,0.530391202909919,-0.5963407889598584,1.4356974095983717,1.516087577711994
760,-0.73866111929146,0.08131037658708234,0.5453353546839262,-1.225481226077815,-0.5587296802298323,1.3194669476785204
770,-0.7478627128859197,0.08107878735939208,0.5291896023971739,0.8587475193525209,0.5774988092897709,3.3966815558681214
780,-0.753118645176229,0.07585396245069108,0.5214511766753728,-1.6808343510423178,-1.457892405150385,0.26839978630126393
790,-0.7254846997471898,0.10528973064158129,0.5418371793516029,-1.763173100726491,-1.0773910048694917,-0.5341033303176859
800,-0.7430238984432156,0.07213747224012483,0.535072866965579,2.0899946691223565,2.5865607869034237,2.63988803940957
810,-0.7307597553460958,0.06540356115236856,0.5355540083933215,7.2113279572098365,5.942451058406272,7.940311253638641
820,-0.7587457286766488,0.07910734108703439,0.5077914392120063,14.057584017553939,5.515636296865711,10.615041729291002
830,-0.7375964079822771,0.12360001180858313,0.5470670285959193,18.690369220284055,5.505710424667169,9.908361442964932
840,-0.7291516444954448,0.1305635445319725,0.5602280609500124,9.168919671467231,7.282164667287946,4.0717195848505785
850,-0.7422001188933952,0.10165781103468986,0.5404333646746606,0.5401796255745075,10.58435507358603,0.294321694910592
860,-0.747149228154176,0.11984736028319039,0.5269139125632643,-2.387230150115225,9.908072291733589,1.5337035123763836
870,-0.7556411104634824,0.12526584675115932,0.5191749694716526,-2.5396753182691203,8.001382339660733,2.9732345509180735
880,-0.7570161736170538,0.11955507051568623,0.5374475661246407,-9.906436117446527,5.893618430065142,-1.6018762949739163
890,-0.7553475054600493,0.10368038767127416,0.5459267008555327,-1.426369467326583,7.427347040964677,4.888580877979567
900,-0.7660734545706245,0.06477435349837221,0.5038202819170985,9.039359658300192,8.376042107261354,16.970040555688886
910,-0.7340253637782211,0.1281025599678905,0.5263215350441993,9.515932198846347,6.11252703480022,22.48433552406254
920,-0.7409907215072229,0.12775838758126468,0.5301782745326974,-4.4091866374903885,-2.3106037969542403,12.596966976571629
930,-0.741182411854598,0.1063370186867899,0.5243604092023548,-5.785927712523311,-8.182153204935119,6.464060549651047
940,-0.720917501372146,0.14640423984164988,0.5453766734901232,4.17360224653774,-6.6812030311521005,8.92087509118847
950,-0.7349847275258833,0.15321192201628941,0.5395865279333698,0.810400979308918,-6.395146662475021,3.1785598634110026
960,-0.7804907238357349,0.10398635912394556,0.5059191633877399,-3.201733156080066,-3.9657154769552068,-2.562488797601722
970,-0.7512155568124651,0.11010630406601409,0.5324049237655757,-3.8851549238556333,-1.5569967392007635,-4.774954998299869
980,-0.7434221283060934,0.11562685452093356,0.5384516422005861,-1.891692924801529,-0.7262815410577276,-0.733116856168084
990,-0.7692409917589967,0.08572928623021872,0.5027871857170743,1.429203502329634,-0.16810993230249593,3.4534900849016976
1000,-0.7393811189801659,0.11928057394885874,0.5414760205413982,4.979998090072093,-1.646929238048096,4.033255005329704
1010,-0.7435329313710853,0.12597538905914366,0.5268126867400171,5.511607421157284,0.2691886418747323,5.861302408875226
1020,-0.7648876537907645,0.11565617106005396,0.5114600034147961,2.4693317129720223,1.562978483084603,4.306816223830058
1030,-0.7248666412461213,0.15385748368258925,0.5492549406629155,-3.621074620082016,-0.12992699395549978,-1.2145669539866009
1040,-0.7411372395913983,0.12123432690440976,0.5330727927435979,-2.9418273723096986,-1.7661236541297198,-3.986392146146825
1050,-0.7453177683663835,0.1152311283441064,0.5241187653635961,-0.1688787460732704,-0.9859156426871579,-3.239789504600879
1060,-0.7533732632298581,0.11105996767086047,0.5211839195822057,-0.4912126783344637,0.14661728876683688,-2.103075444153021
1070,-0.7402677304055482,0.12023405495397962,0.5282551205038866,-2.3173690886190483,-1.0098399514457053,-3.462145092843911
1080,-0.7509692220105824,0.10141481906746118,0.5200123919836099,-1.197819098075942,-0.5038287081213213,-1.5515793499273187
1090,-0.7308381545333689,0.12142539360441233,0.545363676773424,-0.40245472804004967,0.5273123145567516,-0.0615362101493
1100,-0.7647233965214576,0.09325047113229615,0.5168645254502776,-1.985906354173283,-1.284191420241781,-2.295472739778181
1110,-0.7491376698807554,0.10276256625245825,0.5257656091403151,-0.958778828572723,-0.4516037580378546,-1.0254598463464648
1120,-0.7498591426412751,0.10027747027032297,0.5236055925456782,1.086094751454442,-0.1279441629373738,-0.20037917772867525
1130,-0.7627156478802022,0.09105944108057085,0.505760453694796,-0.11231180746656733,-0.9421121609555417,-0.8733552873760577
1140,-0.7393459666618265,0.111903999785734,0.5350617284872782,0.526757530819579,-0.12443206262947268,0.030279882545688336
1150,-0.7316304144950325,0.12329703737913797,0.5427526122422041,5.217587433760134,4.211954764601602,4.707257327928653
1160,-0.7606678602330815,0.0917050217643344,0.5117155616079831,-0.8940938546912043,1.3507113757788791,0.45150900569206787
1170,-0.6978821382761562,0.1515249856559974,0.577531704177682,-2.473294074535065,-0.8791785447073073,-2.294716053715768
1180,-0.7422995908840107,0.10774377324808579,0.5342291672992566,-2.140727922512047,-2.4348604399755756,-1.8191759053104504
1190,-0.7518324785179892,0.09824924713433465,0.5275585711498144,3.209913671634059,1.7399665811441094,4.035962963295801
1200,-0.7517169039684496,0.10172189448819234,0.5283050791727375,1.3467511239551486,-1.4082039198234952,1.8640540455342673
1210,-0.7316634509593095,0.12919314585463476,0.5466808178289787,4.515059151393126,1.286262881427355,4.571919269246878
1220,-0.7581774618763621,0.100712915596594,0.5195870560443192,-0.07310449042922862,-0.1981345516064974,0.9284743120025957
1230,-0.7340499117285827,0.12322466499455867,0.5352463129701304,0.7917254232301247,0.8861771284856641,1.4342700894244709
1240,-0.7326388860085957,0.12793031424589987,0.5489363996142,-0.3522330211848388,0.6372485657130043,-0.7052449588522283
1250,-0.752464585718631,0.09761777287676712,0.5267537830769252,-4.887620031852681,-2.892939131946067,-5.246463542649989
1260,-0.7456163694174932,0.09876343237764408,0.5343295249700762,-2.8737823257014368,-0.9261414435443549,-2.9828767388326
1270,-0.7385670243528014,0.10793751177700169,0.5413322930474196,-1.4967033824797336,0.27600187298403245,0.2282373687243941
1280,-0.7415670464278651,0.1123752526315269,0.5362329181155481,-2.0609460642389474,-0.23050045904959593,1.2120335482622133
1290,-0.7489326521220439,0.09848666188716464,0.5216962301333521,0.2893500834828613,2.579235272272813,2.9252596596540026
1300,-0.744432146769261,0.10584250363023255,0.5329666427745396,-3.2349636934069155,-0.3658921736008375,0.321463636855999
1310,-0.7324840114562267,0.11514129156909217,0.5437772206825878,-2.5587342942643296,-0.4466637208714125,0.3702408547263185
1320,-0.7713244934492351,0.07600877368472947,0.5086292955482944,-3.3255366846120955,-2.12771368764747,-0.8844310128049808
1330,-0.7375230878797983,0.1123657769282766,0.5467886110540782,-0.09136250278652458,0.3055674700784531,1.679704297009618
1340,-0.7660590735148768,0.08811292895052167,0.5160290488241775,-5.511258817011591,-4.325969857297207,-4.463451232880464
1350,-0.7471138004466953,0.10686886094055467,0.5324667283523734,-2.5683612860048735,0.21269845051096103,-0.8734319826911059
1360,-0.7475036431831165,0.09915664659301297,0.5276183678705461,-3.5416007310023527,-0.3260762824266291,-1.905083835689755
1370,-0.7279483955041522,0.11089125382068113,0.5488121740422471,-3.437207027039005,-1.7856036282222432,-2.9664748381874784
1380,-0.7466131182630849,0.0913640904227689,0.5329494032331534,-0.6017189008017034,-0.4805273545646201,-1.2629368869141748
1390,-0.7365460023013695,0.1093355394330217,0.5448755719936823,-2.753288323114351,-2.429453729475232,-3.044634298213972
1400,-0.7418981954744078,0.1007586477889564,0.5382216314442755,-0.35597745068241904,-0.5937479439658488,-0.41149367451375246
1410,-0.7436700681283955,0.09794193672482737,0.5359970619609835,0.6833577687365757,0.28186918751669776,0.17388513377596604
1420,-0.7242921797101446,0.11810971068335441,0.5567426586805098,2.0527698208720673,2.302826794880846,2.1067123863696198
1430,-0.7531565662636164,0.08732759816572064,0.5286709943923606,-0.4375955177643521,-0.07425742954198766,0.7911822603058948
1440,-0.7580866746189652,0.08665533827668014,0.5251192912083257,1.1260501299146646,0.42261894375078524,2.194656355288478
1450,-0.7506208648688757,0.09554822551341598,0.5285825251819789,1.274148598561407,-0.10373401666941928,0.9687322569990768
1460,-0.7587601934782547,0.0848064604846162,0.5189005099390467,-0.4178089027411364,-0.6279032632462265,-0.7781368980589137
1470,-0.7447262719267049,0.09850497050206361,0.5328699835249934,-0.7525766779486135,0.5580066503597062,0.5076244239501211
1480,-0.7509149993834411,0.09164983774805646,0.5247504046788283,-3.8591376411558573,-2.3941675128792137,-2.149687216204812
1490,-0.7310193273999431,0.10735167408164532,0.5439653642379796,-0.26478090419306,-0.18832117963426576,-0.08905451806728004
1500,-0.7203640984510845,0.1174604314038586,0.5542149322656181,-0.9582009690339316,-2.2488187370388566,-1.903067029860212
1510,-0.7695415741948591,0.07306447224768983,0.5101032981745844,1.571946979027476,0.6882460432238686,2.2736007826569247
1520,-0.7502697437376187,0.09653526906762967,0.5286222607195991,2.11296445626834,1.5521109787661982,3.6746641158212148
1530,-0.7459026088596934,0.1020516721327653,0.5348194143080182,0.6240319171705171,-0.05107262031757742,1.7339407834165126
1540,-0.7185925901572274,0.13114425110929867,0.5592931167844579,1.1296379399948018,-0.3625192036689222,1.4249191949974656
1550,-0.7410375559238026,0.11043061867606443,0.5367045690745048,1.203736262219799,-0.033068561440414146,1.6371813433359943
1560,-0.7415524985328041,0.1040113971034067,0.5379841989995882,-2.964816310893326,-2.4165168103914145,-1.672275309394212
1570,-0.7269034683263532,0.11479889336835228,0.5455362410687027,-2.585347994331229,-1.101311934921425,-0.746639898804569
1580,-0.7573149758881603,0.09189911823725126,0.5224754367627886,0.028989990637001695,1.6931794501585076,1.72267206326857
1590,-0.7448529925878632,0.10567193811142034,0.5359418654591387,-1.7825722762304024,-0.30269944199208415,-0.9131751100981669
1600,-0.7610101057424191,0.08554274679186549,0.517688802449036,-0.3635748928261133,1.617868982779191,0.7722440687930914
1610,-0.74740346176222,0.1009875514066392,0.5417438866902952,-1.8058374441742266,-0.6317279306024909,-1.2523093141771193
1620,-0.737934150602409,0.10250608583382913,0.5399288258506548,1.5556409221456635,1.6028433368262662,2.003585243729206
1630,-0.7479363245660813,0.09591540875605253,0.5267750648486219,-0.30334413619441025,0.28837746122996577,0.43217179139641654
1640,-0.7413487625628475,0.09991150863721202,0.5386963210471525,-0.9629952581364473,0.7428864289591706,-0.04982819992680443
1650,-0.7282953461866605,0.11264828312060868,0.5532040471169379,-4.573782890743922,-2.138769657803228,-3.242227230841091
1660,-0.7570955568246726,0.08423728084134142,0.5262969190352504,0.43141761987818994,1.5628405001400192,1.1073196605636184
1670,-0.716472257889968,0.12459012659875876,0.564164380019033,0.24417388285632752,-0.3889604842929014,0.1453471399459107
1680,-0.7291898324950404,0.11017887726727366,0.5517426588037317,-0.8064652649572275,-2.188691226321076,-1.4248534746129484
1690,-0.7416753803029075,0.10400929131821254,0.5354885077052104,-3.282009651039043,-0.2784279415788867,-2.3747886452293043
1700,-0.7132553137555351,0.1265571306939385,0.5719212355799528,-5.208526427830321,-2.3946915506455246,-4.751948837693482
1710,-0.7514868480442639,0.08382374954471937,0.5280945022344284,0.275571729754606,0.4856881799928209,-0.7552224409529548
1720,-0.7400201172245328,0.09305911875533544,0.5432508935478856,3.666257025539715,0.9726275130027273,1.7376106892620031
1730,-0.7594282728174025,0.07990623109674715,0.5240053346463934,2.2277663501868545,-0.5670261786965191,1.412817498260163
1740,-0.7376313509382616,0.1109000636291057,0.5447910744049823,1.6210781517807544,0.9162888424547043,2.052995385707347
1750,-0.7471820922182397,0.0966719966530276,0.530813339498698,-4.361072221432884,-2.147856577832709,-3.6212238043863514
