time_ms,ax,ay,az,gx,gy,gz
0,-0.5724056963494544,0.022616868930247044,0.5847082539831262,2.9383544621831987,1.6369609080736887,0.8814215384220683
10,-0.5856427776489808,0.011681508441432363,0.5794743325335575,0.2890618163022315,0.4833165549130267,-0.1554196459738894
20,-0.5957117964721795,-0.004491118760718032,0.5637758441941456,-1.075824896701731,-1.0383196775321486,-0.3857755289618885
30,-0.5901947405954137,0.0031478275165618902,0.573545087828091,0.6366103023901597,-0.4040678008638572,0.21534911813907742
40,-0.5771064633202615,0.01949919393104608,0.5861265319145839,3.9058520752590384,2.4741910468656854,2.376204236040769
50,-0.5409605299747792,0.06004251662346893,0.6256868418599298,1.070906211809393,0.6228758475277292,-0.12899640822785352
60,-0.600218316241852,-0.0064938241015835675,0.5623454776440359,-3.582392251913083,-1.8125097980962306,-3.5159034373403464
70,-0.5926811459933655,-0.0037523794579467423,0.5621459685868686,1.3586760253008205,1.1676735615327865,1.5198719131578158
80,-0.5959383827618209,0.004645960389190877,0.566001208599175,-2.1369493344241124,-1.5720482495950758,-1.0379743868425535
90,-0.6100866366926307,-0.020667510606039285,0.5507668463034651,-0.9748837675863324,-1.0894088709255236,-0.4976418980951023
100,-0.5810063259006174,0.01833093643233747,0.5764542671036712,1.5114954476782163,1.7852816937409361,1.87535789273695
110,-0.5763032250363571,0.02108958659521844,0.586326788319115,-3.430690739581392,-0.7354007040565272,-1.5178545114149808
120,-0.6220091574454172,-0.0270485810902697,0.542810411989599,0.671858186425699,1.155527293815879,0.9543033338095994
130,-0.5783266657609917,0.018503565179247793,0.5876560893043574,0.14688555946936455,-0.9794212579630884,-0.6352487269207063
140,-0.578573793335724,0.01529542059590423,0.5829709485218949,2.875156693776383,2.736899850724517,2.799475788101934
150,-0.5619257494146761,0.0385262713521073,0.602890898600562,-0.398991394557323,0.01714555120096939,-0.4506769576151287
160,-0.5522243688842585,0.045771297468008385,0.6095040069659424,-2.336733705700952,0.22390401419034187,-0.5195676329296197
170,-0.5929026738068096,0.0004629524649709012,0.5739845573759332,2.577191845260171,3.154219539835155,2.8707553668597097
180,-0.603416246612396,-0.011182246982514629,0.5595936233004486,2.472485685246921,0.1983328176094724,2.1040618503461825
190,-0.5833276386661187,0.02331070690053393,0.5748986968036743,-2.810913616657969,-1.633019449608185,0.5388604820624057
200,-0.6072864839601413,-0.0022637727392517248,0.5533058632427047,-1.2268427358198377,-2.389920000336762,-1.6381792606312595
210,-0.5927041112297815,-0.0005778204544955572,0.5629270961122739,3.345879503755836,-0.14665952350159434,-0.2339434932377773
220,-0.5933636799511577,-0.002110732604420029,0.5755514156406921,13.251614976891627,-1.0895687339989915,-1.2848078211807503
230,-0.56512437449425,0.03504741459872293,0.5990506410408752,6.425497204596653,-3.7233628215078367,-5.488166662705757
240,-0.593309278999448,0.0108533033926967,0.5806881204932292,3.7079511984768683,-3.1880276577279685,-3.2699883334331776
250,-0.584810735848719,0.014371388250540709,0.5872122389655248,6.6690097224474645,-0.37874861425165496,0.93856627458
260,-0.5843315213480526,-0.007066421455433314,0.5859283983910912,17.508804229607982,-3.2540375455625687,-0.9826858333671591
270,-0.6112548916700504,-0.01198275836497918,0.5959816299540985,20.641989232208147,-5.090835173592858,-3.275165888014012
280,-0.5701592507042137,0.03498493919588824,0.6458671347055792,1.6940441288427277,-16.26015829525196,8.406626309936188
290,-0.5828024157163305,-0.018160982525377116,0.5538381078413473,-17.152373520687846,-20.605235959519202,5.15834697125234
300,-0.47780457753390043,0.01044746387280572,0.5549209104052533,-8.142114800650926,-14.18300679110592,-0.4241314037041932
310,-0.5542204933988542,-0.056546221972401084,0.536342859397196,-6.908961069814421,-14.589995385875481,-10.220858749978923
320,-0.5759450799986477,0.026687061092108846,0.5540958326174,-3.6220600954595756,-8.937696194335476,-10.98712072359994
330,-0.5683882971267478,0.031017953084073232,0.5822805243393968,-11.101008341485162,-5.69753749220635,-3.508994105224419
340,-0.5741111158233639,-0.06251917545716121,0.5835227361825363,-14.209523266222876,-11.564572644106432,-7.352738746254243
350,-0.6066453236424015,-0.027633707245408385,0.5386708337506432,1.6724088025764172,-13.053677023224461,-10.068432641107288
360,-0.5687259717302073,-0.012381191971534318,0.578755132538247,3.19690093853258,-11.622668804187711,-6.835907479844882
370,-0.5665541017835374,0.016169013587747718,0.5209215913090653,-3.2361099830461915,-6.2173747585238175,-3.0033687101146262
380,-0.5792640206106286,-0.0028802081166513505,0.536031297402503,-5.822084090617317,-2.607623350159286,-3.7648959255990397
390,-0.628234903164078,-0.03296257677618271,0.5907950747556148,-7.4724973652163165,-9.350089850278405,-6.333203118965289
400,-0.5919994325786762,-0.054828652588452084,0.556151581519268,-0.9488043703873454,-10.105626439951545,-10.134055532402488
410,-0.5577357287342746,-0.015959532225419244,0.6022431114446378,-2.919840240953813,-7.639313901217667,-5.8382220685936765
420,-0.5736071147142657,-0.02342623983053009,0.5969096034396344,-4.145424817089957,-4.68855570954985,-0.20931672267365853
430,-0.5701812667438724,-0.027864041955800938,0.5799633255129901,6.7765398216877895,-8.23780445831928,-0.12782678229309535
440,-0.5461245720789327,0.04076931330161342,0.5842108989637186,-6.534282817768779,-5.838206605249749,-2.7702416097559537
450,-0.5575212005727372,-0.0042691759112856035,0.5936834374944754,-33.38931623474056,-0.156530373932525,3.75847378912301
460,-0.5807160231941983,-0.02784484619247462,0.5858784244992519,-29.38414620524324,1.4886153331863716,1.7608233554400234
470,-0.5949649617209386,-0.011597004416280834,0.5481617531124188,-22.336557623795542,3.857156108305548,-0.29779665025420554
480,-0.6090524054435045,-0.005673474486353457,0.5558803994353497,-18.288255020978543,7.049308006625543,-0.11682291071555584
490,-0.5666969861848661,-0.019966862703557263,0.5370689956419118,-13.08369741199712,18.062543381915503,5.176391735179157
500,-0.5603999923204243,-0.02967293419981602,0.5486488927758425,9.007253141236287,19.2464518642553,7.081872121912943
510,-0.5552652964672633,-0.02468151161021645,0.6354463699083746,32.5135778704242,12.20737321230427,5.094370244115707
520,-0.6438585075421558,-0.020745307025991068,0.5084612729122737,21.977337121777968,14.039036354478116,2.9010372531078907
530,-0.5687900817471114,0.0036767059944476776,0.6143059643753764,15.430016176923498,13.116911472225958,-1.827511674964911
540,-0.5817993184710778,-0.012815168814024855,0.5828958945561161,12.69987763589243,8.56764323494833,-1.8539208345932494
550,-0.6136996365094697,-0.03140432072551757,0.5582318858910759,14.390531748050817,10.7170002585687,6.812308966122421
560,-0.6097056096402519,0.01799830946666698,0.5738130478615489,9.998405379503177,6.759557434525865,4.684638694715067
570,-0.7031171564241527,0.04162258351102045,0.45083966816532484,6.398650062346733,12.20863306354234,5.059504484402535
580,-0.6413919153022194,0.0647299945748249,0.5074616836743565,-2.80997434412412,14.69962478638432,5.943501021534977
590,-0.45553840911395865,-0.0648702493045845,0.8009771521290237,-2.6094494055931263,11.701079805068144,6.2368383185448995
600,-0.5766099461357372,0.02458638703530059,0.5767950970550324,-3.0053265794011668,3.4532844763671813,-3.765991440727354
610,-0.6868123178638394,0.028605639754099424,0.42058808908574463,2.762370674373262,10.083668200941647,4.008599509154691
620,-0.6691455648364151,0.001533292088694814,0.4943586000763555,10.330861541261893,7.199601776639493,2.0435709446496393
630,-0.5591957329919385,0.02879244097401839,0.6061690849282887,16.809656088066742,4.096582485732023,2.817840133248847
640,-0.5652831518819179,0.02930644939691552,0.589992288099448,7.583137121321339,1.0660518308282443,2.9578454131858867
650,-0.602749809154886,-0.005870578881283841,0.5602985599266385,4.151606275618058,2.3861240178520298,2.7539517539735905
660,-0.5886328712851041,0.017013037951416985,0.5753330374074899,5.38219153532814,0.7522970407048407,1.7570115150664476
670,-0.5752058298949146,0.031911956319386627,0.5870231681514785,1.074687362172713,-1.8694302701705197,-1.5519047121075793
680,-0.5777673314445746,0.03142389655555736,0.5814225172568601,6.097087022715829,2.662015301454099,2.671951130460519
690,-0.5615180696516534,0.048187822547948456,0.5953151934753859,2.0154082304084087,-1.3974741675402262,-0.9980192140769857
700,-0.5951050191867723,0.02238541533532528,0.5671583319918492,-0.549827611363664,-1.2366396382997447,-0.8358918144170975
710,-0.6078573508706788,0.002084040304827818,0.5554928015190727,-2.8054409917561127,0.5305673539455907,1.1401786506042808
720,-0.5768285090681023,0.028744840390859845,0.5769110038895919,-3.1360376356501596,-4.607494179922009,-3.4938276930873697
730,-0.6070291007517208,0.0013086642053718525,0.5547000347259683,-1.2442550386210662,-2.1318362231079657,-2.095390601589506
740,-0.587042741989949,0.02025863873761975,0.5709739145882577,0.13019948948931948,-0.5390176559560999,-0.665146468755305
750,-0.5983829537003796,0.01159881395200641,0.5667459974163044,1.17453760603496,3.115189273261235,2.945143450859028
760,-0.5698239906376229,0.0375788989566624,0.5923427939503761,5.632195990045551,1.5267746132442084,1.7371046679974091
770,-0.5828884715704158,0.027534964441327886,0.5746767143668082,5.917327122176293,2.3740765055226296,2.2665623241222854
780,-0.6040448756130454,0.009149100489450274,0.5563182157731892,-0.9755281998984611,1.0682789336437506,-0.14216596932579106
790,-0.5787224239691097,0.02819989475555852,0.5794052451068495,-3.9912534768468215,1.605801808574352,0.893392037982844
800,-0.6026597636014517,-0.00888297039853236,0.5557186381394754,-1.4012204856609598,1.2369878234440013,2.107641318449497
810,-0.6004220677850496,0.003359796716339059,0.5498378234150999,0.588299147172167,1.7557899513442423,5.1051312897880905
820,-0.6063822586534169,0.004467404720208375,0.5587264137855448,-2.89050988386229,-1.1627840754007406,1.152300835184171
830,-0.5752360793878939,0.03698920015883876,0.5889825791585139,1.8460718358769432,1.988641813968381,0.6795126728863501
840,-0.573029368795214,0.03496244739145694,0.5921778418678216,-0.9267020779750036,-0.5175914080332531,-2.2080544236999566
850,-0.5847219277934609,0.024578776563342196,0.5792801811813456,-0.8097768685251285,-1.6898486777883117,-3.4107162951751384
860,-0.5882686343707857,0.02776352951293778,0.5717308338152038,1.5560337494872214,3.0196187524199507,0.8941800956665209
870,-0.6045736408016901,0.002508172401499413,0.5529870493389754,-2.1260187011248743,2.0949647028267995,0.2601507824280933
880,-0.5852083202302304,0.019905361192423778,0.5753146390367805,-4.750863264703984,-0.942134783829891,-1.5949417630837344
890,-0.5841964071783933,0.021652673448320253,0.5771147833145649,-3.4847855050898153,0.4558676696576561,-0.5660088993021806
900,-0.5920184243356906,0.009674350962513376,0.5675503089596702,-7.421869319748531,-1.352946458649002,-2.396414611796114
910,-0.5600090707699666,0.03786481351588309,0.601815070736186,-3.4818037649235682,0.2789079950875386,0.10672931567834398
920,-0.616885376229188,-0.01743063785053608,0.5484032882891545,-0.3581192853571169,-1.829841577276691,-1.2600749919758039
930,-0.5955856443044432,0.011772371279781072,0.5768817202485621,3.0060646188684843,0.39062769314046286,0.05506185767080618
940,-0.5981080090444463,0.009835842004870924,0.5680723725342751,3.988659347619066,2.394838421331486,2.3212596673112817
950,-0.5998371530871051,0.00853527095664074,0.5553553218137476,-1.9324619615496348,-1.825706421708833,-1.0712434899932348
960,-0.6173673074299727,-0.013965892760892266,0.5480622556955804,-3.1128584087242577,0.36882410997522463,0.9152627862634162
970,-0.5755587958231797,0.03185760958153705,0.5851561448630684,-4.0847678607610876,-3.573202580819599,-3.849163372196725
980,-0.5681338238731416,0.03300054283679404,0.5906504947472248,2.345109093051089,1.6865250332177204,0.6528569581418335
990,-0.6200152945755342,-0.01786791140704337,0.5417031117427193,-1.3720062595193383,-1.6664705771853883,-1.5700018105188627
1000,-0.5968077512777863,0.008344665095373766,0.5684182001031703,1.234964560768743,0.7189991075800239,1.1771596837626492
1010,-0.6048516136082642,-0.002915135673178441,0.5575076310274392,0.5546724923904853,-0.10120696171448629,0.3742352735779164
1020,-0.5981859160093017,0.006970700089360012,0.5576663143691618,-1.2982760132131455,1.3950990268967787,1.1583026566521266
1030,-0.5892844617521642,0.020101378381883254,0.5712355054521784,-3.0116363646944873,0.7311501814454955,-1.1344567211596288
1040,-0.5784574614189263,0.02148907221676471,0.579553884750111,-2.614377146534135,-0.8044749128236517,-1.9415670105472302
1050,-0.5872416268556085,0.0138928770656098,0.5756217309806891,2.0297562149131387,2.340532759170096,2.2648201641580674
1060,-0.5688727601406256,0.030664911133497764,0.5860736041797731,2.46570251038343,2.065567268157568,2.358012173741505
1070,-0.6065483566477542,-0.0007481218160304073,0.5551578440557376,-3.1519656173947914,-2.1082434919543327,-1.958008437058469
1080,-0.6166717542415077,-0.010313295697928005,0.5460038752332158,-0.7026330410370483,0.1795362864745901,-0.2802902052247577
1090,-0.5868775204171743,0.01640744690235206,0.5701889241944421,2.4957304317016455,2.515215979802295,2.051107983906338
1100,-0.5822523487305132,0.020228700592124532,0.5787992924720828,0.18178160202218585,-0.1813440790217793,-1.1444529571569042
1110,-0.6074952207341953,-0.000908848665353363,0.5546778567233779,0.5815878696774583,1.70360534688875,1.8713260719284492
1120,-0.6217730475702401,-0.017150319425658797,0.5416616609603876,-3.666001319944902,-2.1027346649152685,-0.7047652208691406
1130,-0.6061660525406849,-0.00458027188074432,0.5563238352037414,0.30467593310041485,0.3185641839793646,0.8741410373905592
1140,-0.6002217185839576,0.005618773108532647,0.5625190608054211,-2.16480025650669,-1.2202764915805495,-1.5672969930760838
1150,-0.5696443197769401,0.035440525243912,0.5918976637344651,-1.7333841896097617,-1.171966409225433,-1.7900173866861298
1160,-0.5775134782922562,0.02691416975614211,0.5862881890333528,0.30703731704166903,0.7170134827337501,0.5560692824774481
1170,-0.6233680938671526,-0.02663497143667485,0.5400098211592581,0.2179084146768221,0.5795404118567287,0.5064981419891571
1180,-0.5838431859986217,0.022090001503718024,0.5802053827731488,-2.4429015966665673,-1.768404786472622,-2.217890740341938
1190,-0.5930281384527318,0.014364693270956547,0.5644924868736011,0.2619670004528407,0.06855952661047127,-0.7107326181300714
1200,-0.6027011658635594,-0.0015895217371971228,0.5580216688243462,0.3760790054872743,0.17739221116389414,-0.11636078370218131
1210,-0.6081008912676132,-0.010460796584253071,0.552515465891822,1.6423577487713814,0.8804863142785256,0.8544018421798169
1220,-0.5882121442593637,0.012666575695563292,0.5738941582678863,3.6432384494114034,2.6575393913618264,2.5834427130773157
1230,-0.6009480841211066,0.004020596429334116,0.5627201570900643,-1.9854165487370563,-0.4396272454867192,-0.4353798617754938
1240,-0.5934507977902926,0.007724650976536233,0.5702544647963962,-4.137944009887313,-0.5448573353650602,-0.4902649086458474
1250,-0.5800008439173581,0.018570497048544604,0.5824393249376681,-1.931654362391295,-2.5202052377568256,-0.8941100405410869
1260,-0.5906406013340587,0.010232372446766072,0.5666443158801592,4.46188134467476,1.6822049755585797,3.45725230670953
