time_ms,ax,ay,az,gx,gy,gz
0,-0.6994807939855724,0.1843206733889257,0.5869489748451981,2.0599136246136758,2.368009936198724,1.6413076539713818
10,-0.7159493263597199,0.16550526291399428,0.5735996034342543,-0.5445315008678752,0.41667602729055325,-1.6436237980795942
20,-0.7004245500268516,0.18502275282439368,0.5829092392882361,-1.5515436964646236,-0.5653170480950893,-2.568667248684302
30,-0.6897730366416728,0.1934667902344246,0.5949527365464701,-1.9467470218002951,1.846128751140176,0.3850812917704727
40,-0.7216383839937974,0.1610474418598087,0.5688504322802134,0.7307091010045412,-0.19940602072449937,-1.8568150526629479
50,-0.6977307604048388,0.1785212323189733,0.5937169304801941,0.895284109000456,0.4770746553169799,0.2623160525456269
60,-0.7262257758561725,0.15657655994226996,0.5700511672709734,0.5692887579056356,0.9003037291236207,-0.020654753377604806
70,-0.7132529083835165,0.17419965338960972,0.5814704270628431,-6.117534211503513,-4.281633837700564,-5.092905710484079
80,-0.6879058711034076,0.19513269537706918,0.6037641977738601,-3.2409971471937946,-0.8685755902446298,-0.6217000007529545
90,-0.6855175745269789,0.1858768970459806,0.6079103382954388,-3.564446444171423,-1.777437825864332,-1.7258291424168615
100,-0.6751194646113207,0.1961761428372973,0.6161065082185679,-1.2635687855393392,-1.0521574354396217,-1.5339843474818633
110,-0.7055879419960944,0.17479514084657355,0.5858246275234023,1.079570060443043,1.378596569890496,0.6950719955391989
120,-0.692535285970564,0.17799889779711556,0.6019195264464138,3.128929534313614,1.5769558381728281,3.226522796885607
130,-0.6725901404158069,0.20193352830885197,0.6160823489973775,8.031875869749323,1.1352688348120028,4.853172195307332
140,-0.6956656281117124,0.19124794819282834,0.5932109311080985,4.3846066004418525,1.0962258374657097,4.800091217635298
150,-0.6923668633696065,0.1968389559269703,0.5960361786500105,-1.8947301207659573,-1.2703236309866162,-0.5523979235174139
160,-0.7209904438784378,0.16890092796382122,0.5682413798362769,-3.276363012667655,0.2842089714097068,-1.9125418292924419
170,-0.6898063484494287,0.18545722426570013,0.6019689443846743,-5.8921952922531675,-1.8819623271541328,-5.243708699635576
180,-0.6576561402208988,0.2220320132872808,0.6333229272200389,-3.0278288402572313,-1.4278295612689467,-3.2042427409113716
190,-0.7029736421228573,0.17063553361983075,0.5886288295954775,-10.150203207201452,-1.1283716331021767,2.1405482573828163
200,-0.6957966643762593,0.17509674308571094,0.6024852998905048,-6.0617450137230415,-0.42870520115200095,2.5106441689412637
210,-0.7073740259719532,0.16679100506680591,0.5823660649252448,4.4468258928333,1.2441382321678593,2.6573007439277925
220,-0.6886796309081841,0.19671713690643433,0.5986792732758894,3.5081754294291283,3.2037127425804846,1.7505732101617795
230,-0.6965644304981387,0.17677424734361294,0.6013515785175858,4.595551833832458,3.95778382757367,-1.064897482485212
240,-0.693927145259595,0.19797300640332274,0.6094788911636932,1.5592450338258055,-0.7507212984975211,-3.8469537946843024
250,-0.6951617089007608,0.18056121245276477,0.5937960258446294,1.0825285815712695,2.4323659739132935,1.6692048755981244
260,-0.6901317133147334,0.16569918832405456,0.6122491600884996,5.076785923401437,5.100561345903815,4.758095359674308
270,-0.6884878678807088,0.1742432966197293,0.6075688534058797,14.587586182784236,11.557631552129518,9.069254057718283
280,-0.5959036424003896,0.04202853129465799,0.794222358082536,-15.919978811082082,-16.159709983852206,-9.478798441077345
290,-0.5123868503604186,0.15831031256617403,0.9499267742833227,10.280374344286251,-32.375232537557345,-28.760355873318208
300,-0.6855297454997832,0.09638161025473124,0.5959425254331124,-16.3641096721223,-29.396938394141248,-26.652468865818044
310,-0.7782647004441036,0.16514561992388707,0.4207781934865285,-60.51888589577732,-24.999388014179242,-15.389938946752967
320,-0.8177589754245675,0.27219311466693885,0.3541417402829857,-12.659960203725594,-5.701237137945089,-0.09677521275726897
330,-0.7362314770110094,0.15369071053540803,0.49260140776317757,-33.30629861733918,-18.01850741515991,-8.82771850595765
340,-0.7632049875584885,0.08469820480397272,0.5320500582900515,-45.977667894184655,-3.1584476212521304,-11.231399905719906
350,-0.9160876703402465,0.03181904337414696,0.4299829475976095,-16.690824157421403,6.181200707323261,-28.37939845999341
360,-0.7650781267487466,0.32958188011076867,0.7799855251964278,75.99307881488488,50.37602410350336,-13.089046668190463
370,-0.7539305581609369,0.2223604225399894,0.7312983132250729,38.067197843301976,67.78445172913754,5.764564940929582
380,-1.1878031783313403,0.12372135405886288,-0.20375551166595907,-27.078811077698983,26.875553744539502,13.096814681228452
390,-0.3395337249869215,0.2844695608679929,1.3666199887148542,35.154467891505824,14.55881937122508,12.840733860218059
400,-0.6020805903472585,0.12543958853374665,0.7014190018386003,3.2093125253705392,-1.012629353772776,6.004882301143928
410,-0.709182112957221,0.16946194272943407,0.5860806907946164,35.862659997421964,3.6007231985465804,6.364576966236726
420,-0.7584007099193207,0.20356078642853123,0.5421914774553164,35.511718876862055,-2.470387463347609,-2.530326727378749
430,-0.7683479552126474,0.14537632671939407,0.5156000616343372,11.917756881313352,-5.704891418563651,0.4367857444575334
440,-0.7870678281332822,0.30429531919908553,0.5095588775040992,9.70599203168939,-1.210731768270068,8.095260591630273
450,-0.8192651620330706,0.3119018834103186,0.6166210758808074,16.488741972478657,12.03398841145199,31.740271634006138
460,-0.5807072241695501,0.13752530136186025,0.5715572531426147,6.2449024728892715,5.109540159776037,28.109436748567205
470,-0.4659535485664071,0.22423799510729828,0.4501791548093213,-20.901111321948584,4.824998011998062,24.134887487599215
480,-0.8489663706039425,-0.0421354704689344,0.505919397423936,-31.969527020076164,-10.44023452513304,-15.372167563556237
490,-0.7326096143182543,-0.014932515802542635,0.5857519989386447,21.488239655545577,0.5844116449304326,-7.1660298135147515
500,-0.5798773575086315,-0.1185602396865427,0.858822073708842,32.14447624048588,-4.8262076783223185,-14.062688742520802
510,-0.8999538691641876,-0.13156586639973725,0.6095587361662415,55.59322098766377,-0.7501778883510494,-15.4857596388995
520,-0.8329019997433791,0.09389049195346827,0.6284473411265494,57.145476214677245,-2.499306932381606,-10.862959477226575
530,-0.7046633454272939,0.36845962141936195,0.5304283184155437,20.678053040999988,7.864606978572617,14.378062447810851
540,-0.7281735550412901,0.270045755906466,0.5503612510616661,4.3369468727418905,7.10708365703904,0.8607350954907863
550,-0.7390754903885992,0.2198152611140747,0.523920836381897,-7.612970477021262,1.4690413509926639,-13.73073851526064
560,-0.7413932865677116,0.19898527400532687,0.5257543372014926,-20.137924546717887,-7.285910557530409,-23.71621682497285
570,-0.7502714358617132,0.16975059019017985,0.5406797427341731,-14.779804533445448,-1.7295733282426662,-10.758103132501015
580,-0.732233394979421,0.18523286093573182,0.549669538534857,-8.10042335012486,0.8621390125080803,0.21792920732201515
590,-0.7425190394502162,0.16691324655054166,0.5393840121713583,-5.012701177612466,2.6152887424062814,4.522571038073914
600,-0.744234971455913,0.15115457570447874,0.5383909023861999,-2.71455163578538,2.3917753461334645,7.0976740382394725
610,-0.7363063029031648,0.16754425377695795,0.5475007314830584,10.997636299406143,5.1677121372729315,9.838116818146194
620,-0.7379901017549942,0.19019649101390562,0.5410881096711719,1.3053918682780994,3.957538930800096,5.382969492441758
630,-0.7532543145095725,0.16945218171892806,0.5250972573939914,-4.5386595303550195,-0.8099170632905546,-1.5017836868168755
640,-0.7414000520562293,0.1640855069348282,0.5367311097595127,-2.5799962456188217,-0.6822427000423763,-1.1821331374105601
650,-0.7201220084747135,0.18042937873638998,0.5528274516672522,5.9238490256752945,0.2769904260314284,1.0541060282570962
660,-0.7636709927407167,0.1597693803717358,0.5184755670576804,11.581896270046766,6.71291817537967,7.053604852206993
670,-0.7130831191824976,0.21334437303106096,0.5595689723466682,9.00622684439308,4.042541826603086,3.4259045126231285
680,-0.7388384272551055,0.2055340715900504,0.5320514355752309,7.635458282705629,2.512543546395774,2.357550779605395
690,-0.7490214982228759,0.18465926075931519,0.5129736121735219,8.0423343153181,2.5645580348854162,2.034104588798197
700,-0.7678908907061588,0.1685431125596572,0.5018359054971249,4.400983766113438,3.0247690345399287,2.052133928460412
710,-0.7473737045982431,0.19406434237727802,0.5232210540224622,0.9358391194590722,2.2698962368134774,-1.4616127890369561
720,-0.7190662717756371,0.18753626840927531,0.5403032040269401,-12.067681808506219,0.2131978642601181,-0.7319144125474009
730,-0.7321081819738139,0.18122802753828712,0.5345740480369419,3.026830417973697,2.452010602603303,5.3003239422882
740,-0.7491373806881166,0.17793400745984062,0.5153109625637728,8.029845586944564,2.8026602033170622,5.122717520960403
750,-0.7613821814838377,0.18799617895264242,0.5201773576698322,5.375487215394248,2.9944801777376497,5.412274370500542
760,-0.7310047888967195,0.20941277398159916,0.5392592688860015,0.39117660442584135,0.2968071943910518,1.2616131728723265
770,-0.7413320445835593,0.20383512756242664,0.5329567656716937,-4.544252281387611,-1.8905027141324036,-2.868838113658481
780,-0.7072470813223509,0.226051456526754,0.5586104895975409,-10.345990278324955,-1.5924982580000484,-2.5165057583521224
790,-0.732188582036357,0.18079339035962413,0.5502998968017131,-7.995378542028931,-1.310813941636831,-0.3431824127340918
800,-0.7476890392555144,0.16822275648685403,0.5242070896376734,2.408578009047711,1.7848503380474994,4.741970978683006
810,-0.7432139388697749,0.1976042520402254,0.5238586562806377,-0.45004217042568717,-1.2109726449706977,2.2993113300160832
820,-0.7198368110170864,0.21777473203135791,0.5577295813539151,-3.189060431277942,-3.119748240432635,-1.3012371601277548
830,-0.745852799356818,0.181845786344722,0.5345705483714217,-6.411688074725822,-5.976401748189867,-4.460444144885804
840,-0.724868477815516,0.19480991714819654,0.5534596050174894,-5.787088866184146,-6.227581770674561,-4.473223825606674
850,-0.7297698556459586,0.18938777673477963,0.5453622280838117,-3.9654984346260544,-6.52289741253404,-4.304177000895795
860,-0.7231233810123583,0.18218849942680626,0.5648554372983156,-5.310803439890872,-2.487454587233036,-1.3700806741779241
870,-0.7352609875953324,0.1692936855640854,0.5460736973986299,0.6669775183378878,0.7893419603601514,2.2644171881499298
880,-0.7274145040417122,0.1951482756816901,0.5542050393781421,1.8838242314598228,0.016104195039253533,2.1875980742169627
890,-0.7236713757414561,0.196878779970564,0.5552539525726362,2.798944788047802,-1.6588492115761055,2.319552207853331
900,-0.742032157679854,0.18218025595822382,0.534134667268385,-1.5705354725699912,-5.3622541292529595,-1.4945846453029055
910,-0.7453603943401439,0.17093316364106392,0.537969351330445,0.7759488118281516,1.3938930826595504,1.937465756643086
920,-0.7434837620342127,0.17650362063264602,0.5327501124894687,0.24920582847568418,1.4127406672803464,3.4664662480895876
930,-0.7203228854930924,0.19695032601707932,0.5658088570549274,0.01208206109388299,-0.4680464450773607,3.4207473894220266
940,-0.6903797886402061,0.22437952987754395,0.5890525202358915,3.044497245076248,-0.833097416140625,2.457398069000945
950,-0.7304610164120952,0.19924568890277702,0.5526501321247405,-1.3518968122292145,-2.6732436628456284,-2.658125823564283
960,-0.683841902296254,0.24289976816557196,0.5961312509146941,-4.234179294890251,-3.225293241850347,-4.685147479698287
970,-0.7370187862818804,0.17078704115164517,0.5349253277462813,-7.186410486575844,-4.852729647575305,-5.42008299232553
980,-0.7290053742665098,0.1891039532910079,0.5525559358974105,-0.47263136123171523,0.8785674456935728,1.8812975452538936
990,-0.7165542134094808,0.1918499893710424,0.560465411558071,-1.0175410957907847,-0.5649773796281116,1.495959267471989
1000,-0.7116059252840721,0.1995242915468267,0.5620263184292469,0.4164394274164751,-0.8818497289122361,0.9035677191577531
1010,-0.7329344901761913,0.18267916225113248,0.5441893558833109,1.7485097599216255,1.2613032307588241,0.6457199082553696
1020,-0.7495503006983767,0.1738498808679681,0.526527520842201,-1.1895917641376117,0.26158791151876953,-1.0882981234325246
1030,-0.7383841096903226,0.18114367343029916,0.5388191370954313,2.09434552911374,1.9472981537915988,0.5458768763884316
1040,-0.7580338535395347,0.16960840835923782,0.5226816601702452,1.0799068731121455,-0.3521395208421964,-0.9731598978162848
1050,-0.7167283475637891,0.2008304896171865,0.5594055930785917,-3.7708381330386915,-2.659733305383296,-3.2927633088820505
1060,-0.7375630244271054,0.17448552983279983,0.5401423767570587,-4.011514402421985,-1.2456077817080558,-1.1144038605830158
1070,-0.7524893188931696,0.1576170798608233,0.5254255153628405,-1.5600810542185592,-0.8748315908378692,-0.29081301931723147
1080,-0.7380634553210074,0.1822008742438123,0.5459981884320385,3.290730025083376,1.4890652316655124,2.344593878856731
1090,-0.7326369248435105,0.18901485407477614,0.5456946790626162,3.6424020404361817,3.3965722530611364,3.612546399616628
1100,-0.7214526098953171,0.2005781069020227,0.5551616761111169,-1.2152423658434903,0.41937065632587794,-1.131645640914504
1110,-0.7290169035121288,0.1794770505937793,0.5454326513740949,-3.1651327271194223,-1.161997058690934,-1.7580782916403241
1120,-0.735582373787125,0.172315505100697,0.546388636164577,-3.038675624132359,-2.4336539383616294,-2.2631302898535384
1130,-0.7339700414231128,0.17736055011497318,0.5489282752482407,-0.40431654755978497,-0.3411024576542603,-0.8712025087415916
1140,-0.7327584553725485,0.18794201480966288,0.5434723704639806,0.9127524202756487,0.5907191569417669,-0.47965742506083675
1150,-0.7305499317389279,0.18534539498094166,0.5491136069966198,-0.07221213783638059,-1.0000779761338918,-2.015564203743199
1160,-0.7401883925207354,0.1832930886932813,0.5392495109937072,-1.2448027777153379,-1.10282087276653,-0.9261927568657615
1170,-0.7113738438651298,0.2037050319174342,0.5656511911097108,1.0323906520723645,1.0419815747175007,2.0340499971171084
1180,-0.7263413043026865,0.18859222419722504,0.5502347170713126,0.5995890735925546,0.03883034389184632,0.4135938820630425
1190,-0.73067579487365,0.17741830701216776,0.5520687320520801,-1.2148488687429184,-1.582589940648186,-1.8513648825438636
1200,-0.7430406632273415,0.16987036071382444,0.5422706918741804,-2.305280987407938,-1.9755993748205798,-2.0076795740368536
1210,-0.7437013431122014,0.1725395193017214,0.5381468098441832,-1.770020960114536,-0.6731401462572627,-1.7937346781059738
