time_ms,ax,ay,az,gx,gy,gz
0,-0.7716447352766524,0.8110788029561317,0.541839521580498,2.9898313535397683,2.933710838582636,1.699750550830878
10,-0.758010863703989,0.8132323353774561,0.5496618916037085,-1.8056592196259886,-0.7308030992254405,-2.1259095770061833
20,-0.7713214472060874,0.7997376323218857,0.5403236270579264,-1.4544464930320804,-1.015552008239987,-0.47075141641346385
30,-0.7447874862797299,0.8327690303994615,0.5602171658329181,2.021594548337257,1.9781556724128162,2.5691917673620734
40,-0.7434317374347101,0.8365857640104039,0.5639321515384812,3.73401738997113,5.431832061396552,5.049674537252105
50,-0.7939187864898024,0.7804470462095442,0.5211653510282971,1.917677739183485,1.4653926364128735,3.1315749982393855
60,-0.7521895573382967,0.8238838719184748,0.556559253879198,-1.2199235804035746,-1.9626389303681273,-0.1134731535818696
70,-0.7751449754483463,0.8013979531166717,0.5335126092111762,3.6003232862739742,2.976768406862609,3.467071795538632
80,-0.7841899835225711,0.7872091628369114,0.52352147437983,1.5711192196409918,1.7782406965301298,0.7330688260512737
90,-0.7472824634026404,0.8270832804942861,0.5669841145434489,1.2405207588943583,1.2810741932807848,0.6475307567697826
100,-0.7652137852188474,0.813972706976753,0.5440627096119732,3.5885765222015915,3.6850713687254473,3.2834724779280635
110,-0.7662019528466402,0.8120036879988034,0.5421823279834803,0.9300996612211155,1.3260199265816732,0.19979139620426312
120,-0.7440758435377849,0.8361968628981247,0.5649697918591743,-1.8441750808889783,-0.7731025060854613,-2.4532707995988865
130,-0.7603716673198332,0.8172460459883535,0.5490102125896382,-0.9452724909960173,-0.7096103378743921,-1.7715551410106625
140,-0.7635171403276487,0.8090795729220412,0.5446815686507539,-2.313540700861628,-2.2678199642741808,-2.3954541650599603
150,-0.7594059608979986,0.814543511354567,0.5492103614704187,4.0779458999871885,3.6793568504602487,2.830782774615514
160,-0.7476857449140429,0.8379229094979327,0.5614198676937182,7.441953370686721,6.262989701225256,1.1006764076006395
170,-0.7701155661606754,0.8215268382228732,0.5434096712258675,4.605278758050137,4.04489079957831,-3.363902747138175
180,-0.7715905309798011,0.8110187828122423,0.5483719505931444,-1.0442859616278015,1.6294158251740245,-4.801521097012152
190,-0.7822337853436775,0.8026862990666025,0.5320042066467094,2.4202809839193407,5.236611674487189,2.5460598134177417
200,-0.7730858957757681,0.8169983427037967,0.5333964482867944,-1.1195829629045113,0.23022389718504144,2.4747561899905755
210,-0.772863206719813,0.8363836392517325,0.5541975424914497,-10.877779995677818,-9.144479517630813,7.714368408932297
220,-0.7648019637986481,0.883876994320424,0.5899388437705537,-31.553021031632355,-26.354263951415493,34.73373326845716
230,-0.7971738446750076,0.8975108032790995,0.7235973744303245,-46.10464406956432,-49.414159217030814,53.93552921991961
240,-1.0350313980834387,0.7707178262776629,0.8796339588630917,-35.94593660828594,-81.6782796228079,48.30014162131366
250,-1.088068367548724,0.7265325687411033,0.8175327412389481,-15.744983472537218,-124.52396041270639,42.399413145298944
260,-0.8042999212618487,0.7072530078375212,0.735227832590315,-9.375386374994383,-151.38878356903606,35.208302701956725
270,-0.5375009694789088,0.8237805866958459,0.5880448458653434,-16.53774578417555,-88.451437380627,-1.1009367230968394
280,-0.5145133421268496,1.0690007472711798,0.44820925761665287,-13.198753159611947,17.667942974800752,-29.300140677735484
290,-0.7529108384937322,1.0081844092513552,0.5676647427839148,-16.569811994315224,39.081123770367,-24.665018398542152
300,-0.8841285862189434,0.870550104060126,0.6116138409778314,-21.792458438322587,43.86942208944456,-26.60324633375111
310,-0.8866950459047627,0.8369031618177786,0.6010287625212908,-21.389963496122203,37.38439773487935,-30.551748927468275
320,-0.833473554969794,0.7746547601881862,0.5936449013709176,-14.434281005360464,32.77609998052274,-21.790889386476916
330,-0.7609065864303264,0.7852805413355777,0.5710934244773852,5.508742066394362,14.948341412845945,-6.5074618799672574
340,-0.6262269434577911,0.9032607526329133,0.6196103472334494,18.02018421080114,10.98067544795351,3.1893440300636855
350,-0.6287427497323449,0.8980052157708467,0.6503580362535273,9.929095788146487,22.525598802957518,-5.946432009144323
360,-0.7532746103946276,0.869125870946043,0.6721671033782928,-4.493934587261327,20.401249087075765,-23.38039001112847
370,-0.8285014866760939,0.8784117257023094,0.6381101215279391,-2.8625858493741685,13.047138604323148,-35.29012984866763
380,-0.7577408745619202,0.8816901708192239,0.6826322438072427,0.14584135656891756,13.68998931838942,-34.44861674251728
390,-0.7701945450803587,0.7288357766990486,0.7567197298069115,4.794533209041438,9.85261661251792,-0.6894182149721767
400,-0.7129661852208383,0.5938446892234153,0.8486206906656273,-5.249103965269527,-16.164837680891345,-13.13634841574174
410,-0.7339189804708861,0.978675575109849,0.6520979321979219,8.026962867965432,-31.846866286097335,-37.92738867966
420,-0.5039949977672434,0.9452258321108603,0.7854825415565951,52.11650700142513,-43.1782171374356,-55.61725089484516
430,-0.4851483839486153,1.1958159737668266,0.2745177924792833,100.07180161175849,-45.333042232492346,-52.370384200384294
440,-0.7807060549009575,1.0091521855826369,0.35794463801845067,30.675654288304028,-24.426331371573976,-33.25893852689426
450,-0.7858779380948926,0.8178967117286426,0.6289746146552925,-5.151249939617314,-0.9407404396491423,-12.083675915547666
460,-0.784183277864358,0.810827871814511,0.6180929378361725,3.9566995933202866,13.708998685440278,-1.980812850726395
470,-0.7521743317084129,0.7927700582316805,0.6267036526098004,4.131288798435013,13.011659512164528,-0.8944054326762375
480,-0.7253012081432063,0.8237502225221469,0.6625384534547227,-4.691779634879838,-4.42753162578623,-8.897000362459547
490,-0.7450682364745979,0.774971318352022,0.6140885763515649,-5.987952318985862,-15.687797795822485,-9.496944748730945
500,-0.7332439332563854,0.8137846964662651,0.5897699880743483,-9.402840073487834,-14.42539809215217,-10.143306527949001
510,-0.8459835451469758,0.8079208680249766,0.18431675937186662,20.140087335580823,28.061946059446655,9.880941664408468
520,-0.6437894939407788,0.840037791087455,1.3313297236486905,6.145066452141717,41.691219036461376,5.954681568567827
530,-0.7922733555991369,0.9159635656593077,0.10161594803742274,37.49979292063057,52.636745289291824,28.142626807772597
540,-0.8646065096709609,0.41022901424215447,-0.17507829831196003,98.98242182322434,51.92247547502469,25.237012475349548
550,-0.7997944224115576,0.7749784404457714,0.8611237194577246,6.884656393396939,55.75876632104704,32.41152379678484
560,-0.8487461331996075,0.6226297859200486,0.852848244144912,23.2079217285731,63.66185942343465,21.7495358796497
570,-0.7695406357836791,0.7793009079789224,0.24388528632693493,13.90632178317298,38.52034145738015,24.36378750154817
580,-0.7948927445751534,0.7637020577551473,0.1005843139198718,5.118355351035768,25.182376567445655,6.789634181899273
590,-0.6061865872220048,0.7978862516528631,1.2029145414776643,40.82835816889417,10.030547031282849,-2.0384303055415764
600,-0.6923534162853302,0.6935096382069954,0.9433484302346652,-11.556885263255738,7.223039766721316,3.2540230280945277
610,-0.7011566814039109,0.8542514892620685,0.637482736341042,-10.995333124049942,0.8078028912369104,-4.027449474679567
620,-0.7011682810510603,0.8012027822483004,0.6621017327757125,-6.383267182264559,-0.13422124423702697,-5.065911082078024
630,-0.7118989777544185,0.9196363748415564,0.5890854971046943,-30.34816692188176,-0.43451408788008933,-0.42827479981495725
640,-0.7274619078682146,1.0330597532520311,0.5231836629885532,-32.25892777544384,-10.943018162032972,10.421360404420842
650,-0.7479022117617494,0.688916011962734,0.4117813741680921,-83.8797741384789,-1.3029198931813086,31.087775133121045
660,-0.6067620136672687,1.3419046333028193,0.34657772667651493,-52.29479555042055,15.182301505680268,68.49891953293891
670,-0.771249672844645,1.1179512880351623,0.6185884590789501,6.762317307614146,4.5024185258013585,39.64548930405856
680,-0.7957917695414324,1.0049524114029034,0.2931167284388854,22.754484284188784,9.679536288031848,25.423920320096705
690,-0.7497275040206864,0.7305320937380257,0.586525165531172,30.024190301564904,13.060448351825741,22.581364812994607
700,-0.7490427788524446,0.7559721866254713,0.6282234169924336,45.51022243305047,26.599516719715457,10.360400852489057
710,-0.7409510573874435,0.7938790134362229,0.6562433180042473,53.247795742804264,29.319799672486223,-9.245508078853128
720,-0.9780644647380761,0.3828220599616596,0.34366515708362017,46.0990303294641,25.47101940442383,-24.9225653088246
730,-1.0658896357472472,0.29152555113233886,0.43189045323544534,46.38289481869621,12.08852033933864,-55.0505133976754
740,-0.8752820737418862,0.6750076018200768,0.6911675135883806,-25.965908843908085,-5.359539430418341,-70.11845280395147
750,-0.758745816684794,1.0802806865457473,0.709809273602882,7.431794064439562,-0.8763927433717411,-24.501183597430437
760,-0.7069529155779939,1.0906797192036164,0.606524971082507,-6.842241270690682,0.41876836719593163,-12.682164397141412
770,-0.770347278325166,0.834779130764662,0.5449473942148001,-4.80762146905463,3.086540088396292,-12.786035021718483
780,-0.7723516185646435,0.8141820640438358,0.5509132942020571,-12.43580834660915,-0.2772637938643412,-14.641845948936098
790,-0.7605599293782359,0.7860818580621147,0.5672522010424438,-11.033573779609387,-3.8397102325679766,-3.7112531252235597
800,-0.758384650231852,0.7665690866638563,0.5697227786558536,-6.218626623284978,-4.246808697196014,4.380388491188218
810,-0.7558113102950835,0.7925106324446093,0.5811552096085633,-0.10864914625156308,0.2858316349923402,1.1792668763922527
820,-0.7763425856015804,0.772076475175762,0.5552139416717976,6.251704841854165,5.083411149649894,1.54475406109225
830,-0.7761305041962703,0.7714101075774261,0.5490997395975484,5.889474858492572,1.9631734495711188,-0.6321276272271915
840,-0.7820617825196544,0.7675226650851751,0.542794762426374,6.669883227107391,2.8212746339537498,3.237051844308529
850,-0.7554424287806981,0.7977091615998165,0.5682286252146059,6.617441521099261,0.05730738733786045,4.690413211279772
860,-0.7832992730185433,0.7724616079242017,0.5392024097562461,0.49993405424198656,-4.359365022887108,-2.862176644747963
870,-0.7641628733811253,0.7882535731679255,0.5605913948475096,-1.3704766584885224,-1.4346296163542736,-6.623033288194499
880,-0.7469151749854623,0.8024215711983222,0.5760771474101113,0.7199519086328521,-0.5258420323532991,-3.5230648409387224
890,-0.7441921585455658,0.8053454781122084,0.574000298684429,6.451005513403334,4.610241756273796,4.520601649884353
900,-0.77289207472281,0.7790119070325753,0.5460282662126638,3.411816419135313,3.621015138626904,4.85430714721235
910,-0.7844929707525129,0.7629451401542254,0.5290674579898127,1.9042735051845772,5.127717428144445,5.302095803528002
920,-0.7732007777693445,0.7742012496248203,0.545837733607443,-2.9651221936570322,8.958469435978408,-0.00727081651245938
930,-0.7883162821723992,0.7777810625825483,0.5377476570526307,-12.087233567800823,10.478484784767785,-5.62687154556159
940,-0.7696626608960526,0.7739261347704726,0.5389435435951486,-13.28151426370489,11.931594851883354,-2.811596500111318
950,-0.7805045676209516,0.7315006193985347,0.5132080736836137,-11.77451010361887,15.60438527328209,6.473981232218256
960,-0.7702371769608056,0.7718679678716106,0.5456236082241729,-16.32613570722341,14.344163146197092,9.186548662121083
970,-0.7830182984951858,0.771529512071373,0.5327902689232827,-15.063374285084194,19.352584747375452,9.639448880109965
980,-0.7710756017349548,0.7860900933150619,0.5361470164090165,-51.67833131092293,17.77989726509417,-6.951379125135396
990,-0.7418094277158751,0.7950156848202542,0.5632138701124663,-68.90895915787004,16.158352763193633,-9.528212598183062
1000,-0.7608979556003577,0.7549423491791954,0.5332573434640204,-58.05064799627801,15.304280835516664,5.752824390961425
1010,-0.7826590633913766,0.7362491222615751,0.511309097670059,-45.94749925944238,8.675618226286174,18.162821794528778
1020,-0.7814159458000401,0.7610274307311057,0.5141414281599529,-30.857427436415456,4.738580690013982,26.898129165747733
1030,-0.7650334269008657,0.8116798620824458,0.5258603730620733,-26.303580668755732,1.0579018560828881,23.112433689459284
1040,-0.7508535591620371,0.8006159723607443,0.5469025537434159,-20.815099384772203,-6.842862077803831,2.408146365486381
1050,-0.7669316075205457,0.7692046790163051,0.5304408961502373,-8.529256806332986,-7.320038126529916,2.738125506028531
1060,-0.79025684203251,0.7488322466641535,0.5139308808879586,0.3376955367943064,-6.015047435873011,9.875444192287311
1070,-0.7610840123539042,0.7840620724898821,0.5496620846907048,1.9405443602313728,-7.918153758658525,12.991890833836683
1080,-0.7798392728276803,0.7664319018741509,0.5336206537477889,8.456346909768175,-5.386503435490045,19.302551664954954
1090,-0.7619993954120243,0.7862946735479266,0.5477824324079318,9.016076671754638,-8.07542390663036,17.090584381231334
1100,-0.7767146368214045,0.7783209611557174,0.5319082258263332,4.033692163570354,-5.649295693545611,3.3455985936313675
1110,-0.7584080316648849,0.7983424995128346,0.5571460838490536,2.8293410993142074,-8.536663888376554,1.359194263392863
1120,-0.7581107523316315,0.7950306024321331,0.5460793368339611,9.15420994892801,-5.682919168493399,10.064388057001821
1130,-0.7566561463273487,0.8187290723285707,0.556176372918141,0.7102399137754234,-12.786280404413077,6.434525366711444
1140,-0.7620468437133936,0.81763010860436,0.5576400016355108,1.7227883312305041,-7.4302304710614,9.3653611940634
1150,-0.7489773671771869,0.8148706103423105,0.5652442891040891,1.2394353812407357,-5.657732150871393,4.787799752690452
1160,-0.7506800674835881,0.8055042475552261,0.5695834103419168,1.248092701402952,-0.02507658548519065,6.678093300606207
1170,-0.7447488465831735,0.8170922984793685,0.5736515990522646,-0.31748891171205873,-3.1934055233048486,7.205756958986705
1180,-0.7836427876379989,0.791126736171022,0.53237069479526,0.9880985029687326,-1.556696176032969,9.58761188924571
1190,-0.7298060120210027,0.8412508189041153,0.5828645349971666,1.0093023097968636,-4.682379926521557,4.3373337672715095
1200,-0.7448496136037521,0.8277071194929605,0.56847634925929,1.4440480763408288,-2.6157891167601073,1.1752563175455721
1210,-0.7569681825790021,0.8137045107697093,0.5648642390984148,-0.5677033480623315,-3.059243057770452,-1.8035873085867467
1220,-0.774144842937438,0.7903428996006217,0.5416236324132309,5.650920805267532,2.547536153250951,6.299722879201752
1230,-0.7385339714735236,0.8321976418969181,0.5801915234864897,4.2155493508718545,1.1191075876816958,6.232688153632426
1240,-0.764142648154277,0.802998757930046,0.5495201518856785,1.205374846697139,-1.9842351603829373,3.813081189885621
1250,-0.7473712231834297,0.8247182853793524,0.5737676894955395,0.2282349922381699,-1.5680409117891065,4.7495736386303875
1260,-0.766582476327575,0.8096390458464716,0.5525154035489309,1.7444497438126747,0.3136817858051417,5.196377357192152
1270,-0.7923982903564437,0.7811714302593449,0.5239677047119871,3.6727633794646826,0.9267097130587442,2.7257085078496877
1280,-0.7611742862380085,0.8046472066087615,0.5519545624452435,2.4662744418987383,-0.6035536552166536,-0.59136325887009
1290,-0.7708859012962286,0.8090335152184995,0.551807308088191,1.9590057810877786,-1.9703838876730508,-0.8479875567916004
1300,-0.7490055329756868,0.8246705394619624,0.5709877935816232,-0.7825326500372595,-3.0881376431211724,-1.2638809270158817
1310,-0.7439913025233564,0.8213319892658448,0.5755832035855524,-0.5119746186180422,-2.2135742592025034,0.5489516332110331
1320,-0.7575168809190301,0.7868095270098449,0.560865463156466,-0.8620335840406641,-0.3823326952073214,2.296070476773614
1330,-0.759186026501906,0.8187312319535062,0.5617491997391036,-1.8483547917331045,-1.9557651352199414,-0.20724788440120373
1340,-0.7381118633846188,0.8335034702960615,0.5796356373123738,-4.193729599890654,-3.937243764502074,-5.325414845448166
1350,-0.7487942398591656,0.8134249137598386,0.5622228738114441,-1.657163142930615,-1.5101117546253198,-2.1155581099112952
1360,-0.7742953864791211,0.7917222613638322,0.539442805210059,1.2327553830950557,0.8963031109995694,2.0319720736120375
1370,-0.7493422163542709,0.8195592150235971,0.5704644392609136,-0.2290356575570081,-0.8386614443243963,1.0858078932076893
1380,-0.7434325603310972,0.8272716342867203,0.5724940534925521,-0.33993509771476893,-0.6317983302157855,0.8675109841746633
1390,-0.754678418492602,0.8125182287354367,0.5601206090854665,-2.00669702849661,-3.167474315552611,-2.0384135191527917
1400,-0.749623173685039,0.8081231268216899,0.5535416728051961,4.676479084557415,0.54867281811238,1.8443530529336
1410,-0.7472512485799191,0.8236936000803573,0.5688154818390689,2.214354191327418,1.6785121853168763,2.420129864586351
1420,-0.7606275022341751,0.8138894933712146,0.5582138921034782,0.20296696729620833,-0.34414635072596433,1.3559414334781477
1430,-0.7710943265728443,0.8034244660063028,0.5485871124468117,1.3674596199310296,1.4167286027408394,3.272838562771887
1440,-0.7761740664726278,0.8041063794668454,0.5452531207425911,4.828691302111617,4.552526218403734,7.230165089793754
1450,-0.7295786904533382,0.8544071354455286,0.5868977577185518,-1.3741748496172679,-3.1368206120075435,-0.8930142029646062
1460,-0.7538476530849503,0.8261304857406976,0.5622257138397748,-0.05092778259023656,-2.0732394774275225,-1.499278785384555
1470,-0.7240103146512256,0.8480463749338857,0.5941237418471857,0.3082032300017024,-2.1610890565738177,-1.7373925347727472
1480,-0.7498914045209809,0.821968668893284,0.5704189218488445,0.9481298834216072,-1.3141923297188765,-0.5980764363511364
1490,-0.7928510192281696,0.7772736250662375,0.5309522860472934,0.7148490521023648,-0.1819757465532269,0.7250997523758048
1500,-0.7594426011192487,0.8120108077339869,0.5616272241847696,0.5308913504726913,0.11413850859250296,1.3326090111697741
1510,-0.7503013653676213,0.8276643256278635,0.5682294111744606,3.6368775840261334,3.5063527374819854,4.162386273567506
1520,-0.7506407624226819,0.8340892525298644,0.5677710920319988,2.8564886187423593,2.3543385800450918,2.3924475950677215
1530,-0.7541861705330657,0.8282498464307169,0.5655474885004945,3.80631164650673,2.464845596418179,2.8522783193588572
1540,-0.7484291362085629,0.828560133592508,0.5667002326316671,-0.753891837955649,-1.966962246483297,-1.0776676586169847
1550,-0.7698266775719983,0.8037776090662767,0.5412469286813605,-0.6125499976365208,-0.9733289928146939,-0.23463667598196525
1560,-0.765904365337735,0.8081445349262568,0.5505553312890751,0.7782279311664182,1.524906892258692,1.2428685198539853
1570,-0.7686030142204342,0.8074040452298352,0.547054637238897,-1.9653331836052441,-1.161013893172111,-1.618092954869725
1580,-0.7767579162276353,0.8030009570986008,0.5399206052897908,1.5533870683855295,1.0659017417745211,1.337637306747463
1590,-0.7481088013796764,0.8338040232719939,0.5661099677011355,-0.009632074045406197,-0.6362878099965723,-0.1942886546504058
1600,-0.7806929621689853,0.7993565739585347,0.5316225101664356,0.1409605714041453,-0.2257437183433444,0.0542783810271833
1610,-0.7598465018894767,0.8131861336156175,0.5545195969924386,-1.1144501305721701,-0.23334854163608632,-1.1123638202326367
1620,-0.7540310168914157,0.8157465620313219,0.5651969751787406,-3.25894672310098,-2.66673545612454,-3.660059250563609
1630,-0.7655184308958782,0.8068368793142675,0.5566434384896829,1.1813014678480194,1.1074888631802884,1.407342289112412
1640,-0.7913375567700084,0.7907733752541484,0.5301387984437594,-1.5225085749902216,-1.5065207347239773,-0.8501842657028214
1650,-0.7724332615754881,0.8058775797108637,0.5408202296514688,1.2433665281246016,1.234732833888449,1.3201213589653111
1660,-0.7519570882428653,0.8246400799151917,0.5633344707145886,0.8306770470157111,0.9966628669173268,0.8109119109373859
1670,-0.7558844701922505,0.82132088685634,0.5613117626910159,2.7918715788333888,3.4653903259274026,3.3125643909199276
1680,-0.7613361342039483,0.8190941578873797,0.5552647970253708,-0.6293193295639129,-0.2846284741604507,-0.17990763132789017
1690,-0.7515711396470088,0.8205564031729354,0.5660560576416592,-1.5210624233260852,-0.99691783651332,-1.3802642166509282
1700,-0.777392912658429,0.8002703541634716,0.5441295477954137,1.5275082172496008,1.7179379840630011,1.9120999657311588
1710,-0.7377580266062206,0.8395822554645738,0.5862199306460018,0.9685767322652792,1.3019633087903482,2.0116466150661387
1720,-0.7739023495675244,0.80318880230492,0.5441975266413696,0.737159877231033,0.03401927796398674,0.9967942662504616
1730,-0.7597717090702194,0.8204445537561306,0.555986393044828,2.525454557168672,2.080102910653639,2.3581008459029205
1740,-0.7534619619659926,0.8273712756175892,0.5626179419564278,-1.032029598867952,-1.5529477391961881,-2.116289601919254
1750,-0.7675099665846493,0.8103023568120978,0.5498215884751072,-0.8627183554630562,0.5165944644749849,0.09485214719220209
1760,-0.7668496618616648,0.8118705366586997,0.5576655726298191,-2.1404488715207144,-1.5337077910071588,-1.384205917395794
1770,-0.7197019092327984,0.8554457276571624,0.6015962981749711,-3.1468416176341547,-1.8441947292086884,-1.4798900282459906
1780,-0.7634210550459638,0.8125408513606573,0.5566270483980942,-1.4440634170579207,-1.4350886457779064,-0.4221821090237555
1790,-0.777890055659871,0.7977204758999796,0.543297634135629,-1.5769354749656876,-1.3045861418448603,0.44156176216220544
1800,-0.7525408194620907,0.8301534521700072,0.5706563227560875,0.6896633688791902,0.9054294753113029,1.755355507973821
1810,-0.7454141270745774,0.8301442860038429,0.5678097890174579,-2.1490051257950253,-1.745096779800066,-1.4249663811098825
