time_ms,ax,ay,az,gx,gy,gz
0,-0.6236275129653465,0.028895745150540404,0.4778185604620074,-2.3350552378435085,0.27624257683309195,-1.675418031461179
10,-0.636005301283494,0.01632004848326236,0.4612281512429376,-3.304041921730095,-2.05368644431314,-2.9313465040888107
20,-0.6279485727350278,0.028678633089354724,0.47115399153739257,1.7169363765785173,-1.6890031341656344,-0.23556001819672168
30,-0.6676701545989538,-0.002881008988807575,0.4310075705777302,6.836299175106725,1.7770496296906901,4.646668102438751
40,-0.6053422841720809,0.05453939181443159,0.4933935955956842,-0.6607971295476915,0.7787444583014808,-0.9951838913647366
50,-0.653816111092846,0.004271335426154127,0.4483576398246818,-4.148327134947154,-1.0215575710532157,-3.3511819632811006
60,-0.6487339354799893,0.01136594085088041,0.4463827500890386,0.00782088270453457,0.040314848508966494,-0.43343112861245225
70,-0.625008345279152,0.03510201178818301,0.4687641909692062,3.01372283030849,0.28547776872943076,1.0148131031203786
80,-0.6219552759534676,0.03453120393383738,0.47403421268036083,3.942159774808992,1.3483033301447294,3.1877071895357276
90,-0.647328546683631,0.017449243335829916,0.44489837118142783,1.4912250018733055,-0.3155106679269606,1.1885667097453592
100,-0.6441649952718189,0.01959552513694226,0.4503073102971535,-1.82365498342516,-3.2655727481666768,-2.1516428672752053
110,-0.6317027885877805,0.030566362513016226,0.4645175443965643,-0.8197693154982473,1.3583577803270916,1.022889868826578
120,-0.643595090697412,0.02004320958933864,0.4564770034188452,-1.4763120687193096,-1.6388992691990494,-2.253073367814346
130,-0.6610895669651745,0.0017814402675692814,0.4340708534366635,-0.9113944976297171,-0.20298509913470486,-1.6566954872217683
140,-0.647033842465608,0.014221415481604084,0.4473916964072754,0.5404344110428044,0.5419898776528161,-1.0145273075116397
150,-0.6407383840069119,0.022985871580830992,0.45851178146462923,1.7875044671597107,2.256493486132263,1.3896665555129366
160,-0.6349842170585448,0.02703169881312851,0.4575096532482601,2.752593699851837,1.662078784770538,2.470641476591701
170,-0.6335455660251632,0.031844784321832534,0.4687646279373211,1.984416576922357,0.5277257733190629,1.206337446466463
180,-0.6220960185315066,0.046537715129410726,0.48544876847435964,1.9228902343345713,-1.0060292042981298,0.3210825090747562
190,-0.6929045237254301,-0.01890805547405769,0.42815829774621633,5.166660713494672,-2.0897953918097554,4.155426039904562
200,-0.6519852398252002,0.05642731853340836,0.48784241587905813,6.932737961496111,-5.74743888620765,3.4226638747739764
210,-0.6028316004041351,0.029226283751344957,0.4567248212868598,6.391935537755115,-5.438532569412649,3.288169435400584
220,-0.6989815890227786,0.04547198679346059,0.6858396851660634,9.97594143410905,-26.21109957974086,5.1457880382300685
230,-0.6303852448005163,-0.06611629904668698,0.7324070689536074,29.426586555570655,-46.53663342948012,7.386962921250347
240,-0.5532513833262368,-0.012386112453333629,0.5255226130069541,37.813502089424865,-48.57645880488803,9.99584586174105
250,-0.5039235286255385,-0.026669585980187708,0.46477766640934215,32.298480718044914,-36.50287881644417,14.253745428005912
260,-0.4372827667498318,0.032845392600300394,0.41074495151197393,10.140027713247848,-24.721981564532033,9.214480505431288
270,-0.37555571428408235,0.1410460811359917,0.47260430156139843,0.8758490776103043,-10.676634620350436,6.948703025055732
280,-0.5502429628853883,0.2093369767988973,0.48587224265022416,-23.730965636810883,2.651827736710478,11.214547860907983
290,-0.6557600078277172,0.219308102258208,0.5022903000694677,-39.323569387606845,0.7794823203843562,16.32753404462843
300,-0.6302145774662329,0.10052525839409249,0.43395304932629486,-31.656254223530965,3.948367318656949,22.947387355590223
310,-0.5886752069478826,-0.0018039598846133903,0.3851444462774724,-34.564994223749046,4.936625886871355,10.573038387977348
320,-0.5825038741761881,0.014213192435624016,0.37723567122287777,-31.10213874410858,10.332209106211312,0.699877387610398
330,-0.6132286911520834,-0.015473457004776248,0.3021277274186653,-29.806573613868157,17.105738705625562,-4.511794692237352
340,-0.7042915741671797,-0.005098511217441273,0.43905779382418697,-29.95628574436673,19.651535554188396,-5.029440488396872
350,-0.7777609296053156,-0.05069032009876946,0.5566924022357188,-22.503223085948804,14.546525028797863,-4.483949186208177
360,-0.7516529903692014,-0.07345750823688094,0.5450800788722291,-8.588316416124972,6.482671962594511,-6.480700936335869
370,-0.7331888695013169,-0.057513795600350665,0.5128188670200968,6.965255136744893,-1.564616992993562,-4.514454350751776
380,-0.6266602355890075,-0.023799375501343298,0.48442486320377726,14.771541326060744,-8.371040655019097,-1.5008512490923438
390,-0.5296830417489334,0.008125768323623335,0.4331053754477784,6.937594000065465,-7.4040344289435565,-0.9199836957007694
400,-0.5091960596942606,0.0581635806956184,0.47959458306747105,-11.623167748393088,-13.514854285619647,-4.82663257218265
410,-0.5833017692617247,0.028325774570382004,0.5020612174357596,-24.3974638169618,-19.228257295771265,-10.428843797740594
420,-0.6463648906288837,-0.022923980123552786,0.44197204511759663,-41.2804076443638,-11.448420382840277,-13.615253272142416
430,-0.6686863505787233,0.013998839626790953,0.4178404352585932,-49.04450466205906,-5.076210813853604,-9.726615225966894
440,-0.6697334745907324,-0.0024540583390218963,0.41596800095455044,-36.48776954449216,-5.245009636070004,-7.7546683787236
450,-0.6481497372332785,-0.01404004974178424,0.45212177868158904,-30.55070453623313,-8.902191574171697,-9.732668322527728
460,-0.702766974625868,0.08906571518523117,0.2077759254564689,15.822286241280253,16.983470670634908,5.743606544525846
470,-0.7731482552988345,0.21215735059779506,0.2549010598782722,109.3227030721077,67.34270663496756,43.07893615174885
480,-0.7746251560447339,0.06018437068594491,0.7931671625007823,119.65347903790611,66.40567384614975,50.22469692913579
490,-0.6701721115651691,0.0951014264010753,0.5714536067815678,93.435737187411,54.526333371298485,38.72600131150478
500,-0.6147837578702958,0.282519533065572,0.4679130981620234,77.28931322409287,36.10943519363096,37.13067022699587
510,-0.6650073847404191,-0.14246931365772633,0.16179401761601087,68.78692765748373,17.883969854025963,20.916399855271855
520,-0.5334042359486848,-0.23532406371226142,0.5322486068174113,93.96286555131753,9.264688231029737,14.80333855283818
530,-0.7743924001409717,0.022116196354738528,0.032665842284760736,22.220933718571228,-12.658633225174926,-9.644378735908308
540,-0.6540984371532967,0.03254756578451953,0.2998024070267324,-25.90987101162635,-9.226320388898412,-20.37415073568894
550,-0.5999789896376352,0.05851030596063504,0.5090999627479528,-43.83048285232155,-19.700857121563654,-35.24047452499352
560,-0.631368597225299,-0.019223381906551196,0.476879152709521,-38.03107548567053,-13.948461078165291,-39.62865955301885
570,-0.6341935215681042,0.008850263533282873,0.46558367469010487,-14.595840138508157,-3.8631223947934776,-30.420886261886512
580,-0.6234796762021394,0.003997300656780969,0.4634310730844548,7.511316769170118,-2.268301394533027,-13.570915619512755
590,-0.6624304325703176,0.005096295131400995,0.42543300575341236,20.140330897325036,-1.6461524376619012,21.577631936295926
600,-0.6609920099403654,0.011191739388381763,0.4328612115085762,18.41108238928021,-0.250122484839709,24.09189632561433
610,-0.6259495819826,0.08274098926967786,0.46922988089726136,9.074413465025115,-6.742505065235178,12.587926299874555
620,-0.6401611203601861,0.06121084341721862,0.45686794587680807,-2.47949155744216,-5.859059031730082,3.8250649080625294
630,-0.6267819370245981,0.06383141702489514,0.46812605168678645,-9.907963098782961,-6.860666438233455,-7.3004259577262935
640,-0.614667687870157,0.06930581791310515,0.48613574326904113,-7.217511368446957,-0.8329970426049066,-7.916249882998835
650,-0.6351801900441785,0.023838987188491353,0.4650678228949228,-4.665616207076846,-2.072488474336124,-6.351886376315038
660,-0.6272574224073183,0.03453690471717292,0.4695772640940182,1.9895462007636544,0.9078481912938813,0.7236360131755718
670,-0.6386037222227967,0.029587297349135892,0.45407341663021344,4.598617457414997,0.5196403420159668,3.369820238833566
680,-0.6327541556483943,0.03468272341121551,0.4669401201929002,0.501999940003229,-2.042166343662333,2.0665165421454876
690,-0.6311935167348097,0.04829919838041932,0.4667256897118018,0.5444340377716795,-1.5339319982239492,2.5541344578014566
700,-0.6286315430012883,0.0447775774341755,0.4671849646568849,-0.42247183353435314,-1.585072649912298,0.5867583186521133
710,-0.6503567284909935,0.02132918406762917,0.44970854061789495,-1.5670763704203328,1.5643182942783806,-5.244197848650829
720,-0.6316488714690089,0.03545656498596812,0.4650005766005028,-7.381947051146119,-1.145346940823024,-9.193676621860169
730,-0.61532470610034,0.05219627359175679,0.4822952955305522,-3.6989142168043214,-0.42244138232683937,-6.661746225836286
740,-0.606568975635809,0.05283588987425277,0.4906209332989171,3.948652353722075,2.6745916776692265,-0.2396503635947429
750,-0.637997497076314,0.01861063912743537,0.4586171623021684,1.105991034748717,-1.1580704472727714,-0.32852546453841136
760,-0.6248040557470588,0.04180614941389043,0.46792458268276355,1.2880402427348736,-0.1263386962064138,2.23641060678197
770,-0.6293823962262807,0.032503460167305154,0.47149233448055644,0.7017625581600355,-1.7705179174481258,0.04872225033719291
780,-0.6056442539806509,0.06195610440570721,0.48854576473848854,0.003554574302311042,0.5864464578144635,1.3995344880018632
790,-0.6300413395840837,0.04186347040538001,0.470041780725076,1.7519096433411523,-0.44879723752774187,-0.3262254867181459
800,-0.6279115924059602,0.03370383726317245,0.4691342418787129,0.42123226471300634,0.7960930521421119,-0.4086674728576316
810,-0.639797158157655,0.026202810156020637,0.4557018238147506,2.205844678048697,1.7819101431074507,1.0725950416215544
820,-0.6440193150429421,0.01609773382471687,0.45106617119010145,-0.5184545154110768,-1.438595628093655,-0.8638053484580923
830,-0.6067219571680845,0.0630849841716695,0.4910051926610586,-3.123840634004993,-1.9429553579293057,-3.2364318353369113
840,-0.6171606130466802,0.04707068811594513,0.4744896487519696,4.180272818577237,2.1226981277025185,0.3362564879826304
850,-0.6374386211429656,0.025603664051031597,0.46349680784375447,2.4870641128697724,1.158653824569119,-0.34148390984511845
860,-0.636749298990822,0.032113718765653124,0.4641623214710956,-1.9177155503082612,-0.33794184524081755,-0.9137698510594441
870,-0.609654275505978,0.05910483382460924,0.4904457997784688,-3.5596260747503052,0.616941506886687,0.6340542148859306
880,-0.6507480313382303,0.01503969066395006,0.45033506808276447,-5.915800268334247,-2.5069897916329142,-1.5831463355990179
890,-0.6366147929564318,0.029227156505960368,0.4613966676296758,0.04335258909472395,-1.109568564787139,-0.9930286758468999
900,-0.6311787725771285,0.03476564856192434,0.46909829448783613,3.211968115313335,0.6643279326262009,0.7278343668295929
910,-0.6261768813874949,0.038608203107364555,0.47567409573044384,1.451754479295082,-1.7620012961302693,-1.1050213351537879
920,-0.635703601480885,0.03234607064412734,0.4639752585640424,3.461294442321175,1.1601917115704141,2.316177045323425
930,-0.6272095135776453,0.04440736626197116,0.4700084918669682,5.921622112745021,2.4583360871540743,3.765079181551622
940,-0.6147973434249375,0.05576802224968551,0.4840338473593485,4.283668535058467,-0.06759875030156931,1.5782916293023495
950,-0.6155923675365288,0.052950396546238294,0.48815918623370236,2.399903755418549,1.8547166154833477,2.4444870758724733
960,-0.6251811744678677,0.046758975319661944,0.4746276283073366,-1.6630064044294839,-0.3579583808518889,-1.126281028502543
970,-0.6209822519465595,0.05319595238520275,0.4770217693733311,-0.5755608617432421,0.6819640386654342,0.14988769247317837
980,-0.6142167588057863,0.06065384898657582,0.48409295980034084,-2.6204056951948944,-1.9462907686499638,-1.6967349736370754
990,-0.64454370591703,0.030155742920804356,0.45386978935507966,2.8482846840400633,3.875117408914907,4.276770167394739
1000,-0.6216384803323547,0.048772771932479995,0.4697187266289309,-2.64732523973886,0.3736392679351958,0.13199137590177945
1010,-0.5951539791252825,0.06913911144129652,0.4957372892525294,0.4455830466073833,0.054586731486594375,0.6689821005854091
1020,-0.6084902187814436,0.06111555359626125,0.4848641184068811,4.5538587763659315,0.6184831112245373,2.4958764499436743
1030,-0.6266779135905,0.05337849822715368,0.4691166782738367,2.862764556957967,-0.5123707663103189,1.2797085322694748
1040,-0.6427588886026487,0.04124528414301225,0.4554992046572399,0.32866634315318466,0.9158485967708765,1.3561365833865842
1050,-0.6449258920446415,0.035734511513022364,0.454956226132893,-6.923263583818622,-2.877718255829646,-3.5944566157347837
1060,-0.6384008402884367,0.031308389983204135,0.459151455441092,-6.968745624989207,-2.043578811346846,-2.662854355152864
1070,-0.6227542918457881,0.04782355410133045,0.47301091437600534,-1.4840275008342547,-0.2277323382943615,-0.9004300287741717
1080,-0.618413149525265,0.05248900276949954,0.4755024153075575,1.2073037664690647,0.7650482172082032,-0.42106734677062474
1090,-0.6190955726453818,0.049248591918902886,0.4760068161869658,0.11406798465202073,1.5413251972226651,0.270029767002669
1100,-0.6258198036492967,0.042052883191722894,0.4725065505708305,0.8847146353183477,1.7176147001295297,0.9838792615714484
1110,-0.6193653670106471,0.047255246295805894,0.4779918974000302,3.6975802840974117,0.8747849383011101,1.3805669446241589
1120,-0.6286510307268979,0.03790212098881236,0.4685414182860947,5.414226522431003,0.1820085990391479,2.203064775265068
1130,-0.6110898325777006,0.05527161432127903,0.4879044645098539,2.162244987362062,-0.07540554007142078,1.1144668210045465
1140,-0.6271290702949327,0.04158130100331682,0.4716213393966061,-0.6035728541462584,0.49873267361447815,-0.12216777178566784
1150,-0.6366937158198414,0.03186815192654628,0.4620297620578895,1.203767923857614,2.253387180615478,1.4632323887774565
1160,-0.5770305552288969,0.08879579578548229,0.5232305223163872,1.6483303888725476,2.399683842654148,1.6111787586752078
1170,-0.6304386608072305,0.03227671912020354,0.46646517236946555,0.6174706571625757,0.5078394826480266,0.36923773675259103
1180,-0.6495176110620577,0.01825279079306549,0.44554948788669113,2.4286113745123483,1.1000046110334465,1.4764719815037104
1190,-0.6335662639934003,0.041441347880485965,0.46385753581874195,0.5157381463481733,-0.19501043588677447,0.15698339545204776
1200,-0.6132485449774459,0.05969486674569022,0.48299387590951576,-0.8910148832520628,0.13426881821209907,-0.03924545029015189
1210,-0.6254848382053678,0.0460709367351278,0.47489169676037507,0.8400779536261082,1.1848327923566875,0.6647560664970715
1220,-0.6334892453975278,0.038844049935594656,0.46486996479488246,4.04143292350305,3.4461366251963517,2.5540141439086153
1230,-0.6435744490964275,0.028970471125932484,0.44878436930900373,0.5060195561882274,0.8345656584053875,-0.5565529794969822
1240,-0.6369867446410379,0.034395855626986375,0.4551486442939719,-2.625049425843426,-2.0705213135323914,-2.8705599628387404
1250,-0.6391192540116295,0.03223814362803767,0.4537848214158675,-3.8529332284015934,-2.6762762661232684,-3.130691813897962
1260,-0.6241692121178584,0.04483291463163603,0.4703963197127346,0.17215216970341018,-0.1523308596100763,-0.15332105171008314
1270,-0.6576276077654387,0.012356996532674035,0.4406539252580963,4.259804171351456,3.0954981119807443,3.5933238092895907
1280,-0.6396883596054662,0.03340047890713005,0.4626851599027355,0.2998506521620531,-0.274146246988363,-0.03307068139998004
1290,-0.662593090481234,0.017902552187939624,0.4369170053797612,2.061198958674147,0.5447099941073776,0.5776627542093297
1300,-0.6391072799865456,0.04019598139168566,0.4642239993032368,2.476742152426204,-0.4139610391358377,-0.5196641089807333
1310,-0.6318639689301336,0.04201082072024993,0.4666442479536568,6.527647505615155,2.6179470204006954,2.114658480544984
1320,-0.6337422346225793,0.03890742460159165,0.4613861006505497,4.509664636230399,3.3640845477592256,3.4275323570667973
1330,-0.6656727391395172,0.010815002379564516,0.4324405443032945,-1.733139161187608,-2.000847219481437,-1.9617857472116735
1340,-0.6471984823323531,0.028412843331506628,0.44965386632143434,0.11057923263500502,0.2801290663913489,0.833235221744232
1350,-0.6134395480767014,0.06160645947014598,0.4820152416991848,0.04393491804184291,-1.7242363445396836,-1.0019078689007226
1360,-0.6519812236779862,0.019002537752451594,0.44610186391628526,3.9345497425680183,2.6706059598310974,2.641131732671268
1370,-0.6123026402197889,0.0594134359587411,0.483606616265935,-0.16758693604815855,0.3754529059529803,-0.6166930105274255
1380,-0.6404484290565493,0.03418652605233774,0.4626930045326393,-0.2940708973502011,1.1141597616155041,0.1690177075271504
1390,-0.6098381455895847,0.06376423092973145,0.4924868296780537,1.507024322135397,2.9236525235423665,2.5446757213379674
1400,-0.6491285722959653,0.029556898501721558,0.4506629899363439,-2.3621429100330267,-1.3751981392844452,-1.0237667530311814
1410,-0.626358688275948,0.04783125101097133,0.4695704767981792,-0.7189819924080976,-1.4155216030742803,-0.28037476928800875
1420,-0.6372862341450429,0.03714126938586994,0.45484756589849906,-0.5899402951930203,-0.655992887331668,0.001169453563889311
1430,-0.6036975899148835,0.07018986594670466,0.490491534306936,-0.1596941861728221,-0.614505342202692,-0.6952821306566936
1440,-0.6403054959987209,0.034630524056058626,0.4534662344324739,0.6726986658010563,0.5691798490385203,0.857987874259774
1450,-0.6250842020665913,0.04698988685788841,0.4739755328458217,-1.0381365415959705,0.14489108907349696,-0.2450605942791334
1460,-0.6255075909999497,0.04260034877116185,0.47248511651908726,0.4953267824320391,1.122180611434747,1.3266317148065685
1470,-0.6550381587984088,0.013516074057759519,0.4426363080956698,-1.4773208316149058,-0.1862278804430102,0.226165879001738
