time_ms,ax,ay,az,gx,gy,gz
0,-0.6556286743168546,0.13761543932673717,0.3885600244067601,0.40182166400008246,1.116128355920433,2.2681927828220756
10,-0.6555769772877467,0.12915391651210031,0.39074050340099714,-0.9344313507132607,-1.4701023286627304,-0.490647995920241
20,-0.6432252887705826,0.15157883216988896,0.4066640975178841,2.780608628296216,1.5397231375532423,2.601294196387148
30,-0.6657440258173548,0.13083724677499955,0.37494375475116404,4.108206250032749,2.1070931496380467,2.737314733405978
40,-0.6483964195366663,0.15201124992463314,0.3898972742373901,0.678284394898242,-0.5142404611919992,-0.8793928354989445
50,-0.6748229071366381,0.12149856777525167,0.36196946878079034,0.9712413463819356,1.476738770002901,1.6441353554069817
60,-0.6532834172167725,0.13526134197220838,0.39000977742985615,-2.0691833368794947,-1.5699785132724997,-0.74805130342777
70,-0.6744255732355494,0.11412242669112788,0.3747957971437407,-0.7749081407841403,-0.758313204009861,0.33145451362509004
80,-0.6646215845591228,0.12151798526537341,0.382061681226073,0.09232377465802777,0.18604007340534368,1.2427064946709838
90,-0.6583610333465841,0.12599739166357118,0.38606355475125426,-1.6819390013628615,-0.7753737967133625,-0.04779900722916386
100,-0.6625979337962457,0.12276484969268406,0.38250086079442663,-0.7470453606533667,0.26149453092102265,0.114759619656843
110,-0.6619040525186567,0.12811993465369642,0.38180236488331937,-0.24744831199032236,0.6127380964050739,-0.20739087374135756
120,-0.651535561455891,0.14080337746186397,0.3899727311703278,-1.8284328322918326,-0.9953300641485268,-1.3412807724275735
130,-0.6783417454026406,0.10822773652782236,0.3640478607343223,-2.172704319018057,-2.9879619325581666,-2.4833922892313307
140,-0.6830485042705241,0.10577047502974245,0.36103044108242915,2.5499601767512154,0.052684845521101864,0.7232771438458901
150,-0.662621604313613,0.12893231270402733,0.3791071623298008,0.6978211987611966,-1.9580139027149879,-1.338683971845411
160,-0.6896901909393732,0.10680262995272255,0.35842531939321703,4.218128973442058,0.8222987836542613,2.7222533667225206
170,-0.6837172735462054,0.11428736086338347,0.389533482760094,7.434900961972831,-1.461473363545607,5.399388378914247
180,-0.6625689268516368,0.12975016599654,0.4099300189682501,2.22549848766417,-3.2197043475858953,10.101400915412663
190,-0.5753854514770245,0.19517200090666895,0.4200797202646045,-10.833750282838704,0.6683375067250037,23.02446613291746
200,-0.7405078673266254,-0.000311896959683821,0.5914076610998378,8.074033419504744,-22.231265043017956,-2.6876668661603036
210,-0.7884779450111162,0.11883609750836063,0.5626373957686283,21.163735645320198,-42.887794455169974,-11.765068312163494
220,-0.700226260179769,0.07121012932391241,0.5811985724276879,30.46606528316669,-60.17513585581073,-10.564585634839847
230,-0.5290256887157104,0.08343201687524908,0.4026512848299058,29.644165376871456,-75.18064423561043,-19.6366285256494
240,-0.4598039416630641,0.16579033793561465,0.27319585847268674,14.535791099799907,-67.00364091652766,-27.894172388237564
250,-0.5253133906795312,0.16362841902522238,0.0894679178064017,3.8187688353772984,-38.11556528829485,-28.30174370099827
260,-0.4537463330642318,0.28725690135706794,0.198611296372593,-4.271552883570282,-5.326347798334284,-20.689766722511866
270,-0.5224915376610569,0.3041972071015017,0.26653061804968986,-14.906571774178328,20.18135824630862,-5.868209748188554
280,-0.6537896632550779,0.2249533125456546,0.41890027164578375,-23.688839216175502,29.14334048761235,2.3211568272657925
290,-0.7278654977066642,0.11219775438831268,0.5170679131061368,-22.980216596551863,3.294900985454724,-7.292945876932961
300,-0.6280623836710184,-0.021871386563171526,0.5608559684575067,-29.94434309450556,-25.32614955325321,-22.111149767381743
310,-0.5302662160693046,-0.08987806088548671,0.45824679213325303,-42.543983236459646,-38.361296508669746,-36.504586346036334
320,-0.5194982785016407,0.08339338053230119,0.35796664870920575,-25.851167200122333,-50.2350974585586,-42.83577705080538
330,-0.4511586960899264,0.13431763892029788,0.7206822001596811,-2.4493243200001995,-48.76247823904266,-32.91013044062058
340,-0.4850670879483533,0.04326273727726302,0.7317970710108449,8.954090137556262,-44.360940316374176,-21.131986383671098
350,-0.7908903416495595,0.20649525347839098,0.2859678133424252,-2.321183577610532,-21.452572729179245,-9.34164999978858
360,-0.6164730786010533,0.1479950284462359,0.4349952146376055,5.092151987879035,-2.255399683347163,6.158081556120697
370,-0.6422234768416977,0.07868894340241579,0.4125779232973735,7.252114560626001,-1.715013380875246,3.7452675986528945
380,-0.6650313401247475,0.09454719765823284,0.40341222144813804,-1.6070204326818391,-2.3907360449291386,-5.4108346131988645
390,-0.6965374096585766,0.014054403948817719,0.459267067865482,-15.471217091432708,23.179999395610242,-11.90990421331482
400,-0.7530076599567725,-0.010126602951714258,0.2474878267535086,33.4882332953186,58.20061063379312,-15.58036372085236
410,-0.5440196437316877,-0.15542565050235752,0.5293749782468297,68.43844239243005,57.268625062525146,-25.07988155912335
420,-0.5416565261722478,-0.07676944872209837,0.8152942658643119,32.200059327633326,42.87054015884676,-0.5481995716274926
430,-0.5697280802430162,0.10240300241820197,0.6487270394092592,27.121634649014897,27.305922673351517,4.501845299231042
440,-0.6166951126622859,0.14685718703955042,0.4940736962818689,29.393447415817956,11.191456645889513,2.954401445717652
450,-0.6373824581426996,0.11667607563773374,0.43682066466490643,21.199500019289772,0.051138643338038525,-0.46923383271922503
460,-0.6466616287200685,0.1261259993866286,0.44344781925841864,15.732646036486122,-3.1427670582073635,-3.9454490385488485
470,-0.6531388232953199,0.14365097129398055,0.4402575176553655,13.18206482512089,-2.4443046430633313,-4.088592492862926
480,-0.7197937565232133,0.167282450594848,0.5392098760606261,-5.4301150634349264,21.98756946470178,38.16610305275607
490,-0.6773589051633085,0.20916956105892945,0.6153178640127616,-20.65978339181165,19.782145011062124,69.00895617612375
500,-0.5661070078986254,0.13083973779914607,0.45075904664764405,-13.05412082695389,-4.790837248390013,56.822194463101184
510,-0.4655587251139599,0.057059374272094475,0.3440984997745565,-23.960291864404624,-2.81002370454124,34.416282294804795
520,-0.3893113086439252,-0.03192906955062864,0.2414393603666641,-32.47151247050196,8.527014212534327,5.986139490563005
530,-0.36252339297934755,-0.136189278430454,0.20693010041713505,-41.12835743226946,27.136164147838095,-17.764664658239408
540,-0.42754135185068465,-0.19718161018766284,0.29539396998480494,-27.151715067659577,26.563038002596908,-45.4653633631735
550,-0.6069549408393453,-0.2200120296737332,0.3201073329685106,43.113448221833984,-14.092630279079897,-51.84418064799945
560,-0.8190364370655289,-0.09690333881269836,0.13885118208551128,-34.44591938771518,10.513895908169005,-8.498452704737277
570,-0.6381280400618236,0.1735903625461882,0.6466644473226176,43.12748697077331,-13.570680466584811,-1.2772876981403178
580,-0.5193341583699655,-0.49267078126572167,0.5326854390651035,20.947785490271908,-14.802716265628431,-10.099136446205048
590,-0.6441099941526235,0.34747957961794457,0.4174940946523801,22.43141098300126,4.139759217627039,28.568490378033133
600,-0.6466525917596074,0.22954755941291557,0.48390325810743023,15.618492665722163,10.77232000959671,36.55844340154393
610,-0.6736994571530868,0.16776675704479044,0.3872572710412534,0.7758858854870513,2.3344034945425802,-4.061710117953033
620,-0.6564522980882106,0.18478486991136497,0.3964776258908366,-13.710731444980684,-1.8267327827805484,-20.24479141948606
630,-0.6618466343174324,0.14516747847959544,0.4002304526099442,-21.551567296854476,-8.376005878213016,-26.86862680119999
640,-0.6475342909628821,0.12402450648895343,0.3982817784219227,-14.235951547224666,-8.706872641581711,-20.256126644333403
650,-0.6729392999202833,0.08721326763623558,0.3737768477259546,-14.645466156866554,-7.549017534371493,-11.09576678625984
660,-0.6551837649146814,0.10294971888815695,0.4021462622067849,-11.5559217241799,-1.2309995522676522,0.844736286951002
670,-0.6608170418046005,0.11138470739633723,0.3986919894680452,-5.716248473312573,2.213189280920575,10.202712411496073
680,-0.629636337961072,0.16540614179403595,0.4179989052767947,-0.3136936202054096,9.042921928035316,18.962142041377682
690,-0.6785892048646531,0.13671099248532026,0.36074186926239665,-11.243308832908241,7.272165579322924,13.526870983644718
700,-0.6572734492889117,0.16868224442496424,0.3856500242082229,-24.431295538495007,3.312333618677395,5.766541464804869
710,-0.6815239013202242,0.14389021908387606,0.37489643016346735,-33.60810118428619,-0.6631097244354105,-6.234118181839464
720,-0.6944197048331076,0.13444999811612135,0.40394030769500233,-31.88467489691446,-0.6363895876308362,-14.636678547564237
730,-0.6791514766332193,0.07775916985964318,0.3787916251652538,-12.384048155560185,2.619376912772743,0.7883532551477388
740,-0.6534278544663645,0.15002440049337448,0.40396372293647814,0.750155646302658,5.345523206859901,17.804284007286657
750,-0.6512312744616728,0.14377252616279512,0.40720371270114325,-0.14534525020780353,5.029599703699584,17.75463322991612
760,-0.6724764942319092,0.11178322647390534,0.3656300993085696,5.220180662408559,1.165118211764926,15.801574313854948
770,-0.6223747107278889,0.16649880222066477,0.406923229364513,6.260577731162209,0.6173513706594045,17.580127812804378
780,-0.6621872888987166,0.13782807663947808,0.38000875099079834,3.5782385304189073,-2.6137010072706213,12.713580248472013
790,-0.6206465090038349,0.18721964379524353,0.43024130499330215,0.21182814559079732,-2.552386816035354,5.887239664174857
800,-0.6489084510590828,0.16135473272259618,0.41251137027246904,-14.42314909877414,-5.077836626817074,-12.149105963189132
810,-0.641149398758754,0.14709584090485955,0.4066722664244371,-18.25720167666046,-6.662635376380232,-15.896153947656789
820,-0.6630931987551095,0.1107124110064876,0.3781655873230838,-10.760730132788684,-4.363370471930455,-9.111184877184712
830,-0.6306800517617628,0.13758623680539692,0.4165283110996431,-3.3155068074172043,-3.0448222494070034,-3.11647570327046
840,-0.638386455768963,0.1351300605291561,0.41007689011317167,3.2417130332570867,0.4866038769396921,3.622705580315069
850,-0.6427738042364317,0.13961980864246362,0.40898662352756743,1.5034215049026796,-0.9695221439488856,3.537014157888345
860,-0.6319218714674824,0.16258067886999053,0.42311123812791274,1.1478834365052735,-0.7955758207601904,2.043114308333203
870,-0.679808729182269,0.12086571268969508,0.3739802116117885,1.9602702888854828,1.0806096406457635,0.6927238532099401
880,-0.6440523861103343,0.14898626856508135,0.40623389202914967,-2.7751970921267466,-0.9515938705009859,-4.511848043280865
890,-0.6201508890573246,0.16575094198851598,0.42573359932141996,-5.291257161151867,-0.6795767439456699,-7.568709048283038
900,-0.6580192928470797,0.13069918982624415,0.3932677960478517,-9.547552977870758,-3.644990736169924,-12.708601885492177
910,-0.6666553717506734,0.12283497761420722,0.3965719850700768,-5.614621221059202,-0.6765341734120016,-9.879878759316373
920,-0.6347745235698445,0.14370329380151797,0.41560353457978094,-5.13373905445401,-1.5805158508166073,-7.976046344663028
930,-0.65958678815556,0.1111212704570015,0.3884537944175313,5.442869075623408,1.6062963855782306,2.790238036253188
940,-0.648314736037568,0.1404794639543931,0.3965363931648996,2.514084809228992,1.52209056454065,3.226108068816127
950,-0.6428436141397353,0.14071798980092864,0.41884811530202215,-0.15383770002207203,0.8365439830222348,1.7737854406900704
960,-0.6714555015216429,0.11449239068981584,0.3777790573119669,-0.9491383933054351,0.7624532088301637,1.2825438179736426
970,-0.6200199040240354,0.16721369248301649,0.4275539364861681,-3.881205087540418,-1.0525404333716943,-1.6194488144158194
980,-0.6727841628973076,0.11512544203732963,0.38134259756980565,-4.411664387877762,-1.0329470284861237,-2.4848110285610265
990,-0.6888842791916951,0.09198650967239316,0.3669355143172144,-2.048007858734104,0.6123133830368713,-0.6398447482632665
1000,-0.6594199124660027,0.11291934692125857,0.3868617096056058,-5.77818235346964,-3.1166925112415877,-4.756002177024422
1010,-0.6305761159268003,0.14546376080628665,0.42295265902445606,-3.3280642606069564,-1.301490201001604,-2.6574343958685613
1020,-0.663346087033738,0.11184891415952708,0.39270685462094046,-3.313713780715812,-2.636396038091592,-3.330048888760185
1030,-0.6260765365246015,0.1471615336053382,0.42452576805258546,-1.7249148406203083,-0.9870533786928736,-1.112208898618571
1040,-0.6476114584725673,0.12420027274099898,0.4011536777389615,0.2618470901277692,0.4761204164755537,0.7576225887462229
1050,-0.6290949748680891,0.14906295490279892,0.4209207928574491,0.750388117187977,0.14902196372102153,0.4630458394483812
1060,-0.6592549139997966,0.11960157108367667,0.3956598115146287,-0.7648802134495019,-2.2414279597717863,-2.18001695796773
1070,-0.637569947896774,0.13382905996414032,0.4178871278450914,1.0574184561224098,-1.1594391073190884,-1.454417177442443
1080,-0.6338245246554539,0.14018828503271702,0.41614579377324973,3.214822303665021,2.407370276141923,1.5810931308583653
1090,-0.6662054921999878,0.11266114228676727,0.38710514707284654,-0.4754060948973263,1.152570798899476,-0.11282411862084582
1100,-0.6532118141834566,0.12493421475268249,0.3996610643441188,2.500407500190802,4.709526309497472,3.540016019626131
1110,-0.6284376444896547,0.15224905955182075,0.41767798892985586,-1.7905745418997492,-0.16085307312506614,-0.8648931945841479
1120,-0.6665760972574872,0.11113951471686717,0.38608310548866104,3.2823118232996373,2.0418731323969874,1.7992020185585993
1130,-0.6721842842001378,0.10303088350701739,0.3832337747031759,-4.112559522902644,-4.8545464090194095,-5.702452638140305
1140,-0.6229651934640902,0.13966483965561888,0.4227737059052694,0.28636014168118384,1.045656311550362,-0.7539558878197792
1150,-0.6592194151202291,0.11191478278403438,0.391658829735812,-5.475700987992157,-1.062649815113578,-2.923487046013305
1160,-0.6635127511592036,0.1100370915648494,0.39274859669018675,-2.2333163443901256,1.638343584346546,-0.6693645490074525
1170,-0.6497937450077598,0.12716257161697864,0.403008753406331,-2.63975653347598,-0.6683741268632053,-1.356270514418745
1180,-0.6467840100226117,0.1271800490175794,0.40486780682708023,-1.1212173135297285,-0.5206413337057684,0.13842339402445827
1190,-0.6538452727157793,0.11764234859777663,0.3988576974838077,1.7779924055807077,2.1805373717275587,1.885644008825846
1200,-0.6790317282116329,0.09464228428139701,0.37496682754338184,-0.6282469101136137,0.05520808246798381,-0.6682533864436215
1210,-0.6653970968289765,0.10677836227712403,0.38630540316973094,-0.17727564328533726,0.7545239097174342,0.7199873492869923
1220,-0.6633995707802715,0.11409252223599443,0.387362340980164,-1.1836613637033344,-0.43265110440816784,-0.012091086274682694
1230,-0.6437701647911873,0.13589051161229224,0.4069403136775218,1.8232120673688852,2.4455642644963036,2.9577784055651044
1240,-0.6383377175014692,0.13581809804193443,0.41435448754576093,1.0963224102780313,1.1713508689413623,1.4809170915499943
1250,-0.654096717064602,0.1160908137319758,0.3993508605091271,0.14240635661796883,-0.5078109536233686,-0.3123467458491671
1260,-0.6309400266499546,0.1381904996416403,0.4212592300257064,0.6241605714550302,-0.5426147538405154,-0.250662189901898
1270,-0.6665338551362252,0.1024874820697667,0.3874603757770707,4.939250462057991,3.543852034189491,4.018677434796444
1280,-0.6387479108954067,0.13571857900699924,0.417550847616753,-0.8400344890461491,-1.5994334629465161,-0.8209939049799351
1290,-0.6532924173623207,0.12798410274559224,0.4026324285469134,1.7409228562345302,2.295566287927457,2.810160304952992
1300,-0.654508774339008,0.12327503365349558,0.40304921281023964,-2.7020942366100673,-0.9880774257073088,-1.061389116547484
1310,-0.6690341806434646,0.09950136493297071,0.3867143240624665,-3.0207764062122395,-2.7306721394348257,-2.504059116528638
1320,-0.6703612001038928,0.09499954065805023,0.3851201624904617,-0.12189675929714583,-0.9593951552989753,0.4140109153632592
1330,-0.6442031459021049,0.12402846273653545,0.409443440988776,4.937704157359032,1.8913304271128966,4.420936961279353
1340,-0.6873105617754105,0.09756072509113785,0.3645800326542948,3.596410102067924,0.7843056779590735,2.3781111614631136
