time_ms,ax,ay,az,gx,gy,gz
0,-0.7258592622292109,0.053292430256552774,0.434917875585727,-1.6033179357826657,-0.8266509927843487,-1.0742393169324358
10,-0.6863236030820022,0.08811664321769042,0.4707721611446222,-0.4570948085781608,-0.3944955358317115,-0.5907930222224832
20,-0.7154431013109797,0.06227851341808084,0.4451191939760536,2.3275592158520095,1.3683814173556546,1.7281901238519315
30,-0.7066723183675446,0.06477153678505267,0.45585256116702044,2.4378180425871796,1.6434234789894537,1.799501976781384
40,-0.7166672527012293,0.06396828005537669,0.44779280319250647,1.159737424849643,1.9412635558869933,1.3022816235103083
50,-0.7207783975903324,0.05561593270376215,0.44277294088476765,0.707732438309822,2.2335822615962186,1.8824307536321994
60,-0.7136997037743543,0.06750869790420107,0.4457252785044137,-0.6353884332784898,-0.14958243036195584,-0.1509151373295366
70,-0.7270601898492783,0.05400082786078131,0.43207986384358604,1.569197820883864,1.0266712875690966,0.6466360972406726
80,-0.7197677949503768,0.053890393599780206,0.44184517994949546,2.3644363538735074,1.0326844416774856,1.433764806629664
90,-0.6705415488784836,0.10514628024065616,0.48874958659885614,-1.7476609184627387,-0.6189417925351526,-0.5039462358928504
100,-0.6863107764826705,0.09336895737936439,0.4776418349623806,-3.6415881568020874,-2.1292600463374276,-2.6724511899872443
110,-0.6863759475508225,0.08536157589702852,0.4757293215981586,0.25635735400038273,1.1915151074149017,0.3184857296639554
120,-0.7008347711419007,0.07909413981478393,0.4587540145146381,2.6622817539275507,1.9552511388388423,2.186438023754877
130,-0.6968842108700102,0.06429445627796784,0.4958463295302766,-3.3117912186412486,-0.6149616803750935,5.875570205155023
140,-0.6913850149040124,0.07255126078694363,0.5065429289626855,-11.603352745059343,-3.5181220031427385,2.0082044476983354
150,-0.8702250090113055,0.14142743114175266,0.5591625271952017,-5.678867664177538,-14.727370287391064,5.114028889347524
160,-0.7550723748960597,0.16360175496964932,0.5419540888648604,-5.340277379660244,-28.70974450157643,8.250750540988236
170,-0.6046919024039236,0.16233797172405967,0.4502124630571892,-10.94215468036605,-26.69495585591446,10.897680706414665
180,-0.5574866597698396,0.2000133033419484,0.5128090612140738,-25.88797202093931,-19.933748655270115,15.07154075406374
190,-0.5160628728265825,0.06847259964473178,0.42856918016519974,-26.841927570008252,-13.995841564696715,13.389202464790898
200,-0.5185842899585981,0.05153436102694674,0.4779592865897497,-28.421360939878944,-4.1278961181871345,11.582186705560352
210,-0.6230830956340294,0.054797860146186775,0.4740837300656248,-29.920669030136665,-2.552442237712893,5.166785512084852
220,-0.7212551232098229,-0.031251638204464124,0.4129979729154283,-31.32294041158902,4.102143941452356,-3.274707009545888
230,-0.6714519195108545,-0.033340297922399134,0.40181723613069403,-25.08369142614666,14.328809873757864,-9.087066004178666
240,-0.5393991778504568,-0.036870078485284126,0.4008741685753889,-28.155399074055033,23.965579240277368,-12.15851757879761
250,-0.7931800885883357,-0.0719176158623806,0.6887568621669865,-26.228339315998397,12.65506448104802,-19.62068266974287
260,-0.8141135199969447,-0.09715307300435214,0.4542149790667871,-7.961846225517473,-3.941264892327104,-16.971256917629226
270,-0.46842211194107186,-0.16076139052070423,0.6265006989700903,-10.730220349758905,-20.260358700535992,-18.955441851637953
280,-0.7326809048851839,0.03149696599096333,0.7548213437750183,17.049449722755817,-23.506453152154798,-20.42236036411735
290,-0.8308314289777504,0.23874663397040133,0.22974277986236966,14.867648470062182,-16.809266273969612,-8.635185098690437
300,-0.7524777566184657,0.2598231639263584,0.4983856483282827,21.140086433897,-0.8614922877799742,8.63700833561596
310,-0.7343723550138944,0.09389140963292007,0.4425596954835821,23.974395482876794,-0.12229682987992407,6.808206084674697
320,-0.9720163894637033,0.4228096087218535,-0.15864237950711638,74.88435604751739,63.545671270425906,13.969383793457203
330,-0.7041066224373637,-0.14089595280604014,0.38966364375183477,5.907809085143843,64.0503177584862,24.58303793952686
340,-0.5590545918315792,-0.04247029537022551,0.8684286573774312,27.893157250995564,39.212613449485815,27.63205112388592
350,-0.46751387219041085,0.051152786044266874,1.1806265474200996,23.321123515675197,14.082041701693045,19.935789449846254
360,-0.601740128435903,0.12055242506421802,0.6565296949072975,16.889423918162187,5.611262561659155,18.229303982378692
370,-0.6951988657598069,0.0682067377747814,0.47846581656124076,-10.9114752408318,-0.49824700020205226,-13.233500468451949
380,-0.7206843475878011,0.023139245459792304,0.4635147516424675,-8.694794141928107,-3.4862991067654097,-12.858344665249543
390,-0.7221991774798311,0.022773746594661148,0.4718863564255535,2.3759906565752376,-7.120698332688028,-5.0394101347581195
400,-0.690445250017941,0.04967169032631421,0.4868076015937035,12.847479682221799,-2.7705508971523787,5.21757927908928
410,-0.7261010872706323,0.0844843043824609,0.4644432233158239,2.8425857842024342,-1.4630438853000118,2.114976853636986
420,-0.6706061694819723,0.19526667879616733,0.458921329687035,-15.461989754908643,-0.6225018996278748,8.047402967885752
430,-0.5440508541574574,0.1974066924116105,0.38081412550364957,-23.844816719448552,6.360333913401743,14.520822344582069
440,-0.5168173697039276,0.23738803494617086,0.3233498156295981,-47.13931719096667,17.49105973730058,12.268495519077598
450,-0.8131426039111914,-0.11474659804101414,0.5083728463208298,-46.33724941647103,-6.273566214973493,3.826096168375835
460,-0.6930304665771053,-0.42554304893102163,0.15236575451866996,-13.219530395365679,3.1179032059014213,-23.582541106676445
470,-0.5776905234891678,-0.12671142075299258,0.7056029257697087,62.53483738895858,-5.128201341037439,-40.98999980269895
480,-0.5667893076726819,0.01691478634626951,0.5393918499991995,29.395770864896985,0.7137925442995451,-19.350605694139144
490,-0.6557372719649659,1.246785239049646,0.5996120170624321,107.10273252084896,1.2461241495103312,35.01366758971913
500,-0.6661080901726198,0.3918282079165366,0.4758056052029539,21.9796236346149,5.323560296244704,17.888253195133913
510,-0.7150452660954729,0.05249800086807348,0.45238419666793367,-0.2556427767283568,-0.22400977012802348,-6.553586334762997
520,-0.7018424459722525,0.036558801976636135,0.4599671322749799,1.3413538931593134,0.05720546201308263,-5.748185371034323
530,-0.7182728243677499,-0.00792419834963619,0.4471825332225039,2.3796244323761195,-1.5214301232344145,-0.3526445279118806
540,-0.7135038412896445,0.0050454916777860764,0.4535653129837194,6.563754818286946,-0.9832791126586956,6.355745149661526
550,-0.6904427907960937,0.03827809398400638,0.47835606248652995,12.354023067745864,3.0512478245515493,12.551264875929302
560,-0.7133269665455793,0.03727299860535982,0.44665699050744995,6.116869774275084,4.119944198333115,4.077130105446846
570,-0.71445420901512,0.03846792571946593,0.45076895098248126,-3.0455726129458047,-0.42256650678502206,-4.728977297400869
580,-0.7257915864369977,0.01463430911742045,0.4361351220749905,-5.579409792568549,-1.1915586617357192,-7.451364846355342
590,-0.6906690921867701,0.04619550423626481,0.47801157751605633,-4.4716506269512895,-1.2427324405330304,-5.849468095877934
600,-0.7266929555104995,-0.003328026467859027,0.4358517568126383,-4.410517809997375,-3.9206744769721036,-4.552755783141089
610,-0.6669810262286014,0.06237841695237517,0.49242878400397794,5.537056910611774,-0.8118266207601457,5.743901063408321
620,-0.694683729337794,0.04633318797177615,0.4664646539065958,4.442582060276039,3.660210576044256,8.182172077375734
630,-0.6943759963056252,0.05766184986600304,0.4684834538271257,-3.522097606875187,0.5359903971580477,1.99763999629908
640,-0.6994826867197658,0.06394091972486649,0.4666903243756251,-0.287862230781299,4.222256880157087,3.8148742082694427
650,-0.7240191112091203,0.02079274030577828,0.43893849324467815,-2.500829020297103,-0.9927577146910846,-0.9767091109605923
660,-0.679591562504888,0.06970395880034486,0.4825294462541999,1.7897745889970071,3.162249815073755,1.6178323845132718
670,-0.7015786634367938,0.0439842026624532,0.46187157908892323,-0.8884636333754857,0.8009799990371489,-0.9579039151870057
680,-0.7171991871049465,0.03678206649031694,0.4503167125837095,1.4510349890787224,-0.7181500870612061,0.5248036833526033
690,-0.6954934792934947,0.04668189721972192,0.45737981008167683,5.033957150401195,0.19526766896664322,3.140596018747007
700,-0.6802010432875245,0.07315382133918874,0.47794415076672,0.32384070181873037,-0.3850014171232381,-2.1851984112153224
710,-0.7296303087363433,0.021167368661916503,0.4402598666628307,-2.9107390067682295,-1.7040527682253395,-5.409683972258408
720,-0.7015546483109856,0.029894926762626575,0.44930286191889285,2.5196317517300617,-0.6530660210760428,-2.0435983747947493
730,-0.694844192291139,0.03529757699876635,0.4650041769998007,-2.1525747600848075,-2.594629420787369,-3.1143840637351192
740,-0.7012708798642532,0.029933269010766084,0.45623875884391685,1.235240695497278,2.1482454465159475,2.4775047326387782
750,-0.6920387066251608,0.059315996449245,0.47967393002309133,1.373867578335339,0.5660509581536284,3.4212794039835956
760,-0.6837342895524068,0.06614377366338625,0.4723400421454891,3.570401417589297,0.858710932833526,3.717554089154912
770,-0.6938130145562047,0.06217578590882161,0.4753106512062575,2.917511517159056,1.3297447357379935,2.4031882131795768
780,-0.6908225840532854,0.05493491663717851,0.47273672246195647,-0.20382149863241478,0.4856445342386305,0.9128705936888724
790,-0.6866045979688158,0.06064187103903622,0.4773482590639565,-2.1971166743623685,-1.4547288238399203,0.12969628591729965
800,-0.7400345241981313,0.0229694872834829,0.43142747920674673,-0.6266504763862719,-1.8712669402676418,-2.0166739128417177
810,-0.6992438731445335,0.0554925001012909,0.46397801937927524,-3.518853356037448,-2.0772064124163054,-3.8710253496845866
820,-0.6883096869495048,0.06102974879059643,0.4781980912142489,-1.3003730804428892,1.2978718974918462,-0.6082042248495
830,-0.7020495876357431,0.046848182266251516,0.4560240249875629,-1.2387058463973102,0.5437121840034926,-0.0015860396297791013
840,-0.7081588740761217,0.04813380639251256,0.4619536698332007,4.511835295396652,3.7239573554070207,4.750843327364665
850,-0.6886179873544828,0.06313582727130188,0.4698555502184671,0.6265223031399404,0.5977588513545317,0.6771912924406389
860,-0.7127252744675353,0.038137259586906266,0.4438651792114192,-4.104438431062051,-4.5650678348170555,-4.557832764653903
870,-0.6949091722331012,0.05701329174345228,0.4679501796645615,0.24337449314264348,0.049775171961817744,-0.30080357896691284
880,-0.6979004420101519,0.05802483303058246,0.4701593804882775,2.66467978303196,1.5052016522997724,1.234532388372487
890,-0.7042006097733932,0.04471749915300562,0.4637338961033493,1.663069479828321,2.8693926362270905,0.9472611264053095
900,-0.713916070903568,0.03211398618401018,0.4507085742486466,-1.3767466099072623,-0.011922478685162701,-1.1739357323004596
910,-0.6874419604706624,0.058827255501451264,0.474078448659568,1.5548555086482199,0.6828431269889117,1.809590600986854
920,-0.6996786016963512,0.05461445639373647,0.4698790387705632,3.5166353893390934,0.49602991622483517,3.3213028185884665
930,-0.7047691749278893,0.046854384578447844,0.4559206691169347,1.5037789438638274,1.3700646302124504,2.862631377217395
940,-0.7072375862668335,0.04179892454961315,0.4504332580135813,1.6576668404074657,2.538388843959467,2.882516480039387
950,-0.721551467718389,0.03726847942108752,0.44334729458634,2.6837685665875615,1.7099770411137527,2.3441880148138545
960,-0.6940568114135639,0.05753903495109543,0.4710841521898864,-4.072074550481458,-2.1641346707512725,-3.398983711789925
970,-0.6882047541849162,0.0627504792907232,0.48105155771129987,-0.5714885096843414,1.7583502164345821,0.2470015292230915
980,-0.7303690035074637,0.01712481942411796,0.43202298430562625,-0.3093552539113695,0.2730832546811155,0.049588297599629905
990,-0.6844072823814343,0.07328243367316534,0.4776742081531407,0.20792506763007146,0.0544745181030416,-2.005919714376411
1000,-0.7198420933849263,0.03404370670863153,0.441753133509844,-2.7200896284318734,-0.9524766483694724,-6.4941152323475695
1010,-0.7077676627579346,0.03901184384042036,0.45075203490597554,-2.8628286490874557,1.5485287111148378,-5.3620710290333236
1020,-0.7069626337099912,0.03534556854651537,0.45304755241033684,0.36418177030668497,3.669994877749557,-1.7479494115191065
1030,-0.7223293902044469,0.017343462998606736,0.43923438474104115,-3.5309965593889494,-1.2546927670126735,-4.618976870040369
1040,-0.6917484458860894,0.038175913638641756,0.45400628415955857,0.09993955800486387,1.6320924710523572,-2.2214242729785907
1050,-0.7674828439751987,0.03372734656517343,0.48262198667972916,-1.4089155527994364,-0.5927739677410311,-4.718106463860481
1060,-0.6846605469256279,0.045633983386455246,0.46329413872464364,-2.594712764082965,0.1360345483939897,-5.487981276999257
1070,-0.6900013849034634,0.040664141462219104,0.47451444184694724,-3.963688403460706,0.4204433500348276,-5.766286184246263
1080,-0.6809589730655434,0.06406369652844623,0.48615156047469565,-4.959615459597212,-2.620248881597605,-7.35704016776455
1090,-0.7095020377388591,0.02160921436959286,0.45811907834857735,4.633986018485121,3.5902746208895966,4.028556267798888
1100,-0.7300174950706554,0.008611214347794702,0.43994570801485294,2.094595115834032,2.0692065581722803,2.8830128587182853
1110,-0.7045163894193676,0.042943772379588525,0.45359421458708205,1.2802698182420178,-1.0330405924843526,1.1563241297072997
1120,-0.6841699733607105,0.051284402491568154,0.47848201287374686,3.1538071268965298,1.1741220284632254,3.5410939399220647
1130,-0.716663071677238,0.02496790144868085,0.4490983461902551,0.040834649287138314,-2.250007208032482,-0.9079359780597455
1140,-0.6887682332217375,0.041907880596138966,0.4720245459682191,1.8897810352323539,0.01927092756176929,0.6776157999076697
1150,-0.7346448486075509,0.0018059228267376208,0.43260281718526183,1.3231550171042086,-0.5592610475411656,1.3235441445749236
1160,-0.6929424604319705,0.051444598339890575,0.47948000903390936,6.250452613570563,3.5797242869192116,6.182911894595833
1170,-0.7159161955110279,0.028490486934433304,0.45094211117780875,2.2069817191953156,-0.4793913528774427,1.906029662259439
1180,-0.6796857725561993,0.06373119316341036,0.48651165568167265,2.1542403183029313,-0.1612518426533751,0.05205497294921946
1190,-0.7077804605981569,0.025022795265256394,0.4562611146135123,-0.7939752422719085,-1.1203133342504468,-2.4247934246470724
1200,-0.7126419574128238,0.02007728800203422,0.448207351243584,-2.8731540872770416,-0.8853699377391305,-1.6745541182798438
1210,-0.6987114666733911,0.03938438903177008,0.4723983654808317,-2.4248904262195685,0.4653283922552688,0.12613472775517265
1220,-0.6999701191264447,0.034843005489827446,0.46435305010243866,0.48933349247238955,3.1809651294018657,3.724925673063627
1230,-0.6997614941668774,0.04767109273305724,0.46517913858016907,3.004299877745564,2.802233317522915,4.342814809864386
1240,-0.7081868932046883,0.034175504935054286,0.4528709817825991,0.5558857514115343,0.8944215601147391,1.3254404234104156
1250,-0.7091580181440287,0.03359943201768494,0.45004199781906484,3.6168736587105497,3.969286805032086,3.856327166814074
1260,-0.7240424588277257,0.01562332295407071,0.4338964719958998,-3.5697046268893486,-3.1147165095346376,-3.4454722328585716
1270,-0.6938983660217724,0.04574881212112332,0.4673236070485511,2.335989763887212,2.1561304379724486,2.020461549162186
1280,-0.6844789292682528,0.05920542224359607,0.4758206715567987,-1.7925254113315094,-1.6537840886190627,-1.372372848914664
1290,-0.7134097656694488,0.029945118284582926,0.45690301086118906,1.7776929637334344,0.631886072346397,1.4694842822034304
1300,-0.747917396707685,-0.004511987550633853,0.4183454349991889,2.2362293437887457,-0.10143211049347897,1.0402846190649209
1310,-0.7132979481608367,0.03183793803319162,0.4463184418542398,3.76637683790496,2.6637442212286424,3.215047784692376
1320,-0.7113738962153977,0.032446047422632004,0.4448848793761622,-0.26850045155257374,0.01943558819286939,-1.0963915760489358
1330,-0.6767060661187183,0.062166902706717014,0.4883749352145029,2.060986690917668,1.576687787640787,1.0694691761432147
1340,-0.7240632823288332,0.013099420782885417,0.4422117088317371,2.320172625382603,0.4386532345824552,1.6881529438108762
1350,-0.7272538044038336,0.015723088483434153,0.43421166886797424,1.351243654581495,-0.7965814614884313,0.9552166496362233
1360,-0.7137251543348947,0.03650908255920534,0.4491355947006195,-0.9106246961133109,-1.8187056496138514,-1.6480291045300979
1370,-0.6965252876703593,0.04383016234059756,0.46690276984898016,-0.6763780779865837,-0.34109808402146036,-0.5732953679191412
1380,-0.72843136289066,0.008738987437071456,0.4333313457733803,1.0274868919765014,0.6012735403940305,1.1731041212832969
1390,-0.690396977566802,0.05378722981333676,0.4754034673497616,1.9267870878745321,0.8192922373199445,1.991564046972127
1400,-0.6908850575615056,0.05541822972602226,0.4763746203323706,2.971182016724024,2.0334838439166463,3.1761273234093954
