time_ms,ax,ay,az,gx,gy,gz
0,-0.6343124109227853,0.02043281782310201,0.4819214283750704,-0.5515576568947957,-2.108066546841968,-0.6648878576300792
10,-0.6149718143157028,0.037727196993771035,0.4887293697122541,1.2873006751277962,-1.148248873396358,-0.12779171231056463
20,-0.6289642312638715,0.027080914192124574,0.47711459733442985,1.1497463856203072,-0.44748970412126665,0.14114517283367656
30,-0.6400240639433488,0.014231468506073881,0.47121830309975365,-0.758249228797223,-2.041787915151963,-1.4326518112323468
40,-0.616573876605361,0.034139666760833264,0.4964293794834134,0.1869350341200815,-1.4763161278684556,-0.4420752369363524
50,-0.5933571602330193,0.05557466626072408,0.5171211423456277,-0.3589055005519093,-2.519697795549998,-1.1101567975703497
60,-0.5864936192937011,0.05920759338285727,0.5203212418669114,-0.8847270543370338,-3.2536955350833305,-2.066934286811392
70,-0.6080013448015018,0.04100854643453491,0.498037105600006,-2.4053922569120156,-4.153851638218125,-2.8144712870639252
80,-0.6050267978481967,0.04814403647841585,0.5007410475129872,-0.20053148329741483,-0.5822942942013101,0.1814354988986181
90,-0.5986064215546146,0.057659687048073366,0.5142049369702705,-1.1831558499219061,-0.9351055755335859,-0.9834315253058259
100,-0.6004388553144843,0.053395145665678254,0.5127581992760185,-0.7091481809149892,-0.6419751304426307,-0.4109224604347378
110,-0.6034575599462535,0.0435141534041268,0.5018604115182684,-0.7629704012675947,-1.626781685406701,-0.19677491138789566
120,-0.6053404966089877,0.03669784310203915,0.4947458550247875,0.27816511279667466,-2.2063164510076607,0.20619701475236396
130,-0.6119993116896977,0.03371188334621292,0.4908358890243363,3.5450470154347897,-0.8646401254590108,2.851030088381332
140,-0.6275876268526388,0.023127902392662856,0.4749081893153723,0.5332496553695443,-4.8831634537592885,0.1547599206217094
150,-0.6341299083653391,0.01712135712722326,0.4797089965401733,4.9815892691834245,-4.030995171157108,4.025139905066286
160,-0.634943464925461,0.01379995755653897,0.47566918808012043,4.614015863949272,-7.556275820129008,3.505984312950873
170,-0.5992714310695627,0.046431622462943724,0.5044528088841479,4.200666777886929,-10.015850865636772,3.1126465725107026
180,-0.5893255386434717,0.05754295527303682,0.5170931341217907,3.3262809446190005,-11.956796805337707,2.374408907995686
190,-0.6404923669336029,0.01789554792889974,0.4610745236693164,6.43304352609498,-8.184388096215294,7.318014593231693
200,-0.6253569110702666,0.029348501147249014,0.48231452596149893,-0.8329091805195155,-15.511504579204956,-0.30919459524612414
210,-0.6295925093629016,0.02860580188060655,0.4890596813055673,-4.697496859844701,-18.805507032813132,-4.174714106343358
220,-0.617649659076795,0.025888125859014198,0.4965945306641596,-0.5331881908984837,-10.840238885135895,1.6608268996049238
230,-0.5966724075444233,0.035659201457897714,0.5154593679687866,-2.9512061248870607,-10.017132451268392,-0.21724552158662425
240,-0.5944377764013604,0.042045130816215165,0.5247468028038695,0.5862406266274047,-5.0724791033374945,1.9536720087487836
250,-0.5959681928343162,0.048478128706374024,0.5260497233492194,-2.5300785223280418,-5.710304043395437,-2.0178824656578436
260,-0.6119798061111732,0.036660921809338796,0.5070129282119451,-4.129305700498995,-2.7670619496974234,-2.3989626148386405
270,-0.5886289413977148,0.04983792811970122,0.5216816836429048,-7.406925256066318,-2.2814097186373226,-5.019836529838327
280,-0.594992545302495,0.04417167263049779,0.517171122669648,-11.602194668278912,-2.7005972145149966,-7.489550846617423
290,-0.5729246587583767,0.049858834520241035,0.5395716031930479,-11.788540096715305,-3.7321302549417608,-7.493432516470419
300,-0.5793311955169033,0.021662425482168533,0.529884745674771,-9.507382460937325,-5.094060372603825,-6.27201193992523
310,-0.6093867619735877,-0.008270538238877233,0.5007657083804755,-7.373881995908461,-5.491219123495484,-4.914274855547555
320,-0.6052022152787696,0.012875981407786723,0.5205331146623878,-1.329045749733468,-2.7313028601221334,-0.07980128268980291
330,-0.5805172979966254,0.03795043220460501,0.547266115416376,-1.439722904220851,-4.641940833155498,-0.7804608911507068
340,-0.6005314532358093,0.017945605750564066,0.5054362535432768,-4.487192858869546,-2.717199442242974,1.7337844561720601
350,-0.5727541965217324,0.04954968185869127,0.535122654423471,-8.109090124919147,-3.8802212830989578,0.20938289331791654
360,-0.612685650884004,0.004011672131817561,0.5038282516878251,-6.774707361490522,-6.9122254234181035,-2.3336433068906857
370,-0.5765129013783996,0.02884594277262377,0.5362361770478092,1.13440539984265,-6.177824064157207,-0.03189869418100802
380,-0.5931076434558694,0.02556514553333096,0.5140484509708416,-5.47189061482227,-8.611706648400926,-1.8058708738186633
390,-0.5737738282492273,0.08507141883930855,0.5383025847909453,-52.774538873373245,-8.339697229029882,3.6656293242783473
400,-0.6154947518854981,0.005506205777723216,0.5085403048158599,-13.655727157587945,-7.80816058282625,-2.127638270032663
410,-0.5951139566891155,-0.04498974887257984,0.5282859530923886,-5.853961552937545,-10.125094503940904,-6.6673191965108645
420,-0.6040134796421731,-0.06116415746287664,0.5132739573016247,-4.427356707815721,-5.351192396649791,-1.6315030068925984
430,-0.5684399745784297,0.01311035539640564,0.5474464497661288,-3.309991977827862,-3.0922065810774964,0.018736435426064513
440,-0.6032550359627706,-0.017459077954360865,0.5195559287659637,0.7569291897529307,0.5113808618795763,1.3703216197056496
450,-0.5989630166822218,-0.00310937048637945,0.526320464346613,4.8326703048088495,3.29539037757144,4.9484427617244435
460,-0.5870554067361738,0.0143177353472011,0.5351514031842599,5.752169701206578,-0.25497203026375626,1.7436122633955446
470,-0.5893085384678799,0.007714238098028521,0.5224181044368479,7.899753397947175,-2.6968660562292435,1.1529683886494366
480,-0.5797550564019953,0.0170548341738016,0.5327939403899459,10.172842486768994,-1.5124450119273807,4.510673087886391
490,-0.5777855588868694,0.021022268928593178,0.5393082705920145,6.141391215949534,-4.390896092415076,3.152969315689455
500,-0.5691919651457704,0.030871565212453364,0.5437021839246671,6.629502334378106,-0.954881697012307,6.9305954591752625
510,-0.5634209002205557,0.044505687055732254,0.5395332873732225,0.9356902636424191,1.8290238853007443,8.911195818094724
520,-0.5780401597399256,0.029637344987917827,0.5334610492921272,1.3328686932833556,3.3019504554278205,9.464678577041376
530,-0.5747107703986688,0.03742058771577479,0.5429724715286095,1.8438462929330133,1.7741583305707644,6.011757018329586
540,-0.592134990189988,0.023979897956952552,0.5260901612907795,2.2455991100245987,2.334565411997114,4.913339851568707
550,-0.5760555236254611,0.041280019577456896,0.5405339057687334,-1.723459697122725,0.6330052168650986,1.6851996137261143
560,-0.5673800423623311,0.04847863668118158,0.5468894845033738,-2.2926293924370427,1.7964140976926408,1.5688539008101008
570,-0.5742201107908259,0.039706979262923214,0.53685961575496,-0.11663654213190677,2.885994158971963,2.0296564327008397
580,-0.5908164781614762,0.02507560331463038,0.5255940630287121,-2.264218803347675,1.5195601066648874,-0.18081531319212552
590,-0.5752198001305722,0.03453592348728557,0.5427717061495803,1.5894879661363053,4.237896010482473,2.8753264155361196
600,-0.5706706601854586,0.03863495388486131,0.5413632863527519,3.1519383121020534,4.328142522160918,3.323124703953528
610,-0.588654692576905,0.026766267704942122,0.5229387857719713,3.6086528461495693,4.443508475041579,3.826990847589414
620,-0.5816295793824992,0.04234911539128634,0.5314183557329425,2.9533209637832636,3.3214197317921075,3.5913373451465804
630,-0.5640234363102276,0.06511241570395894,0.5461794840084472,1.0867302025996732,-0.37330564736601524,1.5187080675013753
640,-0.5901128410777308,0.03686686348376794,0.524648635865448,2.612849618755372,0.2899549971771844,3.782986274421597
650,-0.6038614346189769,0.01927391064967076,0.5139241403365988,1.8031449930429517,-0.29425558872575047,2.1412718350327165
660,-0.5751197868783795,0.05022525107828603,0.5453801733652988,1.5175786035430303,0.6663566492533168,2.1726612128910134
670,-0.5876667667787724,0.03649322548819174,0.5324574472774175,-0.4714672507137447,0.7634729556841768,1.0153679888240712
680,-0.5623566358270133,0.06282926607092595,0.5569756246754751,-2.0163762194869994,1.6414613541659757,1.0161353206074892
690,-0.5903956872311084,0.038893373365085714,0.5288607837649236,-2.769967631161628,2.7659692093629955,1.7824573325646256
700,-0.5991496191065229,0.02861725630363601,0.5184203421070751,-3.8482638636806197,1.8838119344488424,0.31826060662001043
710,-0.5865134850514911,0.04348926651308635,0.5309679474167319,-1.76487637937704,1.2962308687835846,0.3152658187219932
720,-0.5955942430583463,0.03037747926912976,0.5225041714082377,2.8570186827280564,1.536248455734969,2.530638986175235
730,-0.5848629313355969,0.03842070503730146,0.5325998128540236,1.2194322131546833,0.5579459591174738,1.986644586490375
740,-0.6030194558897447,0.02045841121392568,0.5123661501463781,-1.5579378562087784,0.3224844505291744,0.8308126262258875
750,-0.6099893340106838,0.014663607109771125,0.5043333543885736,-1.3159170256521984,2.38307545159412,1.6333911535110395
760,-0.5825302333921738,0.043890546176690984,0.5337661850371072,-1.6558186162505937,2.8056324703770197,1.3591002026810295
770,-0.5699633261662103,0.06849752425578869,0.5470767827568425,-2.6392281263491038,3.132472431079684,1.3056100221817692
780,-0.5844415738819538,0.04823588300311243,0.5258407922478163,-8.146581439111642,-0.5150254266598191,-1.6565640031881732
790,-0.5900280567198353,0.023028029702453656,0.522993146512035,-3.19752478473022,-1.172039323843828,-0.4811667917623442
800,-0.5516623267116851,0.05899111515160581,0.5622786480846763,-0.47886506449427446,1.414102302252772,1.9105279694000037
810,-0.5776422374758848,0.039877284451369885,0.5368119578168372,-3.0136326130594293,3.269468182127775,2.005193814682455
820,-0.5712288712649669,0.044324102337364835,0.5456213029009767,-2.838160821761404,7.294732287719822,4.455665407085564
830,-0.5804729602496377,0.017557170748163396,0.5402159069699408,-3.8723116464348846,7.968799003891595,4.906373588992501
840,-0.5538236632383163,-0.017708322911828302,0.640971183177032,-5.272800045393515,-1.9467876697279172,-1.1753080053704128
850,-0.4640655850058558,-0.2383546583540974,0.6637810972808516,-21.554770612105333,-51.05843042084812,-33.20376689056856
860,-0.5062686126953211,-0.08476671109719783,0.5812087546082876,-12.099192913760497,-43.551693423460186,-25.75939009808876
870,-0.638210177618965,0.10468601275039596,0.36623817450824075,1.7692075593695074,-28.0669555993185,-16.09440858659943
880,-0.6081176251054453,0.054075714954327544,0.34925641190232887,0.45631928815395345,-22.521675623662762,-14.812687685836266
890,-0.4065164188771547,-0.24318592624876995,0.690788197014166,-29.494941927442046,-16.896246907799924,-15.603658214511764
900,-0.7341960400083025,0.13363349799835658,0.38990209775497237,-13.378724942381478,-4.292410522193865,-8.76781257283173
910,-0.42481891516256015,-0.13826389617687393,0.6196030888666956,-11.854078436042448,-18.279429342206225,-15.231813294368575
920,-0.571566836824937,-0.09338959617793237,0.44955184253555336,-23.71629379032077,-18.850054128554746,-11.129511015427845
930,-0.6489954916102565,-0.026122625004917414,0.4257232733404691,-13.435331399643783,-9.523919822204196,-3.75899631241376
940,-0.5488674371985762,0.027506606891755086,0.578851040646108,6.217494786848685,-1.1246518148574653,1.4069979178109682
950,-0.5350528701044435,0.03370345141412857,0.5836775265331913,7.396453811545741,-2.9210348883977897,0.19167266847606967
960,-0.5748396478831403,-0.001210191069925877,0.5421225908076067,4.362501179474085,-2.89170231941352,-0.2378461692492766
970,-0.5868860305809633,-0.008324616311991731,0.5319327553695523,2.1303614696753272,-2.1111493819383047,-0.7651211524145516
980,-0.5423388513285751,0.05371440294346265,0.5807599620602956,-3.3660145630319316,-1.994037066146999,-0.5225692149403235
990,-0.5830772544278521,0.009968965531892637,0.5432433096502455,-3.7321018069161487,-0.9704911058993462,0.41058721417262745
1000,-0.5871045439797653,0.003725502659658272,0.5422433381778792,-1.3100275569648872,0.5518225440926855,-1.3671391932993684
1010,-0.6225156346565742,-0.034832533159089206,0.5203049997903537,6.973387117532984,11.028659559893478,1.4298620837512086
1020,-0.4858019350308722,0.0488810596297477,0.7080775407314532,14.457147205381865,25.241644570312907,6.79006365265093
1030,-0.3150034540901302,0.05386962131553246,1.0459238758752427,26.225275584216917,20.83813031208084,6.567102496888122
1040,-0.8280227223607712,0.0309187449912657,0.11312126314127173,27.689033545212254,42.07537778071659,13.205408030178953
1050,-0.7413239542635761,0.1582615345836442,0.19760454321486082,22.56651134376719,64.39020065677852,29.950789303503612
1060,-0.7243381679208895,0.24445264299574562,0.26235909725872325,28.604340573284006,56.7827795841396,27.33810981586597
1070,-0.7041012644465747,0.12386831609251797,0.43062391494830426,32.009714466086386,42.16588849102133,21.43153529441384
1080,-0.13740459079012082,0.04890295138715025,1.377093606492669,1.68944409754614,34.947862355655914,20.144221012640614
1090,-0.4112150028840965,-0.10912237647448894,0.96867928273619,8.008215627799814,9.126667462486768,1.6821231755033343
1100,-0.4810765462389172,-0.1734020906075651,0.8134224352140923,-5.280061642587319,22.960714958806058,13.736447814219463
1110,-0.41925121487142253,-0.05565049802270643,0.8246459488248369,-4.712559942327381,12.896914570441911,5.719952827257716
1120,-0.5166273421614251,0.01858995196805349,0.6549126555057218,-1.5955893610506502,4.3176539893322206,-1.426990001880522
1130,-0.5822011804850089,0.06601314645101478,0.5424064889401661,-4.107723690738675,-2.008579742280293,-6.730783722707858
1140,-0.5444153039248869,0.07919017487972652,0.584048824438541,-6.467923532438162,-3.133402681716458,-6.894172445991134
1150,-0.6010233427477975,0.0423180621907617,0.5205017710997788,-3.528141482511995,3.317266596753316,-1.2427416756311898
1160,-0.6357249455838514,0.014630297067154671,0.49468953558222345,-3.1368414088461636,-0.8899255385792866,-2.8342078225773117
1170,-0.6102055084943907,0.05155254089726798,0.5111819759807864,2.500538281861508,-4.385691416793047,-4.266130068662195
1180,-0.6325340146229538,0.029068543339487947,0.5037022128797705,5.024617000916596,-4.898296659365775,-2.132583284379256
1190,-0.6163639466947951,0.05442845591476168,0.5427093736051133,5.903915224283738,-5.607200090345876,-0.5754359582146036
1200,-0.6332832698408477,0.045982227865597226,0.5248579128400183,9.041574801689073,-6.018437698701428,-0.6895085221045838
1210,-0.6088632723340632,0.05329292065556598,0.5314674167596651,11.482951692283779,-6.971460610249533,-1.63821919364914
1220,-0.6302829932437476,0.033359622797892105,0.6377179289022237,10.705409313098091,-2.5753480546366516,16.886543642526668
1230,-0.5537060169171348,-0.004723131337736514,0.5606395996747506,5.705355460350903,-8.61815941258023,12.597439113912483
1240,-0.503973919328105,-0.01491597516371,0.4778964587445253,2.3724896327884495,-7.767618576983535,10.193560785591341
1250,-0.472752193131499,0.08384958124448519,0.42882024178065276,-2.1346576348070108,-3.07671045341229,6.6423973787219825
1260,-0.4988612705365549,0.15062919093367635,0.4016730220918821,-9.537605190882362,3.0068895595805163,5.468519529980863
1270,-0.5139495933339007,0.1529014694546975,0.4551676294723269,-16.937837257164617,9.849259970593884,10.826057196854387
1280,-0.5528216506363957,0.12181724911961533,0.4767171747369929,-21.433323217742597,11.698817317188253,13.12294798355336
1290,-0.6354427437627864,-0.028073575515515058,0.48224064506171693,-15.624100002944855,3.2399661508185797,-3.358523972855013
1300,-0.649756217811826,-0.12264921788547727,0.4696957157119283,-23.421045862104965,-3.5297512215237212,-10.076077360488767
1310,-0.6054395881913913,-0.0795051763168401,0.517839804388536,-14.787587130989644,-2.805840668993012,-5.035645799527234
1320,-0.6236879950460711,-0.13961457199615923,0.5183769569941832,3.937881917428367,0.7340933714067823,0.7465656350317564
1330,-0.6219311359435211,-0.2596665140968312,0.5047112182297478,8.659960560625903,-1.1297279899234831,-8.731563256053263
1340,-0.6192103015376225,-0.36605903267683154,0.3964799035282562,-6.315928272371277,-4.8792536871808885,-36.00779290176924
1350,-0.5613268991651521,-0.44062361341553363,0.3533663488809649,24.515084249616496,-11.401823602419153,-78.10301347796215
1360,-0.5194654031840117,0.03214043080888444,0.5975137058043632,59.676059758870416,-13.612650526068494,-42.22441849271387
1370,-0.4926196810926735,0.04011127939410011,0.5135075828403199,40.487208999676696,-1.8114943236164995,-21.713703824468823
1380,-0.5470068651393081,0.05915931847400314,0.4552648331733565,18.559592847382923,7.741365762083673,-3.684969919374397
1390,-0.6204434997046214,0.13524281201172628,0.49978872240962496,4.4967060449698515,7.994519613315601,3.5566516467422056
1400,-0.6212121150914415,0.06939766798159508,0.516928552405452,-13.27730812749077,4.142363966830749,-9.778158979330907
1410,-0.6389356399749545,-3.710729819652453e-05,0.47305151187316136,-25.37285295694456,-2.7884634206439443,-19.45970740322875
1420,-0.6296931188851109,-0.0067586638722133205,0.4905030132677471,-15.974443363181123,-2.1080370226735727,-14.771288154876892
1430,-0.5971574370385059,0.017312621460445363,0.5275508616464601,-1.0296589082690726,-7.60186034698765,-3.411115350083234
1440,-0.582954454683849,0.032741663858052356,0.5401940441576617,6.960986154051197,-7.776432298450259,2.703846740454795
1450,-0.6021551980234875,0.01941684430412579,0.5176196366095824,11.673108111544302,-1.4233723923413675,7.086970372808753
1460,-0.6027050331842223,0.0208742699048243,0.5150917768847879,9.853480990148642,0.2672398545320438,5.801120151547396
1470,-0.5969542995457537,0.01908401963840025,0.518356983953325,6.569443528902593,1.455058099661536,3.1456374534657483
1480,-0.62570913263647,-0.0028955320724139144,0.4838576499339837,1.5157581859147014,1.9457230899052727,-0.1921675734233732
1490,-0.5740614124032639,0.05441298854189949,0.5339081643466295,-1.0011572938755418,3.4692768068570303,-0.9928221495120745
1500,-0.6168944582812426,0.008916196005473234,0.49550882875079294,0.08909954745093054,-0.28215672159007454,-3.1644302103759125
1510,-0.630779907647561,-0.013454369614266107,0.4846045700928348,3.6207223703928273,-2.4776692615589972,-2.4472603992084068
1520,-0.6203926484412386,-0.009816781655675674,0.49443678697410126,7.324102573628087,-1.992316559304879,0.5529771186561308
1530,-0.5870561460812765,0.02583452733613584,0.5265234934029193,10.62590176370216,-1.0462984784362213,3.3183330632458277
1540,-0.601373918024494,0.02130469873845815,0.5092390270539873,6.016180324392366,-4.5773338962974135,0.2750868997614435
1550,-0.5635298931336734,0.06045618166274712,0.5439578753487903,8.129187233847654,0.19055039228623083,4.623755399774223
1560,-0.5888352767959578,0.03511575470643081,0.5255766819022564,4.032331698424463,-1.1149583174674218,1.6982452131781154
1570,-0.5820202231294539,0.041316106508246526,0.5309639179802584,5.523507052520699,2.7738770677262443,4.217363142194108
1580,-0.5955526586855469,0.023321714069505065,0.5103795749979916,3.934945569791836,2.085644232323212,3.4911209640195358
1590,-0.6149645058302982,-0.0017828840757115431,0.48978627843752487,3.036387468439065,0.057822265127063455,2.789981600455869
1600,-0.6069552969402142,0.01362635509267269,0.5077612002011223,9.958213130975416,4.793975758933656,8.933125344021278
1610,-0.5809958232312576,0.05198202483917103,0.5357918455966316,5.251608470773842,-1.8460293690385514,3.3878966417848493
1620,-0.5936842175210989,0.040840391681502795,0.5165429580645042,6.493040468903212,-0.391954688635331,4.871205456528827
1630,-0.5791128701559609,0.05864699788349524,0.5311102992855704,7.685864185805672,2.235104130155965,6.414625568850978
1640,-0.5959371919877376,0.04519777125897386,0.5187625502618763,-0.386649128452659,-1.5388692959048536,-0.5218484924931475
1650,-0.5911999411135611,0.05001290936222434,0.5259932954220566,-1.9609117305802943,1.335106062478034,-0.8467556073536193
1660,-0.584753566375337,0.05189965932107365,0.5288608020690132,-3.0014091535897176,-0.6371412653877375,-2.170317032045563
1670,-0.586453325875722,0.04091863704937518,0.5237237695506292,0.759774971142985,1.739582288167883,2.004366066700205
1680,-0.5935093981468824,0.033694482615941386,0.5191597825375263,5.743662648353512,4.070968994913809,6.818121588851403
1690,-0.6016268917135519,0.02494128060266678,0.5124094353878043,8.825133953270168,3.571556253317371,8.871739938065833
1700,-0.5920662940374557,0.04321046675709123,0.5251352197246119,10.630425450178995,3.303193439116587,10.379385500039355
1710,-0.6157495722497703,0.031201829828960005,0.5000935160745896,6.890662594906619,1.1532053956243877,6.750759330635005
1720,-0.5586582690014567,0.092591275294431,0.5491064562734028,-2.6828895751442503,-3.536025519948841,-3.0812017279584127
1730,-0.6014174497093945,0.05267371245782998,0.5116517375499078,-4.004897658620238,-1.6822519824812976,-3.9192877310843928
1740,-0.6024888398117063,0.048255787882964175,0.5143916027631317,-2.3397466806140135,0.2611784514663194,-3.1012654803940625
1750,-0.6031465009871421,0.03605017419942386,0.5076033942946367,-2.6962091352944766,-0.3099348192975869,-3.7546951119145473
1760,-0.6103131483868329,0.028626250471622525,0.5000332318569112,-2.4480619182982406,-1.1532440076719992,-3.8676972558362426
1770,-0.6071602630246702,0.03493752522168964,0.5058413106266657,-0.860102094900132,-0.6262108618766666,-2.356151266198952
1780,-0.6045797754241694,0.0363795474148783,0.5087955025534188,0.5615578701115548,-0.8513747035233783,-0.9758739238044452
1790,-0.6018063146889864,0.03877775470350912,0.5097705285799714,4.173642388883732,-1.6261231605557205,1.4234443875909286
1800,-0.5999079566065121,0.04534637698084562,0.5102840018629821,11.823601530946561,3.9197808920134074,7.074308671693373
1810,-0.6056338186849536,0.04104029962165092,0.49982282158057856,6.240234999711559,-0.7411194732914381,2.2163201037703257
1820,-0.6054012611700976,0.04554516064989644,0.5085466136172208,4.300487065571707,-0.9810607576793406,1.3423145215335412
1830,-0.61831245776749,0.036959568756566655,0.4967559777862871,1.527306350373846,-1.1555178203495684,0.08799397509907148
1840,-0.5848303006816626,0.06900359161507767,0.522135945396213,-0.788355754037908,-0.934820218883142,-1.1584299646761071
1850,-0.6056117960196522,0.039448709785255234,0.4994581256290476,-3.1059743355397424,-2.5781574819017994,-3.819393270685268
1860,-0.5959903622269193,0.04749339231070563,0.5221901055173568,1.3399244251994449,-0.4262043310809584,0.8515056159742458
1870,-0.6026044920785036,0.04112411657284644,0.5102183881744263,-0.141425431887781,-3.8497538720701097,-1.3443927104642894
1880,-0.573166119271872,0.07196201292899923,0.5361664056440487,4.0737777049263695,0.9152690249850304,3.7913047956170614
1890,-0.5837422789468357,0.0634567013496253,0.5281553794988222,-0.4571278464073574,-1.1748169509182236,1.0683150162389397
1900,-0.6051143052448572,0.042997048598142684,0.5097092823979729,-2.68475817130654,-0.4569996830381744,0.4241438780891831
1910,-0.5943589216251348,0.053468175595152614,0.5180166225452819,-1.9285636859674122,2.1540956350301634,1.5288079580638945
1920,-0.5974967562310113,0.05241572854077828,0.5094018000135851,-2.1879470837993646,1.230523723754406,-0.21130295185194847
1930,-0.5838941690635671,0.07151670998107683,0.5281924903720456,-2.019239191424486,-4.801442646138241,-3.9485207788530547
1940,-0.5812407913406612,0.0726660337968773,0.5331263653075842,-0.08765004644593954,-4.177545406349715,-3.835543660138276
1950,-0.6066405642470587,0.03487582536863784,0.5068429559497142,1.440596236134255,-2.3568834795008344,-2.0902434444219846
1960,-0.6006638025517006,0.030139130852701333,0.5125095691783937,3.0909211315660663,-0.03910166109196389,1.18258436895155
1970,-0.5824848027371539,0.05601660831580357,0.5270107601259889,-1.053410831755241,-1.5468490129110903,1.2891151912117875
1980,-0.6045712982833187,0.060491710121379993,0.49432356576765724,-4.871772700856446,-0.14284975702151548,4.055619015813382
1990,-0.5966381560315794,0.045414298966093655,0.5190325770784507,6.170059398563702,4.992722699535831,8.619422059379556
2000,-0.620073641377628,0.03432239397965941,0.49376083455886255,3.990181757169101,-1.6874055048178818,-0.8636651294511343
2010,-0.6047941234523623,0.048531684482360705,0.5085497469128462,2.8592403207604633,-0.2573038455271392,-0.8720345263320644
2020,-0.6138058729119693,0.03438268872526102,0.49721376322582106,-2.072111718899197,-1.1258287602349901,-2.1358772603127045
2030,-0.5766114737363741,0.0712920448614891,0.5341628030355187,-0.5135559252140248,1.9890524321659147,1.0505776675712621
2040,-0.5885260286773345,0.06407504189118284,0.5256153384418273,-1.4761069643865021,-0.5080024282961186,-1.1042114456990137
2050,-0.6084550471939775,0.04258753639002148,0.4998451876880777,2.962322635531943,2.4553887460477313,2.9661700333835315
2060,-0.5894948665490686,0.06961265239610272,0.5220483955188596,1.9277291333379494,-1.366682166428583,-0.24093180290928146
2070,-0.6208549734894463,0.03376598058804442,0.4993429577294538,-0.7591218618352791,-3.4685856970229474,-2.870948549183261
2080,-0.6105602535915159,0.03316013926256938,0.5034469489548669,1.3484219470918046,-1.0985513979024426,-0.48717563705764133
2090,-0.5958101056241958,0.04371931902261032,0.5120657277923663,3.1519843025121648,1.3294007762299844,2.710122286013358
2100,-0.6177798727680816,0.027636804616894373,0.49227561385486,0.9920562688316359,0.1515368790459518,2.459603799532201
2110,-0.5799003722181527,0.07219588303471888,0.5296912362606132,1.234712118618556,-0.21926818693235928,2.3309749499219277
2120,-0.5773953303915691,0.08645438689619542,0.5365601989630496,5.254796147475629,3.151344646802266,5.235652041043293
2130,-0.591810343299154,0.07551728049759142,0.5236747601902367,0.6752244103670585,0.1584878301073705,0.5230828619519766
2140,-0.5799992824710206,0.07796754796091909,0.5320806036116635,1.8976535838530235,2.175493001996607,1.4334303713532162
2150,-0.6022153761389926,0.05056363600411019,0.508547874497684,0.8156367285344704,0.5690300410154584,0.2964819361350445
2160,-0.6033577897881319,0.04956252008412918,0.5083834730606167,-0.2491588588581518,-1.6296159646360007,-0.6110854792743295
2170,-0.5754502466625595,0.07656826849595531,0.5358994923673501,2.7249971388096466,0.7292397676277619,2.43996210553841
2180,-0.5957415736765548,0.06619784481745802,0.5162268440137375,2.0994261897146194,0.40244775107827135,2.233115086448848
2190,-0.5710331735598704,0.08876885706946047,0.5410835406958947,1.5939142667041033,1.0092613730274809,1.9783463793789737
2200,-0.5825874072047154,0.07082440884279523,0.5278375289896333,-1.602881224792005,0.5690189098896642,0.4222163046662609
2210,-0.598262512380171,0.05479874266053639,0.5112372183270145,0.5973350439283438,2.014463384189921,2.069972793861526
2220,-0.5940221595043812,0.06168292171476911,0.5174191278059572,0.22140170790080843,0.1588528765685141,0.5926195647148178
2230,-0.6020868358895823,0.0551013390145978,0.5116457989433512,0.050118238744022825,0.7593751388719572,0.6126524470663002
2240,-0.5889534468496676,0.07075374869752991,0.5205147589645763,-2.5240161244965655,-0.8215007925213075,-1.8073827036431531
2250,-0.59472410139252,0.06005212383855432,0.5190371961721991,-2.4380774134972514,-0.9781358032622696,-2.31482252351815
2260,-0.6110718358877749,0.03905532412311575,0.501086673305234,3.474581173088913,3.4836435892876776,2.58038987393314
2270,-0.5863290675607846,0.0662264671093276,0.5234155109580474,-2.2230429226571724,-3.4262727488704967,-3.333877205377938
2280,-0.6300151276943571,0.027155546191438815,0.4797917915828466,1.5638579166712119,0.6382179954401703,0.6544254748419924
2290,-0.5888060077438091,0.06997965778329147,0.5230608254269872,1.7229427453242225,2.165778234931404,1.3873195801251967
2300,-0.6046773780381943,0.052226760766827834,0.5085692517747159,-0.16868961001365668,1.0662445431550167,0.5618938986147013
2310,-0.6190721122385231,0.04170816242043925,0.49606754792217,1.4487898462166817,2.028694377948774,2.12030916129339
2320,-0.6053528324592833,0.053021275244408445,0.5052552208428044,2.675087567443164,1.8102818720576925,2.069178939250109
2330,-0.6290973979439446,0.03100028828566974,0.47975019528941665,2.8506733502129533,0.16897985430929835,1.0591814820309906
2340,-0.5958337925975474,0.06349065591100302,0.512978263254231,4.418580585962504,0.1530737522251774,1.5843414447231292
2350,-0.5856243555031783,0.07192980932663996,0.5240177556071296,2.737007586107932,0.4513301905937514,0.833066654201817
2360,-0.5953537724102939,0.06199888814015465,0.5145605980237176,-1.233135574151476,1.9282446209147888,-0.1446745446129647
2370,-0.5774479261869029,0.07682834461005127,0.529559945025963,-3.62424631283555,-0.35168994433654666,-2.3049970990909996
2380,-0.5815540470635743,0.08000364850609605,0.5326985896601452,-2.5370585889219655,-1.019035771369472,-2.1430357728202134
2390,-0.6008849162274069,0.06055251298920667,0.5108244459608259,1.291975873568109,0.9333369349514853,0.6884299998895904
2400,-0.5889156007994182,0.07311343077893863,0.5239997146126258,0.7050282624061563,-0.9306396568920863,-0.4436239413871362
2410,-0.5946540719308487,0.06454807769034199,0.519210115911886,1.177890904966269,-1.033530387324173,-0.33102749639672613
2420,-0.6053291847968657,0.05171889818264124,0.5087053032058977,0.014366922734106613,-0.8584040671248454,-0.6980064505227981
2430,-0.6104374708445075,0.05576105232111242,0.5084905125979089,-3.8594015278955456,-0.12580871970257235,-1.1228864497377287
2440,-0.5978342665218496,0.06148402229627495,0.5147240955342165,-2.7012268553313805,3.003028513453787,1.3450904854796446
2450,-0.606995373321088,0.0579838932287763,0.5024081898199998,-1.919054982372546,3.3001485256068364,1.7189185125085484
2460,-0.5640399649452982,0.09434884810750022,0.5447452822017936,-0.6769665231893973,3.359248850985363,2.2550604859346732
2470,-0.5868277869028775,0.06777501314338968,0.5259282672268547,-1.1966364142596748,0.6615001460458806,0.4668436544903235
2480,-0.5961106945688077,0.057373357312717636,0.5214342747800399,-0.17637138761109517,-0.7159484198276088,-0.02765955024723543
2490,-0.5976306443726543,0.053071334359796364,0.5190532380106733,1.3811503146554256,0.05133771244459795,0.905320788750093
2500,-0.5806335411510775,0.08512519349830287,0.5270043256630494,0.4495636484024421,2.1159529938908075,2.0614572956997144
