time_ms,ax,ay,az,gx,gy,gz
0,-0.5934982246521622,0.8122115586304371,0.7724261828751229,-2.5248023016486396,-2.759033791508645,-2.3536220752424097
10,-0.6292710695857597,0.7755841843108205,0.7336879186512133,-0.11481773081240443,-0.8093814249623301,-0.8202738335270437
20,-0.607608918638093,0.7984129527880388,0.7597455087430214,0.8203827713250722,-0.0472348773114091,0.12250845971591179
30,-0.6215028771157062,0.7907885536582466,0.7451909375207832,1.5867030626935765,1.7092488828159482,1.904087188355923
40,-0.6178914983476934,0.7895833605560876,0.7451418476947547,0.8678322075391824,1.7908835439078459,1.4541700314638815
50,-0.5978627872109816,0.8057634399569864,0.7626698033334625,-2.133177192892663,-1.824263170891741,-2.1299938729599215
60,-0.6309389895097703,0.7777037710508747,0.7362447931939003,2.396763334414228,2.0497882204454583,1.6592677383419996
70,-0.5674846274493011,0.8409887032051868,0.7983050841349938,0.5017485623747595,0.22612487868833392,-0.48179417973089067
80,-0.5795393790117621,0.8288049022707786,0.7788863781977824,-2.3115070102086905,-2.0620925679518347,-2.8704566857291773
90,-0.6051786090285963,0.8018158176114047,0.7592241570411442,2.728379461707373,2.3219974808403454,2.6582587137106493
100,-0.5896546647614327,0.8182466449947248,0.777442738189183,2.071712151828541,1.8438656449218715,1.7030162474966823
110,-0.6254911859812609,0.7871093354020153,0.735909038177771,-0.36641799525289276,0.5441370872031898,-0.22451285762705941
120,-0.6349814090086974,0.7673084675082018,0.7232392110850459,-1.1156605367866996,-0.3603358309957816,-0.2941134062658448
130,-0.6158685310878645,0.7761457235163851,0.744816678664738,0.14916177572869677,0.785705278048768,1.4972078982421162
140,-0.5836482384755617,0.8284717959451009,0.7860327830790674,-0.5861360765183585,-0.7831131716284969,0.6014056608556069
150,-0.6639070999943704,0.8049518184694544,0.7383711932784732,28.260349705617728,11.51814586298952,10.066623942367046
160,-0.6040806804168021,0.7622278035191385,0.8699309469609698,23.693247769170767,11.665384362550158,3.8975114008554748
170,-0.466247313399576,0.6832346849349628,1.067576555002849,3.296036220994921,-32.10808382711833,-32.01536151125913
180,-0.3676836544017207,1.171448954073065,0.5064584408111757,-33.75541271966021,-79.27906427521309,-68.45165530904893
190,-0.6844764368161929,1.0707112313042273,0.6374814883618429,6.975987188078061,-29.96281258568647,-16.151445989365246
200,-0.7091312110723517,1.0888290169334585,0.45764142998652485,20.92500632999629,-9.138809857951637,-8.842772422878669
210,-0.6019937585495542,0.7940121009558321,0.7548887304610595,-14.633677525067103,3.417575812264152,0.7809303391823774
220,-0.5851535213093594,0.8082519235144832,0.7741119279675457,-30.82510088468414,-4.144767388515096,-7.125757131648062
230,-0.5959774710717388,0.8078036491808424,0.7776334123644478,-42.66228087923167,-5.949353504951276,-10.36291355670595
240,-0.6275682671602281,0.7612384184456066,0.7283962282114355,-24.80367466781355,2.6581098670163064,-7.375443409562301
250,-0.6582812259708872,0.7428783600099317,0.7820407030972745,-13.880926074926112,6.031674308095884,-9.347908974236697
260,-0.6532760451959192,0.8094878987672967,0.6123956925800423,-0.38782093716881594,23.444687350490682,-2.91249224888081
270,-0.6423341383159565,0.8117222783993172,0.6401001269744011,22.049802725342545,41.18092326310388,7.018580072052063
280,-0.8593518673669522,0.7563289145377362,0.09608796892214941,37.34948437620738,29.972808416918415,3.8242930981895973
290,-0.9196652085962574,0.7537508136174385,-0.11736718812633816,62.230524623117006,54.201736098536145,18.813815755489955
300,-0.7751321932477565,0.9951167044364181,0.2727027541768808,28.470912514408354,29.625025592253927,6.747873784765355
310,-0.5496829894622448,0.6032338538716864,0.9609607177402902,27.49628614521802,5.382859418447442,-6.989420443533042
320,-0.593042114168839,0.6874265086881883,0.7265661679393319,24.11662977642399,0.25050219699072973,-14.393506782370972
330,-0.5105881788912793,0.6990653034238704,0.9455516631424027,-14.228387149460152,-0.21719588073340224,-6.615369904208252
340,-0.5543937771002424,0.8062895776810863,0.8178939599830605,-16.88470177384337,-2.9599543742075776,-5.301033685639785
350,-0.5816299921256277,0.7832046885705898,0.784495242778674,-11.935330128469056,-5.145033989327091,-8.810497487990228
360,-0.6049753732165741,0.7897846971202048,0.7539655139620025,-20.811469646251144,-5.166531393305573,-7.0390657827239576
370,-0.615672023882689,0.800145752573438,0.7707286962303774,-26.466309844166798,-6.746333896690829,5.205199492235914
380,-0.5619646186292779,0.9105830938297057,0.8091692418372938,-39.91206008807892,-7.475780221575215,24.625436288167844
390,-0.5853388179032579,0.9422650096180827,0.9181603923754976,-44.445892208423594,-8.762728615525585,24.14191162608262
400,-0.6748351182253548,0.57762046244881,0.6919625783380643,-16.358524768392876,-3.491264558776404,-8.994846082242178
410,-0.5650107138725566,0.9217935641699494,0.7993676016932693,-8.73229710545172,-2.9475632649155963,9.278924839405514
420,-0.6701455858058625,0.5507980750514901,0.7449597920253975,-24.084804123296045,0.14435226819171976,14.019049898761178
430,-0.6441599550457031,0.7383615171888217,0.7085464104940761,28.510285050363553,10.373556340767514,10.80464618506521
440,-0.6304277903878173,0.7100059307029228,0.7398128070179779,30.478880659898206,11.660225462206576,8.129953796857297
450,-0.6468863893087494,0.6897541073514564,0.7206780407882256,34.56937165146372,14.641856247516456,4.007347219072807
460,-0.5784303504301618,0.8130261433055944,0.8054069616104532,42.85482441689611,13.192623070252251,-8.57081255022378
470,-0.38360169163343033,0.9717749223589214,0.9695426004039849,37.403759350704505,7.829477093842652,-17.407276529927973
480,-0.5216633527381835,0.7865705677778332,0.89688867370255,-2.702558582907105,-3.8826949611567723,-23.572853259241054
490,-0.6454938528540015,0.7182043733761087,0.8579100525532257,-18.123266013810092,-4.0645863393567225,-24.429717547376107
500,-0.6724020635591024,0.7624397995132882,0.8147819273102255,-12.510145701857686,-1.2401814465443528,-14.70762871106972
510,-0.6323288273348144,0.925538419654014,0.7293704022566756,-4.100694007016188,4.331175134819237,0.6700422365092068
520,-0.641174786387222,0.7202335643197154,0.7133346862464882,-0.35136470171818157,0.6090641637896876,-9.380010682978693
530,-0.6377522437960803,0.8936487305740427,0.7098370303410492,-7.194736184564673,-3.1501080930313283,-7.295283943230182
540,-0.6156018742236193,0.7803742235244502,0.7400429946270229,5.015595395565289,2.201363865137092,4.6008196238189
550,-0.6073445031592155,0.7913885834902039,0.7415256743008177,5.520091914265276,2.22957540477422,4.02444077214391
560,-0.6030918261675977,0.8109323849852045,0.7438437991371113,7.267460825551708,5.0566921424944855,3.169642878977111
570,-0.6363093684669938,0.8019250752958318,0.7055524443107556,7.043412393071055,7.533800817090842,2.23088011816721
580,-0.6403331263846046,0.7891873827467196,0.7122899137719738,-1.8360575932705656,2.84116386819281,-3.379858937066639
590,-0.6262385334201892,0.7936354574565986,0.7201427685835757,-4.747461749900948,-1.4129514418201123,-2.830414565741532
600,-0.6167365101167667,0.7936626591387318,0.7339072860236779,-6.249180769798903,-4.516665219537022,-3.1465168025292316
610,-0.6210810498159468,0.7906487835666529,0.7332112731805902,-3.576339403371155,0.1257536303308388,-1.7112728754244253
620,-0.6463512631609302,0.7622589788175884,0.7056124048439634,-3.3420427315856447,-0.7701257062344202,-4.40529863766067
630,-0.6025762593247933,0.8018323656514271,0.747577817402036,0.6988311486108745,-0.21258275805111038,-2.1327867509013956
640,-0.6159812034459871,0.797932986351617,0.7370504389429419,-1.1714238957211278,-1.0140711047102045,-0.8685024784565687
650,-0.6515114926287364,0.7596969076855796,0.7028416126080859,-1.3836322688744238,-1.076309628116341,-1.501663802150383
660,-0.6340447193865064,0.7738142903007489,0.7227830645746572,-0.37967214522745074,-2.5332879559335284,-2.020517708567482
670,-0.6255623279452752,0.7764924775265758,0.7302878023479514,3.0987638519680267,-2.0270905775190786,-1.646090483211741
680,-0.6184645372897799,0.784252727708513,0.7349801032250557,0.8656365418874725,-1.2112948925281997,-1.7265631642475505
690,-0.6117467727517187,0.7902437938966166,0.7422303993598067,2.3716896849178317,2.282604505011364,-0.6312699641446557
700,-0.6152897409072575,0.7894184649902594,0.7504919310065794,2.5356003116180363,2.5306816299472965,-0.6411058859991315
710,-0.6417982501785084,0.7526843778843026,0.7181282796808098,5.626567287168412,4.205778869374779,1.1174240727797786
720,-0.6179609585267967,0.7904406698778625,0.7362209020541548,5.951657554006237,5.439373939752481,2.8601744742864117
730,-0.5971609066425972,0.8187490457746964,0.748225384182724,13.001960256233941,6.673335814454057,4.135408506083608
740,-0.6275754347219782,0.779281212011277,0.6927626704758931,5.1566519436742855,6.573385875005392,3.9680211596040476
750,-0.6252329144298168,0.816967323103449,0.7270683812350043,-7.019283215049845,5.2452558280286175,3.366428536359562
760,-0.6579434063476339,0.7953454576394029,0.7101059035056271,-18.88276775358998,-5.87668917485336,-1.0658613922693188
770,-0.6163055843512206,0.8039591602315761,0.7365444877638868,-22.69306499128369,-12.042357424745134,-2.89497187872193
780,-0.6127833323174677,0.7954878886657037,0.743763127445975,-23.573146097441416,-12.438083460019428,-1.0361591636739806
790,-0.613280007251018,0.7978109271763275,0.7355867653204751,-22.928087156892655,-13.211675676205862,-3.630815522069916
800,-0.6219889495482884,0.7569906041043014,0.7399939695918718,-16.600126431233306,-10.632624196320672,-1.1417084792838923
810,-0.6099562805482023,0.7673241332948937,0.7560869135548092,-8.047280864062959,-4.9339594403349025,4.126963643539607
820,-0.632405587454852,0.7864787545414493,0.7126935616740401,2.322862083183538,-11.423158367997496,10.242796010801925
830,-0.6266944780813358,0.7723781285651034,0.7323298027997901,12.843931310171698,-10.65569233757622,15.331029241516362
840,-0.5982913654697412,0.811791057144109,0.7594367392593039,7.715037251675753,-9.129371165482297,13.907768253719713
850,-0.6034784328514707,0.810079040805773,0.7514241592992167,4.1767308969608825,-8.789953039482668,4.438559641319525
860,-0.6207001358594963,0.7826030000316444,0.7395177452278154,2.457579607967089,-5.059309433844675,-1.5385902359079298
870,-0.6303940372887316,0.7688139475159177,0.7317860943255282,3.6201808045865014,-1.344941374217766,2.6110331633490453
880,-0.633949137239536,0.762500127922815,0.7262242604716258,3.367074181393058,-2.1667345403318627,7.821386603574817
890,-0.5914146104608802,0.8257462016678729,0.7632612321414307,3.0247249087423285,-1.2738245856085224,8.402076609419804
900,-0.5974767104812752,0.8263527632501612,0.7621052296746261,-0.5826522217922189,-3.1950982343363536,2.9987104414890147
910,-0.6169552085936341,0.8084107523013213,0.7409513853731055,3.3337886326564035,0.5425093089134885,3.3741747694519324
920,-0.6003442382181424,0.8244704797332701,0.7615805505192598,-0.04778913484238667,0.057592184020912596,2.4923183216488027
930,-0.6265648125723444,0.758726584450197,0.7260403449551505,-4.668256824904612,-3.460083644270952,-3.57826487582496
940,-0.6097071918261834,0.7767996604175571,0.7499292184390526,-0.8427156983763036,0.49727270686286706,0.7130193386827519
950,-0.6067845846546588,0.7690494484787885,0.7488554410575878,-0.7944311751170434,-0.5085614200787241,-0.16410376105874447
960,-0.6121582482742126,0.7829697766676842,0.7627945698459075,-0.5440846817059573,-0.788569824841705,1.0748005115107258
970,-0.5961679611997988,0.7948731012207153,0.7599156222665227,-1.76401435714668,-3.5000387603600744,-0.9201272563341387
980,-0.623427851322026,0.7720976224291978,0.742982772007284,0.9760054953585592,-0.8165605247805499,0.440066384777121
990,-0.6362358395819891,0.7699188895013143,0.7285746264165669,0.44809115848720005,-1.2651860178593812,-0.4366459895827087
1000,-0.6160407743272418,0.7839298992834126,0.7485925709625907,1.3985255732252386,-2.159474051717118,1.180667087260698
1010,-0.6133017507481323,0.791331360399669,0.7519404132167148,-0.9283322110745671,-4.788058541037221,-0.46617121896548525
1020,-0.5810777072937554,0.8275491634664015,0.7818058402891743,0.4700592024975718,-2.435447560979881,-0.773233255844314
1030,-0.5920746682775544,0.8211620886050849,0.7620320476903221,2.4628918922031935,1.381075165946584,0.8650936827273188
1040,-0.6088130251536744,0.7876212660877923,0.7595574586822604,-2.476503969016328,-1.1967570779799115,0.3560318630019732
1050,-0.6385877894865326,0.7627420316797989,0.7214024924860513,-4.591419264230828,-1.8708984041119172,-1.2483854750135208
1060,-0.6131021242540972,0.7799953433630489,0.7351708236706541,1.2917219015547499,1.0816352819348958,1.0245395357757712
1070,-0.6296704828775072,0.7712406988347094,0.7323783058794765,3.069879134722404,2.9926418540119464,4.517637836814542
1080,-0.6152907826530588,0.7802786780008001,0.7513792430259751,0.8945407760396779,0.5234523963977109,4.5212345471749105
1090,-0.6135512582021797,0.7760369444556846,0.7557335259006899,3.628088941586597,-0.23663618301999734,4.162466889082726
1100,-0.5998032406291147,0.810309776669181,0.7629520131166122,5.111303230870967,1.9057342338314276,-0.09020024653454595
1110,-0.6346460007705496,0.7612144452524338,0.7213795724151889,-3.5564282460687062,-0.9659531204754574,-4.7627477741473285
1120,-0.6032649360658175,0.8071433039024786,0.7515112789522392,-0.43410953353319703,-0.39671004493908146,-2.2064241544624057
1130,-0.61903959126679,0.7826933569986237,0.7437143030371766,-6.367082958578029,-7.741007145844988,-7.808683716346452
1140,-0.6005035255643143,0.788695367848543,0.7655630034999962,-5.769850952780985,-8.50995901180774,-6.868116967538512
1150,-0.5940895386895068,0.8033187937704098,0.7653957817829832,1.934321185697178,0.7931303696018266,2.405094435496917
1160,-0.6156737447162081,0.7899694904410183,0.7474833663230712,-3.2673111614192787,-1.2209279126458812,-1.299480154233441
1170,-0.6041568319043508,0.8024592368079877,0.7644615120617987,-2.079453826071749,1.1278778876262279,0.04807764389073799
1180,-0.6003496806849529,0.8135000190364403,0.7615716003644325,-0.3079340501973813,1.8658124901970408,0.8936738317928674
1190,-0.5929661485022925,0.8194188494684531,0.7667024024811689,3.7278682534410663,1.8340078358421965,1.463786570340419
1200,-0.6331411752851973,0.7556513474071136,0.7207962581218869,2.025053754570684,-1.4501669094458975,0.6854797230143312
1210,-0.5966946570283647,0.801042545292153,0.7655236192930042,-1.5230571958541148,-0.12672169784690185,-0.19079154651908298
1220,-0.6152403176353343,0.7840159172360003,0.7422629195589627,4.142282878452045,5.642749373851425,5.697597512604257
1230,-0.5955941372131246,0.804270140517139,0.7634095128142346,5.62130526457247,5.390078908762735,5.750223081209688
1240,-0.5956780034078589,0.8006731293633486,0.7699833603286944,1.3109121483060866,0.8647908879972497,0.7554598679274185
1250,-0.6105249840356695,0.7892061591702343,0.7534487863065973,2.479028953887423,2.391659490455252,0.9441484819531394
1260,-0.591648149834231,0.8100750886773522,0.7698398414592432,-0.5763244481471576,-1.007664842412327,-1.9691044168716485
1270,-0.6160800709873044,0.7928752722940763,0.743572740135367,-2.8471309682683374,-2.751640237650535,-1.1175580346859113
1280,-0.6075386315476823,0.8010363286294798,0.7549337778003028,-2.537268286463244,-1.634838749947456,-0.7947022626202216
1290,-0.6082108943433923,0.7976141744457665,0.7614727470327107,-2.608253245187093,-1.1272505254101928,-1.5870342209889396
1300,-0.6127832798395858,0.7904833658181932,0.758786660599655,0.5919176715976652,2.250837813788307,1.0609298615396594
1310,-0.5990480020896358,0.804376508282151,0.764205222366893,0.275451782453597,1.6406760740676778,0.9081327334478129
1320,-0.5945748944425681,0.816315669463808,0.7661223440089319,-1.085798833173103,-0.2546817452820238,0.053156245208037134
1330,-0.5987519374203654,0.8141196767111594,0.760505491166679,-1.015800170561405,0.2736444656815303,-0.016050301754455654
1340,-0.6313152047850277,0.7764146571379928,0.7274813761787899,-2.2421149996619247,-0.07770000322288621,-0.5469204681264812
1350,-0.5979073807463092,0.8024476100419747,0.7627550229010011,-1.8939729142304766,-0.34205493545302307,-0.6653518405571883
1360,-0.6147331118586753,0.7821113636486369,0.7469983530976648,-2.552307550179129,-0.934927576714096,-0.6216774049730136
1370,-0.6075352124798833,0.7922416984220539,0.7557397784161644,-0.6811896320003079,-0.024090572104197294,0.32566496431936276
1380,-0.6044828815915678,0.8023411235250318,0.7593980018846678,-0.6626422710133621,0.5957270591863395,-0.2667204613514751
1390,-0.6114492436671639,0.7935386051776173,0.7516702826027089,0.7251290312106207,1.5994265366577674,0.47317886774765483
1400,-0.6147696575090219,0.791943544109443,0.7468286169283596,-0.35083163303989073,1.4905206399193016,0.37089789155482167
1410,-0.6211313096505859,0.7856436597668595,0.7411754477498704,-1.4236103935405342,0.4328629432263942,-1.211054853845443
1420,-0.6092425372998455,0.7946006332717219,0.7557025354730402,-0.8516675649585759,0.5632878562069412,-0.8619549591418263
1430,-0.6417498704804501,0.7742834087951377,0.7235766606129016,-3.5966880025006054,-2.47801773687514,-3.6153886614181348
1440,-0.6061282360861028,0.8085842938353626,0.7571563033855007,-0.6452158094079143,-0.2807231103748801,-1.5782990737673976
1450,-0.5877459612996158,0.8192873180038459,0.7757700713295345,-0.15693680426157108,1.7503172104204774,-0.05293448361962705
1460,-0.6090677937013733,0.798848067402975,0.7522355674704624,0.17413647808360744,2.565375080282574,1.2091054046481684
1470,-0.6343608608838055,0.7634333894367259,0.725136111230806,0.48346715113690353,1.2079311603466723,0.44973329838508247
1480,-0.617974782554114,0.8003670941848854,0.7406813056891351,-2.4356730652188436,-2.0724078538787865,-2.6720415282068175
1490,-0.6083253282795302,0.7951525172449845,0.7597321992425123,0.6359678237919384,2.3842198044628224,1.5089044530210594
1500,-0.5781693350929819,0.8279720451001782,0.7870787075996083,3.2180697228636186,3.70087289567995,3.217883850555272
1510,-0.5967662016685618,0.8088404169500373,0.7620786851246256,2.949787816288448,3.0910217783224097,2.8125383642873314
1520,-0.5931712936219347,0.8124228140086884,0.7636978396030715,-1.844278696464181,-1.3769991748455572,-1.19564079075972
1530,-0.606395777850951,0.8054051340620486,0.754923984050139,0.9788031417683013,2.0393419781848054,1.5392681831592976
1540,-0.5956708358996391,0.809162546588558,0.7667686088956841,0.8509119268743683,1.1198498824451253,0.31613856859344736
1550,-0.5973415062866593,0.8081506874884392,0.7659059934490693,-0.7240701851693114,-1.1675316987123838,-1.4500614468583974
1560,-0.6009737195254338,0.8087654672685101,0.7598770687163833,-0.5289821751882402,-0.8462921469896046,-0.4083548918198012
1570,-0.6186404619562221,0.7924226205645447,0.7433317276321243,0.15159610503334553,-0.21181324217095387,0.27583225268713213
1580,-0.6029101484696999,0.8108964352173278,0.7620464390502469,1.5498132611294497,1.6145750051489391,1.5054053058744006
1590,-0.6095441298786537,0.8029478277583363,0.755992980173968,-0.525782471517892,-0.10632231797825575,-0.9854733264907751
1600,-0.6154007185272651,0.7910698304034542,0.7495274836816814,-1.0752458215539171,-1.6906857419938408,-1.4503425007351463
1610,-0.6016574748330548,0.8002751259517191,0.7597117559556041,-1.4242096045728543,-1.4422389945899283,-0.5644255266310875
1620,-0.590590802286817,0.8090054419686171,0.7794907364391982,-4.950844403820278,-5.392533914539218,-4.40109920511552
