time_ms,ax,ay,az,gx,gy,gz
0,-0.8728958951814072,0.05018635871125887,0.473726621307193,-0.3433284742458463,-0.1401530641655961,1.0803985262348905
10,-0.8954513662909723,0.023569291973468406,0.45610018397584845,-0.5302144059940916,0.036922791584645176,0.35666164857512406
20,-0.9028859586161598,0.011971529807135377,0.4539609975290087,-0.6127451993914902,-0.17201250784653702,-0.051173453681632085
30,-0.8520959078955231,0.0611570317231487,0.5012963584951439,2.040428379025661,1.2917297506333778,1.4713448848295674
40,-0.8608165541272148,0.05896721600090999,0.48893320388289924,0.5870981301689533,-0.28956534997125016,-0.43844715857844
50,-0.8661326381018615,0.05689987089117811,0.4878320743548989,-1.4214622478573884,-2.157121889263592,-2.029711300008796
60,-0.8818006297035779,0.038367684503359305,0.4763720209031841,0.32445917171994565,0.544657665258912,0.6372227195781546
70,-0.8641366360630742,0.0560499714431683,0.49046146943559565,-2.447780625742562,-1.5921243483909797,-1.70825705267698
80,-0.8647108441906438,0.05038695344699756,0.4827893567372054,0.09420053772090475,0.9278085763011222,0.881695228934098
90,-0.8885819518594679,0.02232032490325231,0.46943144531970954,-0.9383907457277767,0.09339521886502805,-0.8663188212046857
100,-0.8929312173161618,0.023269283386593113,0.46813642425909324,-2.6491402943436877,-2.191346821438203,-2.0853554171889326
110,-0.8894741272024224,0.029909127201112017,0.4759340284487281,5.801777314292098,2.3393588305306476,4.48768359046883
120,-0.8986925312898081,0.03401503889665876,0.4836616924981538,9.245739064877338,1.308485876994205,4.674234456873831
130,-0.8928906294087028,0.06106508307549906,0.48761013051822283,13.455391778888595,-1.7136904372042783,2.299298887547489
140,-0.8471544677195761,0.1357141538372604,0.4386260851029142,-0.7214608449200317,-3.1093544530144186,-0.5886101740775045
150,-1.0437470464703615,0.29164292700675876,0.8094448070129329,-11.175494087896716,-36.07247748404225,4.492971235468611
160,-0.8606719792567611,0.3608392035172264,0.5910301357655859,-13.798618118006534,-52.21438724636308,35.26358198560848
170,-0.6405726531607407,0.22609631476480418,0.33892502149162584,-45.53685168001944,-40.10953922184746,30.59460976773457
180,-0.5768975542938013,0.10204189363246988,0.37181893700734503,-69.29890508247061,-25.028914681991267,21.596239253595645
190,-0.701491560562728,0.07765674384671564,0.4935522164458013,-71.97780378195483,-11.71513405314361,18.565493617794242
200,-0.8228696947936158,-0.06113744259263558,0.5080261303177649,-58.27655025584877,-13.73531478767561,12.93926141050433
210,-0.7100884446322244,-0.12186698317896626,0.42222075102526435,-29.519217132072615,-5.048235270094686,10.034511979673054
220,-0.6199177931185506,-0.07829377747311819,0.45243614085484435,-30.496112293444092,2.9390197882926374,3.982455436325094
230,-0.6444310060059307,-0.2029457559964999,0.5072688118913612,-58.015908945903185,9.55778822813328,-13.355377286969835
240,-1.4754818759207842,-0.2890979343007015,1.2824722163037277,-83.28254729196291,-2.9082213320646937,-33.744718340679135
250,-1.277935962400757,0.0523581163627225,0.760965800379583,-33.71297636834746,-35.62036577484946,-48.890413736181245
260,-1.0158471886657698,-0.7989988124656263,0.3574549248725032,-40.98261555587587,-30.215542941190755,-59.80728912008724
270,-0.6000944296550951,-0.015936780143491428,0.7323278884767425,-48.39434004873616,-26.14014873966472,-39.79428110246593
280,-0.8266629038597892,0.0072277804103435565,0.5723027821369656,-57.071367346097574,-15.631306441751677,-21.129630881388948
290,-0.7030433219324526,0.02205066452056557,0.7410492666811312,-48.92370000817737,-23.09010209183369,-21.451954610189674
300,-0.881648654964239,-0.06810909440229115,0.4869785303971941,16.25460110863474,-9.761148653900669,-9.179109758729025
310,-0.9675041593434057,-0.00463852556410585,0.3854692930552812,35.63831647060091,6.009581613158989,4.606561213167922
320,-1.030031309687703,-0.0313335719781929,0.4789415803661817,118.87836604687415,36.6111571677905,34.33915458602983
330,-1.1196168835266123,0.1420788785311271,-0.1563750080822283,146.53688372396098,53.16980986608278,52.50606331293031
340,-0.9687349983174858,0.25911933926496605,0.11070936035289948,111.65696935809987,61.34703415276133,49.150098857089
350,-1.058895716515654,0.04345219484354636,-0.9032189190590183,-3.050020303811456,42.66932775233005,8.07357978227089
360,-0.6617199235148452,-0.15827520359669298,0.5678219023193718,-15.266752797959885,23.4850740689662,3.8466958237404145
370,-0.6291762891394215,-0.043749519858632166,1.0779689862938722,-13.266673890675454,12.461524960967994,-2.2336827901091123
380,-0.8084963645123361,-0.029556791831821742,0.6369877736025049,-11.165050149354958,2.9660150318744725,-2.805841827430373
390,-0.8424151872128022,-0.013456173225851836,0.5413501054641797,-6.15570268790717,4.791680229188905,2.293706916076978
400,-0.8974153663788201,0.05844361906345578,0.47921222371997463,35.04277076894776,-14.669447115523287,-3.3638710801620513
410,-0.9101021761120106,0.10302693441381446,0.43460055374573603,-13.614392631402893,-9.368893373003626,-13.772438326259179
420,-0.9922334595360951,0.20498732345398535,0.4261239544348318,-2.134283332761857,2.953822795865859,-4.280687938313075
430,-0.9382395239373374,0.3869817127393754,0.5761266775256729,0.09603638552435731,18.788594534238207,29.862894815558175
440,-0.7648660972213499,0.2052616574047256,0.5748843858684385,-23.088995907939655,-8.470003140517171,20.82673186297375
450,-0.854606105929139,0.29227744981433806,0.5277908134626722,-52.78985017353983,16.86416726598491,22.267077480650784
460,-0.9216148487462751,-0.32925335031721253,0.34510674809515024,-31.165877000885704,10.046844430918556,9.163299497775697
470,-0.8727427503668377,-0.625335331070284,0.4977641540085943,34.90831799018532,5.895612070505492,-5.773143022925106
480,-0.7008073444258829,-1.3529358374441518,0.1432517716986118,4.409133480837641,-3.180358310004145,-51.904833449780995
490,-0.834363436369,-0.027773676217064565,0.023932368272013817,37.419056347356964,1.6235302442466801,-41.89210284772975
500,-0.746389197571713,0.5308156874832418,0.6359940132214693,63.75847926894599,15.53930034544296,28.43424565566048
510,-0.8476276238677334,0.35998637979786047,0.430443454111377,35.906956548429235,11.454742974794394,12.957584889946403
520,-0.8997570129165415,0.5042903915818273,0.43902653485916127,-4.189837072224566,7.387610363548346,-4.536791242557201
530,-0.9078242482607715,0.07154355303292043,0.46298346635841964,-19.03316749791566,3.7222154793316085,-27.53459305439442
540,-0.876241250317028,0.04651331664059912,0.5037749307751073,-54.92402686648575,-3.677163738116586,-33.833047871081135
550,-0.8710877328234219,-0.035092650650363176,0.49040965351630295,-25.849593726070133,-0.9290777481208765,-7.664924876457227
560,-0.8619268692754399,-0.009807082983831863,0.4759355217235052,-11.402994763467293,-5.339216738249973,-2.552770911624422
570,-0.8861493878837932,-0.04046411085130882,0.4800296549527557,2.5566252638810303,-3.427887719750272,3.961782325234253
580,-0.8550117553011305,0.009392187791530317,0.5146765117144274,2.4086866209992106,-0.12504249681838142,6.882569617840569
590,-0.8864338948475292,-0.014755871751300512,0.4785338456671806,-3.2309260364276815,1.2277680036827165,0.5388001271277558
600,-0.873400838867291,-0.014728346781575676,0.4948859884775127,-1.2278113908536827,0.5614921492802191,-2.9412097927464442
610,-0.895076266647878,-0.03700380181563295,0.4669118724552916,8.007663523676062,-0.6137869427517513,-1.3621489593540408
620,-0.8624080527579168,-0.010604923161597113,0.49657916871790625,9.03615095290649,3.0136759339768906,1.7379375096146654
630,-0.8601886964944703,0.016866208058836405,0.5016898443145769,13.255318525913825,-0.2955228802742611,1.3137940242507664
640,-0.8711414751009557,0.015914594298043067,0.4943281357715265,-3.128242226551735,-2.165763529923235,-4.242654077524774
650,-0.8258260999303012,0.029828235105605214,0.5337805234867572,-3.334438489220032,-1.9225370173126515,-4.402358608984525
660,-0.8516630769029122,0.011442681324746407,0.51853812832322,3.821194679307527,-1.5796941079716227,-1.4992483539692747
670,-0.8445659394622393,0.022953494279126074,0.5152240254819787,5.778786329900938,-0.2107729364511829,0.3574351702516203
680,-0.8571883322098155,0.016171941031709693,0.5002435991074522,1.9522171521304847,-3.242764756647587,-2.9012045184886874
690,-0.8751310620525915,0.002054887378101578,0.48834960867283195,-1.1077651797134953,-0.5960827866400435,-1.5613178240833423
700,-0.8597368805771448,0.005652878261826235,0.5067505965245535,2.624796819792805,0.7719957622853487,0.4028568577587729
710,-0.8689392932575454,-0.005158368439295301,0.4902397112726518,2.705390194040172,-0.4700064380871465,-0.02442316484856344
720,-0.8588921671428694,0.00918288592427291,0.5021685239046096,0.2796678689371793,0.8119874985701923,-0.2887605959103693
730,-0.8492208576747979,0.01664908682307559,0.5226964643673052,-3.0184977303527445,-0.5434502041569195,-2.8961284953960895
740,-0.8684008382928404,-0.009932198293001536,0.49288470663302136,-10.140784625809175,-3.2069133319616125,-5.270742606511054
750,-0.8405718920336168,0.017012818253992604,0.5262788320675114,-10.157288825695186,-1.823207191226112,-3.7769130674286195
760,-0.8576202111202411,0.002857865698417116,0.5084908731723631,-4.920060150077996,0.8947714744206301,-0.3763822408586526
770,-0.8513120578919252,-0.0024283793139430786,0.5112633963115307,-6.995894042363483,-1.4875910871687723,-1.883635426216881
780,-0.8738488895646755,-0.030327911863018697,0.4909589638695957,-2.1326801023928343,2.284979876705793,2.786828942598836
790,-0.8622190957562027,-0.0018455641414281737,0.5028972781530207,3.0090068424002574,1.3591630241874806,2.3974547739910483
800,-0.8888957956984074,-0.03207090068753475,0.4790804573219102,-2.0115764223988677,-3.3372653936394996,-2.7116668374644846
810,-0.835706194389899,0.020424510693667765,0.5326870364248859,0.41142482390399815,-2.7448742944858564,-2.859694668548231
820,-0.8826389758713372,-0.02491609500626303,0.48100285780024876,6.853346239612555,0.2643347237091871,0.7560421442123022
830,-0.8732502727440301,-0.014340647984471443,0.4809285548574622,5.092912227769541,1.2148757078554326,2.7262875940539466
840,-0.869216242395583,-0.008444411762623782,0.4950020455657547,1.6522717766294517,-1.250883348594675,1.9439682144152899
850,-0.879195760718277,-0.020875659913364254,0.4869947950405313,4.375138730438959,-2.4526906464381657,1.130616835074448
860,-0.8743712273272005,0.0014104827103107436,0.4921772435917447,7.368713575204444,0.5036481083599227,3.708705529685891
870,-0.8620758408543474,0.015524289306524289,0.5019927859531856,1.327865003302062,-1.4168545625957172,1.2761834677721928
880,-0.846725822728836,0.02423078735796173,0.5206535151408929,-1.1076711996007962,-1.467072974942579,1.0398659400156114
890,-0.8908856708497532,-0.01046657528845905,0.4766736968393736,-1.9187659353099098,-1.482199514174726,-2.32556118893449
900,-0.8620202901465632,0.011601015615927312,0.4992460966284152,0.2591920313570091,1.559250483339789,-1.336405720899482
910,-0.8590496078315116,0.008718192900109686,0.5121546290758571,-0.8403496041176224,0.281113829718003,-2.659953084708852
920,-0.8669045568936947,-0.006617632610577289,0.4999499226095156,-1.4673877131782636,-0.8224708856388072,-1.797640345017313
930,-0.8683126112594938,0.002280064533100397,0.5001161403211549,-0.5374803927143621,0.09733427242004816,1.2314590587207683
940,-0.8881107000930639,-0.012254666296510624,0.47937935492394984,0.8057030873213173,-0.7971469370835274,0.8478719589759154
950,-0.8473030540084089,0.026949108985546595,0.5176076206643833,0.7138161932670261,-0.327234301116062,-0.5514756448244338
960,-0.8671408668832863,0.006546111707199006,0.5051998870029397,-0.18689221048482696,1.3749892681418894,-0.27638661023217215
970,-0.8240775459388104,0.0413699982626653,0.5402729191172886,-3.2685515378259855,0.7535936240297483,-0.9626407702024959
980,-0.858668544295457,0.006687146849590105,0.5084792814983308,-5.0826728533848415,-0.6298418851070622,-1.8050939741609087
990,-0.8278247145329443,0.03223676341659324,0.5327351356042057,2.3482694461797387,1.663173288691654,2.0448734677715232
1000,-0.856700166554251,0.00963900267970334,0.5036794628850257,1.878011532688491,-2.064645394675316,-1.328972562872761
1010,-0.8733865208507146,0.0011426611773784484,0.5005558864537745,3.026100527837694,1.5426343449217765,2.7179696456137563
1020,-0.8706878675007427,-0.0026573792420748615,0.49204809920428894,-1.340948020486455,0.33811476264381823,0.688971728615723
1030,-0.8561206404448536,0.007185960720330625,0.5117594487739329,-0.40324246472461667,-1.2397712816529054,-0.7998412058649493
1040,-0.8550715530594838,0.00853668847952949,0.5078961616072426,1.3670607691690941,-1.5860461885574506,-0.06262594504597763
1050,-0.8699878441290856,-0.003205267716134475,0.505258412127815,-0.2286303363087332,-3.0503375705673825,-1.9534020098210565
1060,-0.8775542777261558,-0.011155992506100401,0.486031554788186,1.9701564689174234,1.9255763396766623,2.0043329320804775
1070,-0.868858700266271,-0.0010474649331674458,0.49610148825321215,-2.845348850280647,-0.8737632496711771,-2.0539673649402186
1080,-0.8631363664845159,0.014581310537378973,0.5022741330818739,1.9160284951860762,1.1923789979539083,1.039975827578764
1090,-0.8540309556955559,0.01610472691037762,0.5119701023191124,-0.3424313603846365,-2.085072382628315,-1.366423858437995
1100,-0.8643780963167833,0.007663418612272778,0.49639090085997767,0.7141020917233871,0.43050563582282153,1.78187458830861
1110,-0.862286286420975,0.004214621189128107,0.5064521787956584,-0.2987657688285503,0.7817963960650877,2.090641577557856
1120,-0.8390888420853568,0.027753947130564154,0.5252611360918341,0.4480899290660068,0.7856526941172217,1.7061349106631516
1130,-0.9044749590768962,-0.034696133813815394,0.4636359444785295,-1.8967529661754223,-0.3549186296956933,-0.9662230206498643
1140,-0.8544428288268923,0.007906650924226752,0.5156674653987048,2.0071299649426613,1.294015856904808,0.7633256811840325
1150,-0.8528840675511863,0.01027581593033728,0.5078984123347337,3.355806346127892,1.5642615901429968,1.7109953734292773
1160,-0.8553366448342623,0.012152093572345165,0.5041949285239469,3.5236940091132323,3.5037374212429446,3.6912967709969955
1170,-0.8334178524304439,0.040497608577197336,0.5377938093804813,-0.8707161497953113,0.7732524031228879,1.3722458190581
1180,-0.8422119319497204,0.02704864652540254,0.5286414778092148,5.409118902988103,3.6272800423188176,3.9024336614674473
1190,-0.8538822294308983,0.016352736033150145,0.5146043949840694,-3.4505132959115534,-3.58742480212625,-4.226182333101248
1200,-0.8897860577643382,-0.024015113826937228,0.47368960779604424,0.540002599188521,2.159835973650438,0.882671687271857
1210,-0.8326272049320054,0.03570506352281367,0.5321712144510798,-0.5796294103679871,-0.5307319497469257,-0.9715730836292648
1220,-0.8634680080478361,0.0011509758372099332,0.5003190516417559,1.9007058540902317,1.189145409017716,2.5670750120331114
1230,-0.8559747907519025,0.018504550362041426,0.5150708256220774,3.742430191839352,0.16709720759954516,1.6143552785884268
1240,-0.8566436428891215,0.03056463284113343,0.5105766679760129,-0.0769345698153121,1.2053527231454795,1.305943484798239
1250,-0.864460032716587,0.010679047147857904,0.4999132311522038,-5.698195134238443,-2.45091364458742,-3.760976973972266
1260,-0.8528010511199815,0.017729701553372307,0.5165444743128872,-1.4276104530114653,0.7645803247162093,-0.9464615250352062
1270,-0.8632180405809068,0.00031535374129240115,0.5053871618007897,-0.3061662628681879,0.07619192872188521,-0.7580724599149948
1280,-0.8677935873595694,0.0010100019600123977,0.4986688097369714,0.9484349272864466,-0.5385283038180176,0.6233874946480734
1290,-0.8725282109734649,0.005099348847137622,0.4961338521880353,0.7872131225378893,0.7780282879582605,0.8564386825316073
1300,-0.8984009869353284,-0.022313671209498297,0.4685426920998208,-1.1982208274571544,1.1854434580722744,0.5950251617575968
1310,-0.8531319366601744,0.013818943979598628,0.5138295489924106,-4.294850120471606,-2.3240012650128845,-2.295974664481285
1320,-0.8526437123919818,0.016407009029494244,0.5149161198971466,1.3023399877464057,1.7689316055527842,1.2080455480667838
1330,-0.8353550391396557,0.027361715964516777,0.5282668228355286,2.6680803092628587,2.7732397244877363,2.6364913446567164
1340,-0.8653408679267044,0.0037793470809525244,0.5032279026445329,1.6444104783939884,1.9400003621061608,2.7899453161278696
1350,-0.8350756671627004,0.04288835546271139,0.536401217761787,-0.2446294200685566,-1.496860249919291,-0.34470829319778806
1360,-0.8625423384050594,0.007811825638525924,0.501079310570205,-0.38385457967631653,-0.37243648874382196,-0.4308296171702665
1370,-0.8491057926483816,0.019318362989954888,0.5241712798724154,2.791196829309443,3.46599689295169,3.2240098605943706
1380,-0.8614727177142669,0.011326643790619473,0.5127523883774686,-1.5779170911632483,-0.733719930316852,-0.7531934719363984
1390,-0.84277006608966,0.03308676553413551,0.521316652040736,-0.22841664590716282,0.013120465623585043,0.0190014126230168
1400,-0.8369117045736835,0.0361056511024379,0.5247432310539976,-0.20617990013882448,0.9143814501914619,1.4893886602825797
1410,-0.8739628889755712,0.0018505479930221308,0.49673587108923606,-0.4892883212903372,-1.5439367915712499,0.09327421316192086
1420,-0.8466943834786018,0.021738602390250147,0.5158832589969375,-3.1046770396302747,-3.15778592487288,-2.8268534120287643
1430,-0.8640929936023535,0.00797475431337697,0.5015915068916492,-3.1641172062099043,-1.875901047631472,-2.7174544960661224
1440,-0.8678632826284083,0.0021882110379991843,0.5037833964245263,0.8933270708148566,2.0657433765871036,0.9590564384667872
1450,-0.8297870881408331,0.04043385282758233,0.5340457899563158,-2.0288800096129416,-2.4083745087834982,-2.4030416475233918
1460,-0.8374840238518337,0.03565261907597908,0.5328178294462268,1.1084010878632489,0.6183201826575507,0.8248343420582602
1470,-0.852938707733345,0.01751872528801696,0.5146739487350993,-1.4732685698837298,-0.38093740795334674,-0.15974715750642005
1480,-0.8641043260876304,0.0031340552371869794,0.5046350541396357,0.5918870904379747,0.3062300190501368,0.76913225675983
1490,-0.871432113016465,-0.004751766956428428,0.49805587128106765,0.391455018368394,-0.6457952503627363,-0.06770023859506513
1500,-0.8445947577315559,0.022892547479438256,0.5193917184927438,-0.464682645987029,-1.1970362395898473,-1.2968198493298455
1510,-0.8590246958719403,0.012500728281442624,0.5074815757905599,-2.6296863238373662,-1.7472199670804285,-2.615615036216317
1520,-0.8624405557871018,0.003217958680368043,0.511242358319412,-1.564631423720376,-0.3414699802877489,-0.7121877056459154
1530,-0.8735370700194347,-0.0018686188664369368,0.49386958083517074,-1.3930646493959056,-0.8341671832384527,-0.4881746746097554
1540,-0.8750427429881908,-0.003428189937680258,0.48900302168459203,1.1311691018042875,1.753479507159522,1.9746192670462985
1550,-0.84555754674915,0.02773978070870036,0.5144410235860863,-1.6605889872962112,-0.5415503092317053,0.21988662176966928
1560,-0.8411077089914681,0.028173942770443234,0.5225387772389786,-0.3258773705313893,1.6714811957511186,1.9296512317624492
1570,-0.8868023851394133,-0.014231144021386165,0.4851217312013978,3.204310419424634,2.3431925693389064,3.135065134531955
