time_ms,ax,ay,az,gx,gy,gz
0,-0.8925233605797842,0.07744335011359656,0.5028064443613556,-0.9895062957254142,1.21791934284824,0.7173431400390254
10,-0.8958090226928777,0.06381956987312942,0.4969997250609571,0.056390614301531694,0.7259529792053977,0.027520043099352187
20,-0.872530153869152,0.08653992675790147,0.522826564696273,-1.7068823003427411,-0.40664505928929634,-0.7318372287934045
30,-0.8848491505180022,0.07246925609192215,0.5095348845860049,-3.0429147624442177,-1.1829546382025462,-1.638635878164648
40,-0.8767186550864058,0.08858899183465921,0.5256466738926162,-2.151967516786946,-0.8268415978517489,-0.19852247265132555
50,-0.9066955233559083,0.04853792350547327,0.49241150566001374,0.12477537462013158,0.28833693223483864,0.6672298543357791
60,-0.8872250296316201,0.07263176329885351,0.5089403953152463,-1.4792660003701665,-0.3677679963630208,-0.4380996879430329
70,-0.8941306838067775,0.06944567225541765,0.5057151441879598,-2.9333015429025715,-1.7707505782500095,-2.598189791653999
80,-0.9063219247934159,0.05730772214692234,0.4959273997211092,-1.2693929619699214,-0.7588150021800891,-1.7896201503365556
90,-0.8984888496157442,0.060767100165072335,0.49636553634714525,-4.424622794208298,-3.350389705627496,-3.8925480536795867
100,-0.8835557843595002,0.07273435050329502,0.5135834030539086,-4.935283217549587,-2.6541552798847974,-2.6471495997638814
110,-0.8667509461535474,0.08706807786760087,0.5296928712867652,1.754006935608559,2.8380172572671682,2.96388537998846
120,-0.8881202584237496,0.07236375416778665,0.5102341483965718,1.5800044540920675,1.3411763037812725,1.2383314567214074
130,-0.8694833313481104,0.09363922244851977,0.531684398550525,-1.4671941184593924,-0.9695949910152621,-1.4603713660506865
140,-0.8829649066076872,0.07907546223341767,0.5177868084173506,-1.4434107224410777,0.05470265033406785,-0.8503698580734922
150,-0.8913658033833369,0.07270281656899462,0.5147408945570489,-1.4937070899939273,-0.7230104705549132,-0.8621685836742378
160,-0.880098961307243,0.12090230497151033,0.5474055187035756,-14.236510746250225,-1.0696150198283747,-2.488287631795826
170,-0.8586814337494377,0.18953326507589147,0.7116210656629348,-25.753770268717414,-7.305995275644403,-7.274172109254772
180,-0.9068723936548367,0.11131109605374012,0.746541824140589,-16.462132114698477,-13.713864363974425,-6.670672167448409
190,-0.9743341277583987,0.03045639314328331,0.6378533080318999,-21.578587843360587,-23.117707752353923,-10.548048427355019
200,-1.0112136397400333,0.06769699219474434,0.8290288611815682,-14.62610960746041,-38.58075429139519,-10.143386330454428
210,-0.992372705892439,0.050540218585133564,0.7320625342861835,-8.324670865475422,-54.69295266637592,-7.613371023387865
220,-0.8421775553637508,0.10189653659993285,0.5650297974762148,-28.93538925001314,-58.878364927806125,-11.105285858715977
230,-0.6723789764120014,0.14454934612227963,0.4819763065671495,-61.97713247714144,-36.89633926920755,-10.073899323354265
240,-0.715887802810098,0.11647191688322969,0.4221574684233432,-50.54818801750157,-25.102994960651788,-0.22594215418255859
250,-0.7271664089243933,0.026641803160952833,0.4704033777604218,-43.56606942760882,-14.022787840954809,5.254592182356638
260,-0.7391831928031124,-0.04454788669456271,0.5494650087977765,-37.23424705097065,-11.649683097572897,-0.37813781932951146
270,-0.7605884670671336,-0.0011370442575852277,0.4273465267464744,-43.34296712327045,-3.3422384698613863,-5.024439680539808
280,-0.7208149171423627,-0.04143780669270771,0.4293296216447988,-32.26332996046051,10.925153694784528,-3.1069611702389475
290,-0.7269194468273857,-0.06869403350364035,0.5906519935117174,-61.043820456390684,30.505524791255183,-23.37027500340802
300,-2.244947154437784,-0.24410573446799214,2.0263803715408972,-101.21437145731386,-3.1582729764520554,-35.05616957696814
310,-1.1643110000891148,-0.428194589457859,0.6002219872209558,-8.265503979158428,-2.060472764320017,-7.983174813695768
320,-1.0232352370898383,-0.1691016310734993,0.70582166963401,-19.559119173371677,-6.850101988155497,-19.994424965981864
330,-0.8851922892243567,-0.06526333393054629,0.6957556459259349,11.341712146935397,-14.911977739657278,-11.746906555064625
340,-0.6553517498877538,-0.17967398957102948,0.6833199770638677,103.10826199983404,-23.271884399810805,7.996869438288998
350,-0.7927732041919863,-0.03233156353835184,0.9577348380304579,27.075638940225097,-9.158437614187866,3.882968367888103
360,-0.7599139091409399,-0.1368933420425977,1.0449984009797761,10.2857200297824,-4.070461526532574,2.291881418998329
370,-0.798675201203888,-0.10331259549650297,0.8182665586022118,-8.787918062832972,-5.667028199654395,-7.524489947775468
380,-0.9562415714811324,0.20922320841741268,0.4812531214104328,-30.53366379733226,-2.066685308274359,-13.38767785234867
390,-0.9546900528418939,0.17469523757801794,0.48268683264258705,-76.5117682013153,-5.199673532113602,-26.73265525823439
400,-0.9800058421443923,-0.02532634571978213,0.3906389344691758,-135.20071130627602,-7.491107159179219,-46.75274872404264
410,-1.0086096622028637,0.04894784460267015,0.20525317735973456,-10.19056185579058,31.96950721455637,2.64086233874606
420,-1.0289242212523544,0.06292906283850332,-0.1517282269251984,102.87546858849188,71.57043077002638,51.01691388155459
430,-0.8623468588949348,0.17173068453133727,0.2720998698856098,74.270708352576,56.905148002962854,34.552022152572015
440,-0.7375086742172967,0.34777029878872323,0.8901594084522475,51.28473860071658,45.25387243828205,34.3088054956256
450,-0.6424277814513636,0.05576477130359117,1.3603055195384064,33.28047346478214,41.704600472953686,36.487220798253055
460,-0.48029450013211356,-0.013731797639117648,1.2661458049003589,22.863811491732953,33.74776288216168,25.209777887494077
470,-0.8753111013885887,0.052237021903867954,0.02185621142503303,33.49934178268884,23.00967075271339,23.489661053282802
480,-0.8283369875177536,-0.025456770951022296,0.5981198626111826,21.384426277382925,-3.9163743471849135,5.278754654171
490,-0.8622727534686796,0.014105018915846666,0.5857059042994739,18.33460259780631,-5.824023409971332,-3.5106909676620077
500,-0.8784383167949483,0.00866159080774965,0.5670199465746704,26.54088270216721,3.441783369798898,-1.9638942659683538
510,-0.8638147504358695,0.06600908470304107,0.5932542089154298,21.433702994928694,2.4723228985376338,-2.6877602606927513
520,-0.8572027333487846,0.06594534491926145,0.6268160644087771,7.242733087252657,-4.7919970313385996,-3.3974156730856757
530,-0.9936788240969858,0.06290798787592007,0.38912022760477105,-1.3717145025263686,-5.144654495884849,2.5923646800132905
540,-0.9181369755029694,0.320655484809325,0.4907643444779542,46.97311903050419,18.862896118437437,46.98551617538749
550,-0.8074240580585919,0.23559593503917778,0.5663511289249314,13.699897723325334,6.529772846471062,37.057896741509175
560,-0.6838448897871388,0.32693935520001827,0.47330431174761123,-2.253751499495161,6.143990841317518,24.820924830709522
570,-0.6136701225369776,0.39749055137393646,0.44125003870984053,-17.8217572446938,20.12756480132449,26.57875845040222
580,-0.8327482811146584,0.25233240874158047,0.6594479062210197,-49.09842510142788,13.29309581407272,12.53675864353299
590,-0.9781708216454319,-0.4722217771694168,0.8767953702652779,-66.41995462440156,-9.018793333850226,-18.50747887412772
600,-0.9128471341075654,-0.5310007021625888,0.5241799819765144,21.576821664673464,0.30735791525471745,1.962209576815176
610,-1.1523817970112245,-0.20700424361049322,0.9308835104106989,34.0785526568418,-5.505170030517774,-10.541386335567259
620,-0.7368688616586896,0.10550293730167261,0.7573308043649093,28.620264673862508,-8.424472800428436,-32.068163866423845
630,-0.809209190720845,0.2748978670870832,0.4902986395181484,79.93841332558942,0.08973370684482207,-5.217502793713411
640,-1.0338288390719281,0.1795156665065008,0.6780675537550672,75.94047814882505,-1.0644599432170196,5.242926142301247
650,-1.0060171849206945,0.23298063815691342,0.7953317295079176,3.1169228538124027,0.4528862814009501,8.663015751364474
660,-0.9205267412682995,0.1911997159989258,0.6087323328462307,-14.399082728076333,2.0818738670255854,-7.136804340304352
670,-0.9088703477169342,0.12869994183641645,0.49455032871237037,-20.154222821129014,-1.6405381038654816,-25.448216567058335
680,-0.9095188127377802,0.076153161435991,0.5001609785285777,-13.357553248408438,0.1995065904018345,-25.877565470798174
690,-0.9022715576331563,0.05002657211180866,0.5018086942752695,-11.706225042116086,-1.1177697536154656,-23.751998368461294
700,-0.8889182189875822,0.055045260936867034,0.5155836139681359,-16.672418981755346,-2.582564545650214,-20.245156363805748
710,-0.8977531377820861,0.031626090982597,0.5107054371121966,-14.82451286779367,-0.48087320035131187,-10.831823014455153
720,-0.8754751077207757,0.05515720831728367,0.5297338311941255,-8.029890665204787,-2.403762554186436,-2.5703485437347227
730,-0.8828241239583318,0.05497363505241655,0.5241725566999392,2.5172514057320683,0.517939279586597,4.34340271858515
740,-0.8811264869435046,0.052408325045450385,0.5278161585312015,0.0012474895907984562,-0.19410438012868225,0.3069644847988784
750,-0.8939126441082093,0.041015328285957726,0.5159723544399545,1.3124577056426812,3.376652774382268,3.295578355994282
760,-0.8756664451725528,0.053621179236954024,0.5371028523046315,-0.766963181345886,-0.48737311199913735,1.7960862655517877
770,-0.8963228234953698,0.033456978640883116,0.516272956864511,1.8521620682281212,0.034878177469185756,5.437100098457428
780,-0.8730004123208583,0.06688009387385113,0.5342002261136475,1.0805186136781095,0.7242676827338627,4.001274320706597
790,-0.8648770144533964,0.08148655995436707,0.5468959335174695,-3.4778313250107526,2.112832437390704,-2.967148638449138
800,-0.8747620103478408,0.06794903915235687,0.5429454892561448,-7.2560875666593825,0.39856299665145817,-6.429030745271466
810,-0.8798952296334792,0.05859711729454837,0.5326527707630511,-8.32373651849591,-0.0896253600458764,-6.029860197112429
820,-0.8764696636021471,0.036023452483980346,0.5406368414982596,-2.3209559848227066,3.2822015714590216,0.6599631242150794
830,-0.8843775131588911,0.03889747513669941,0.5255511242545472,1.344453762433849,-0.24926814045953072,1.2467482387383817
840,-0.886751911094274,0.03819918320623143,0.5196185469420536,4.473220315084954,-1.148282827011837,1.7534984858819942
850,-0.8965711404829622,0.05474055694417132,0.5121178119288005,-0.059658629890239664,0.5039503033263719,0.4428850042198352
860,-0.8544959047141024,0.08435272364759565,0.5352536416808034,-3.6878000961799815,0.6220225720298787,-0.4385546193342722
870,-0.8993755452905121,0.03657055170373133,0.5097933802663049,-2.0089078017685087,-0.22105982665600626,-0.586118888352815
880,-0.879674893578304,0.06541305305267617,0.5382043449565203,-3.9430178073288618,-3.6024612189454035,-2.9890631469674633
890,-0.8571199793984797,0.07423643672717295,0.5559910008180846,0.19603539231025402,1.4928251857892099,1.9314195775824015
900,-0.8592178562103698,0.07415762371746747,0.5537106789581793,-4.093340134769774,-0.6840531275101173,-0.8112347336512908
910,-0.9049526413431058,0.03359057623589386,0.4980605830548265,-3.5416745478369807,0.9357029836632558,-1.209982517364881
920,-0.9036271868550461,0.03590157419948259,0.5095141624609607,-10.128032901807261,-2.3947962938046032,-5.904229323826641
930,-0.8903253092681576,0.036688652085474005,0.5268124518069688,-7.04908184988722,-2.1205033417362733,-4.382898173169301
940,-0.8861555072146137,0.03452267334832257,0.5283948031437437,-7.401053048371987,-4.113014569150159,-4.2764436853337955
950,-0.8695685992342224,0.051222852514959394,0.5397620132203571,-2.6430860358357506,0.6893834261107807,1.5860527308372325
960,-0.9055447972780296,0.01489553815730742,0.5101618014091975,-2.6021615561178835,-0.6609532469748494,1.0147043193038234
970,-0.8913620126408471,0.035447843390443344,0.5299063380454051,2.5063000977086074,2.135142116073,3.7940640265146417
980,-0.9053433403424471,0.024091108871537044,0.5082293615541023,3.8214865459994183,3.0815850748140794,3.787663947124425
990,-0.8555992546905287,0.07685522215242632,0.5449864467338611,1.3343820674922058,1.2907669557016015,0.18629316039549004
1000,-0.8438027152207089,0.08909677226598939,0.564246216254697,0.07891761911818185,0.2649971764729606,-2.1669898482630017
1010,-0.8914103249452711,0.0392105725543288,0.5225867442782965,-0.6117689872274101,-0.523767629408666,-2.9284604993179535
1020,-0.8753812179715443,0.05087084749559044,0.5318292657701732,2.054554605720254,1.6779660899670106,0.14088954693241496
1030,-0.8730891532177584,0.05355589703022987,0.5369240344275096,1.092767119223518,0.5131666879065686,-0.4796184251509037
1040,-0.8834824938821305,0.05444502447618884,0.5311050297923747,1.9277329186681778,1.8273867267002772,0.550888961209218
1050,-0.8711886426025951,0.058319141541601914,0.5405563811716277,-1.1371555615928794,-2.080894484034303,-3.214880148252244
1060,-0.858366023836156,0.05553278714871142,0.5445449932417851,3.535749269185714,0.6575542306387436,0.2882602106123032
1070,-0.8713455027298904,0.05739411797677765,0.5385757383181097,1.9710646305733845,-0.14627120523398363,0.2211653653306369
1080,-0.9036277319452676,0.03290144541213988,0.5149179586111086,-1.0279434248235901,-1.8317188421972401,-0.9381096622786824
1090,-0.9028886470365326,0.04143257324808851,0.5148123606746865,0.32957143574606507,-1.0211922238868834,0.5518709397182016
1100,-0.8933960827459817,0.03755602605951448,0.5207491833252298,-0.6145576257599603,-0.3369329362139462,-0.09763323998474163
1110,-0.881328644611413,0.046143692706631705,0.5199875578227471,-1.981047594768667,-1.5933649595414987,-1.9361786438878565
1120,-0.8854968112624834,0.04681673047447547,0.5189032142804869,-4.151330601114446,-2.2937933508218262,-2.630489925613499
1130,-0.8824296432711076,0.054776031330929315,0.5308134125738105,2.151332648712414,0.5785258899776915,1.5947618202049387
1140,-0.8727377783516295,0.05754013572572916,0.5302173356252421,-1.108540854465781,-1.0354233439761844,0.32782887673753836
1150,-0.8661659067526725,0.06611460299528528,0.5400282497111276,-3.6884574211785153,0.5575455482517705,0.7648046504493113
1160,-0.8883776314107668,0.046608244841821085,0.5218591419305242,3.095912534855289,0.6487895761079862,2.2443480477638102
1170,-0.8678061682413243,0.06403364896872155,0.5411866623434856,1.27088655143727,-1.7679471129061177,-0.1942204058007042
1180,-0.9170534984202402,0.027761010184713122,0.49663499912581444,-0.3528274678934433,-0.6393222600500328,-0.1685673039723631
1190,-0.872034343158847,0.068357614102222,0.5409438490865385,-1.6424963257135001,-0.5239950913100648,-1.030421443135049
1200,-0.9092807432046789,0.023128904324720447,0.49592365861853177,-2.50872670560761,-0.433460703639676,-1.0213843453370028
1210,-0.9065178110998677,0.022217072974828913,0.4999082896414765,-0.1887156904636078,2.1246563012719495,1.7149919248063055
1220,-0.9045051064528025,0.02777774622128938,0.5041069881076307,-0.7630015937201984,-2.2743040959869476,-0.8766554544226488
1230,-0.8745409102715153,0.0616129394710586,0.5374689069772842,2.6071305013312545,2.003637046753036,2.884722546862297
1240,-0.8771787290031104,0.06056718818297212,0.5346277324089946,0.5299123706719557,0.28387781438861964,0.2658278880513962
1250,-0.9070437016051326,0.03130690784120646,0.5036519591701117,-2.2737706780157363,-1.6825611741100535,-2.235112957447865
1260,-0.8997518245664065,0.03132313107899693,0.514752165966697,-0.8766063437263212,0.3222968493218387,-0.5496143726330713
1270,-0.9038119800478976,0.027375340639381778,0.506550122204498,-0.643346936917232,-0.11610125862521015,-0.2120718613045549
1280,-0.859928339028599,0.07517826418307208,0.5485052816106978,1.8844645653607603,1.2938138652931763,1.3131904782406683
1290,-0.861602807066165,0.0732494565532754,0.5490980850239175,-0.49195103057516,0.7086658084071535,-0.44127617722840395
1300,-0.875894344142896,0.05988626149897226,0.5372507356815548,-5.2745534172260475,-0.964290224794929,-2.928366734113391
1310,-0.8738413476522133,0.059205300130733024,0.5390501144501003,-3.5237974895174227,0.06040259156937838,-1.448921852121074
1320,-0.8799368332569362,0.048268001741925276,0.530250563381999,-2.277853520213817,-1.9590437703322,-2.0717816492477428
1330,-0.8750176877220758,0.054517927110008434,0.5367365287167591,1.3786732033134022,0.20870601493353286,0.9738803106306793
1340,-0.8724312165947132,0.0578573898149322,0.5368845422588564,2.1581487319808437,1.057692660481282,1.6912426577814719
1350,-0.8912680178629646,0.03958423191864424,0.5188372124444949,1.5991782291943977,0.24149481792862237,1.099985947371815
1360,-0.9065308787654576,0.023275679100920488,0.5018386011173274,-1.1794417241184294,-1.8397929630027374,-0.4879614316222489
1370,-0.8766909366249772,0.05356385018807888,0.5298549439288909,3.107872744884029,1.487309186093499,2.6874760343751554
1380,-0.8742581491859731,0.057374615726222475,0.5336879897150449,3.7409234963861357,1.250813514838142,2.34021331025839
1390,-0.8927877891555817,0.0464747434631027,0.5167357249809009,4.321886586433854,1.5293888808460734,1.5530965775006307
1400,-0.8546828835815014,0.08376923073114417,0.5496552554124421,-0.6077962196198698,-0.41490295403491567,-1.1020458063389533
1410,-0.8808036875415991,0.050200882823588845,0.5249501768093394,-0.7503376582706773,-0.6372701648718005,0.5540144036063682
1420,-0.8835457851111075,0.053380792489431096,0.5260171531439578,-0.3763624914041366,0.03696099606124427,0.9930198128693024
1430,-0.8808015720133634,0.046954952617172925,0.5262469491496783,-2.4557210885425755,-0.21950729507850697,-0.09563300634594712
1440,-0.8803705187193026,0.05943397894519257,0.5201872270949706,-1.0678956929772276,0.14832034576427494,-0.2455145890079939
1450,-0.8800199087034579,0.060732108962223974,0.527729471051097,-2.642631163044771,-0.5539533663252595,-1.9151906008894402
1460,-0.8700836946001075,0.07250092016841368,0.5464965226135288,-0.3485160767255923,0.29865959137310605,-0.23015262367982944
1470,-0.863500863815697,0.07292593060483024,0.5503993078702453,2.3816707505013146,2.5936974657862257,3.554132430406299
1480,-0.8930900094988421,0.039283540438807024,0.5141006809131461,0.5278777732660722,1.804688382538635,1.8616224181565977
1490,-0.872698218777237,0.06426568807328534,0.544910703911304,-0.5316032403584474,1.315083205549854,0.06446699828045532
1500,-0.8698989183543486,0.06640217795559679,0.5433276778957314,-2.6665958503521887,-0.8207469421374214,-2.079674991163408
1510,-0.8591303301998214,0.07601564373969524,0.5485779208983024,-0.9571355900610382,-0.05182918923767868,-0.8200292618238955
1520,-0.8794611673657311,0.05472781153172086,0.5325213224101166,-0.02911341120711919,1.674390821129538,1.448514466138885
1530,-0.872788846829586,0.05609140314484001,0.5397295518169841,0.39071865380798,1.472495905621044,0.9958083727981127
1540,-0.8926360838816141,0.03343176725426281,0.5216272607233081,-0.6453974578266968,0.4455498064672442,-0.5124277059191447
1550,-0.8775510409424017,0.053082404897177415,0.5337208322671033,-0.3292153634042764,0.6379651267147319,-0.16587164575777708
1560,-0.8569922057577322,0.0755190003425128,0.5482175045456248,-3.2939957523139394,-2.8572431396395888,-2.8872682049662926
1570,-0.9048930463852608,0.03479514353645666,0.5033412093560872,-1.9267125280703645,-0.9950379383449425,-0.45847498171686385
1580,-0.8946494180141922,0.04956191352273787,0.5216087578059609,-3.332192998669261,-1.1033761269875655,-0.9989932104361372
1590,-0.874928308580271,0.054484489799992375,0.5382085725990936,-3.7687563567413944,-2.176090163694317,-2.5628250009648035
1600,-0.8821214805923374,0.04214192947037221,0.5275789637761191,2.1989979670275037,1.4259457886379954,1.7600132925710996
1610,-0.888115445557535,0.04777623184198578,0.5270047206410048,-0.6657922975454875,-2.859674362047436,-1.3142945528547445
1620,-0.8543543837211376,0.07925958552039629,0.5586768321839821,3.2389706451331497,0.7960258641376485,2.6298788881370383
1630,-0.8852899609762632,0.050438300487095196,0.5258184789594261,2.7235498991137725,2.1646949984824806,3.0544643030562106
1640,-0.8939403214804945,0.04654462130120803,0.5165919688478814,-1.950177748193337,-0.3510097912014971,-0.7235809140632955
1650,-0.8814251642636934,0.04911694822185252,0.5247551904943456,-0.2790731805785854,0.2963535870380897,-0.2556983730445875
1660,-0.8972563317799566,0.036012407887695316,0.5055470203830807,-2.8701773780217907,-3.3197931674283794,-2.3469744738538796
1670,-0.8674732490702164,0.0597327912025213,0.5402589471450685,-0.993662424932174,-0.23988385145463723,0.22776499000277972
1680,-0.8881885204683255,0.04337077743282937,0.5206655495532654,-2.004788941345222,1.637348972489388,1.7235893416856751
1690,-0.8920544885779086,0.0487027669394714,0.5181269904756437,-3.168689672060566,-0.6863103382097893,-0.8607881168956493
1700,-0.8839030493431876,0.050156754927314695,0.5312620041746663,-0.6563788119636695,-0.5170580971762094,-0.30654827945444324
1710,-0.8615310054641503,0.0718819705115963,0.5534240289185133,-0.3800994179398575,-0.5914580712307036,0.09540091738024359
1720,-0.8870946145720364,0.04991345008921494,0.5240333250251044,3.4670437249378523,1.0555123571492695,2.6405049039333868
