time_ms,ax,ay,az,gx,gy,gz
0,-0.8787486530008832,0.9868508693464039,0.42753549206622976,2.3876664095147935,2.388256886827079,2.7899184025906725
10,-0.9036792751687913,0.9571298727334355,0.4064669520092879,-0.14026993584297032,-0.4547927211597582,-0.6507006923220037
20,-0.9005011737671036,0.9638729511208086,0.41474375348001596,0.7904759142788347,0.10499557880803273,-0.30272919166152973
30,-0.9305032551127865,0.9313146791195388,0.39876461926484674,1.2236502726264593,0.41762145572563625,0.13983566434976868
40,-0.9092203208219024,0.9569573489152657,0.41684985718787854,-0.2778678388169226,-0.5476719671405054,-0.3702001287881938
50,-0.881069232306005,0.9848968890992731,0.433770679495088,-0.24712284319575528,-0.20449322219872887,0.5063328862767734
60,-0.8875105136704557,0.9731420735793677,0.4216228614902402,-1.1958226493907296,-1.0206046837045597,-0.3715774841696363
70,-0.8989065735750335,0.962877250836195,0.4121246318186399,-0.7334703073982318,-0.3910786504578826,-0.6164810980272358
80,-0.9214029810659209,0.94677865911324,0.39299868103687163,0.6421144571684909,0.5694632569771014,-0.5014961347087464
90,-0.9196301851938158,0.9459950581961261,0.38739932314472425,2.4128983660685916,1.7240116812306827,0.8155022443600374
100,-0.937171574462929,0.9214762417763327,0.3707539832842811,-1.332508527101183,-1.6869221741793425,-1.556120735039785
110,-0.9176859862932234,0.9422590725055799,0.3954764222928577,1.1235970471617835,0.5110459805987404,2.4155780949866923
120,-0.9148868242705901,0.9529799348207978,0.40025624418278927,0.7977724808899145,0.15055482385087482,1.6133618576251374
130,-0.8861845045557987,0.9779850178316246,0.42743228429256985,-0.19079663578797412,-0.03875852597057117,0.5651906492100037
140,-0.9183036171414909,0.9461879157131584,0.3945202141744236,-3.6706719423279868,-3.690242434930652,-3.250723835589801
150,-0.9032693706591455,0.9640183969310154,0.41276927641949995,0.6235913360624892,0.5444018045155068,1.2050697229553893
160,-0.9015391444004448,0.966542807828386,0.418085384350887,-1.8510752145211025,-1.426992047996718,-0.5917071383927051
170,-0.9223624776871225,0.9462281536019811,0.40210303359013166,-1.2056924153080857,0.10368904231526666,1.4393570136778817
180,-0.9117887502501926,0.9571799973788725,0.4240980907904098,-5.254397654598516,-1.7321777621314305,1.6553215248640432
190,-0.9250232564283706,0.9569674452755028,0.4420756136713715,-12.420289023588929,-5.609412817949545,6.457317352844639
200,-1.0221890352752274,1.0210238519727344,0.5450281598577513,-19.29765491294275,-17.5333169126022,33.447182565393724
210,-1.4500102512394053,0.9537545390866249,0.527116038664409,-19.46354595449198,-68.4902884105831,50.933274903961994
220,-1.5577900925807449,0.8341760227614375,0.7992156006165344,-25.900522588058823,-105.33400841625543,56.87695570874312
230,-1.2159217604723094,0.8233780649129182,0.7918378514338785,-13.735979518131362,-130.66610928087908,75.30117111743985
240,-0.6654093060264266,0.6890379625463955,0.6860136581589541,2.789032067566886,-141.8815872933024,66.0718903029676
250,-0.2544281466976592,0.6163273938660327,0.5793195036807225,90.80811086995078,-119.7608163656104,64.50379029868083
260,-0.49581480178182424,0.9139402039673657,0.4385581969335808,88.98228028500858,-38.08728722035753,25.119578693552757
270,-0.9845942397238135,1.3615651502711892,0.4387186984542888,-14.431293495919974,52.715106156512334,-34.88200361776833
280,-1.0419424780277993,1.1540193500491862,0.4739834500327464,-15.117787891839331,45.249128702145875,-38.840668240004995
290,-1.0109885844117195,0.8072823077143388,0.40387317300522985,-22.008248111954693,38.92810726039362,-41.534057833452565
300,-1.0871804421962756,0.6996062394972302,0.40431956119323975,-22.83545206315032,34.45332678344328,-41.69740866668196
310,-1.1843464241255293,0.8649026662863779,0.444545029955,2.27729359502911,22.994875606618688,-25.900792887263847
320,-1.0668765864170318,0.9758802150328467,0.4777945262388411,2.334567517643476,15.363798273460572,-3.3984905380680366
330,-0.9669018418649309,1.0256220345504117,0.4940846398997028,2.5186669782459346,16.683817070279254,-9.527565116436682
340,-0.9546815314835557,1.0104366348655371,0.49935469771900237,-10.637052397046173,7.127694908305692,-29.431457407471015
350,-0.9421430110593924,0.9766325302642961,0.5038784698972459,-12.112523630544842,6.845274960740043,-33.86865879501706
360,-0.9087371520246359,0.9572040157994104,0.5197392383642152,-9.12339668083692,8.119858369650574,-30.059466116943092
370,-0.907356017714124,0.9192207815378679,0.5208221884544707,-2.1277930499572575,10.018885675588766,-18.75549803772923
380,-0.8992991604324317,0.8940004063865004,0.5240772924993471,11.468362154781847,14.798782118993026,-1.8559310226638226
390,-0.9184282564943411,0.896549313684393,0.47776463396893587,24.41359500472764,13.663750355570029,5.899872034708247
400,-0.8255927660323622,1.010151418207114,0.4248382191486457,45.132123311670334,-33.845378256616435,-48.33706451600098
410,-0.6832291098674125,2.0424635251257017,-0.16946569226775554,84.9845282870356,-34.45419639924456,-33.86027551897364
420,-0.5872419026793724,1.7424011597416051,0.09483126182802729,91.70151353667302,-43.304858025787986,-24.635675787559876
430,-0.7826921552766449,1.1822549274162382,0.37387139585765033,122.37192852192538,-49.84543353791893,-21.069640990810765
440,-0.85863195208918,0.9247989395950121,0.26352242980401375,51.352246130840406,-27.99200891169645,-11.977601807069833
450,-0.8781400327866821,1.009688495818204,0.2792284431213377,-8.580452087280644,-4.56546569408935,-5.350870704890186
460,-0.9419165614552031,1.0079341280008096,0.395327622395085,-23.96333264152898,-5.62495949894903,-18.36207044538746
470,-0.9095148735517474,0.9202448719243889,0.42982859984877414,-34.80729873887495,-22.436194235528554,-40.47517873004995
480,-0.870975400915276,0.9810355606782827,0.29920654985904305,-15.155204743185127,-5.288245579722949,-18.595184305040313
490,-0.7877156664715288,1.190244400860787,0.05820075095153596,3.329365262608756,26.491542288917184,16.61266560863054
500,-0.881391363037916,0.9956036625992609,-0.3441099534996725,16.28004780496014,29.055227399292704,19.50549089484257
510,-1.1430792380632726,0.9031095131932002,1.4428170526416249,-33.870726671189686,40.16421954593691,11.059187419362768
520,-0.9878886355362237,0.5945745672425148,0.9802902884145841,-66.36524097938948,15.667834349389814,-7.59090559218841
530,-1.035348766430291,0.39992775107012357,0.5848508574635559,-11.40532230980766,16.427216810069112,2.3320531270879585
540,-1.0640527201467305,0.7319195472836856,1.2195003426268252,15.493524321079535,25.04280014704326,9.858056422404628
550,-1.0204510868091985,0.9483616470505052,1.4621866150717857,0.5072425197873836,25.16718211823548,3.5407768122244
560,-0.8587552575486653,1.0053943410710604,0.6092451320629039,-2.249380133457351,26.750675345976695,6.7575171666003016
570,-0.83074051987571,0.9831759351728966,-0.25874884431381134,18.466002216793367,19.67973176740894,10.585170922685176
580,-0.859498013241681,0.9563936206449478,0.21122839637689517,26.269701440071056,0.2806794960128647,-2.2439565086661073
590,-0.9675966578234269,0.7232393797992045,0.505948878729123,-1.1252271519671924,4.207081622549058,-0.9770277571986732
600,-0.8930460113020756,1.0250680656763782,0.5812590105654541,-16.573885246886032,5.294725440961739,8.178755414945252
610,-1.0166024204391588,1.0037508069373773,0.5632299250124624,-12.523903432883154,17.3293408225672,22.62569052889226
620,-1.0506404929022872,0.6903150249657753,0.42271222929429947,-13.709056858965058,4.585157154385218,18.304526949188933
630,-1.035935919618851,0.6740205028728053,0.3596057185059448,0.21838223017734149,2.2677512769372408,2.6113923083959167
640,-0.9094243503109352,0.8301254795796129,0.4107325773143133,-0.6509653020278929,2.7013659183351386,0.4811740411696902
650,-0.9014648161735977,0.8862492340279423,0.4181225262912999,1.6476975328041616,3.2568872033084126,6.550720176042372
660,-0.9043011543831935,0.95807907103265,0.4052371682769133,20.656176594573225,8.65104487097253,5.375986503062491
670,-0.9655423317741154,0.8733403647086897,0.28083506018741733,41.05179501548019,21.046975113881672,-2.253767430704924
680,-1.0721464190488392,0.5927723641553757,0.13435742449540783,37.45584900627153,16.711338452754312,-20.25198065230778
690,-1.0629754523281452,0.5908249103251478,0.09160574042523503,43.62811976350167,-0.8033193616088232,-33.94663162107057
700,-0.9721158790490466,0.8781683923437473,0.23238573672269852,27.30223186210416,4.285666065595917,-12.26726920905073
710,-0.6545058776162486,0.8023894227971354,0.42070265232025017,37.04370614344563,6.240895963371985,-39.07736288240658
720,-0.6684523702749918,1.0964415797161213,0.8927704875817551,27.420325154667623,-2.172937842895385,-41.33063080440774
730,-0.8748617157715094,0.9931587699148035,0.5376490451700204,-2.56937438463523,-0.11552939969320558,-19.719448805113405
740,-0.9222717320474227,0.9440344894425927,0.4190033075183486,-10.811129768685849,2.2650981113833573,-7.274422487514522
750,-0.8919699771902417,0.9634720641524014,0.4425246023002849,-13.10097486147067,-1.4617824106888895,-5.467525421414278
760,-0.9186877969116796,0.9283812897573898,0.39409634551435263,-13.899722795740477,-3.3593151715194614,-3.056407464813643
770,-0.8874727890964285,0.9542196437793954,0.4149840677755199,-12.31382558954598,-2.462559278682031,0.019558236225160064
780,-0.8567159761219165,0.9837999850889461,0.4463630488284865,-9.939175364884694,-1.4187642477438274,3.0417994998778677
790,-0.9170858956046215,0.9055309013148101,0.41264984647414377,-5.884179271755004,-1.826462330171317,4.385041083405234
800,-0.9319303734766389,0.9141971070794406,0.3810664950930857,4.985598035300869,0.7842471271126521,0.43681947823380485
810,-0.9416029961896968,0.8997728881253834,0.3676121262528476,-0.3545573415001051,-4.169801867908628,-5.231412206432259
820,-0.8864616001101271,0.9478419987050338,0.43483043983062913,1.362510689822018,-3.139683141685524,-2.568545705322204
830,-0.9158237446535716,0.9135894948859028,0.39978545989118247,2.567019590786794,-2.4809389499297634,0.6555070944140509
840,-0.8987452445445068,0.9408234635151437,0.4267626300811432,2.6122717682271723,-1.3687328364250164,2.764884929404468
850,-0.9024543728437556,0.9420468115793972,0.4261786338640247,1.980244659720282,0.07495599188310997,4.058106849569664
860,-0.891277476980252,0.9566903187120867,0.429541844797396,3.015395668218377,2.13161563007564,3.0410479062371705
870,-0.9094045363081054,0.9450807071837918,0.40530665398404075,2.9405420048327167,1.6009623604885945,-0.6233297049239012
880,-0.9399365886832055,0.9152004127301957,0.37570033824904464,4.064675833896811,2.1128761969603502,1.3319327269888612
890,-0.9115067307875947,0.945014702505602,0.41148823836422543,-0.29240693426830533,-2.5609667030104073,-2.20442822785158
900,-0.9156277010775808,0.9430351984796611,0.40338118368372444,1.6578689881723716,0.7861538410714228,1.1887646060798196
910,-0.9083330435195514,0.9419564523398652,0.4060940335656995,-1.554667951845541,1.0588470724164083,0.15072628119295484
920,-0.9084386052987801,0.9247368595348446,0.40939356844889724,-0.3962505444670775,1.2718738223253987,1.141373798124721
930,-0.9223801896393488,0.9234667902446259,0.39599117876033335,-1.1337466375361092,1.6667517820446172,-4.492487453857259
940,-0.9120111164028873,0.9361612963758972,0.40322966813562494,-2.090432936652621,1.7404053293895088,-7.0033009811391445
950,-0.918502160429245,0.9145891107831821,0.39793862958392945,-2.27785953182517,1.2031073465067386,-5.662721741976516
960,-0.9264335555879046,0.8975215342034141,0.39110390578530496,-1.2391452254307183,0.8679493749158795,-2.6830153947319797
970,-0.9174080669675384,0.9073507222667361,0.39856884479715576,-1.0580601121182913,-0.6917394154923735,-2.136994444998286
980,-0.9276882308344694,0.8927980087409819,0.3894425495265747,4.872723460976988,4.647410543021575,3.271047949879729
990,-0.9381001061597003,0.8809831698903655,0.3791498608050897,1.1930827579240995,3.844153037571753,0.9783934002250184
1000,-0.9124437939192155,0.9081944729796687,0.3924574287576219,1.7978824245611804,7.115073406699313,0.11464460100623183
1010,-0.9016564416356807,0.9249401213945738,0.4130634675810351,-2.7121327246427462,6.45242229216189,0.6643612372271261
1020,-0.9114572375613277,0.9372727057788603,0.39496252087837475,3.7383600405836335,10.04327822621451,6.756759160063389
1030,-0.9347086309351077,0.8984270975627292,0.36409161128224715,1.8838219483709215,10.32627827506796,6.9504862275024015
1040,-0.936138047618755,0.9560312713362997,0.38376249918080585,3.527560864536011,10.511654591956058,6.445074271517482
1050,-0.903397506825546,0.9834695744672074,0.41628045198702884,-0.8259208877933419,11.437062970432287,4.441937453600692
1060,-0.8995732870223753,0.9369935522294267,0.3911278896621941,-10.322637023036354,8.901395655699197,-1.177103850003451
1070,-0.9017222475522395,0.9234252904753307,0.3715885515976546,-4.468865077437309,14.753798667934749,5.5906389842130055
1080,-0.8899583363490404,0.9501919729823355,0.39047303247046244,-7.128803619011955,9.387422574092916,4.855315988364081
1090,-0.9056430644109792,0.9365230218436326,0.36747992998839657,-8.945956473292165,9.385977444439332,8.021410287519378
1100,-0.9120711564637675,0.9318287375932868,0.3667342755486705,-14.020826092046144,3.000076617069633,5.186935590388549
1110,-0.9332990232505481,0.9161228681192057,0.34436152290559724,-12.98648069581121,2.9792823678249665,8.995767840270405
1120,-0.912523531440414,0.9419144579908545,0.3636994434145255,-12.0774280588133,2.15581398057148,12.256260792319551
1130,-0.9085881026949085,0.948802311196615,0.359688175957323,-7.801590280894763,-14.730460207453945,6.31133359092241
1140,-0.9147594748890219,0.9540039978583592,0.3733399059488255,-9.894698105600783,-25.662868079446948,-3.0909170033082742
1150,-0.9389995423339104,0.9255707541915674,0.36839195631578814,-9.789794548087613,-26.554935677570153,-8.193144154857581
1160,-0.9122360611057563,0.9329850647463263,0.4021355374609933,-5.711332582656517,-19.878253216933206,-6.843549200597899
1170,-0.8971205575171061,0.9356854852037529,0.4240028558133516,-6.976568552404368,-15.128013526962643,-7.048230900636607
1180,-0.9089646158917049,0.9241107655803331,0.4189675335005523,-1.3251645122123783,-3.0237600958862387,1.527590784119024
1190,-0.8932759118756596,0.939582391128554,0.4239402840459116,-5.068118580320585,-3.2821221579973168,-0.06150966487036991
1200,-0.9174674141590373,0.9498813749532002,0.39340008431305,1.1398376618791572,1.293023353657413,5.97252402486244
1210,-0.9187002287468209,0.9571501220507388,0.3925779225728747,1.5844401501846406,2.1551227537211575,3.525348417653398
1220,-0.8860582476869213,0.9890017355466859,0.4215550987937292,-0.2932058154409162,-0.38177960041413184,-1.8613539599864624
1230,-0.8869281904806925,0.9784576510061519,0.41835198466163337,-1.7759953512721345,-3.5137961455225892,-4.54159176563091
1240,-0.910681229906527,0.9438164643114908,0.3932521991000013,-0.166857684995247,-3.060613451762697,-2.636963566449403
1250,-0.8904107810718268,0.955908448713221,0.4169023307675089,-0.28538266800678086,-4.88340351741358,-2.8940235170479403
1260,-0.89514915090518,0.9549336843491426,0.42193820848475133,-0.22217263660843065,-3.069611552482755,-2.1943358201850636
1270,-0.8885379345996784,0.9675312781879936,0.4331132343556344,3.848481452550414,5.0225319663521555,2.6932989653311568
1280,-0.9378449486728136,0.9149805445089653,0.37708135528492054,1.6941033165972625,2.9064917825196908,-0.8619910070469983
1290,-0.9297607702340039,0.9263340023030315,0.38161029338986463,3.836147168879438,2.201932190774621,-0.9336113661593699
1300,-0.8789960963099375,0.9719644153108322,0.41713725522485195,1.5260656632197405,0.6081981597071356,-3.1031587548228514
1310,-0.9264951897080436,0.9199056767331523,0.3780005975170144,-5.014723690198453,-4.200692172654792,-8.690025161188442
1320,-0.9112978549533242,0.9424940212378902,0.4058410844942756,-1.8077113294076586,-2.9862952344326836,-5.222927404640715
1330,-0.916896431467247,0.9390067655424774,0.4131076777484954,5.922781003430567,3.551034182089465,0.7035979323704367
1340,-0.9113845370914553,0.9367251971926436,0.41390125871012834,2.8529606241573244,2.7308512740574997,-2.0224693477167235
1350,-0.9303473609815558,0.9210508617725988,0.3888233420903524,2.2867285752116913,3.8152008160770587,-1.7129694960174886
1360,-0.9333928651052569,0.9245257397405232,0.388796304454322,4.675456163004469,7.439103127037866,2.354859804882629
1370,-0.9347488476514625,0.9206618694202039,0.39201360536233776,2.8245770452814254,6.786479378172833,3.547438408636701
1380,-0.9190147360428057,0.931345367358435,0.403065147834754,1.5968327372047462,5.25743847890875,5.7264311021373615
1390,-0.8839153988403674,0.969651550965739,0.42886617836858154,-3.4900691958261407,-0.21134368533412307,2.5517483520367494
1400,-0.9027677455380627,0.9582339898115637,0.4121807559744813,-5.987440957846376,0.9398615988613681,-3.144243092684922
1410,-0.9017234193591891,0.9460796468964414,0.4128657504023401,-3.442730704120446,3.6422717318809887,-0.2801634722911466
1420,-0.8963716244073479,0.9596342372358153,0.4228292836092229,-6.237129527285429,-0.12962502170692058,-1.4840848064523469
1430,-0.9106688850389792,0.9421913885899166,0.38966011516795407,-5.48099681868559,0.303260093752745,0.2920444264350257
1440,-0.9345938975562329,0.9123266587319003,0.3677031104850556,-7.424266902539685,-0.26283595417502426,-0.8853974914341188
1450,-0.8854607440059793,0.9646940471095348,0.41971614730937296,-9.25408973342758,-2.8319556098500644,-3.793965757575952
1460,-0.9178892770409731,0.9370358963441272,0.38932947022799186,-7.900924264951319,-3.1830666723933225,-3.9638665039882786
1470,-0.924638701917033,0.9277465463580349,0.3851085552686531,-6.7984394406692,-0.9552612544569977,-2.6326273026682365
1480,-0.9088587698088635,0.9387119759350119,0.39927592519089794,-8.81406513923015,-0.7591566575217038,-3.470125298662295
1490,-0.9062278508715274,0.9424893098155145,0.40571526676882047,-8.153487315479888,-2.9207467262739644,-3.409450193319752
1500,-0.8891245308068907,0.9581498435839761,0.4376755728915399,-6.262461663835307,-2.3737562357493576,-1.9227579864441395
1510,-0.9396403536232953,0.9156227748003736,0.3870961577608761,-2.505360842176828,0.5655471868193733,1.1463773017905137
1520,-0.9120070542595541,0.9437751753267639,0.4276518793338095,-6.299025212564501,-0.2194747263439707,-2.230601052355489
1530,-0.9322228332566528,0.9257299940022883,0.40192481365123905,-9.588063238238659,-4.098617749691637,-5.666565030611833
1540,-0.9061038884700314,0.9384889498996584,0.4154247680044073,-8.438593657281254,-2.836130648877633,-4.6905424715210025
1550,-0.8850990551412654,0.948706167360551,0.4246427004677254,-5.311784345620152,-0.011580303995334162,-1.9134990994464662
1560,-0.9403074455097598,0.9022038634937376,0.3758424891828854,-6.900539125943333,-0.9177250746835732,-2.994559233235802
1570,-0.9156705959933928,0.9329818423729186,0.4108708065728827,-8.738086189511852,-2.9738231769032364,-4.996359753114988
1580,-0.8959625817696292,0.9363924272432211,0.4269298231065493,-4.471757122697752,-1.4387265173915462,-2.4950873080496416
1590,-0.9139148181363499,0.9091864809046576,0.4141082972639734,-4.8615929562063425,-1.6320071296797738,-2.1032045141570634
1600,-0.9404173092430033,0.89209148321424,0.39715793462030796,-6.016377798820031,0.9397497839877716,1.0163909919121363
1610,-0.9745670246595499,0.8928228902072068,0.3872955207755998,-12.597589629877401,-0.23657847692003875,-1.819468825077755
1620,-0.9175002848673672,0.9175580076419856,0.4057015240952768,-15.9343226747933,-0.4202897858796586,-2.9261023549498386
1630,-0.9268823670822424,0.9099150658372439,0.4072509264034062,-16.502567465639657,-2.1663288014793634,-3.7206733480978365
1640,-0.9136073951749899,0.9320730192259593,0.420936649418409,-10.789503431549413,-1.2400556647802743,-2.332118617507388
1650,-0.9019188763805516,0.9319242733474401,0.43134843992141303,-6.484241167448842,-0.43725696449787665,-1.9033307086574576
1660,-0.9110230068173089,0.9211265385478875,0.41971110348816193,1.0274976783833778,1.6367917731379773,-0.998017321100932
1670,-0.9275821013125503,0.9164573236022071,0.4024131788369331,-0.1893501644901232,-1.7288254398520067,-6.38472674135383
1680,-0.9038589367245954,0.9350506949542737,0.42851683204902796,-8.897094857996215,-5.803760615667391,-12.175492384467578
1690,-0.9062441720024503,0.9174014511807894,0.41962406626999904,-5.6893374905214795,-3.0565241091538846,-9.037890016411703
1700,-0.9287212820994152,0.9041122114533325,0.4031344514342057,-6.8443131629254115,-3.671458724485446,-9.402974306779791
1710,-0.9097872305226967,0.9172149783717538,0.42553108537898265,-5.5928813349058,-1.6401616126031557,-7.884903809651434
1720,-0.9283957482217738,0.8962045272332837,0.40869838617757454,-6.362840697762745,-2.746862887520387,-7.574235747432158
1730,-0.936989344666512,0.8954012884397841,0.40533559083343357,0.13362289174596376,-0.7947324008229979,-0.7059314439432705
1740,-0.9333139040595525,0.9001619528567305,0.41049844712327727,0.1564358998168336,-2.6917029192747775,-2.443817078599959
1750,-0.9226503999601173,0.9122085787766319,0.4214395331887081,4.324901162356479,2.326702430428903,0.777801902511223
1760,-0.9038017658439162,0.9271445737632551,0.4412250368134823,1.4961847741858825,-1.5184112961786276,-2.796678489590195
1770,-0.9073676491763948,0.9178056359438835,0.4363601009527363,3.170190902742149,-1.6707514215038402,-1.0807452583179005
1780,-0.9510879985016701,0.873903766998464,0.38909172151461846,4.3104481839089095,0.21440626951837638,2.049801676895363
1790,-0.9140513041886598,0.9106756607643283,0.42767657863930914,-1.9661137881665176,-4.762857814887903,-2.5322219027957167
1800,-0.9450894297803359,0.8858064932150057,0.40372018681625854,-0.3399327332171106,-0.9489195892536997,-0.46403819499550003
1810,-0.9278331180521792,0.8967047071542584,0.41858738292763265,2.0542850465531375,2.2232275568290176,2.27236617507581
1820,-0.9020168555922088,0.9268245305415063,0.44031215055979783,2.338427754869667,1.2744893933891803,2.0358338299793086
1830,-0.9255122238220439,0.8992140233945629,0.4114680817011322,0.39251674923051416,-1.485793120922524,-0.8204813573269351
1840,-0.9092560306977283,0.9241900302915113,0.4383698221098755,1.3093518207662447,-2.113621079826705,-0.2432704707169675
1850,-0.932223618734559,0.8940579581384372,0.4131558550084379,4.261194374353374,1.0277728395155892,3.496178618806225
1860,-0.915211650664164,0.9100195259062832,0.42557188365794224,4.97735982738833,3.180531491851815,5.113127744648846
1870,-0.9177543991788014,0.9136987620636783,0.42833862688448476,-0.37551949133945217,-1.1175272627317165,0.0928118711838426
1880,-0.9277347275151424,0.8998443010225571,0.420504979510905,1.3239464260611766,0.9571762589997672,1.777253576263952
1890,-0.9305010646758426,0.8977664884653539,0.40718550755500654,-0.9694516604802053,-1.0827739731549713,-0.6754006601097711
1900,-0.9148330503428918,0.9180706615325471,0.4252609483112296,-0.6959111230247266,-1.3618606863900191,-0.8298485075064088
1910,-0.9135278739436907,0.9180842430280066,0.42141967287203436,8.22661335416328,3.8597057398522496,5.756958115867067
1920,-0.9347202302328969,0.8908315454545114,0.40211463398694103,2.5606622524474236,-0.5901492261685595,0.7247662730575288
1930,-0.9228068330718485,0.9009633069810289,0.40312961195459873,1.5832424296434537,-0.5235671227036159,1.8231991139784636
1940,-0.9216444353912102,0.9122178296159109,0.40800872158589474,3.0819472132531636,1.4189888912033572,3.1685542771804664
1950,-0.893114228452687,0.9417036661514536,0.4417678318046901,6.469366678088215,3.0301156819641326,4.908131634182514
1960,-0.906514119144956,0.9243520162405807,0.43232987712805593,4.798017685644643,1.6433789820286602,2.749669822685284
1970,-0.8870483754783725,0.9466979496235866,0.4511174913276208,0.19647981832259465,-1.0125702199048012,-1.3236629034487033
1980,-0.9016949823594477,0.9378381522081839,0.4325410748393309,1.0530382707211494,0.002057433137258702,-0.35041860190997126
1990,-0.9187019013957898,0.9144799012101721,0.41846246959482913,0.10466421413127258,-1.4291883870741011,-0.9215116124803027
2000,-0.912455508057758,0.9039643363890056,0.42045225069636866,1.0237128172772838,-0.8802210493549208,1.0469459783876904
2010,-0.8975181696001173,0.9402210416824301,0.43956859879816634,0.23792342394729926,0.260621664076372,1.3408266536644047
2020,-0.9040241946771111,0.9421826424086769,0.4309489748106889,-1.6448026645969485,-1.2154047249973523,-0.8662319944019509
2030,-0.9077730588208053,0.9329924273190102,0.4360198134530978,1.6169423472109445,1.2925056400744428,1.7492615538310037
2040,-0.8951883849483064,0.9412464852301795,0.4414486094778556,-1.4786804255884252,-2.0309997141993446,-1.693022596919148
2050,-0.9176562727841386,0.9213321351337579,0.41190865072931276,2.2885417021743484,1.594472821872082,2.2580893398542727
2060,-0.9107585536148738,0.924264335845737,0.4183668048548129,1.6561483113335824,1.046075137539303,1.4703311564713948
2070,-0.8794237317592032,0.9519325736736364,0.45315672176645516,-0.31931706955659467,-0.436620448076517,-0.44021262306043285
2080,-0.9292482428947444,0.9107802216140288,0.4070628073361399,-0.07738980392293959,0.10267061403876693,0.5471407807356293
2090,-0.9296169872912744,0.9167130869198714,0.40644157618374765,-1.4030059706804154,-1.6373613672536893,-0.5531473981486514
2100,-0.9097811445643408,0.9271021334010793,0.41866980291920936,0.24869844330498414,0.06291998362979728,1.3193199320270188
2110,-0.8961869212814223,0.9368884614907308,0.4353572698523901,2.7900541546187285,1.6206519590385464,2.755735360504173
2120,-0.885986947194924,0.9529734678387377,0.44345190857417077,1.890434758556077,1.5645733868753924,1.7844935920277059
2130,-0.9215581700260047,0.9224869598965046,0.4135500889980525,0.5440364280289707,0.0077443869131425536,1.433809505995541
2140,-0.9184133392511977,0.923565770682976,0.42012814975214974,0.2858798643368028,-0.5310659092115506,1.4727607699415706
2150,-0.9160676181714625,0.9184037617824796,0.41753374797577536,-1.0627688326089975,-1.9925497745798437,0.032802234738035674
2160,-0.8844734390570232,0.9505498996115935,0.44987884971272063,0.9223782509088772,0.8279959389651519,2.0371169818694974
2170,-0.9467852526622446,0.8918895471787837,0.3886794671339916,0.431757527342556,0.9669783405132882,1.312577035990111
2180,-0.889302016407763,0.9482190803260576,0.4389686978337431,-0.055421737007407934,-0.280361599539801,0.10022704415418349
2190,-0.9331410358651555,0.9079540396571765,0.3930066314957375,2.5714343436671876,1.663949583313911,2.569506999296121
2200,-0.9343014347880667,0.9121195898075558,0.39583814531858025,-2.453762952741467,-2.8607334772183015,-1.1822466863936518
2210,-0.9271562303897655,0.915281791225404,0.4135463322821325,3.498259208711721,0.3127532644365838,2.468730233357836
2220,-0.8983272294637602,0.9386596221392388,0.434373048309162,3.1662658268384773,2.379711425034413,3.556464017059085
2230,-0.9088297238637214,0.9307521916804373,0.42050828635135495,-0.6991206452895891,-0.8015365883340446,-0.4164777797143202
2240,-0.9373217563883369,0.9049068017357499,0.39154363351355015,-0.3959488666541355,-1.0390175518436273,-0.8635077028790328
2250,-0.9085118575025106,0.9284320187165005,0.419643237525278,-2.079109756762177,-2.7191852704120607,-2.57688639272808
2260,-0.8960366888879148,0.9394239375316031,0.432533012020609,1.8325715063419503,1.7358527447664809,1.604047923473994
2270,-0.8961218120132599,0.9411849873284545,0.4328709261751696,-1.3745133396735063,-1.2149242164589231,-1.457690012388111
2280,-0.9237858718512082,0.9148861733171463,0.4048011542976721,2.516171399670891,2.592832499282311,2.5785185283039036
2290,-0.923039614638582,0.9205076809829825,0.40730134290028897,-0.06627664276618903,0.050943938635008644,0.09708083804936829
2300,-0.9016984947830223,0.9349253444369294,0.4309908252830459,-0.21366253385979028,-0.6467922866072442,-0.16386516725725608
2310,-0.9096890123886462,0.9287846005814537,0.4175692975319239,3.5463505499231074,2.718607963089613,3.75328910232865
2320,-0.9099197244903837,0.9363563048529155,0.4242034982829244,-0.23745130749806093,-0.9220095486502913,-0.466614257235497
2330,-0.9130068515223909,0.9319305375911022,0.4207329731828993,4.524908930240413,4.006244606841337,3.986723470064887
2340,-0.9245830736285268,0.9207647096472651,0.40907223028236644,0.7744711987770078,0.38846069614466927,1.1240369161291532
2350,-0.9063959262656033,0.9363512731121246,0.42692485284401344,2.295613800291631,2.215011103281771,3.1680283172714834
2360,-0.9005770353738649,0.9414868271959812,0.4316946940653339,2.477752002469553,2.469732037823422,3.187064212307911
2370,-0.8984898387785928,0.9432901581582255,0.4323310947560483,3.268602233889401,3.1803180947898184,3.557409233409408
2380,-0.9020308859963622,0.9370210533319366,0.4256658032255455,0.4769511831534387,0.45543937087136427,0.4755572306760115
2390,-0.892931808372386,0.9460259506842119,0.4307859197088813,2.020898722585476,1.9328687131857458,1.9637335441143902
2400,-0.9330058918766109,0.9089365732841562,0.39529596515768656,1.930175228180253,1.3818449649145148,1.8981149760963871
2410,-0.9023687799715464,0.9500001959644474,0.433622635832664,-4.3097114591303525,-4.263714199754561,-3.342960027058699
