time_ms,ax,ay,az,gx,gy,gz
0,-1.0150981799799792,0.9932785587983326,0.7257291012089792,0.04793158328225805,-0.1163154710964685,-0.3471826919769875
10,-1.0230964937192635,0.988135247410725,0.7181653492450265,-1.4883127160211378,-1.674238611431662,-2.708336040955822
20,-1.0231229961575556,0.9825038886918281,0.721824521291947,-1.8323912719813937,-1.9059546907672245,-3.139325764468486
30,-1.013948502482363,0.9888996735421848,0.7269934412800687,1.7369727120250607,1.7958348601196241,2.0918042949540907
40,-1.0175373380289887,0.9909493362092723,0.731126843329748,1.276573599909722,1.2060407356998568,1.6756270841043532
50,-1.0235622910848399,0.98658034888764,0.7156272551190529,-0.7701514083511153,-0.4823053405662282,-1.4129315346028763
60,-1.0170601036918443,0.9879690871290069,0.7244588400907298,-0.23506527694039042,1.1732067201422618,-1.2006725837817354
70,-1.0003061493124348,1.0058773567364314,0.7430169725095411,-0.4507059722577891,-0.6320772107811643,-1.4284388764684752
80,-1.0019492170641071,1.0055202331551036,0.7430223363916452,-0.9825303534880562,-1.6967162643082314,-1.8070705270698566
90,-1.0079363120148268,0.9987031518654212,0.7389190046636313,0.9909136610066502,1.4861745328012756,0.14397611808912802
100,-0.9995702212638908,1.005464028708178,0.7422648694984321,-0.29473366622476704,-0.38184408716256646,-1.4437662696659963
110,-1.0241526508924699,0.9828313890438855,0.7246314221751289,0.3684046917455195,0.7274165462496822,0.679985963032494
120,-1.005026485172214,0.9992863342112087,0.7408501594301569,-0.00958819124819743,0.4900507743106385,3.8452248758880962
130,-1.093051946442174,0.9844169030191868,0.8250581420594164,-6.663220692921813,-3.9780349093495415,21.81166081758594
140,-1.5269277243262014,0.5590334528154761,1.1053417759907471,-10.38328524960814,-54.41622874246438,20.337206928829623
150,-1.7231819395160606,0.8324509423137779,1.3746852342779252,-0.8301587701773512,-114.97943579997079,29.56482112666637
160,-1.232077138155988,0.839208695443824,1.3068468807221267,-16.562802776641643,-187.2376148380433,42.72942994469357
170,-0.5506388086987334,0.7368057162454046,0.83151770988769,66.31997646729599,-168.38603862454656,44.20901465017568
180,-0.36184417987837075,0.9201206531457155,0.5760247975643884,21.119932254821865,-84.41749619896346,-3.6441770445990946
190,-0.7939631597562735,1.2507701754374503,0.7649839139864589,-21.610487265033566,32.24642762609779,-38.19619715831382
200,-1.059302669802197,1.207820311671687,0.7309550113307371,-18.96393267113226,43.5330674080114,-38.59241297488945
210,-1.3354718550932356,1.275331834381261,0.8956467626133838,-25.742072447212156,49.472255543840824,-31.309573566908693
220,-1.381124704395509,1.0892457614723021,0.9761036170327193,-16.241347104504484,28.19048892972029,-15.886890183081821
230,-1.0848808774612966,0.9974721963004458,0.7868678547530998,0.9021646606604379,8.890737252732972,5.21728892470791
240,-0.8584627543524603,1.0512762063982546,0.7767874190949369,4.187781055436198,12.73252993969307,-4.962207557912121
250,-0.9242645375707372,1.1724553510635105,0.8518024184947521,-0.9242107802239286,15.897286935257274,0.8106417249820423
260,-0.8677570701518103,1.017723673479827,0.6806276403064666,-2.3025799998312584,24.42181366945367,6.977862242533453
270,-0.9871608638203099,0.8626368011185278,0.775996457138062,-5.30073984272166,30.131518891920578,-8.039295171781411
280,-0.9999504164369711,0.9324735485330974,0.7228729264493808,4.321370452958,28.369441048961153,-21.06137090124101
290,-1.0434581627365997,0.9931226892067233,0.8620828812634989,5.1270066977823125,10.762288343534754,-29.44473749819749
300,-0.9777601361390705,0.9659339190780097,0.8875883543034659,-4.1546032716534125,11.203408872942736,-23.254892291564566
310,-0.9680310188045479,0.8621783709179589,0.8959981165144322,2.6803119568976563,7.479694010923428,-10.956381451781485
320,-1.1319388836881097,0.15046843466903967,1.1514370698267706,-26.75617242510887,-10.199884844900776,-44.78009495181422
330,-1.2855810627161437,1.5338610320069002,0.4120414299586536,34.19500262326919,-15.700238769557485,-45.02178629977535
340,-1.2878011450353626,1.7595505747963098,0.3321648930531074,46.33745524704313,-33.55678639394382,-24.211981499602043
350,-1.1149218977121969,1.1762073759649605,0.6911024686414231,44.34395966008815,-10.355382473019777,-3.889141384977113
360,-1.0172049404825008,1.053207733196911,0.7010899413703353,32.368570254281416,2.0063952737433435,14.958859203711159
370,-0.9789556753466184,0.945219580513463,0.8402895563895715,1.5405242408457491,-5.564384682073383,4.097544520649376
380,-0.9898318639640942,0.9771394342857608,0.8212270522277878,-10.100947008455378,-9.237180878152097,-8.62975063801965
390,-1.0272710044969,1.021507443056204,0.7446493197074611,-1.1134166418486866,13.505133626397479,-3.1441267633093637
400,-0.9066300558761481,0.9969142747874801,1.1674778726079764,8.411281509163638,28.666583013228863,11.63385807085494
410,-0.9915935287454921,0.8988897209444201,1.1526661402848044,14.268158791110887,36.987530084491695,14.684933701999633
420,-0.9900207021162676,0.8463991969916244,0.940199157775507,44.771458172405424,45.882675333426185,32.50687413728467
430,-1.2303144480182933,0.9726020917293405,-1.6366653072930406,135.0205295314219,82.67579270810906,57.704731685722074
440,-1.1752487954180992,0.9346735823920559,-0.09901914861584467,12.663350327160156,40.172314322196705,9.540983981369557
450,-0.9346826011113738,0.8906917645545934,0.7877390223920924,73.3411913864977,60.0750690433586,36.26450623958294
460,-1.0537182136240097,0.8860549865999209,1.347864405757382,28.52866869019495,39.50079413357561,21.392686459046306
470,-1.031203511735873,0.8702286480435164,0.7675468649517219,49.62913304468028,38.356356845052545,32.16780771126466
480,-0.947402443065086,0.9207238336593819,1.0912336145291996,15.116510274698163,40.200287060190156,17.638233641918184
490,-1.0372669924879208,1.06501102200706,0.364979858866849,10.489544052197276,13.324689389041698,6.712099582537795
500,-0.9953072380926055,1.0363844268562596,0.9222879553026705,1.8314073186610864,0.5063458590404838,-0.37817964563179773
510,-1.0167776892963118,1.001764028819914,0.7972268927726878,0.5016401662225706,-1.751730752746568,1.067388184006064
520,-1.0273479747926637,0.9866410443541322,0.7305838393181028,0.7910170761387462,3.8212516523712607,8.084173029767216
530,-1.0240084827377247,1.035048830553088,0.7037723773662526,-5.412444389730039,1.4473141893483903,8.468353932297997
540,-1.0134120981703008,1.070946912152704,0.7012133797616814,-14.036353943235968,-6.878692153701554,-10.893950350569522
550,-1.0238203865513935,1.0265540452322044,0.7079286331902536,-16.22879391719512,-9.347686898879806,-13.530162400751108
560,-0.9993968267285763,1.059181073747972,0.7365460538037523,-15.679196315494874,-5.764160976478538,-8.766580872916068
570,-0.9899234983575309,1.0871877031407073,0.7845400424846163,-21.37273847961252,-4.185454155218897,-6.387855697773615
580,-1.0026730777406685,1.1858662201172656,0.8046972813034046,-28.512594919415406,-4.733056142946959,-4.150320789338284
590,-1.11332346796881,1.1022522531964616,0.6733463593724869,-22.801724541543862,-2.203062318960119,7.263000408615851
600,-1.1551928556923972,0.5083452257035301,0.4261880879501722,-40.09518560779762,3.794347834851219,15.301946741832497
610,-1.1115120536818004,0.756653217343313,0.7622547442630555,-34.7976259065427,-3.1448707353953913,14.458618997495078
620,-1.0345887072514868,0.9418784591425564,0.7007513293650826,6.780114078592424,0.11662115175279145,9.112639588062178
630,-1.0199096807381474,0.9900984005656315,0.7139223451677591,9.220522280571323,4.424951807395934,11.204470833153767
640,-1.251709708825695,0.08447947797593564,0.5240427654831039,8.496526992206496,5.375096192570722,-33.94146016491357
650,-0.9984851857606838,1.4224039145306344,0.7290921354949653,30.512970800505464,18.273750756170415,-24.893602945504735
660,-0.9166217125623983,0.9773758824713035,0.7322076733263315,53.20518396253977,-3.175585713173903,-67.2766930162528
670,-1.165852632942738,0.8438618587596385,0.7585047631785309,69.96964867906537,-6.432709217735384,-53.166368977172866
680,-0.9701330240898924,1.1004435123813765,0.7791209458857874,9.94802095812841,-1.1417827811372092,-35.74845016451785
690,-0.9598938177075069,1.2349567882854988,0.7467163781245025,0.18282330078320452,3.4498375777438217,-9.914824671494626
700,-1.0721836560129057,1.005070921688235,0.6978999144993338,6.904435263573568,5.259723921956686,-5.861680450982256
710,-1.011757270400297,1.0030937876729404,0.6959960295405451,1.4132826888590815,-3.0814060151470257,-3.6261446429099045
720,-1.01586394432498,0.9854758282265028,0.7101991540480735,-0.21676857479637135,-6.335024585367058,5.642051453835467
730,-0.9979813396111373,1.011715238913115,0.7226250655028459,2.1297395977997717,-2.6015581617928896,8.815260653062756
740,-1.0202423587369225,0.9838336527746546,0.7050788546671397,7.0131219986069695,3.229703649451461,6.862644475933701
750,-1.0391227166430945,0.9782821081127864,0.6861523069879415,7.969043318934986,3.716085410419611,8.10457491516079
760,-1.016853038528284,0.9999149712857514,0.6973151564856402,6.096034941752475,4.080638926514674,7.612518483679708
770,-1.0378336933072885,0.9960253587972808,0.675116091162697,5.63740023730549,3.6786806965007153,2.3496250419339875
780,-1.0308394553791895,1.0040946395897534,0.6847790832208452,6.3481880568037194,3.264450966169481,-1.1797268934610798
790,-1.0368416713851902,1.0063980530338044,0.6818796145706743,1.336578781592773,-4.30006445109727,-5.964126642419968
800,-0.9993598394328744,1.0125028091108215,0.7304637844441159,7.33000988967191,2.5663461929316247,1.599432800116822
810,-1.0293528488030144,0.9959548961225535,0.6969521341941012,6.461570678926889,2.047956425698037,-0.6832923574192608
820,-1.0158884971300484,1.014256113553283,0.7050057412596296,5.511546107932016,2.1519627901524476,-0.9923153893180324
830,-1.0316169329213782,0.9975227206751035,0.6831108693985,3.978017069752923,1.603192911224018,-1.175317555611083
840,-1.0409185857616838,0.9820819944682003,0.6690948933862852,-1.9177189987524528,6.113388852428056,1.5457009142014595
850,-0.9902434241326973,1.0335955675348223,0.7133147473429863,-7.33076204075551,7.6459199538677876,4.9053774001937756
860,-1.0179813089819238,0.9977755210347936,0.6871339075501934,-8.543553006439454,8.202259548345308,10.290984691638842
870,-1.0026029647338968,0.9910419402730918,0.6689367151208053,-6.28166948267382,5.8109448312760055,13.266255396058693
880,-1.0174709107213058,0.9541204462482618,0.6534072047600202,-1.7385139667927896,9.228468019876292,18.969625184604652
890,-0.9900102214900652,1.0873161725517397,0.6998726081187228,-12.514054059845105,14.927834491477318,23.99027523049408
900,-1.0414677389516784,1.080236438906016,0.682172403252232,-19.862289790498014,13.889987099366952,17.52117410223507
910,-1.0597324022357033,1.0593257353322123,0.6570659748868637,-9.887507746760113,14.153414538992763,11.993808297612645
920,-1.0346904852440397,1.060615881967191,0.6714502583669835,-23.654399650133634,19.91981793215593,7.542788859823962
930,-1.0055952312123198,1.0781198814302042,0.6879347153052613,-28.40079916195265,19.444614452525027,3.9331038027386827
940,-1.025147888395854,1.004050999592691,0.639468366320558,-13.005865608522534,6.412046352636776,24.90589314430214
950,-0.994004201617143,1.1144291601482574,0.654552014923858,4.177389576611411,-12.700967483264677,35.695794605928114
960,-1.0136457390552187,1.1904375052876666,0.6648150055375996,3.361880341379173,-18.503900235567624,8.359669844261138
970,-1.0412108693246442,1.1271233583044344,0.6380595301877819,-7.808366251806079,-19.329878831335414,-24.620339039097612
980,-1.015682891428561,1.0846823938296093,0.6747326686380637,-18.120933383384607,-20.778221079460614,-40.626485368576006
990,-1.0375351528692291,1.0373249768223762,0.6723864502294578,-11.416298685085115,-19.26522330552251,-20.34779848546908
1000,-1.0035870695459923,1.0273791592577866,0.7172974411437151,0.12773563555522316,-11.143177499800778,6.506796255433072
1010,-1.0400856362916318,1.0141711877293125,0.6808774290211318,0.7362629955914846,-0.3687502553171065,5.113226846694231
1020,-0.9787467857894164,1.0934894233961436,0.7335039289518411,-2.638101364003489,6.739712872723985,-0.17669497177655558
1030,-1.0459091413552466,1.0125422342504482,0.6693826913459334,-2.578426248068853,6.595282641739208,-0.5648023002031146
1040,-1.0220068187837887,1.043982374172168,0.6881261282602231,-4.516012118674611,-1.4950921082934965,1.9192807096483477
1050,-0.9989196334541788,1.0855786243769523,0.6977008263338338,-9.146516002540528,-6.50371494310349,1.1150171769316584
1060,-0.9791146005946895,1.0935305747975692,0.7305920279373205,-13.822997296142752,-4.72732434460904,-7.886141597826872
1070,-1.0316374094088117,1.0240932770121025,0.68239804830742,-9.679795040478178,-4.853662453030304,-10.258146547949229
1080,-0.988888959594431,1.0617398044243782,0.7219860792140973,-9.664260204473951,-3.490472418856818,-7.073530872238361
1090,-1.025747126068626,1.0234254926865198,0.6953597465996701,-9.942849029867467,-3.943269372873874,-6.902008115798688
1100,-1.0067595939691647,1.0293167436093131,0.7188360481982193,-7.97973081487252,-0.39457214273904273,-5.07048301351467
1110,-1.0041144341321881,1.0389584570078756,0.7191120214930038,-9.569841588985454,-1.0886018860573088,-6.954128681821658
1120,-1.0069402142881856,1.037505560290879,0.704797000407234,-10.364594753518896,-2.243746948751002,-7.945213298080693
1130,-1.0093729794683997,1.0245024714349014,0.719629087281589,-10.709662604959595,-3.4462001466676724,-6.457690025792703
1140,-1.0218716847156795,1.009827489761466,0.7020983456534393,-11.105132998134804,-3.2057760755122278,-3.8497251869124245
1150,-0.9969297700647353,1.0300133063181307,0.735275666074496,-9.581040450388393,0.4464953656078152,-0.25765447882821535
1160,-1.030257788761344,1.0067533002855251,0.6996526637739965,-7.716304591275512,0.798941427103641,0.8970287195336716
1170,-1.0251274469549034,1.0049608873116844,0.7118929678540483,-9.868329133864055,-1.223162378979927,-0.6131842808286159
1180,-1.0106960325776295,1.0232774443302939,0.7232058647012842,-4.566517241824684,2.7677461851712146,4.116564165247722
1190,-1.00287918335426,1.020274754762742,0.7289461205881698,-9.588516732722146,2.3192760109677835,1.974070243874968
1200,-0.9781619497721015,1.0486097347148093,0.7482160749991927,-13.826350144968135,1.3210553827572933,-0.43186215739698386
1210,-1.046979318846077,0.982229663869528,0.678205644669243,-15.657931845646864,-1.8679964214384452,-2.6172955179562702
1220,-1.012105122172362,1.010766053799717,0.7101214872787893,-20.952320159830702,-2.9652274389002846,-4.970085872647748
1230,-1.01487335736861,1.0097172179839056,0.7223944421011296,-20.571484928375185,-2.3886808603264074,-4.073944007777796
1240,-1.0146080091275196,1.0007402294110561,0.7153577569789024,-25.44064546642274,-4.326109349363234,-7.054729101891553
1250,-1.0094589468342736,1.0047181445811648,0.7251492086013499,-15.294087683973526,0.17135834429370522,-2.327290760762819
1260,-1.0217081636960792,0.9849998345583111,0.7207337348756154,-21.1111043483264,-4.244985937460668,-7.272416817920467
1270,-1.0027313680697638,0.9884402816409652,0.7387816713989123,-12.664934700302396,0.06819941315915101,-1.7357265341925774
1280,-1.0065630854970187,0.9796823358040259,0.728663745997262,-8.101014253825872,-0.035262346096534225,0.3878844032864708
1290,-1.0078262526944093,0.9736904809578004,0.7312922314369628,-4.710092222164071,-2.2136691835160702,-0.45367140741402445
1300,-1.0174154901814858,0.9755678956076786,0.7270565173325435,-4.214456391626706,-2.0379544105729264,-0.5302261218786128
1310,-1.0179679894905116,0.9720124555446028,0.7188067120135401,0.37844670703263067,0.11308389577967382,2.341436950702615
1320,-1.003275418435784,0.9903184408026363,0.7392526283375389,0.4467641057365946,0.2917094312242059,1.4071358006725903
1330,-1.0294100829855826,0.9737642969370103,0.7158092850324339,-1.4992568402059097,-2.651098161305082,-2.5206312025180573
1340,-1.0344477444304165,0.9617478056042822,0.7072088298311208,-1.1735901529305974,-1.1478214880867657,-1.7869400773564994
1350,-1.0430857014268353,0.9446041520629723,0.6906738719802425,3.812912990860358,0.48453612783650946,1.5583721636846786
1360,-1.0493188731568641,0.9460649629331994,0.6898460215573113,2.5496649181951985,-0.32858300861308476,-0.916607679988052
1370,-0.9852090611559743,1.0118240062308326,0.7609449472434963,2.0652006216025915,-0.9945984640550658,-1.7633826017839216
1380,-1.0214266390989377,0.9739690994414446,0.7265062166181218,4.052810470795021,0.5919879680384069,0.8126121151578056
1390,-1.0226178470435319,0.9840212728932636,0.7189700121225651,4.376943903246597,0.9140357979253572,1.056306457618423
1400,-1.0404562323893811,0.9482058471774936,0.7041856499350098,-0.46260913702111317,-3.0546971545454418,-3.215225936489753
1410,-1.0316417767231265,0.961281846588786,0.7091414024011264,1.5107839080757075,0.5929747912606762,2.0742501483305995
1420,-0.986359601319849,1.0139733894594944,0.7586138659518116,0.9863737509909878,2.7886894031006855,2.6430059157660764
1430,-1.0159782133403548,0.9878950451167738,0.7275937585987153,-2.3092380300388027,0.3549584514986192,-1.6736559249778413
1440,-0.9999393780087534,0.9890462461690687,0.7446993444529698,-3.016627143714977,-2.4191435730106385,-4.334071410058585
1450,-1.0252533230925653,0.964617761713329,0.7170025521643998,1.3777325999807934,-1.7434522563624906,0.4074726415470491
1460,-1.002738958990721,0.986497959002697,0.7404099115792786,4.9153443993448125,1.2165369452268053,4.803773876058413
1470,-1.0224004958185082,0.9809804820437952,0.7290846338807717,4.479606022597166,0.5786782730656262,3.9111948346476897
1480,-1.0313407211139778,0.964829361540616,0.7242522804521515,4.838913320043439,2.113567096356171,4.893253433469069
1490,-1.0277673205068456,0.9541109888927599,0.7069782921726937,1.870449021920852,1.4588232735257212,2.3737783598839632
1500,-1.0164709356232766,0.9809086461053244,0.7169216976399518,2.32934293953054,1.1300528633335962,1.9134952650052617
1510,-1.0133280218283174,0.9799271389266946,0.7226894351534945,1.539545311797175,0.5964736087003252,1.4852559263459497
1520,-1.0303514328478454,0.965246719545524,0.7097136310722556,0.7839268715303301,-0.4785435258916546,1.109483900888605
1530,-0.9980195768884095,0.9989660235673571,0.7406776824554445,4.788077909423339,0.9793943309266332,2.330715384115886
1540,-0.9922134339137507,1.0119551107122786,0.7488524995579086,2.0927840087305825,-1.2802177409299056,-0.8675774128402461
1550,-1.0214238801858497,0.9883246664195869,0.7367010782405181,3.06363573765728,1.5673844378567772,4.038343242369314
1560,-1.0168284315554297,0.9855239852943796,0.7217392322749829,0.8714700382785585,0.949768919958724,2.9205641991585547
1570,-1.0166642503685543,0.9907220878127617,0.7253044327489867,-1.5097720298884805,-0.9216340871535329,-0.601616476345675
1580,-1.0013257234073183,1.0068901706773807,0.7397138486802283,1.791637271686196,-0.5288437802844317,-1.0818066933971002
1590,-1.002232953642733,0.9990585658065659,0.7399464232761412,0.6504025744500139,-1.3573375328251083,-1.0529524874100054
1600,-1.0139709478443337,0.9855769969753062,0.7221798411583639,-0.474399941552919,0.6030912777384092,1.6666894923171585
1610,-1.0093769371226415,1.0019908629883658,0.7285549274930319,0.5351481515330032,1.3376916100038887,1.9686647994377913
1620,-1.0299545565148895,0.9854015164944422,0.7111559390766289,1.2003984546898057,1.837142928148622,1.0880742459585642
1630,-1.0112127639263897,0.9968871773989403,0.7216134899718877,1.200614606923073,1.286837519275358,1.3234192495105117
1640,-1.0016467508755944,1.00837384413923,0.7360190569559961,-0.03571205331653214,0.11976820339693847,1.2685497144154068
1650,-1.0257428617895787,0.9838913879330404,0.713278391394751,-0.928382539984126,-0.2960058309995218,-0.5406130126715651
1660,-1.0488541308415558,0.9595237943235614,0.6932649602128809,0.8700416844678991,0.2615078440587296,-0.08130105906717122
1670,-0.9979369066258622,1.00654174752128,0.7434448378263764,3.093573562657981,1.622992561833615,1.9184906933349066
1680,-1.0223338702069358,0.9830473521842691,0.7167161541912717,-1.3698660507265439,-1.9799367744972103,-1.2669486721221532
1690,-0.9994109603223612,1.0100128663684198,0.7454603520264955,1.4438538299878276,1.3088508844590687,2.2082724089937766
1700,-1.0303178151504335,0.9805246468601431,0.7170758910677787,2.906429082694741,1.7768518964214546,1.992621440412031
1710,-0.9875337768122259,1.0224451830679904,0.7469318585740669,1.1614359727084511,1.6280197766178657,2.158372535548858
1720,-1.0199356380114386,0.9938223478786398,0.7197440204715173,1.1520064572732176,0.9465234846465675,2.2709143911579917
1730,-0.9875102167318563,1.0290736337243271,0.7549688689682804,1.9949533372886878,2.0347965604193794,2.1827626075009547
1740,-0.9970392852478787,1.0165678533951226,0.7463269252955022,-1.4100932386377054,-1.2620391110011653,-1.9099940097233497
1750,-1.0310445821727832,0.9801512184582317,0.7082249306001642,2.8096914379604883,1.9008727690423242,1.5922148129908424
1760,-1.0326319772883368,0.9809780120776336,0.709198125522965,0.9604256002287368,0.8039312149882758,1.119714581671969
1770,-1.0251062601244243,0.9888292412225173,0.7141913745063259,-0.5829684231599566,0.5567390868482402,1.0798261728403333
1780,-1.0082904914843307,1.0048554803092986,0.7256153832252902,-2.1600506567248754,-0.3539839612888993,0.270456815280676
1790,-1.0259003271190572,0.990681840304293,0.7158183721274842,-0.1946875366386414,0.8351495720944282,0.8214847848650801
1800,-1.044024369805107,0.9697485618532494,0.6936228670902772,-1.8472719484003388,-1.4351848605229127,-1.5387033522431985
1810,-1.0242757179126998,0.999649838081764,0.7187625096188939,2.9774216418856607,3.70596876233388,3.7081375042555793
1820,-0.9982649097912497,1.0156507917900377,0.7423568057772806,-3.375922719284964,-2.231892377656195,-3.1460483897702343
1830,-1.0180532913486355,0.9921321093572757,0.7232525898071527,-0.23409988196755638,-0.37716436628237193,-1.0163480735477295
1840,-1.0131108827679167,0.9904947158496283,0.7240086962316062,1.3961180973461527,0.680422717478072,0.6241664653624367
1850,-1.0131342392355656,0.9967361175048455,0.72474719816475,-0.7733209463876172,-0.588318979682938,-0.5533527985060211
1860,-1.0049832531456186,1.0091294475954418,0.7304726229907891,-0.20526434090986834,0.36768424795291876,1.0154758915836504
1870,-0.9995971213249897,1.0274564437148375,0.7380546409494317,4.082600261858651,3.832776234889165,4.74309810727653
1880,-1.0427087390490182,0.9790299783531173,0.689904689251202,-0.937829144642194,-1.412335549275666,-1.245856699817379
