time_ms,ax,ay,az,gx,gy,gz
0,-0.8708814005248043,0.03942364918027312,0.34956118228799743,1.4963052225602607,1.9574816106599753,1.1405064556525109
10,-0.8286080327383633,0.07641861955950988,0.38162646352984336,1.2567626203826832,0.8607821668935397,0.6159250571481267
20,-0.8289438694673483,0.080732274699211,0.37957289320207593,3.07825704425219,2.047836954242995,2.517961350389469
30,-0.829065479389096,0.08179170519490166,0.37629585699846196,0.8043722441357246,1.2119783460054967,1.6320572174678516
40,-0.8664024019851245,0.05141241777329936,0.33614006240775934,-4.638177497000227,-5.244510875283274,-4.950342678901462
50,-0.8206700926662006,0.10605878296135815,0.38999830543896985,-2.077068472864179,-3.12450957101551,-3.108950778789297
60,-0.858405401650959,0.08526047866399462,0.36068565072810693,-2.0456298829096657,-0.49974128752522784,-1.9526215491842982
70,-0.873828051756598,0.08237313185933673,0.35467949045857483,-8.196306308078158,-5.437500744617823,-8.241479945732351
80,-0.8424885259896056,0.13711572197146404,0.41230084736378575,-8.801729884511593,-8.491771614666636,2.26074236999986
90,-0.9126622409930013,0.04372804347892241,0.42488334624976115,-10.430748220136886,-13.019693405982181,13.706873816951896
100,-0.9239513127683411,-0.03386234645141148,0.49894435842473667,-10.940692878101247,-24.661284593423225,1.2630868178861836
110,-0.8846447259732071,0.04225229364424237,0.47054341823143037,-6.255833825383327,-45.654835126425404,-10.456489185352716
120,-0.8044119329966031,0.09173203792629298,0.4466949982820274,-15.218493627340479,-50.84766446410328,-18.70784260728123
130,-0.7987600831776938,0.4922735968989532,0.38895647095700125,-47.23845690216901,-48.019150068726525,-29.75299653957394
140,-0.8335940628404881,0.008981011609646001,0.3673241991915974,-131.69221855134006,-49.15266813320783,-55.51457372819453
150,-0.8020540600738352,-0.2048159868828003,0.2797775893079016,-72.593872063934,-53.82066847807449,-49.84012214766723
160,-0.7332994750326653,-0.2622739768612607,0.06305153866294445,-43.75240289168181,-33.51718777385539,-33.01577292790458
170,-0.8109168299246321,-0.16855191425971625,0.3273819802090199,3.3019835504538873,-57.0907697666712,-51.59498254496497
180,-0.7939765805072784,-0.04626521651308467,0.305626475063201,76.20124419205754,-57.817454123000104,-28.554596648624194
190,-0.6130778063638396,0.04650121875741119,0.25173791869088014,129.5123737411154,-19.44168061243994,22.87658415197162
200,-0.6970882645828427,0.06353477847709323,0.33562998137882033,147.5814357241891,18.20019028842122,57.535204968041896
210,-0.7650558129620282,0.1096483593209513,0.459984431574556,69.22207992352854,32.94083347224877,48.968829404156146
220,-0.7977959270562363,0.05640545232948678,0.4872169586248703,-31.25094389891564,34.9546227768349,28.073526423822564
230,-0.816490859733427,0.01800624956810878,0.4679752713935256,-25.15736723974019,38.19577174498687,29.88204556703397
240,-0.719807931970945,0.18727133701857895,0.47606669884377695,18.315676164473448,30.341483916538326,27.621665797893918
250,-0.7894059879620449,0.24504921364949803,0.5637675206446778,4.305736495018794,30.426529030303527,26.015026980188615
260,-0.8172886307811482,-0.008001239515342883,0.4263466011578104,-13.910865783230655,23.033809453191687,14.76892648346494
270,-0.8137679130405809,0.051550998873419594,0.3846078582211058,-26.1687598346808,23.82458747416621,6.910580692252287
280,-0.8198496640603866,0.029398971394947824,0.439954562109972,-27.683900831110083,25.320895152134188,8.238914653108164
290,-0.8033531959229111,0.057073708654513555,0.3852883998620167,-34.551727345974435,28.320069700785197,8.122756675192019
300,-0.8756713075167702,0.01073937357789242,0.4315816346886655,-19.111479844167278,31.998670384329404,11.0342474941638
310,-0.8630559974970007,0.01443180450043734,0.455442537956776,-14.919814268983128,30.090099965741402,9.967160722452231
320,-1.0699593281194668,0.02017676147357109,0.5846680149012201,-20.400042186726438,3.810657056429048,2.3506881889798548
330,-0.9582889950103163,0.03503875696102864,0.46174024268882274,-8.855772943271896,1.9885940668219861,1.7448733041514068
340,-0.8445986119349486,0.035723000083632044,0.3652711962865702,-2.8847415849342877,3.7091686538020516,0.40598655631737435
350,-0.8304655861059829,0.04199392399411347,0.38714684758333945,-0.35593666947163616,4.979387363819465,2.257336233232561
360,-0.8395537212139061,0.022787484634127286,0.39269830484986035,-4.235290475821049,1.6650201767527504,-0.7961288299804693
370,-0.8416594499111667,0.0031570547988160787,0.39947420023562596,-7.706458467511387,-1.6033478794736178,-3.4939575055601786
380,-0.822729574069683,-0.019976918376170355,0.4329626417626459,-2.938783456132361,-0.16837459977648017,-1.2506229913951061
390,-0.8167594847348384,-0.1024361846298092,0.47964271321621865,1.3756902474235368,-0.5654069454331769,-2.169959488642456
400,-0.8209285071064424,-0.10022089827227015,0.5329548406200731,-2.7284661255832034,-9.656396913531559,-9.928520697988404
410,-0.8297795272996127,-0.0837669161022384,0.3383158750267558,6.239639027751303,-8.917853552321507,-8.248820288157248
420,-0.8667977397446502,0.19334808169128823,0.10040770192399485,6.131571353351891,-10.957838446885841,-3.5161736754704433
430,-0.859132115018271,0.26268206832006896,0.1181125484422538,6.247376089871651,-2.26354477142302,5.269592621655827
440,-0.8454595845064673,0.03738278843493079,0.3432340544575724,5.530161852564325,-2.089286902231443,10.46919634573931
450,-0.8631737276548307,0.07015563700331998,0.34351165966456704,3.767786834103087,-1.6059085691199606,9.099898931098009
460,-0.8699327921849217,0.07456277443765201,0.327089105618279,3.076231578930152,-1.3403521092936985,6.876660086785258
470,-0.8765085830860067,0.0002999983453275928,0.21962428565486034,3.7082411956887116,1.7496023863945727,-0.6103506792165306
480,-0.9114163594094198,0.03893119827399139,0.1668145758821388,7.6443533944185615,6.895281270306558,-6.93271559866653
490,-0.9307172279897192,-0.10357676372332449,0.33623023202534996,13.705891241478188,19.98338203772644,1.1542996415087945
500,-0.8314818662641309,-0.07124090466271912,0.4166218630887805,10.079350768600388,40.49312354528436,18.350713943915512
510,-0.7767178305439295,0.2228872813061021,0.29453531478199046,5.308585239634607,40.677416602604886,26.420988332059487
520,-0.7888404640301753,0.2572170586769482,0.42809432794263075,9.898801052728823,15.493017379639957,20.682227649011082
530,-0.7791418820618682,0.12234030663746195,0.5157067383957001,-2.4590617353249087,7.926049890293236,9.042432338046794
540,-0.8016297932828149,0.07626118831617289,0.473826480282248,-3.7984341977736222,3.601402889661628,3.070748484146282
550,-0.8455709924697964,0.06632593557815517,0.3873047378635541,0.7850037430510945,6.56132472714466,5.461436192585158
560,-0.847302675271672,0.09449870185973779,0.36475272713673557,10.454658321946777,3.047410707630332,6.511670070592945
570,-0.8562721331730762,0.07809352628669503,0.35686121282271477,9.060851212533962,-0.35719928055817196,2.7272441003905192
580,-0.892462522267003,0.05735442297929737,0.3477723649705737,7.735565349281689,-1.607888628937747,1.8094047738452779
590,-0.8772078310712489,0.05568753906960376,0.3489856165215068,9.04438579739853,-1.4542782735694944,2.092588759274693
600,-0.8434306125751246,0.07956384653910592,0.3669224195907424,8.454459825152917,-1.204296312890208,1.994106131462874
610,-0.82704006903355,0.08643927184768241,0.3786323304547453,5.616401831862566,-2.2629956675778837,1.1257733528374665
620,-0.8222205296141849,0.17170056040334808,0.3629460255465433,-6.779612466529339,-3.061620972016208,5.339594007501578
630,-0.7735921178365405,0.21139371421277345,0.34846141519783086,-19.900569081047482,0.5251367887086404,8.956813876698048
640,-0.7338960895320441,0.19631162798020368,0.3202891627600525,-27.06451549272207,7.250216811804418,11.299059118541129
650,-0.8331797671204331,0.17806007193333082,0.3978291813816189,-34.80720687151959,5.481349264221884,8.346815347202602
660,-1.0229151112859605,0.002614973774713824,0.46767935311395187,-30.803924775162432,3.42403965868881,3.943273569229434
670,-0.8998221897923224,-0.15363893621980884,0.31929160086385633,-20.76932479371004,0.42023386723882716,-7.6292317077759835
680,-0.873266962803653,-0.35952233001626843,0.3186743662708756,-3.331214010493505,4.519383171897907,-18.433453599713243
690,-0.6915974051652887,-0.2014208596007866,0.45859487736880905,11.329417343403446,2.586436777059021,-34.42415000345405
700,-1.1609193564614169,0.9686816594450973,0.17924528621400848,35.629104269812835,-5.771421516437721,4.205309847794214
710,-0.7517700101889404,0.46069659118990847,0.4629872930406286,11.784662423423775,4.388425782921738,11.178889101173214
720,-0.7925501745457797,0.078081184671559,0.515971122015937,43.4448840950781,5.2758099892803605,20.27659860550813
730,-0.8708386587638167,0.24169836448839394,0.3671797546527531,22.399833704037977,3.2842735676149717,27.09761629385313
740,-0.8637182480911068,0.16225550884360046,0.3472714779407067,11.010468935032321,4.935576724405376,20.327742720622734
750,-0.8327065241157858,0.11888811833584567,0.368085002527368,-3.2195597616961136,-0.6142482515995356,-8.371116747787623
760,-0.8801147750073963,0.047073340086747364,0.3229334327765804,-7.219087697803694,-3.873396774175292,-20.526413979119198
770,-0.8680235294781696,0.04480507141013332,0.34046507684810245,-0.86023472067567,-0.8589416406645491,-13.020155042160388
780,-0.854340245240853,0.05667354708327409,0.35496472103955945,0.6470742623481256,-2.3764961869004324,-8.287913772307942
790,-0.8777205974110556,0.039723451642368145,0.3416061667858439,3.223789630283747,-3.703263268034541,-2.931153379215814
800,-0.8715077541779924,0.0661438954497598,0.3614481138446224,5.305146700361181,-4.475271256053766,2.427617172584705
810,-0.9263545083101368,0.039149396203237465,0.406690579622365,10.50836368627457,-7.900473928321699,11.228901333759929
820,-1.141127440044236,-0.11129835403899757,0.5594402922071752,26.23792666434691,-27.366202967056363,24.90239491539295
830,-1.0802078825225554,-0.09787485504596924,0.47630801937851264,27.030292851312982,-41.7792951436651,10.30895666623859
840,-0.9843402217283599,0.012109453443768804,0.4369266861999083,27.25695630177265,-49.59402006961905,-2.756493013960572
850,-0.8464837630546885,0.10088992594405688,0.36321665463799346,18.607892185358427,-58.76491265303775,-13.954936571948862
860,-0.7023809794614652,0.1788172005618607,0.3548687985973504,7.352916097230649,-59.28686023925647,-21.227985467853543
870,-0.6206967686293968,0.16130223649091024,0.3720677320875552,0.49597565261015175,-55.01063826024324,-24.461537856620183
880,-0.7080950841652829,0.12668137258758647,0.36816018911866777,15.387372459053001,-26.135623160053203,-14.247743887579285
890,-0.7683202326944091,0.10354534472148674,0.365620884813277,16.26021417160552,-15.808885525552157,-10.843327303678162
900,-0.7518105200541967,0.13921144401442437,0.395296529713849,12.690013940110825,-10.469766693977451,-6.387037625820525
910,-0.7436009981137194,0.16358025851273725,0.4146459590094325,4.1150979782678085,-8.707660867579694,-5.859463586616017
920,-0.7286332782747895,0.18604033370602832,0.35034554479960694,0.9436848147710875,0.5427412143740815,0.6532004063868049
930,-0.6970899015322498,0.22230949840124004,0.3103703950259027,-7.432097176070397,6.356188953966031,3.2301030037113048
940,-0.7474404079205429,0.19014853168020807,0.42693531167403986,-4.91599306399216,18.639432857718706,12.901748668381657
950,-0.9339061309493957,0.057813182706700175,0.4618408518257011,-0.17457797419212473,23.29359904340444,13.31085795231015
960,-0.986941863096283,0.041103119194304046,0.451040593672096,-3.607555523978207,15.319599841930426,6.809455062277539
970,-0.9159488632414464,0.07223492836154824,0.44692440149802576,-1.171900926076915,13.33097795090261,6.777434596700847
980,-0.882152088402955,0.028523997925290808,0.4363469687512062,-2.215992449505286,6.8085218379893,1.928346009382406
990,-0.8450924218198691,0.01819058546636116,0.4043014045292229,-1.5416192894143577,2.585105658027232,-2.228600409567106
1000,-0.8114614797439345,0.041977053724426616,0.4016072141053381,0.87292255738419,3.2539344777827544,-2.6793519871178813
1010,-0.8348861127259658,0.08978222139392267,0.40603253297933245,0.9062827032208753,6.583585007641955,2.53565248245316
1020,-0.8372023072896918,0.04737506878002664,0.40933506972800043,6.981681255822348,11.201645442862432,6.702123686744754
1030,-0.8645628204050206,0.044960219694162085,0.42351137678658524,6.602415309172802,7.985575498145414,1.7528258030514232
1040,-0.867532348285294,0.1024163519563218,0.4603358415896286,5.292588676798483,4.566917153195657,-1.7362335110454707
1050,-0.878405167265062,0.10933392895014289,0.42747792200063633,3.8845033893254985,1.8707269181944568,-1.707330027128616
1060,-0.8338069379230933,0.12324219515633689,0.3981631544366447,2.671961501111592,0.8561036839348799,-0.05012019842093751
1070,-0.8141825797841838,0.12273709005540484,0.395719575426255,0.20120797374634147,0.6790286113863986,-0.6853469513467842
1080,-0.8426037643771446,0.1072472405324004,0.4391951763067344,1.1000260910603707,3.095494554842325,-0.3699755454770006
1090,-0.8916015926846907,0.05499337184346579,0.43041694342534936,-1.1639729705804105,-2.752217429711427,-6.333256578547229
1100,-0.8965101125128049,0.10311529874976355,0.41192432978637694,3.612283030114059,-2.257144106252651,-3.621306274655517
1110,-0.8608400159820914,0.1211519532416573,0.34301596422407205,1.9014126226631598,-3.8991588898119662,-0.6808940987079635
1120,-0.7834483032032126,0.11232770363812446,0.3763030214988423,1.1536463777136154,-0.4745866366440077,2.5639568120879432
1130,-0.7416694116097918,0.12451995278105146,0.4128446316698822,0.523209404574415,0.9658281853385461,1.8026257878354042
1140,-0.8734970256952032,0.07849108759859098,0.39647422661364246,2.472419348893099,-0.008665658941021559,0.5452273935136136
1150,-0.8580606172898748,0.09267978249788347,0.40212930755053233,1.1757800083929726,-2.452042082837127,-1.7747331521223575
1160,-0.7997794888474389,0.12958954414413792,0.4051972174507388,-1.978005820596005,-4.320177147715819,-3.8758843421622577
1170,-0.7701777554889316,0.14805707415517855,0.4042756080677685,-1.316463290131796,-0.8226296750077456,-0.5311946522190027
1180,-0.7988196058776369,0.10897477804830406,0.3902214990453725,-2.501353123482827,-0.042861830464139716,-0.9111417403672273
1190,-0.833122850372199,0.09180547686724044,0.4102340127667891,0.006503409146328215,1.756731561034298,0.6276826518492442
1200,-0.8415959981206461,0.08902701050244162,0.3873440903924802,3.6340260438626832,3.2286851427368735,3.4937430467563813
1210,-0.7851917752939264,0.1170180231700173,0.3743988678580041,-1.2858059310298429,-1.7919767032045582,-1.6703659432594586
1220,-0.7905025799829253,0.11189186422502681,0.3847716107613134,-2.512471997952157,-0.3001943775937421,-2.907504291542266
1230,-0.8341699458201637,0.09697004039152672,0.38881103856235083,-1.6714281358973486,2.149414871346033,-1.6783368846496791
1240,-0.8813816139090614,0.06927813844539385,0.3985205028467568,2.0770079209825525,4.731780728877911,1.7037985432955205
1250,-0.8926722650187664,0.06054378134420144,0.4140373620140796,1.431056368057114,0.5507548317585349,-0.45954797197817643
1260,-0.8455687417835767,0.11532978835660002,0.4157295856602871,3.697616050484773,0.14931658846410945,1.7402329165716819
1270,-0.8171501991166823,0.1002583324958305,0.3947360789798071,-1.8684286416661926,0.5302150557298926,-0.8024916099033196
1280,-0.8513605809332131,0.08736548138449675,0.401204782619461,-0.26381808091789094,2.9347500511461426,0.990486080386831
1290,-0.8616954925864473,0.0949814744889218,0.4044370400184195,-1.5520347720762797,0.11931172300596399,0.35298852122856605
1300,-0.8649208797413094,0.0936900663891855,0.39908526572074904,2.961408151049726,2.2872698739494313,3.9904322534497307
1310,-0.8648558360547359,0.08088840359350241,0.3852353459692366,2.2599736485215183,-0.3079115389295686,1.7174007940629463
1320,-0.8346880116252006,0.0918226485071199,0.3840728557423604,2.1312730295210915,0.1540707405059879,1.0663293066150796
1330,-0.8710596300714168,0.05867573626657308,0.34072876544522,-1.082313334583756,0.4142055234362273,-0.6933169511070086
1340,-0.8372464958918255,0.11798634151320199,0.40864523724419016,-0.19152639220259937,3.087630325319884,1.6710511855649952
1350,-0.8737088620616752,0.08910497309265304,0.39772256794313815,-0.4920879416929821,0.9798005586450753,1.3171991384133623
1360,-0.8521048822331766,0.08630782376527009,0.3995494893320822,0.3829782755087453,0.056419834714937056,1.3212472054131514
1370,-0.8236895609434123,0.09189974285680741,0.39422821045784917,-2.433278111342354,-3.6766974772916656,-2.9765701352593146
1380,-0.8254125668107798,0.072711252755302,0.374710072261881,3.5792716749810527,2.8967325429158772,2.1664292528905666
1390,-0.8324529187691435,0.07612060419065025,0.389285798929618,0.2114756472636803,0.44441669060611155,-1.9798456346261837
1400,-0.8279358638478969,0.1151418583077455,0.39932400730992074,-0.20849607355433583,0.7844446919311514,2.533347700283334
1410,-0.8286440128086764,0.1183736639304944,0.390333379673967,-1.1588128196412095,0.6723978864810168,2.112159072431343
1420,-0.8100780320358656,0.10085109244969434,0.40099010773019117,-1.9406989018240246,0.06863156168961104,-0.085104077328708
1430,-0.8440608826408479,0.07460398534327055,0.3819432042414949,1.9323120461425336,3.507488882047078,1.6872608113765275
1440,-0.8458015506640714,0.09650120545403017,0.39014955935051593,-0.10665071072146737,0.9772222528588055,-1.1128495907019125
1450,-0.8395669918558992,0.10168194006511022,0.4028302873483307,0.36081454444955846,0.8026835139988424,-0.6539348048913103
1460,-0.8256701012918695,0.10596981198623741,0.40360452801310726,1.5228393829542228,2.096968073833454,2.752923576779367
1470,-0.8255681404379058,0.09378242799767977,0.387437604115706,-1.7247993407434317,-0.5373338164668537,0.9782823629918439
1480,-0.8296519942189756,0.08488513258893587,0.39050269734093596,-1.686459489823342,-0.8164059234101838,-0.17500900891859028
1490,-0.8636767424025341,0.06532387538387555,0.37608663566596995,-2.364089508317776,-2.3646522316697043,-2.187506971324157
1500,-0.829355546788035,0.1169707503626196,0.40924432638255315,-1.4062136211087242,-0.9568611368801687,-0.6625005787711185
1510,-0.8203529928319997,0.1293087152785663,0.39573172592528383,-3.5535069338782077,-1.6354415953684995,-1.2291478126465452
1520,-0.82746472469699,0.12250821143925604,0.3833791714342623,-1.8639805539579175,0.6377536422362028,1.4342747225905845
1530,-0.8364691299187839,0.09149292558257478,0.39092749782060854,-0.09393127124466072,2.0942748598856262,3.017983202392158
1540,-0.8025604859277966,0.09627991000918218,0.4053123545814683,-2.4170932798832525,1.1338614281124875,0.9553277115931095
