time_ms,ax,ay,az,gx,gy,gz
0,-1.0913398320989136,1.1017076989468695,0.47822015889388436,-1.4412288140442497,-1.8269520398752683,-1.1479597319547192
10,-1.0650832755482083,1.1264793764409446,0.5081826505275122,1.0744217560001725,0.9571473356254414,0.8006580084578463
20,-1.073305116863739,1.1211275351639383,0.49320931286308767,-1.0640300183241065,-0.98971676942117,-1.6936826464899837
30,-1.0755924746139183,1.119278791828075,0.4997380691503357,2.422368845965177,2.438220310909581,1.2256236595329415
40,-1.0539660236089765,1.133409390408748,0.5152950974351053,1.9774693378324661,2.2407006392237476,1.8269634645279442
50,-1.079858003546268,1.1044053029231298,0.48827052958753503,0.29774056035526064,0.20453212664346648,1.084292068706787
60,-1.086119015469155,1.1035861244937704,0.4825878324035462,0.7302590214345773,0.7390307838306158,0.1432512152867098
70,-1.0617366485562305,1.1263508787730272,0.5066600119973214,-0.2224337885279215,-0.8807682540308347,-1.5878693607188779
80,-1.0563197284703014,1.1380071080787975,0.5203063048672575,-0.031219852936375858,-0.982334220079091,-0.8651375056618114
90,-1.060024166021735,1.12926609473094,0.5131747593695324,-1.4959482679879532,-2.6547164133735235,-1.461764425926065
100,-1.0539745251821346,1.1338877310495366,0.5185444874376145,1.7726348184481808,1.0809299984780483,1.8569595832041639
110,-1.080837641344593,1.1085613468651285,0.49066458155163534,0.269753523744128,0.0931824308770286,-0.5633142634452835
120,-1.0679880792550018,1.12053813162726,0.4984491078595307,-0.24403549306101635,-0.8037058446321437,0.21679412928356645
130,-1.0493084543646523,1.140671805508547,0.5182789537161144,-0.0025137858703432325,-0.09214471997301688,0.24994668196482897
140,-1.0598285865487915,1.1304282273922415,0.5011252246597466,2.305848011184081,1.7241950940204016,1.4666905546396583
150,-1.0707924269812263,1.1198368894049453,0.501379335303318,-1.6505838871366443,-2.2726646584816397,-2.8427556002409977
160,-1.0801689246116633,1.1110126741730741,0.49426948081727906,-3.0248605200311682,-2.542787625149308,-2.7190049939096372
170,-1.1472096671934817,1.2415400590535945,0.4861626978617946,-24.32886247511368,-12.576117988069726,-22.87636970265322
180,-1.1005833495221078,1.1817671247825448,0.5254793819587901,-27.102327613100478,-20.686999124957243,-28.299835060370093
190,-1.0357198361362727,1.2733934437028933,0.4996190249160697,-44.660736595857124,-25.33577416701454,-35.25202315243305
200,-1.0025884346016982,1.7968371060376789,0.4825906635924403,-64.29105245552681,-14.509455977931571,13.092662125603905
210,-1.5654075986141334,1.5413213163449722,1.1027918097351714,-58.562305833423224,-76.46453724285111,24.884646437370435
220,-1.1994551512066423,1.247708805737538,1.007381640684056,-44.85218072674152,-92.91951075778056,30.517317416346707
230,-0.5563420705522508,0.6342094665178948,0.6600487956657041,122.60572122899573,-59.64244732149335,74.47343457876899
240,-0.5786031587695913,0.9322385500678909,0.3442551334745067,8.121532887934329,-35.062545980305806,21.102895793084908
250,-0.7096197775902939,1.1033207906968876,0.12439393577412325,-25.60632349173281,-3.276623852379031,9.294245987707805
260,-0.7945846727490142,0.9450504998289995,0.24175543399553878,-25.751768301340366,40.0891823533313,19.822607960853876
270,-1.0736775261017641,0.6311160799653419,0.44464666603360925,-19.863236003156878,57.22943889460606,-13.136660728796121
280,-1.2109005602012275,0.9054998747562866,0.5872722786284665,2.7050854599957845,25.540431170520723,1.4587466079705558
290,-1.028304189311426,1.1316734574533074,0.5402001951470227,8.728338239190766,12.584030207024641,13.45522395000102
300,-0.865190639802766,1.282224608163522,0.6321007777969848,3.9734136098921913,18.206000937514787,6.6487535250031335
310,-1.0941936199042777,1.1949407989241845,0.6685453341069261,5.157935694930345,21.643865424641774,1.2642687458487905
320,-1.2174495307916982,1.2427133792569027,0.6400527385768913,9.330046356155233,14.082708665141611,-8.543539330758426
330,-1.097663750672361,1.1760052250345703,0.5674333860692164,3.9209608852083417,10.006286544892996,-10.816808176351152
340,-1.0746558865491431,1.0589264231944504,0.6272598547322293,20.020074007608933,9.09385050679474,17.171424364368143
350,-1.0881961268965208,0.9650387680352179,0.6172527325074294,21.40603970486754,1.6724409299569414,7.439459242108488
360,-1.1276835954631872,0.9612261891490094,0.5467567345238762,15.325639071928569,-3.72412122095591,-6.566404075392588
370,-1.021257426108855,1.1842631234987655,0.5638342946780671,33.80871367548342,-11.780809921485062,-9.322368161137527
380,-1.1204827925847272,0.7358518789642889,0.8678772696515404,52.69749529651507,-32.65211059770983,-31.412810276627205
390,-1.2091101725801674,1.2256152913202416,0.2998515694987928,63.801434128308486,-31.815138734227304,-6.217702769400849
400,-1.087789549931054,1.4026293933308889,0.4920758321996677,26.030633825118326,-17.23915097076508,-1.8718897897590692
410,-0.9968770977512109,1.3633572133856038,0.30694744315514977,-10.868336606330185,2.280274465382123,-6.44756033282761
420,-1.050368866396584,1.1296569198565167,0.602363695124867,-41.03900091322867,-4.836492967422732,-27.485943324668334
430,-1.0705506350255585,1.1430075070672303,0.6223251877682799,-61.193689506045395,-15.093662384932763,-39.76903266820579
440,-1.1296856718835946,1.0315215905923718,0.5598256152889395,-50.54453586519553,-7.430745777843724,-29.514788942261443
450,-1.184542066458802,0.9074863330492564,0.5991246496047525,23.581550384343974,38.39927009154677,21.407963237015124
460,-1.02630622487019,1.1662163712902083,0.177577405336835,27.909568157645854,49.211903719564646,23.93308083740505
470,-1.223889283606473,1.0987255729317673,1.4219650642597608,28.13129815219709,43.6733379083034,12.455571213923777
480,-1.3940075773994167,1.0400220156948965,2.006119309648608,10.645731079731535,39.208795421038076,0.9010921322706342
490,-0.688844529902913,1.1773281940218794,-0.8791766605671743,21.52540121949313,67.22430254709501,41.06700065138711
500,-0.9308023006936197,1.2139781541489956,-0.3805744634050052,76.0666922734611,50.71909457006698,46.788414661109485
510,-1.0233615882597489,1.1938886649038762,0.74937384297569,22.031373477605115,37.61619801375451,18.642095176885782
520,-0.908527937043012,0.8917200818929081,-0.18801317054483394,11.505344642051718,36.5689561931539,22.67877087514817
530,-1.099999403277012,1.2610377567863233,1.0202777697172072,-37.145272995839754,21.646907788874906,-4.28788600773201
540,-1.0062997793331145,1.296006951200845,0.5879015147114292,-30.765757844502158,15.903720539597572,1.4891573467676966
550,-1.0979880369630004,1.1510257423671604,0.8477493912744172,-11.67411089837574,-6.02498203727569,-8.307195297531566
560,-1.00724945992945,1.3693769944662502,0.6008747814038535,-21.884864753119857,8.382989225391766,15.153264166966409
570,-0.9127738311542835,1.4005023659907974,0.5262645229389495,-18.276484424712635,3.234347496562267,29.519133175683248
580,-0.9430780496285558,1.2555752554609871,0.5267172479074081,-21.246319360905726,-1.150892679473345,25.403771954270272
590,-1.1008660784715334,1.0451074769605033,0.5560781159193385,-4.829722902068533,1.9771783149463933,20.46351324801223
600,-1.1407638390338164,0.8639541674341727,0.4715038577847118,0.7108726175476192,0.36488394337453256,5.822560560052306
610,-1.1211629185727867,1.0148839156436704,0.4516505279162271,34.94479042299931,12.298133841625692,27.64102538477438
620,-1.1300726524200728,0.8726855527622106,0.5134203452468628,47.274336449792855,22.138817403083745,15.61946741253117
630,-1.1126107036424757,0.944866416833995,0.5582169847440623,61.106425071386504,32.4103256868185,17.12840355048101
640,-1.1825302485167646,0.857670005797144,0.1645382785395191,80.37180646631796,32.26768175048036,11.503788247019997
650,-1.1630934675711404,0.8356158040654905,0.23236597149749383,87.2967765683972,-2.9358213345209587,-24.991362621623534
660,-1.110788527194242,1.4016481879184366,0.29214862260765495,24.75084357071422,-3.8924245457855298,-34.61136096338996
670,-1.0012917117810503,1.4355073411862294,0.5074917740691796,-10.452826888094135,0.8839454864864114,-20.976922793193015
680,-1.0795632508358497,1.182950811840108,0.4492121617997259,-2.9524232405045217,1.7220556898425896,-15.453354752382115
690,-1.085816066101237,1.1386502962740188,0.4506007036235305,-2.617510867601582,0.47482099067599925,-11.3781099964657
700,-1.0269809475742044,1.177895607105535,0.4672711377540588,-9.162783411892839,-3.9705913021949124,-6.82174717963029
710,-1.049271573402157,1.149456007692052,0.485191097026693,-12.914470938598974,-9.350126312251085,-2.4697703285736337
720,-1.0886648656402382,1.114261147945254,0.4595530849066821,1.6878528856798318,4.3637026887715304,5.8574736632717705
730,-1.07759550362485,1.1131535233909127,0.46938861866377696,3.636934142611579,4.201059245876696,1.3967714353209308
740,-1.0878798640000042,1.099878522452597,0.437257291409918,6.248240177081002,4.21644500916421,2.3116346801804353
750,-1.0814599910396485,1.113020317858148,0.4499793088547067,4.332319202881262,2.410492470170749,4.13317654990997
760,-1.0704402301430531,1.1174774142954225,0.45789740610765106,2.9031310667476764,3.2618759260598282,7.306714796028496
770,-1.034886397404914,1.1673636180605496,0.4967041849931771,3.930270034155436,3.0623346227383266,5.775299207438083
780,-1.0709829655725938,1.1476739351720897,0.476674344742409,-2.3500552062161844,3.9728133930483245,0.5192151790883721
790,-1.084796311197768,1.1414442604324773,0.45511800628798954,-2.3133843975261312,7.196660494277884,2.5761736970589797
800,-1.0584448495324204,1.1731681270725278,0.4697285844253857,0.8448935555422197,10.207851732998964,4.751139747271778
810,-1.0772755473071272,1.1498035484687001,0.43627167034795766,-4.352845880358493,3.904156846784827,-2.8446763753716193
820,-1.0601689034591892,1.1630478646800422,0.47334565864993033,-2.56395240136047,1.0605732967088057,-4.834375803454385
830,-1.0810363287683522,1.1113669908759276,0.4807173701106588,11.92462055995323,2.545770844028185,-3.1028518207414297
840,-1.0944431626400115,1.0803051153828016,0.4103301046450244,4.499914419728173,-1.6866921512794033,-7.007335321647748
850,-1.0665964778954244,1.14828481531663,0.46340179217055416,-6.75022189311608,-5.948304120376064,-9.180148522513434
860,-1.1166526013248357,1.1130595066305178,0.4178844629851586,-7.181759245131968,-9.893867622297368,-7.830605507270683
870,-1.0607330540190367,1.1131911753375758,0.4484320939832202,-18.041695163320647,-13.950123260290594,-13.405545752248491
880,-1.0644269230333967,1.116906598946588,0.4783968893400895,-29.607489699161864,-8.665400805730044,-14.924365801399242
890,-1.064294183263043,1.1224056458811584,0.5019744383931597,-36.35912291595067,1.107445100568281,-13.780870616194624
900,-1.0750031788394843,1.0812522996617977,0.47837349775840887,-42.14636699146682,-0.1922936046365501,-19.61492652610405
910,-1.0645781451988752,1.100279776774954,0.49593886927555175,-28.028497141069902,-1.9489022409105312,-17.273358886437588
920,-1.0818219398533397,1.0428829917385787,0.47669687557095064,-11.463857883233933,-2.991112978119658,-13.718123588091013
930,-1.0532557168364944,1.0976419162344535,0.5142931108361477,-17.51493425341074,-4.863092714342544,-15.664199038123096
940,-1.0902003964827058,1.0601293125373823,0.5005369490544405,-13.568273466292066,-4.77780778185136,1.1041702066714796
950,-1.0635961259930544,1.0349219826015872,0.485774927053052,-16.894573992369615,-4.508871273334648,0.15229416070549404
960,-1.0991218434208703,1.0627907171389428,0.49769960601031643,-23.615974840792067,-7.472338612513072,-6.024287819975163
970,-1.0865860775393301,1.0675287586885904,0.5033428622855635,-15.650930781437667,-3.787002763141321,-5.13962756864471
980,-1.094061345770342,1.0500150725740653,0.5001698822083296,-19.491523580236873,-4.89192384903572,-10.147135650080493
990,-1.0753472056134554,1.0710109348655925,0.5231706362996122,-6.97464387221472,0.9587684687957356,-0.16770170664433093
1000,-1.0940954819382753,1.0336309729454671,0.49598054493684024,-0.06757262751200982,2.45563125259375,5.092730171177563
1010,-1.0694619520332354,1.0685695328591436,0.5271240085538373,3.7961566335317825,2.7278057201635724,6.298860747678436
1020,-1.0941869785098095,1.0537664629824814,0.496030511724438,3.5923593217273377,2.4921729086129796,4.694060463554521
1030,-1.095777052484381,1.0573500412750472,0.4987359301202808,8.39823993825684,1.8040777755109734,6.379864251323074
1040,-1.0738278902623901,1.0627672016199525,0.5130137884464977,8.807709823853953,2.01541698935042,6.862210973974177
1050,-1.07486011207513,1.08410831749998,0.5174297346083007,8.695718104532494,-2.0356284474398647,7.21869932987884
1060,-1.089226623035411,1.0654578353015716,0.5054550850201693,8.775628530924523,-2.668230292833879,5.644159190370603
1070,-1.0570669535308923,1.0999002229068329,0.5339234611204572,11.443076078977915,3.0766664427649313,6.9169039284896545
1080,-1.0683642604855386,1.0944319629649657,0.5185118314023341,10.883841725164245,5.92290451957167,3.139806652457237
1090,-1.060484379515031,1.1024796169223745,0.5288485640097281,9.613016612586987,8.890470253919046,0.8209554163480113
1100,-1.0537835187848887,1.1031162932822984,0.5196522760966716,10.743578306677781,10.488435789607948,4.366546520270298
1110,-1.0655975901255146,1.09931361813576,0.49261393031042844,10.28419410810806,10.932097895986677,5.590621247655047
1120,-1.0533793716867206,1.1103729999996765,0.5025163741775902,13.663323244994702,13.384271422679612,6.494139474699859
1130,-1.087943924260661,1.1077617166411249,0.46464291540383873,3.4352644433349364,9.100744672258879,-1.6993768978464527
1140,-1.050491778204705,1.1171613577692119,0.503561345869999,-15.503171391273048,0.3880333846990487,-17.393381607841683
1150,-1.0870490820961949,1.086781345307875,0.4676401151168477,-5.184354509395385,8.948778425667786,-12.166069386708921
1160,-1.1089986325634955,1.0555982770853582,0.43631979156377815,-2.761850455327811,11.364303437099727,-15.513117631857696
1170,-1.049573527836124,1.0688453620799987,0.4934552407852456,-2.6544379613720164,6.114588583033461,-13.756734717078352
1180,-1.0926294134302592,1.034182498574134,0.45083074195048567,6.3147406011335745,7.20348295444478,-0.9410541677895372
1190,-1.0635357583030682,1.0771712006695011,0.47882309224336705,7.3758081482450555,1.8024165760944841,4.15312195681699
1200,-1.0971806233452353,1.0521650937591525,0.4462335553608378,12.300847084051648,2.9130742095047886,11.243549739041809
1210,-1.0789056833473274,1.0655874648288817,0.46851998564035,5.079783371341823,-4.339163821944019,8.730517503239195
1220,-1.0756669953407048,1.088142502940057,0.4751249275916393,5.745324726254573,-3.270265076843242,11.321014944748832
1230,-1.0556285916371464,1.1081536264397298,0.48763153530469167,1.19033524907923,-5.596684532254404,4.993744095035753
1240,-1.0680301891027615,1.0938840935036303,0.4745557163100956,0.9098787574147871,-4.9480837792794174,2.966178278802495
1250,-1.0758691480516311,1.0932758069065331,0.46846604509927564,0.24646877122058752,-4.9959259577832915,1.9180037584804532
1260,-1.0556967249146167,1.109972831237344,0.48923279961662747,0.9007968009144918,-3.2825328928421493,3.873410791323323
1270,-1.1040482091880734,1.0652144510176023,0.452021106072169,0.7294216601670712,-1.6268854402376556,3.0846943763157464
1280,-1.0647334620517317,1.099699582028787,0.48042146705563316,-0.15395859504037324,-2.487173384127276,1.7751181864300025
1290,-1.0796934600547539,1.0926115360769808,0.4727902766419121,0.9493472549516234,-1.0699153023497685,4.233629749153957
1300,-1.0880258237717952,1.088231048632939,0.45913361815540515,2.9164793222593044,0.2412000785480799,5.6429174900497685
1310,-1.0894832158277008,1.0876962851177943,0.4555115505041357,3.8488200837778717,0.39317020838998196,4.297688501781121
1320,-1.062677105097954,1.1105845643426138,0.4923287041222313,1.8137938000092197,0.08782982969765962,1.9093879979821415
1330,-1.060994049414024,1.107794090578998,0.49450165463489654,-0.9522786327018171,-1.4169009631932286,0.09304040834242544
1340,-1.0900938231526758,1.0738352778371458,0.46905068532537103,0.1815035573980709,-0.9786726059967751,1.1195331325895113
1350,-1.0768228534265316,1.0975935207121679,0.4727160966430252,-3.09551818433399,-3.1878153065916766,-1.650809795636795
1360,-1.0740957280266485,1.0997878608630718,0.48674124612194863,-1.0534056154383182,-0.252924869041389,1.438715328416035
1370,-1.0657627311450029,1.1021912833837197,0.49365082725705284,1.4654927462783036,0.44467943175736524,3.682553225585014
1380,-1.0709908607982417,1.0966006199478837,0.480557171814614,1.5032580046630144,2.553993488733357,3.437375014407876
1390,-1.066908847361968,1.1124611401214541,0.4946788522239395,-1.0618126383191202,0.13753941070322692,1.2435826640193894
1400,-1.0541993360574005,1.1235339548115666,0.5022179834245099,0.7310579664301885,1.0232222490144811,2.954431480680344
1410,-1.0936714595512713,1.0814928341598504,0.4591744524709949,1.0160842709648028,0.6186731873684971,2.919246839083399
1420,-1.082031636732304,1.094024085786518,0.4701735372453647,0.19791660216546492,-0.5437106176842124,1.1929182513125156
1430,-1.070307719344505,1.1016001722488278,0.4857754917721669,-3.2827678234011923,-3.4188634465932974,-1.203706659098984
1440,-1.0792354843354461,1.09548967344372,0.48272373288545994,-0.7897941507232998,-0.9582045307097268,1.0136217346202225
1450,-1.085540933669912,1.0910380252989305,0.4694973522255008,-0.4171830653521552,-0.8820267208006851,0.94447431792985
1460,-1.0478573508280642,1.131024250658571,0.5066446720996102,-0.40109211614120954,-0.3413939923024387,0.46641008404387907
1470,-1.0919872686295933,1.0813394554967335,0.4653264521685747,0.29733723387100963,0.2231384704642494,1.275001356259006
1480,-1.04652198729007,1.1276680464313429,0.513923606837034,-3.2816522487281197,-2.8885678361633746,-1.523463007291091
1490,-1.0811160019028598,1.0991877878888827,0.4805726218695273,3.529925514992914,1.8899887566144429,5.279688375108924
1500,-1.0742236846324793,1.110310089934105,0.48194469977766785,-0.06116186044718752,-1.872800168475664,0.42280117024103214
1510,-1.0717138913836615,1.1094632837584946,0.4790490288894306,0.25077699847817453,-0.604959263355613,0.2093014878323614
1520,-1.0830280842408246,1.0973052974396627,0.47293247195959914,1.4179037890931023,1.1200715335981761,1.7646158129413025
1530,-1.1109713330255042,1.0692732834131962,0.4448287989555546,1.2513308203559381,0.8560241272205869,2.579019862567795
1540,-1.0803509511560119,1.1008412978358275,0.4771112259556857,-2.0524961815136997,-0.2671478007480351,-0.11691862223359208
1550,-1.059255103183006,1.1197420250795964,0.5007765786029058,-0.6103325322706973,0.6728092329620318,1.7094803098983666
1560,-1.079209983617243,1.0893787495208653,0.47191163146421883,1.9177453586920195,1.4956638701088456,4.402961962251078
1570,-1.0912292900361293,1.076768748652725,0.45857496278589066,1.5918357944350592,1.2280754544143175,4.144101957047351
1580,-1.0583467306864518,1.0962489878612973,0.49486072619012716,1.6945179623265687,1.5946443554436853,3.202309365601558
1590,-1.0843475580191186,1.0979498979636855,0.4717278114828091,1.0478598975825193,1.5043477948203783,1.3782938736490102
1600,-1.0547925700871228,1.1268105817600593,0.5053201343724848,0.36697694011107274,0.8571582412446483,2.1007271940647323
1610,-1.0657665719396328,1.1171951096571782,0.48816780306816515,-1.422618474452254,-1.342695185406203,1.1615042857102507
1620,-1.072457200616322,1.1100276736632577,0.48264747635818456,0.1366885605355041,0.4825351604881106,2.4773304951529207
1630,-1.0791762988315288,1.104499362952463,0.4714230672792813,-2.545414010619165,-1.8268574060033873,-1.2496847464101442
1640,-1.0602707808276777,1.1202859495374202,0.4888870073485256,1.2674362029276625,1.3676482461413446,1.2256136961883206
1650,-1.0742477086852449,1.10143506080153,0.47959140777515563,-1.5135999953739219,-0.11961322070301447,-0.8604749902588645
1660,-1.0769103802395716,1.1078876862744191,0.4806757490995765,3.0088585437769098,2.7160502219701153,2.8584265382405696
1670,-1.0875962426938532,1.0929296771046553,0.4695648955957534,2.490175734096212,2.712194331586371,3.221902510940049
1680,-1.0794585129923433,1.1031677954460133,0.4779818099824155,-4.172192898602877,-2.399761782144196,-2.166194220729191
1690,-1.0612480561693969,1.118690362572504,0.493974131150185,-2.083241214011907,-0.4800249879361661,0.6736226583365437
1700,-1.054535451853349,1.1255970421834516,0.5005931719067863,-0.6119817620887862,0.20616157395330992,0.86311764500221
1710,-1.0903088288300737,1.0937491970366597,0.4626520894241723,0.18934736640770033,0.7008920913817192,0.04234841420510366
1720,-1.074429918462983,1.1081658525591798,0.472989151615523,-1.3602682534067343,-1.0325326482647696,-1.2669716186354758
1730,-1.094070221217601,1.09014814611574,0.45842437946912007,-0.5916961794068698,-0.1853952283002529,-0.22054596424253037
1740,-1.0810291292668577,1.1006000957417,0.47413170772879537,-2.9019858251927384,-2.3885822544365274,-1.601250948604208
1750,-1.0825014026220332,1.100767915231318,0.4742032671046772,-0.326928496443617,-0.6474681888592104,0.7039382643430145
1760,-1.0935184863979555,1.084337106981024,0.4610020373562249,-0.22401033154407535,-0.2141406498266606,-0.14534099731435246
1770,-1.0748306230305467,1.1083649020438142,0.48863607218028965,1.1486424701563893,1.2726472272041445,1.504673658008826
1780,-1.0827250497323073,1.0955735924745689,0.4660987429287858,4.705512849295778,4.765525018878293,5.074651798475594
1790,-1.0577391954044018,1.133510789134766,0.4992953358910382,1.2443487742875947,1.841477742119589,1.436488293934304
1800,-1.0864678657484659,1.0978743482360138,0.46465623445596177,-0.6383302530920181,0.7115467065885392,-0.036878607956759735
1810,-1.0658895137099045,1.1173062560589497,0.4852860139458939,-1.667279763998633,-1.1835244896195554,-1.096027065582339
1820,-1.0835691548552349,1.0966688901375263,0.46976523846773627,1.1657692011703873,0.5428121766310119,1.5965339328936832
1830,-1.080499793080702,1.102436148705792,0.4765239395474535,1.0135558553539052,0.4333680053109024,1.3652631952856595
1840,-1.0923911633539398,1.091600344163798,0.4657955068222688,4.041412967000983,3.45885946560995,4.073481510521548
1850,-1.1018500788842707,1.0792869599783559,0.45130236047623806,1.5354109048368079,0.5266254437556062,1.175637732841654
1860,-1.0592515635392594,1.1278291371306453,0.4942351147199596,3.5341922656860776,2.7294406672590017,3.5214680750734026
1870,-1.060618253136731,1.1218233143634038,0.4852311547491613,2.249849332843017,3.8130359359355115,3.9665388046438452
