time_ms,ax,ay,az,gx,gy,gz
0,-0.7274086322319244,0.10517562198216068,0.6920233361912889,1.0282539507317308,0.29631812617722103,0.04256744528151868
10,-0.7015253063868541,0.13485166467964355,0.7206534061023402,5.291601804529911,3.009331632267285,3.0024175748310764
20,-0.7138979240947242,0.12515868998827012,0.7033683169669575,0.7453692892316757,-0.02529201561727412,-0.13752850626063784
30,-0.7283650083101662,0.11599573468170088,0.6953731642301622,1.8391101634207363,1.6115767979641098,1.0663587995178652
40,-0.6843140477227678,0.16016454775047173,0.7317321013085261,-0.3599212065731161,0.10500099324497142,-0.936318357480128
50,-0.6925975864937269,0.14989067728652591,0.7236326743621047,-2.585148208217654,-0.37023644578027654,-2.0077449712705233
60,-0.7289459820179587,0.10336149823559126,0.6895021727587461,-0.2084509246725882,0.8541147407832763,-0.8917032861229438
70,-0.6943920426659644,0.1319039706366451,0.7227798794952479,3.1392059141955175,1.8564260948608267,1.041303742111777
80,-0.7169820117730513,0.11706306136791261,0.7005731982238765,2.4470055174023635,0.48202628488314997,0.5806775750895116
90,-0.7241013140063317,0.11250168784464919,0.6971740936834063,-1.5534868902258414,-0.4910365580743216,-0.855283688556393
100,-0.7046405976461328,0.1311727564936422,0.7131448986913688,-0.2507070230310675,2.067916504300345,0.7708013061399188
110,-0.6974994881706781,0.13584336555815255,0.7247795217814509,-3.4753640276094475,-1.2920154780084492,-2.7917266317882667
120,-0.6805096235265911,0.14916368660874693,0.7346512803958491,-1.4409299122633596,-0.8654889801620794,-2.021536707808151
130,-0.7059215823825492,0.12536390184540483,0.7173321418086327,0.041035438504653854,-1.4910575793229306,-1.760561275046892
140,-0.715782830023433,0.11818479304640926,0.7084723744076813,3.326456126623648,0.6760442921851326,1.927209459388977
150,-0.7064113608399328,0.12815748072123664,0.7110025249363557,-0.06588180424346057,1.0142282612790965,3.135515251002958
160,-0.6737436533058664,0.1751698291341849,0.7360066577477069,-1.695819790362472,-1.1220859630303597,-0.34457221336096966
170,-0.7076856447543689,0.13576315415849577,0.7090292020500008,1.2039961521163969,1.404642150984636,0.7769801330728896
180,-0.685763212381401,0.15615482356882537,0.734308086673295,-3.959882740614633,-0.8675809536679409,-3.0958333965723055
190,-0.7389533018239781,0.0983053522480759,0.6825346868875459,-9.5735565057537,-2.132808622676622,-4.8525705363816325
200,-0.705774266157653,0.11850239653628485,0.7147016939418301,-2.92914520181001,-0.0018125146835923922,-0.5913168308025938
210,-0.6971183774385461,0.12651790389132866,0.725146574410158,-0.7718333297985249,-2.4774777283225617,-2.2784954000701787
220,-0.6937527382584778,0.13695355147775357,0.7290325433222412,0.493483720774507,-0.8823278722695308,0.08689147027576183
230,-0.7245640487692097,0.11179427455449473,0.6939759175769956,1.875069369243721,2.0392673023301,2.0088842255115034
240,-0.7079057023091602,0.13345715880653697,0.7140897502701983,-2.3431299698085377,0.007889785803993465,-0.21333022976919924
250,-0.7255666285643254,0.11056466174476495,0.6948549296681593,-2.214945886858729,-0.27106115681755144,-0.7153194897102291
260,-0.7330032986597959,0.09011183798007581,0.6840193992246033,-0.7680068833021292,-1.4949677124315877,-1.8098490035048216
270,-0.6860676037954622,0.13536167629565843,0.7304590245133006,5.438313408114182,2.810438954646338,2.934728425417932
280,-0.7215790824979577,0.10298512933188064,0.7064898770692059,6.195445687525966,1.3054060790678652,1.4300530189248444
290,-0.7256226524920634,0.11420671951331834,0.7041034597655876,4.7112684200727655,-1.84020868403571,-2.3860272568069694
300,-0.7183555081346955,0.11815198732471248,0.7035033187705615,4.6269219598892946,2.607214548731351,1.009449840029987
310,-0.7575668177152574,0.08635511330306445,0.685325225869485,-0.5622492960315703,4.815137488989053,2.79313937554739
320,-0.6916181795547918,0.08723031811911694,0.7330665141616003,-2.7245681468324143,4.454806533166753,2.3884313343164294
330,-0.6680084312819451,0.08176448290939664,0.7583052732660698,1.951210174389068,4.493490613600114,1.371333547851475
340,-0.72880562519583,0.1613850074288915,0.7452276553066445,3.88388370843022,-0.3242863503016127,-3.6742423904150616
350,-0.720433867356467,0.15107324201705213,0.7699746645831965,5.891896917025667,-0.6965443700063179,1.564582068543302
360,-0.7101809592899281,0.1123824954207638,0.756337135100762,1.306133785792741,-10.06553385529572,-1.288959883070601
370,-0.6122590568372046,0.05129082198558764,0.7311392764034038,1.6789854384909697,-12.542174276956871,-7.391851980750356
380,-0.539010852753077,0.09641028646984814,0.6852880316309707,0.7001215660959095,-12.365872490090382,-7.601367597756159
390,-0.49118061475365016,0.2636846824915302,0.6731666043265758,-13.702487403784925,-3.66734980642563,-5.552880160394461
400,-0.7592902092522087,0.3259160440714015,0.6201117949929572,-23.82567174291839,-3.314923194007874,-3.264406946805944
410,-0.8008033932045296,0.15430388133143977,0.6589773401110213,-22.406654342459078,-8.007426204958533,-3.994078071157672
420,-0.5267049687682879,0.1474244046405299,1.2232871757317947,-29.712649945771215,22.996310473872743,-8.809856529771313
430,-0.6650915404253958,-0.014616170043411859,0.9751686453163506,-21.300906190698456,41.96250918084802,-13.61877436282714
440,-0.7145876826032392,-0.20542416677602704,0.507627747082431,13.255709996955,40.60189985700827,-17.587077742724567
450,-0.6034112119088412,0.04979250251506322,1.212061514525218,0.5651853943621413,33.069121461283835,-2.3323651665000575
460,-0.4119468185027187,0.23669504695457774,1.087924379172434,2.3332546857217684,11.340751394451837,-8.530471921527518
470,-0.3704610974041425,0.15285973918494655,1.2701313774448784,0.0257186526296298,-0.6367733071929873,-13.380475760257738
480,-0.6482299403473701,0.09297178392729943,0.7864377094390712,9.340848562720282,1.2134532682647938,-4.213261510956849
490,-0.7365609852766072,0.07210900774631993,0.6868035144006351,9.09441472223942,4.070767032368672,-0.2672573845886358
500,-0.7155099725967156,0.1421287414323082,0.7129233028215035,1.6035072996521018,5.884658995995491,-0.0010664709867260758
510,-0.748000721762409,0.1003572326632498,0.6719081761513406,-9.757434236068551,0.7870500496016697,-4.3256304810791235
520,-0.7199520007621446,0.11617907541076512,0.6914392494665133,-8.18793619957159,0.20056097128797656,-1.6280384039435747
530,-0.7633672400314019,0.06338059723675706,0.654087592973231,1.5557582554422222,-1.2372108007769629,2.0701715884707514
540,-0.7503023008091587,0.0901476647611445,0.6691959907176241,8.370056696272949,-1.0170540560317998,4.263866014297798
550,-0.737184462265198,0.10600695478472921,0.6796001612594421,5.647548876701095,-1.8018897324614982,2.2283157658544406
560,-0.756396407505997,0.09717321786508495,0.6703079661239328,4.073086658348986,0.011325042488800063,1.867067847307867
570,-0.7198330139367206,0.1406688547454423,0.679739560770802,-2.2805300925589265,-4.778621450980752,-5.338173184246787
580,-0.7597470743800603,0.07757815571371084,0.6499353299095053,-4.732200661901816,-2.86996075899341,-5.582910572963067
590,-0.7481389366958544,0.07330161705344035,0.671125643772889,6.336595333731103,1.3529687784023605,2.735344905027067
600,-0.7247828857047285,0.10531269212154067,0.6905097124726792,7.234694282665062,3.2047449614380827,7.744128212402469
610,-0.7106583956037136,0.12865317145831193,0.7029908240791447,0.6808389708696974,1.3174600574281146,5.598478683080314
620,-0.7594024777468359,0.09846409870917786,0.662298545162989,-0.06655863586389765,2.3346486547893783,5.154012677021253
630,-0.7511370800435747,0.10779705401795678,0.6601136666733116,-2.953434267297623,-0.49153589131974235,0.12036960576604672
640,-0.7464780800803447,0.09325042724444166,0.6636395558808373,-1.7789108878293483,-0.07894747345982184,-1.2744355890537653
650,-0.7482504297747863,0.07657834122862994,0.6666546400562096,-1.0817474156020588,-1.8225771219071485,-2.5039887938187757
660,-0.7520153474691802,0.08043178655357146,0.6604048093973849,4.812723748821886,0.928870855462345,2.857514984164454
670,-0.7426938536500609,0.10433629494956739,0.6691624079977396,4.500878897310932,0.9961281143176185,4.751568189693173
680,-0.7282776900972002,0.12829439884130073,0.6928742307592666,1.3061237278170423,0.24827278613022916,3.2414627154147384
690,-0.7539032757522025,0.10584824644483057,0.6663638691285975,-1.2936725865686776,0.27829656339272935,1.4519364744500491
700,-0.7545383425159343,0.07822383337304546,0.6587540705224273,0.05090465950511147,2.2113077188858234,1.8893660168530606
710,-0.7297406755792966,0.1129542289047871,0.6759396468243972,1.4063265114491155,-0.7232585747339272,-0.7454167219250898
720,-0.7504513479496584,0.09935391586934454,0.6673464569525233,0.9291638479143915,-1.816042140808523,-2.2618221313333122
730,-0.7376626515867808,0.11223834995309558,0.679780067002826,1.8782595109224864,0.5759870803283901,-0.36728322783524203
740,-0.758911210802834,0.08667117098423173,0.6580089566790291,0.1963169854528073,1.7286102702637351,0.5382583438549124
750,-0.7496578158759999,0.08109233616777446,0.6621569424331296,0.8921889847223867,1.8456059538691207,1.4553830747766692
760,-0.743297916499532,0.08586055072532907,0.6763867149705111,3.96255539031206,0.6770203393977904,0.9172884987746688
770,-0.7188359039875277,0.12984413998995523,0.7029728574316396,5.52449300205021,1.145354328568162,0.7454094321712496
780,-0.7332814373446889,0.11941046316396385,0.6842881057467655,-0.03111580720211471,-0.451901831155416,-2.6250761378039114
790,-0.7360342641268843,0.11018192544423927,0.6781470794869617,-5.147864831540566,-0.9333136626350856,-4.904080001534603
800,-0.7218928930775996,0.11467650496579648,0.6957020150121312,-6.579879639674859,-0.22866570837549727,-4.565081507613696
810,-0.7470859090846859,0.08855899797439622,0.6688033971273193,3.404324333486531,0.9437538513775197,1.5358866177339436
820,-0.7390710271887719,0.0953539880663814,0.6782537915066038,5.089275698525052,1.5124150182821805,2.9180972035984327
830,-0.7298857440584526,0.11412876463654588,0.682436566858825,0.6882884650345997,-0.030561487775657314,0.6550931200039244
840,-0.7245727919758282,0.12581762648714195,0.6940397054643981,-4.103262684199962,-1.9098444714239144,-2.4252601493067605
850,-0.7437640264633822,0.09818876302329625,0.6728306898522017,-4.806574184377083,-0.7179787140226556,-2.627347103899052
860,-0.7364480166468577,0.09764720976648467,0.6798128044278036,-1.8256301504410724,0.16571130813025814,-0.7595763699505571
870,-0.7576572440544295,0.07470966039593094,0.6566416140682405,2.592301015088593,2.7865533064147785,3.4709021209157527
880,-0.7371271287194584,0.10097806155929152,0.6757749101391896,-2.7393610483369883,-0.25565754736253066,0.2855648213904287
890,-0.7582235440477785,0.08187694369088808,0.6569811377870506,-3.8913367445903395,0.7055482644186142,0.053467760047980484
900,-0.7253862331905344,0.11057454263504586,0.6902361363878722,-2.9560005846601767,0.23278472459261956,-1.2610941825299842
910,-0.7319801971629352,0.10493619481701472,0.6831198127151358,-2.807747687472238,0.7525397586093926,-1.7411546487515315
920,-0.7037652220537509,0.1419271457611671,0.7075767308378783,-1.7801596399460555,-0.35893919942613417,-1.2497798219851812
930,-0.7431406383602984,0.08340625076265865,0.6670684870500774,-1.8063730573201644,-0.8809839968525116,-1.6874208275297338
940,-0.7252756745881463,0.10969167699063867,0.6905969340234008,-1.280627051902348,-0.3519508888165215,-0.5959264913163703
950,-0.744311305679694,0.08709122316654912,0.6670482945554493,-2.3477337283285893,-0.9678885751294393,-1.5504832298603772
960,-0.7411859006530916,0.08869609952123292,0.6671427602766373,2.4936583194474196,3.1716164749118394,3.0444397326494292
970,-0.7696401038963253,0.06402063449595281,0.6496946861378963,-2.889864512817807,-2.1536851676331015,-2.677730211018191
980,-0.7381759715976423,0.09983627459847644,0.6841495864716604,-2.2291170674570444,0.932590837186171,-0.5950144320683777
990,-0.7311257450999263,0.0983299818237927,0.6872258116199703,-2.8175970914418627,0.13011545660899804,-0.45996727254672787
1000,-0.7267494738452007,0.09146911875422009,0.6850329300529816,2.0163677258280988,1.510390862267276,2.8042942079679034
1010,-0.7315672067057735,0.10230234085043118,0.680546326957089,5.3911581226646295,1.992550474419287,4.5439113855579425
1020,-0.7251476487872139,0.1130077136524274,0.6863090724689498,2.006621513471808,-0.01156844623415787,1.794237033479646
1030,-0.7150353406741581,0.10332276347471031,0.6936189953396117,-6.0528282514309515,-1.2318467936546704,-5.083126257790296
1040,-0.6923945544088395,0.12248184713561366,0.718679713537059,-1.0615059866876089,0.27367349650464706,-0.7769265972022398
1050,-0.7554496585490644,0.07155070577623887,0.6610539478516197,1.5238809766628552,-1.7030846560784816,0.3591245004447105
1060,-0.7146002205378928,0.11994027857120931,0.7095276805165246,3.48808229616282,-0.03167465723836416,2.273163123129497
1070,-0.7383010874154533,0.09694825504717426,0.6781022380196673,2.3457442840763205,0.15377384741254962,1.6435161432196876
1080,-0.7400131066976186,0.098243192398748,0.6806355022817928,1.402506115512046,0.8906399309530125,1.1888712776285537
1090,-0.7278089503031758,0.11568891160252458,0.6937259620412065,0.2535163480682175,-0.06275923436666286,-0.7780469287293518
1100,-0.737252033077099,0.09629187795217131,0.6818202737263869,-0.13307575084585205,-1.164572946201612,-2.35574802524289
1110,-0.7400566506530442,0.08701135219917487,0.6711490409110725,-1.753569429836077,-3.510065529625968,-4.067021461720703
1120,-0.7265349717361174,0.10368089404529605,0.6895662850787901,0.7127370273956086,-1.7273226130702257,-1.238851228059868
1130,-0.7173745726128723,0.1027709916527884,0.6974035144907056,0.549608340403728,-1.6770478258514736,-0.16735133990191042
1140,-0.7709932504956185,0.07363715352048587,0.6426312391108454,4.549545336207017,1.4355845642146594,4.434734516075583
1150,-0.6945245921409122,0.15330052404582262,0.7173139659385601,1.7123822490738676,2.0132764785598174,3.102888003621543
1160,-0.7184370363260655,0.12601181426116304,0.6994831550550478,-3.9308484719835706,-0.8368040867700233,-3.066809393150521
1170,-0.7346135862438755,0.10250450312461498,0.6740911771215945,-5.855536615075819,-2.5950352366463076,-5.4204922723082145
1180,-0.7474891817286834,0.08081268684438433,0.6633054547928118,-6.6864422926082225,-4.043842640833461,-6.1347213892246835
1190,-0.7229866224534915,0.10041381902868379,0.6914299813948965,3.2818861197389335,2.5693414772687206,3.4836632634020734
1200,-0.731842863256117,0.09727190404232217,0.678248290837216,1.5621807063699862,-3.0693628363420653,1.1584008598694542
1210,-0.7371857685261294,0.10288239420560134,0.6771271628210669,3.0731687346863747,-0.10478900589373252,2.7119128667381087
1220,-0.7447275405091556,0.09872782648501204,0.6677209883977877,0.8035277475664903,-0.08861255817627817,-0.030223034131941662
1230,-0.7546467921839504,0.0827229287965405,0.6602497248337974,0.9050023216051989,1.327326436695241,0.3294100932571662
1240,-0.7431757722284191,0.0810917105418728,0.6709391880075538,-4.08446232418239,-1.899902997912625,-2.514946067215636
1250,-0.7232661479047897,0.10694740966536154,0.6910687496828198,2.599845710836028,-0.26667368492624083,3.0831860991126723
1260,-0.7524695666774643,0.08125004331648714,0.663913201385411,-2.055878034799166,-3.480064094959185,-1.345508598645273
1270,-0.7108785376095841,0.1286454759655062,0.7031537965238689,0.7415387746039352,1.5002790012287734,1.1595723057365603
1280,-0.7413928991824329,0.09527372399914627,0.6779098300361023,0.20657372167020582,1.0539076868163422,-0.6130126322070981
1290,-0.7392990992385089,0.09287004557475935,0.6806814655501785,2.979388606778202,1.1119089717434458,0.3995718514699096
1300,-0.7362894060860495,0.09847565360987245,0.6845763599833963,0.7365402196258346,-1.8403432311847066,-0.5778956608348431
1310,-0.736104216020122,0.10525309383002224,0.6766289064363632,3.3866753627413395,4.180830548918886,4.537719804856827
1320,-0.741687440056236,0.09896028552925748,0.6713456075080986,-3.7251640733675435,-0.8712118099597514,-2.723815847415473
1330,-0.743652982703757,0.09662175756832002,0.6722207786784373,-0.031074502436257534,1.781004446454215,0.5601316492211822
1340,-0.7181233512544294,0.11139186218617952,0.6933673220740718,-3.6259186759787188,1.5498663752163773,0.6692392327739953
1350,-0.7379367715950563,0.09222010079014714,0.669772164515316,-1.7475676662281774,3.7597576387545333,2.4723280992114978
1360,-0.7432157410140747,0.09703807737078392,0.6772034498830426,-9.145287057264223,-0.6159080970443513,-7.001958004164553
1370,-0.7545648692872097,0.08859290354639783,0.6656623816030951,-0.539129633808308,3.38441474932765,-0.1630607229953258
1380,-0.7276820800986176,0.08921872072619891,0.6803706133501322,1.1624015190025352,0.9531284826799163,1.7308350177999015
1390,-0.7536796055958993,0.08156381610564231,0.6690205112095641,5.752447754268752,3.018755595691578,5.598178576604614
1400,-0.730475580030652,0.113462769884039,0.6926031553707175,4.0156525305122726,1.0014765656752491,1.7351656924755055
1410,-0.716969553975201,0.12426986936667658,0.6878705084258665,1.9967815675957699,0.7658635508865083,-0.21277130398079636
1420,-0.724878259156134,0.10667695885401156,0.6788202183210283,2.8621846885547844,-3.663225423968392,-2.6442019856174865
1430,-0.7321727099460528,0.09313950427969914,0.6836304510467821,9.158295577018677,-3.145247467773729,2.243271019430615
1440,-0.7232940166596536,0.10544826637577273,0.696481101379994,7.211696934560742,-4.128428189595442,3.9215874891392235
1450,-0.7413408280938102,0.08254838976126667,0.6688336021117253,6.78812601937292,-2.9819152223162098,6.508385132521567
1460,-0.7390153720014107,0.11965801632868286,0.6846727826842828,5.192224653514371,2.947903684650519,9.97185088208167
1470,-0.7226283614890922,0.102677673223151,0.6818247609401134,-2.9431040221858344,-4.91714864565807,0.8487374473467733
1480,-0.7165081378925988,0.12506193642869715,0.6981133346843907,6.409515537749869,-1.5741232462986479,5.3067676754955535
1490,-0.7409866549988213,0.12365434935047713,0.6858553499809332,4.137277495610979,-1.4915027863034322,3.4256460582943653
1500,-0.7450696050654037,0.11286175684964522,0.6636525066534407,0.02465083688683034,0.7224380219987978,1.8280393852882502
1510,-0.7759852703850065,0.07282791853354104,0.6380419333409184,-7.564791345770893,-3.3791668122444634,-5.07416559218322
1520,-0.7102801562907965,0.12894586802297509,0.7081153340606521,-2.9911137685462807,-0.586982919619957,-2.715987260225406
1530,-0.7605908323069128,0.06525961456132492,0.6519981432155042,6.4213658563745835,2.6189558482630604,4.273280076773284
1540,-0.7390859116598095,0.09691072826070073,0.6769819620972015,3.8007637348538625,-2.5979733719308165,1.187057562520935
1550,-0.7075042127264186,0.14036245904616798,0.7116281685478536,6.162959038003337,0.5226340524841702,4.0902566260074495
1560,-0.7104616484560866,0.13736524708076925,0.7078169695358029,0.04033388992090588,-1.4773888504512838,0.4956408218019524
1570,-0.7333351583024073,0.11068515301969312,0.6845323796227347,-6.3809076682741965,-3.800743333800356,-4.300081715444174
1580,-0.7382168099491091,0.0890929981379505,0.6778725489592038,0.5249389976992027,2.093656024109521,0.7380646929885246
1590,-0.7367539501093504,0.08735895891368753,0.6781392002533957,1.7724003923395513,0.14065179457677945,0.8892739278863742
1600,-0.73457923044358,0.09343546416882115,0.6802264075455672,2.355397844105463,-0.537241531056574,1.0335162681047625
1610,-0.7532031494710523,0.08758042658653864,0.6726399520952896,3.5480251470199105,1.2398754972932515,2.2644188055862453
1620,-0.7319750125660023,0.11189903839521799,0.6827984010151635,-0.06633172303419077,-0.4644538003314452,-0.32970242651321224
1630,-0.731243927463811,0.107082557211235,0.6846724251607879,-1.5586563215258102,-1.7081864265274274,-1.6472885119410323
1640,-0.7002135760438356,0.13236945726622573,0.7122106440398931,1.4509382602638052,-1.248508779174319,0.8014394410370476
1650,-0.7130896483604995,0.12470690749876367,0.706834009244672,-0.5758331575547556,-2.102638784367535,-0.6918678220329748
1660,-0.7237422703075469,0.11706298975953196,0.7021805255786867,-2.0375454634578585,-0.2757527892576397,-0.751644652139014
1670,-0.7298212597212549,0.1024662243407455,0.6902153656696689,-2.3220381342353016,1.7847711453300676,-0.10577308825516174
1680,-0.750949870971237,0.07667647929372824,0.6631645445363337,-4.19268988110341,-0.3248550195823058,-1.5762164525480913
1690,-0.694619984872231,0.13611905099371518,0.7230025925627496,1.5312694374000384,-1.4614325066748797,0.012333793942264554
1700,-0.7052798444429361,0.12007190763537189,0.7124896672228552,1.453472646267787,-2.0853510019446357,-0.8444854771407464
1710,-0.7461209567530294,0.08477080636046139,0.6725927337545764,0.24964847576062582,0.5011391606266625,0.9615608488408206
1720,-0.7289448026788412,0.10120405297418715,0.6799978035603548,-5.27843182019442,-2.229610297546422,-3.088484417245314
1730,-0.7408697765612424,0.09226753029222767,0.6774772809183908,-2.269533617162466,0.8811352930529901,-0.0943703598799226
1740,-0.7254442993732305,0.09963381344541201,0.6879633176555666,-2.6428648339835457,-0.6880891817327404,-1.0384901228325347
1750,-0.7473021099124397,0.07379136903730325,0.668991484365957,2.4874998107265838,0.06699037837669541,0.9864368005694262
1760,-0.7168126300721641,0.10725447114098505,0.6986225517156314,-0.005163703282390575,-2.2130768070299736,-1.937504472022023
1770,-0.7147677211400467,0.11506798900868771,0.7040126065260606,1.6818431906347047,0.3590260385039662,0.13679314649468777
1780,-0.721672208017077,0.10146795343612725,0.695726250438165,0.03251957503802383,-0.7184197084170922,-0.9855326273137787
1790,-0.7143267537355937,0.11033809416053078,0.7028519105929726,1.776898808643685,0.6453144766117043,0.7792258846419141
1800,-0.7041214558776852,0.1186093479064473,0.7171424032641518,-1.8868872003186339,-1.2050230942167706,-1.2496828401580902
1810,-0.7554617956778502,0.07170881150877136,0.6613821562735949,3.649323591526185,4.134136658197074,4.243443611927571
1820,-0.7038130645461027,0.12482416707357766,0.7181284262079668,-0.3855098526383179,0.015118441719887632,0.36749657640124445
1830,-0.744406944723996,0.08417345579707937,0.6745743419557249,2.2530142843786796,3.5948088026901712,4.446314652942072
1840,-0.7319901817579563,0.0934139753704447,0.6844130007597902,-1.456103560521555,-1.5929570708601108,-0.4124059562478315
1850,-0.7261065589217441,0.10401290904084007,0.6923239235487771,-0.8646191229091501,-1.5840642686440822,-0.7541602315058917
1860,-0.7246472049602865,0.10491216362313313,0.6939413982771107,0.8293523015776243,3.831208012035815,2.5660299484214635
1870,-0.7335152112942808,0.08645587760297795,0.6837621917149868,-2.338167877091017,-1.0963179839513235,-1.166379312946207
1880,-0.719480325284296,0.10409783193008389,0.7021400092936914,1.5162606597501243,1.1570982673814907,2.155727183513579
1890,-0.727121250233939,0.10234500884101025,0.6935201782662817,-0.6328629401917972,-0.821623280211986,0.15138902531565712
1900,-0.7281597071660818,0.10091556081793551,0.6901851173945368,0.6104581675987997,1.0326234319377605,1.500152948115928
1910,-0.7558728536401771,0.0672768846515216,0.6583518714674879,1.995739962241543,0.8118354235031227,1.2320851471250247
1920,-0.7269610782024284,0.09917857271392652,0.6901695797870365,2.3461353210335263,-0.042172944353421074,0.6812545241064775
1930,-0.6966362720126361,0.1307986075185135,0.7209678073968971,2.6533226161205743,2.384983245638838,2.7418680619072004
1940,-0.7174445819626428,0.10624112470393336,0.694779693986581,-4.630554993837311,-1.860154015447752,-2.1596110327688507
