time_ms,ax,ay,az,gx,gy,gz
0,0.1369260390893072,-0.03439933324812096,0.7776793044156105,2.831135757642408,2.2142436466815827,2.748846202781598
10,0.18313125126059154,0.005746388812659887,0.8169651780891426,1.205317200845778,0.7948734080274223,-0.06191287062183004
20,0.18185589818140954,0.007174552526610431,0.8131897771599101,0.6295670273536893,0.6409774865884804,-0.19546830791382785
30,0.18205594031341846,0.004373488635301974,0.8159982224310278,-2.158459743749306,-0.62591179934032,-3.068634573661806
40,0.14529246292528702,-0.030804244863471157,0.783049212863726,-4.454988539121727,-2.0358178558729025,-4.894318857299775
50,0.14990018744936978,-0.03827754854100281,0.7840526171284683,-2.7234477378799706,-0.7632311414724099,-3.774989511106175
60,0.15981229683976633,-0.02036649442572422,0.7987949343963563,2.148327897115177,1.1352760651501577,3.954605754435483
70,0.15657558477624317,-0.022642185175121936,0.7908641956980593,0.3031801230302762,0.27975202290333645,2.7641587154855354
80,0.16762507943808636,-0.013043908824860413,0.7998747963181643,1.0058940282763902,0.9186737880227612,1.288074590060048
90,0.18011929770659874,0.0033813913201137143,0.8102000299224872,0.5487291732997067,2.123042063618587,-1.130737315139952
100,0.16499618745366929,-0.007703049175667935,0.8008222177247407,-0.6993603434103235,1.5538982571812099,-3.9391865079228428
110,0.1625709800721033,-0.015395675385072466,0.7993536333153644,-3.087283751605141,-1.471750828399723,-5.35399646038114
120,0.13100103828513965,-0.04663622493759602,0.7644798855493359,1.744040795945716,1.7593564277352283,2.3012004975245084
130,0.17890928788375357,0.0006068739079992998,0.8091363838170545,3.0787303480747337,2.941730399112375,2.0274081949497145
140,0.16909430278598853,-0.008975190567273462,0.8035007612272781,1.7325966657994498,2.5415859609213527,-0.9545080136256641
150,0.16256786361959802,-0.01635770986580587,0.7955771469953827,-1.6561224714526377,-0.11017754160012982,-4.348142246789047
160,0.16570843825309253,-0.016669904839252906,0.7932064844445409,2.282874270247828,2.3551687156866086,-0.9702096770286239
170,0.1552880901426247,-0.023377645950325925,0.7869570445351679,-1.180815673323754,-0.2882141301773349,-1.9655450084471227
180,0.16949419708496058,-0.0001603913491243364,0.8097180868160848,1.9110824543675586,3.297027504000953,6.978880180322809
190,0.15723150397019572,-0.009784097272045733,0.800778005572107,0.7080877466039736,1.640011164933665,10.590184980866404
200,0.16468706173457495,0.005788520960820852,0.8112671545728486,-0.5384244185370468,0.870593777041829,14.871099818913912
210,0.15951887821273936,0.01760757870654628,0.8213531884550922,-5.8144670357913935,-4.109204800896122,17.93083287231114
220,0.12818218938626041,-0.0028051963360431584,0.8104428646469238,-8.745125736207807,-5.666389996854746,25.174128005287756
230,0.15328658938000092,0.08484175338442203,0.8977259140314525,-13.0227411511957,-9.443446126732317,28.8179265115971
240,0.2720790540371002,0.13468509618065141,0.9945979196618314,-34.476143766885556,-93.49831052469152,61.065846774652606
250,0.46738534554681793,-0.0312543450071631,0.8438056711092076,-63.79790903208605,-183.45793735683634,75.70672707922196
260,0.7278691515779531,-0.06329143753574898,0.659361317140832,-62.905283272738004,-161.74038115757634,51.19514353190792
270,0.710013295676746,-0.056337803309061976,0.4882001889163076,-49.81210896756206,-119.5385945808879,31.18020323846427
280,0.5341026581531326,0.01613617371700915,0.3983867728040906,-26.894029315426643,-66.11887271447954,16.28759236207074
290,0.42998605114717486,0.18781384703361798,0.6298184682310974,-14.301160686042397,-15.689606506846902,14.179538713336147
300,0.3267313938053799,-0.020739569545531286,0.8619273112444945,-35.94595623614144,19.99252434778227,2.509022845490316
310,0.4191418432448392,-0.3334071329916811,0.7416479301116943,-62.874376735673,52.21147985944307,-36.14526911633943
320,0.409049210200455,-0.5103633514552388,0.5532257183011291,-56.37878738193316,76.1023585146302,-62.15423812025629
330,0.2002131093306227,-0.24155040961796903,0.7854487399237635,-59.53630357665819,97.5317465734618,-78.72117637714135
340,-0.41419055222581225,-0.023174620711484552,1.2134160931541849,-53.59626673643292,62.886358724529735,-53.0262699332124
350,-0.452041489873694,-0.4861077974889034,0.8136181848770311,-17.014217437677274,-14.236293348405725,3.663057154133643
360,0.1984918238567959,-0.4941397949556233,1.0115998928893273,52.274375049651454,7.9142527387005135,-17.283287877236475
370,0.30707539508460363,-0.011120076166926287,0.9307179486691705,76.58344507706845,-58.3329352141298,-94.17492056188337
380,0.648947202131306,0.07236109918378907,1.9223284531650675,95.09299542575117,-88.85228178774759,-126.12126011504144
390,0.3349978787773786,0.9605653341392293,0.3037780350069421,104.83807989281472,-82.39267044129022,-90.32216068508961
400,-0.09577130534915232,1.1230383741797052,0.22224908284033418,148.41719726123532,-27.678668199870298,-11.951075893989907
410,-0.049731331355061255,0.7348859983798738,0.07054123306350275,123.88437057456173,22.574171570724406,23.188574000966092
420,0.2758697477205473,0.07221400668170577,1.0547603299044688,5.11966212065633,-6.167203546536297,-7.883555904739874
430,0.2404996696416467,-0.05631747743836609,0.9527433344984945,-35.9881464458756,-9.65985073136027,-2.223996982166029
440,0.24584525957018513,-0.06902438541741798,0.9483958166344542,-41.87657700823373,-10.063880956577648,-3.1298597461132096
450,0.22496553531750924,-0.10581670671824364,0.9260535393000607,-36.32550263790421,-3.693009670049816,-1.2099530773337117
460,0.22058688435534968,-0.049326691782655044,0.9244950713738869,-38.1136747613444,2.581744258108404,1.4562209741487127
470,0.2009069748655383,-0.05769781098944997,0.892534848779249,-39.5082141597412,6.81891610390751,-2.099960134214845
480,0.0806663072447484,-0.03479910852030744,0.7014087398373057,-43.63250943614124,13.151941753799868,-7.681790342104817
490,-0.1401511724733625,0.019976281892930325,-0.278792228031041,112.17531254851433,109.96949361538053,20.334950560711153
500,0.5256388562139428,0.02527037762219596,2.0630982301717196,-26.93982693070403,89.3962696999973,39.558708215381884
510,0.2496833634241109,0.17456427784144063,1.192128654893686,56.6753981945568,108.28199689184648,41.907873096912006
520,-0.009324013253309862,-0.4837973270090852,0.32502260955633017,92.99900898482915,84.9195839066634,-0.15977523481576594
530,0.2823737168870665,-0.34118205850372735,1.8069913204329888,68.95683868494244,75.06476511672724,16.951202174443736
540,0.11266566397251523,0.2638936716403488,-0.022852107650919176,165.57533616216057,123.80257900614964,43.70251350662617
550,0.33438839663597075,0.09636766699430799,1.0659486879545885,-2.4498495059309606,24.447557948627338,6.184669044271063
560,0.3884711368574367,-0.17833817251292575,1.4058627685674427,-11.605808959449597,19.21424560911379,7.214290061052823
570,0.4130826978358586,-0.1545667049423299,1.5310687122289464,0.8996932295339126,1.2061048753323107,2.774598178412761
580,0.2818262702957847,-0.2794799151279891,2.1916861105742513,2.1701273999244766,28.192663422717754,11.101426125504926
590,0.19674737953723367,-0.15771134784217644,1.253430381717185,-9.845032784602239,8.64632023484701,-3.5477335867051605
600,0.2157192388966257,-0.010447725486117908,0.8754391641891663,-15.90641155753751,-0.3397018609110522,-11.493606412510914
610,0.17654378415629068,-0.006866544367026665,0.8261944747285167,-18.722974092288194,3.1968830853290235,-4.455099037961525
620,0.19102477208089993,0.06011774516424851,0.8232966599092495,-27.638224829159522,1.2664025321885353,-1.8353173784290995
630,0.3013247050499746,0.4265513033903367,0.6961085457398746,-17.89780113970923,7.990347932314296,21.270090428208473
640,0.239793459880722,0.2012711070391134,0.6940798412271999,-33.40557423778273,3.5991864078264193,26.57731797111995
650,0.1307279262176943,0.07040676244479452,0.5856780400136188,-52.36137648266565,-5.085133169404858,3.7680328327670196
660,-0.06990592736325915,-0.22611391481742563,0.7447837313812622,-66.5058596681023,-4.044746174460497,1.0304282106380878
670,-0.020519194375121015,-0.36037006982272957,0.8965307165465348,-31.101359910528437,-1.721592729059561,8.304487849097343
680,0.14998945240913514,-0.18119466245711652,0.8196037043441706,23.697868930421393,2.666923926859309,22.053434274522292
690,0.17577839616789362,-0.09355927010316022,0.8178996522306197,47.50166581778952,5.732381586848167,29.930290738280608
700,0.16205596151762833,-0.07912787426368154,0.8483057969233835,59.1812370816015,15.720499453805678,23.80834371529422
710,0.1289002861686939,-0.10055842362259264,0.8479876929074351,57.17702340395435,22.21171770153283,9.600696322668544
720,0.13681934090765951,-0.143816158466243,0.8601215502723285,53.02530328171285,19.327184415797372,-10.773359224410505
730,0.19462700625961868,0.0904294033954662,0.7368312435274864,93.00865170730205,5.819368636830741,-24.100664584961237
740,0.4054005049264278,0.5772349001796828,0.7935353417390105,116.20784219524349,-5.412516707940099,-18.24402324716359
750,0.4709970765539162,0.46008137091739887,0.9922236989385536,62.28215804614518,-5.457818321035353,-25.00495351523231
760,0.18665491571799372,0.12432347714758424,0.7731778150551032,44.70228418443559,-3.2947802285043206,-28.557147918693214
770,0.239282584482606,0.193688439170589,0.8583857610071453,-2.2793093056620415,-0.8809850874909373,-10.717233027296862
780,0.21043769151932848,0.11818445727590615,0.78516232712551,-11.505054534921854,2.6004616257938213,-4.870784438054789
790,0.1600720406062136,0.031700109177586235,0.8023606285323204,-6.109295641056225,1.4142770083089624,-6.257361948857461
800,0.15585979659156945,-0.018662074142019935,0.7747430782492045,-7.479208087446873,-7.439141666617211,-0.9122890324038688
810,0.17915410495501327,0.007831666341170268,0.8193709224015817,-0.13141606561308317,-0.45647467030271294,3.8184037501519206
820,0.1552600365224472,-0.02988368023684842,0.7988389409690202,-2.51273761342759,-3.1061992829512595,-1.7201494154662176
830,0.1440247107240024,-0.04013993189533355,0.7684535242470123,1.093646311118001,-0.06249089544818165,0.1613977710111063
840,0.17509790365557637,-0.012020611648682528,0.800717336623522,5.025955019965755,1.6411761447265432,1.5191910045459533
850,0.17655177525177315,0.0014435397616720108,0.8005829160181536,9.125338868765677,3.659816669014937,3.6022480489598916
860,0.15454516380772698,-0.013981459102780418,0.7825222745938724,2.4470352072523527,-0.8508802700262753,-1.4890371495350752
870,0.14998791147134422,-0.020270333242819055,0.7760129269351642,4.793745291852199,0.21157577327939694,-0.1310318492016978
880,0.1645092503245281,-0.004106736452720805,0.7882180579668119,5.034064481445567,1.1376765849664237,1.4681982210939266
890,0.16624873676273233,-0.005576347023229657,0.7896731223001907,4.890152915804939,-0.5956734309781891,0.4126412226721603
900,0.17942806020083227,0.015920123910154144,0.8109507465518042,4.935926717187412,0.2886649495042343,0.7065085841017464
910,0.18403837745376145,0.03196081322156708,0.8182058972354448,3.350302005842563,0.1779951974898673,0.7089396729925279
920,0.20232469889786855,0.03464789067307554,0.8182758413246592,-2.8770947156016953,-0.16387664780342437,0.6175237470816566
930,0.17675223168508908,0.01428328977558278,0.7946484674405103,-2.8581582057385138,0.060297516122940764,-0.5661726324965033
940,0.175169377039721,0.012191488642044765,0.802204553325561,-3.545648769231189,0.019188126833552532,-1.6284018460364065
950,0.15997599898901574,-0.007318161305488006,0.7841233068713966,-0.17948095465179037,2.0602136352757405,2.139433876570946
960,0.15399845088654018,-0.006292904392089217,0.7834200334096275,-2.1045104816066535,0.13248915742412654,1.5046652780455851
970,0.16948582953370492,0.007118905475802861,0.7928654731817325,-2.4558863733777048,0.8104065680192544,2.219623340823306
980,0.16044934987634618,-0.010629503127869673,0.8067394613279624,-6.379936662165989,0.1546727336289148,-2.7506954442816376
990,0.17243262525408165,0.0070120892761572845,0.7985400722934295,-5.415973447525835,0.6730230439422452,-3.6959683507518872
1000,0.18073564119201738,0.00817411201371935,0.8014292382498523,-6.96066680680905,1.289135461059968,-3.3312507532991864
1010,0.15484091582417728,-0.005264974304258837,0.7853199342021245,-7.200118332780752,0.3791614550860551,-4.3825725141791665
1020,0.1630911225043646,-0.007720850928097087,0.7832165639206884,-10.397847098829978,-1.5416755028572786,-6.510457311089135
1030,0.17436240153056043,0.020255284999067688,0.8016340636473175,-9.806701472864482,-0.375169101814202,-4.39726240001167
1040,0.18201933271514875,0.019606122877290307,0.8086402881969423,-9.778138122384366,-0.4304315761222164,1.3456991195582757
1050,0.19863891399575528,0.02915693355945792,0.8233380591911906,-9.254970290034139,2.443853382492125,2.7774763639432445
1060,0.14030897529427377,-0.01690425515303382,0.7584717377292568,-8.500411869949684,1.1431585889858256,-1.865695982639296
1070,0.16379436168163491,-0.003028750340290284,0.7943155132013374,-11.222852455531314,-0.4477889969276543,-5.581701570944048
1080,0.1683683028072688,-0.011480228503700429,0.7998181546962035,-12.414466876053577,-1.1468995242685174,-6.450601482083874
1090,0.15947672632808058,-0.01855007302974968,0.784741551800418,-8.078022139315616,1.483199014792177,-1.8143615466523657
1100,0.16846505272074444,-0.008033424512156665,0.7916390300889317,-9.650235121788496,-0.8429786460741833,-0.39922711589500226
1110,0.15685782382315644,-0.017217090025161346,0.7804681592157865,-10.229827726516806,0.4515603022866035,1.0457638925751114
1120,0.15138069728326964,-0.01677957010885885,0.7826389032475758,-10.689359825889738,1.5719031940089343,-0.9497636165684736
1130,0.16511993950050505,-0.0017839454756798647,0.8022689149811296,-15.05188652989962,-2.5542824865421383,-6.4766626691613505
1140,0.1465696017725887,-0.026650193015046827,0.7799288999122345,-13.89342260500403,-2.2402634244242305,-5.437612654799245
1150,0.14023717880728906,-0.04031292543075772,0.7708040560222655,-14.698987255002653,-2.568689171572151,-3.8860318644388263
1160,0.16082500656664722,-0.01921234295639542,0.7965125613919966,-13.278080807370532,-1.2278704628544361,2.706284582772283
1170,0.15520897627551763,-0.024667105464769568,0.7991307314239463,-10.93998335787691,-1.0762507570786959,7.4597324548255965
1180,0.1448179723315745,-0.041590059803445406,0.7849475504862204,-9.056173113669328,0.07766118472681027,8.072771364342419
1190,0.16286111380255516,-0.02289435919251603,0.7993133314535859,-8.851816067598534,-0.13111677157632418,5.010144291156329
1200,0.1960180832985009,0.014596199929846593,0.8389258636526952,-10.625048434243563,-3.0761863207302764,-1.2529732254655062
1210,0.1319015449298877,-0.04805463845093787,0.773843927282583,-10.10131506461472,-0.6491702347218851,-1.0047456836318784
1220,0.19839303449568255,0.011444315212939477,0.8400497367498614,-16.819088601737253,-2.9402063526607085,0.970812651521819
1230,0.17011835020580027,-0.03994000002352666,0.8060464794494753,-16.3338386642109,-1.6878929211679636,11.196114786036539
1240,0.16723292066799594,-0.02751973609229025,0.8147505349975614,-17.82270147105582,-2.3879406803411305,11.6548516959473
1250,0.17993631741151958,0.01399090553063738,0.8358835476202714,-18.45693921488451,-2.4328695344477103,10.586292457287609
1260,0.15562980519402203,-0.02214855933050673,0.7944275411704347,0.32792391255306896,2.589295054811851,9.650281472547798
1270,0.14762785220892524,-0.021610118547435032,0.7932923568316018,4.8663637184055855,5.321720212722063,7.884675886785758
1280,0.20545325160698172,0.02386259577990426,0.8433742609159797,-0.5849782191378081,-0.8315574343377201,-1.9657131496802587
1290,0.17462287299007895,-0.015539740212940297,0.8164545356928253,-4.644411525609634,-4.418351871540331,-3.6465577577267965
1300,0.1680777642546178,-0.016816507425968484,0.8175827466572022,-2.486863746502758,-2.6023054901256186,-1.5759247491954196
1310,0.15526302453013363,-0.038237896935771225,0.7986075697912123,-1.0721225042802611,-1.69159205154257,-1.3284103186225173
1320,0.16932062916952367,-0.015563171597678675,0.8141469996323059,-2.629298374252701,-2.9279737010017834,-5.084680144211509
1330,0.15554124311178272,-0.037432083973706724,0.7968049455466809,-3.311382492318589,-2.9621984208172885,-6.0722374402362815
1340,0.18873724847876702,0.0033525706184681647,0.8375712517012565,0.7781170377383835,-0.49781128864219737,-4.100142978312196
1350,0.16770527430442284,-0.02042351257952452,0.8194940758720834,0.33506184883046775,-2.6198269132257526,-2.1525080740523865
1360,0.18053214459809672,-0.011928130826319468,0.8262541942036162,5.213288981726659,0.912281411543576,1.1913693867623447
1370,0.18152168057130205,-0.01149383635965999,0.8245844048682628,1.6775931494331446,-1.4317956284893314,-2.2746621991247276
1380,0.18987013173423728,0.004639909786102318,0.8313603803880114,0.5893457005452434,1.5941550165291447,-0.11727830261630334
1390,0.16494164142870843,-0.02212280804085065,0.8088913277366625,0.7621397245480641,1.6783494138857387,-1.1565268680617589
1400,0.1763943901262542,-0.01288087543127472,0.8211491259952418,0.19229899624288543,-0.3753689526153635,-2.842430319138947
1410,0.16438816105894205,-0.027102031195086546,0.8073630097950164,1.7383397112520462,0.1510840208040648,1.124827665903911
1420,0.17386879809950734,-0.021890400808777875,0.8135164436622712,1.7005805587239564,1.582079875606007,2.263573784799572
1430,0.16645484769105717,-0.021026358230461614,0.8113245829118148,2.9271405271255797,3.889581465738627,3.5882782996863964
1440,0.169335529429726,-0.030015083044231346,0.8123597906373534,2.0353701854014368,3.321300696911071,2.675418985614601
1450,0.1807576870627543,-0.011048512411047928,0.8214420214638191,0.868933286429755,1.1726192343032742,-0.23644724093447966
1460,0.18217206012992965,-0.009796437723643381,0.8251298095225192,4.877065654490993,2.797670972334511,1.2662160953546076
1470,0.18711176369200824,0.0026441736824158873,0.8268033872235374,1.4791478885630913,0.15406703187056878,-0.22052141185950308
1480,0.15417676425387158,-0.03076673413366343,0.7975433846023882,1.2506396924561762,0.6552490814282665,0.8503936757888267
1490,0.19281551082510184,0.005120196528790959,0.832146637901282,0.8942212262032723,0.8747736807660543,0.6684889732637435
1500,0.1856966704272942,-0.0007663032866221317,0.8301658054631537,-0.40680169817134426,-1.0296243351576049,-1.948444443195526
1510,0.17108458417299052,-0.01611905145123739,0.8112509030612313,3.681795935827309,2.9895996898863952,1.8807575981627986
1520,0.16617651831345592,-0.022986681181165043,0.8080229000108667,2.8374052851037574,2.091971912483885,0.6661574006998734
1530,0.17578447840818803,-0.013649642683154344,0.8159972163129262,1.0506507750224054,0.9441450421738509,1.732715450636825
1540,0.14230001451933513,-0.04417086379727125,0.7810351990228519,0.27853127255581767,0.9651583518785255,2.1205920249517414
1550,0.17952886311612465,-0.006690354275816414,0.8176046031355164,-0.20248365413932645,0.7491196884425468,1.0277835088043439
1560,0.16548590037264901,-0.020656531686555967,0.8083429345860218,2.7185157467284835,2.572098989324206,2.767429073534695
1570,0.1693195075030411,-0.015083680598962868,0.8133124996268976,1.974378090805232,0.5027890849176916,1.4445504357065353
1580,0.18606750162535687,0.005452224326527796,0.8273134995641516,0.1281482558997108,-1.9700031759134338,-0.5330541003255602
1590,0.15913735505861426,-0.025309156958977033,0.8004462098267754,2.656993077544966,0.8836925905044977,2.0191439642860542
1600,0.15255187086008407,-0.03374387222401215,0.7935368275537208,-0.15010120636346164,-0.6650851219549785,0.32011015611861104
1610,0.1753683765431873,-0.010804785633207956,0.8151451029298037,0.7174036272730681,1.2011709107941277,2.475856736587457
1620,0.18248679805369258,-0.005628264429191957,0.8239356431459028,-1.698935009018817,-1.3500303338867665,-0.3048647167205474
1630,0.1689104324583417,-0.019827450347321494,0.8080360898154743,0.3122938068600947,1.0030330345996878,1.0306125955033347
1640,0.1470632538068247,-0.040335657054236404,0.7854209982406776,-0.9561571090694867,0.07657888119151812,-0.8140236016878137
1650,0.17508620286554782,-0.01321750140071198,0.8189030457173637,0.6183884835655549,-0.4011507488220787,0.249006306476814
1660,0.15220227863816468,-0.04138283341939634,0.7917841151612652,3.6360942595400187,-0.046663085536053805,3.735921962779554
1670,0.17193878581915015,-0.016601114695988198,0.8050334396043594,6.058575007417378,2.8405662300156274,6.776300607805682
1680,0.17727631085163434,-0.004293532570129573,0.8122226606447281,3.5253465708608496,2.801274206117733,4.382534536510755
1690,0.15743597323985553,-0.025517392656978798,0.7942780885353081,2.824430781610515,2.8400623556479143,1.5456751084559626
1700,0.17017408199941184,-0.009621130234124635,0.8094321968565082,1.3912650995422506,1.8339289494806401,-2.329814057847559
1710,0.17298569293850152,-0.007119572763675899,0.8117648990582231,1.4280947878605488,1.106483416348959,-2.0749809272547406
1720,0.16381633061704726,-0.017121159710029858,0.8024243932424511,0.7868416680189697,-0.17696704019025022,1.7310843520033639
1730,0.15290141687808453,-0.027456631222134837,0.7934781357461501,-1.5122595335967952,-1.6152118342867463,-0.20737704307712224
1740,0.17052243431162503,-0.0113032046958499,0.8119222616967653,-2.1593640089006625,-1.334871850698573,-1.9017133088399785
1750,0.14932445197526423,-0.0408880184390926,0.7910501911868196,-1.318456396169576,-0.859656358605257,-3.2589522029938696
1760,0.18023836037500263,-0.007006215761970889,0.8170138887259512,3.4652927954152895,2.465050229367134,0.36713568906561733
1770,0.18423960272697965,0.004293844444130975,0.8264886720139681,3.783222650480345,2.0422890550478314,1.0071094981995665
1780,0.15091867767407854,-0.026281711467094047,0.7890234409845398,2.100053413657073,1.068088799826091,0.5943506085579646
1790,0.16944903744898143,-0.009508547998641115,0.8090940196667682,0.2868606963775141,0.33448148302391234,0.7048785023127732
1800,0.1682122951825551,-0.01099849944959063,0.8066221826658891,1.851601495475542,0.9606192234681966,2.188662383184454
1810,0.2053704335820849,0.02406448457542594,0.8440945610567678,0.9478783970482716,-0.7600745920071349,1.497225417576954
1820,0.16387519632009534,-0.014462938486357586,0.8000219393554727,1.5372319095966,-1.1590297953516222,1.6329251161845093
1830,0.16296458590816676,-0.016470199038546126,0.7989437613689722,3.7149035782938977,1.0799840747600387,4.358629864809548
1840,0.1490219644098172,-0.03792932788050286,0.7797586124747895,-1.438373607794163,-2.417137030126612,1.2807595434443941
1850,0.1652523353382563,-0.01691256899680977,0.797539395307765,2.4815916741867756,-0.30676460292736285,5.914978312071871
1860,0.17633155669360379,-0.0061997433571676554,0.803659460442689,4.153252669450605,0.1305978853980353,8.353674017970967
1870,0.19138087374854376,0.004189196634849365,0.813638336812427,11.637240346306701,4.630634611300931,12.158911525710025
1880,0.15566001947592648,-0.010740640976030226,0.7934054425708754,4.820337285991587,1.104022755366161,6.719897056546631
1890,0.1976592243139756,0.032788863581878464,0.8279242835418664,4.608042124293551,4.258618235614103,7.467613198560439
1900,0.15973013410125528,-0.010484210325699949,0.7899878255315494,1.3637341370574907,0.7842839906288162,1.4169364290842306
1910,0.1844527700514995,0.02001494303227145,0.8134033688378469,-0.12132238824582237,-1.1666124670682958,-1.128052189857995
1920,0.15180010776069924,-0.017541539503787364,0.7759534481236879,-0.9204732228757723,-1.1604980774550633,-1.4612825854594802
1930,0.17396471331569185,0.0048876920683987544,0.8023915289278256,-3.9370469145895814,-3.1364315723474547,-3.0041626833016313
1940,0.1767200976567338,0.001835779034809646,0.8091108062452534,-5.294833529286501,-4.244157656975921,-3.786563157095677
1950,0.20679861427453813,0.022394377056033282,0.8369197755340793,0.831407235523535,0.9171330443172091,1.5777878782878365
1960,0.16009609178790488,-0.006692038566128122,0.7919220099531185,0.05761109697403166,0.7794581616261378,0.7627594810084359
1970,0.14760180463069145,-0.01809126039117522,0.7788183051764297,0.5094299030326819,1.554470535285172,0.8757782480882025
1980,0.19994774442628976,0.028787141926712875,0.8310312991684703,-2.0065792657636807,-0.6191440668860602,-1.7744111632380042
1990,0.17596621697156076,0.001965818106362042,0.8037117927841588,-1.9245208413648642,-0.5313105121008685,-1.7643859807448878
2000,0.16597522026019296,-0.005595852020455458,0.7985562135442946,-1.8755884798142048,-0.5916547859133509,-1.3555699715270735
2010,0.162005114646475,-0.00514057704128474,0.7944731381239885,2.2768180916071694,2.843434798848983,2.4202913140393454
2020,0.16638619077249917,0.0017253752986858039,0.7963118877239381,1.2743134416085626,1.8078657872498791,1.0068310112718346
2030,0.18151679982414046,0.018073646655167558,0.8120336054348055,0.36568460638711997,0.7331777472544858,0.0785718126700051
2040,0.18859927065383922,0.026433672207503346,0.8212345199433008,-0.48983650926642613,-0.24895892986843676,-0.03580867602679194
2050,0.17060413645785702,0.00620366614859273,0.8013190757521604,-0.8815840488260503,-0.5846188850854948,-0.2288055557571636
2060,0.15020979513796104,-0.017695549721979863,0.7778135417493611,-0.8878921745969377,-1.2991527941702847,-1.8185071186385615
2070,0.1682552921866509,-0.001825184219581433,0.7971636091012652,1.370071400270539,1.1808238887516023,-0.21788929063928197
2080,0.15126593760283555,-0.018654585351403057,0.7816023635377455,-0.7521580574246595,0.18260128001285053,-0.8707208868345807
2090,0.1894016453000262,0.01953097219337268,0.8195750729492222,-3.8447839993973965,-2.6672358053369667,-2.953508552534201
2100,0.1890377817793338,0.018022313834475372,0.8180196622281333,-2.0598855029959275,-1.500115720388165,-1.4936092805474772
2110,0.18067648904190747,0.009606095194631615,0.8083163810635032,-0.21297614416080884,-0.2661118094596518,-0.538725449018088
2120,0.14153819175183843,-0.026985099467011883,0.769055528349329,-0.16217021666148096,0.511925519607991,-0.7507729586792402
2130,0.1509052993584991,-0.014523211616425433,0.7788902931788035,-1.0983164665676437,0.6685375396993859,-0.9789460491525283
2140,0.20656177895274955,0.03945886259808161,0.8370480359379898,0.1672481688915073,1.3499609180407575,0.2676194142285897
2150,0.18247033806065238,0.012501728888546126,0.8120320508578786,-0.2534491425385852,0.10914166442202128,-0.5667481926317226
2160,0.16850279704998392,-0.005659576856323335,0.7970832830079785,-5.5099057287437585,-4.91049534042164,-6.004530492777471
2170,0.17347182834016336,0.0013272986082228,0.8064254277330377,-1.9951201549401336,-0.7843058595063883,-2.154937689863869
2180,0.16587218271938897,-0.0030987553164934785,0.8003213402853602,-1.646634762485288,0.04586306859161804,-1.4974911558727881
2190,0.18844081304242805,0.015146200087721065,0.8177081520522831,0.4450716223636544,1.3147162291600394,0.58689443091216
2200,0.15630190375588052,-0.01592850771700615,0.7870890541636308,-0.9341604097544052,-0.6816040322407051,-0.8571619808260522
2210,0.17136339959108984,0.0012826084146577957,0.8058314068482317,1.489865009717674,1.451351873849176,1.7750537010977256
2220,0.13594940224615082,-0.03439068946813527,0.762889417245066,0.31102137145164516,-0.30096510883237926,0.6268140384409553
2230,0.16568399616273768,-0.009668355337936894,0.7928113706844617,-0.5290448103853813,-0.6875431951750459,-0.2320238011626657
2240,0.16256488416393786,-0.0063671922502434785,0.7937779134735427,-2.4884654401148603,-1.6726525455190862,-2.232378119693693
2250,0.15968225468679179,-0.008316332519641695,0.7914051965662869,0.6779606059463441,1.4988736000413834,-0.12603681227213226
2260,0.15808717220871707,-0.009919465974531408,0.7906527168847192,-0.9826101572227124,-0.48361648376713356,-1.5930655706014483
2270,0.16814156173435324,-0.0032117793565815443,0.8052713153759421,-0.8763411594739206,-1.4719316640805706,0.20124624387212636
2280,0.14133977285919136,-0.029735193062161505,0.7721286887288319,-0.5694503503485027,-1.7233071355448712,-0.9759599985633199
2290,0.18221635011465828,0.009238746004943095,0.8138681436621304,3.6104074951112377,2.9963663156083773,2.3037579593604507
2300,0.19231695142250818,0.01577128928724732,0.8231866521969019,-2.4075641201223843,-1.0224020820705242,-2.2191335470125546
2310,0.1604236842139127,-0.014288369044120116,0.7874195004388652,-2.024865449008361,-0.33031718684677314,-0.9177592387864251
