time_ms,ax,ay,az,gx,gy,gz
0,-0.5323836475849778,0.08512802127130398,0.6420566393741228,-1.056808683989007,2.1392417063895266,0.9821838487761649
10,-0.5337962217315854,0.08024733591584081,0.6429547930711972,-1.084341432480987,-0.43807958052960605,-0.30044195832503506
20,-0.5607682412947844,0.0621292701090579,0.6098510682076651,1.8133397240399407,0.33723890568744075,1.157375849606915
30,-0.5296332843677766,0.10562032592039611,0.6424791481079787,3.135080970841726,3.189123429509168,2.7050115193474182
40,-0.5488802559635282,0.08218539459829054,0.6299202183603856,-2.3424217526725184,-0.503647114700758,-1.8361331778266359
50,-0.5226033976055814,0.10005761289497302,0.6510916249388591,-3.002239658334399,-1.2446245910458962,-2.9392338000215084
60,-0.5755054039497716,0.04688246303690445,0.5953853667052496,-0.05752521791232523,1.0103877274257367,0.18118425284513662
70,-0.5535278034469288,0.07273239578528948,0.6193341681180038,-0.08290053932132033,-0.11777842275049921,-0.0430879560732253
80,-0.5824634791794489,0.046643976302565476,0.5917583286122635,-2.2381013309925906,-2.4523503757343224,-2.099526246821284
90,-0.5622044593420772,0.07221621038423723,0.6117930955158446,-1.5420994881430234,-0.5481275519008416,-1.0988378088561777
100,-0.5360818190838791,0.09383040318794146,0.6369191667153397,-2.2702943951289356,-0.19552076590199963,-1.002659602730914
110,-0.5620448568149796,0.06309939347310257,0.6146851570344835,0.1838620676644389,1.7717510207104417,1.320068802753865
120,-0.5302028097405078,0.09256239972581426,0.6489843790280607,3.3123356944805558,2.218633211689451,2.658914876765876
130,-0.5633070620572881,0.06899654642234232,0.6205437806483509,3.7858232392635713,0.24886666330084506,0.1273271452562058
140,-0.5391583263780683,0.09847033106839494,0.6522158992391459,-4.175790952786441,1.9483876804278921,4.289886631392117
150,-0.5561443606830014,0.10741094889773545,0.6272121595644538,-2.0491973270358086,1.2586306316272524,3.133731999332902
160,-0.5490108925285928,0.13778977944760656,0.6340210220366802,-0.9189080156118872,-9.113054555233434,-0.3288240620097041
170,-0.5946135531057262,0.06154617774881419,0.7515959939696774,6.756862872577194,-10.001053115535349,-0.27479567930602833
180,-0.6674531983670388,0.06974544015078118,0.705969901239564,7.885792023665077,-27.99377395360296,-5.757089407058231
190,-0.4986147827684657,0.2276644128109695,0.5523843535133098,-0.22183114865699105,-24.047125345690983,27.023973051996773
200,-0.46315362060263326,0.1332959473730286,0.529418912101059,-3.949707248077429,-17.055008627552073,30.0837792689255
210,-0.46985361321577335,0.058925367112292515,0.5880465636503275,1.1984303634798266,-8.417999580309314,30.8933565506681
220,-0.499740083475395,0.10119981274128609,0.624379834620786,-2.9515941912304564,-7.437166244119171,26.846439330818242
230,-0.5244888003784112,0.22696992612689837,0.651837221079811,-6.96533911565621,-11.770785908134977,30.72540972666742
240,-0.42438412212707705,0.204700729318934,0.6095140242799327,-20.584639194447732,-6.610198341686711,30.08129783820466
250,-0.43870537515022723,0.06377008971935033,0.5691006273376071,-25.56023616315637,6.824201963739953,20.61107559664002
260,-0.460725071111408,0.03759138131423991,0.5909406075000616,-24.95783816498072,10.093130079555724,14.735381633940975
270,-0.44086049961658036,0.045573175781522944,0.6589576223088625,-22.453257184065194,15.893648088203445,13.211589735333192
280,-0.4905367100857838,0.03991702723454209,0.6872938101726033,-24.685534662192957,11.554304857125528,4.429076608697241
290,-0.5373855308058071,0.0341558283646451,0.7012791727225447,-21.165897836989547,8.473827490115053,1.179920529107798
300,-0.5043710089931663,0.051340150879127064,0.7049139858479209,-11.17363221958485,5.951387545426509,3.5924411343628044
310,-0.5086798228596701,0.004771007108115914,0.6509037379798915,-8.654492569639247,2.9929056889324044,0.3528156103286977
320,-0.5078655704474414,0.0537776217026177,0.6394388114709227,-8.449630475801632,3.7984574172388323,-3.3910138545003163
330,-0.5342464391918149,0.08802494824072576,0.6617832810228496,-8.971330143278333,2.704441054970362,-5.8330778332832836
340,-0.5755359988226075,0.08532196090098737,0.6578742793131485,-12.080271332675146,0.30330387241854684,-4.4507843703332926
350,-0.5314960990876255,0.09569569912956542,0.6953082880904466,-12.844382155658373,-1.8143618480547385,-2.0473057998393926
360,-0.46417037424876134,0.11056761571922928,0.6442625153210314,-12.26112985310254,10.764984475172433,-1.0285572262457028
370,-0.5819510491702349,0.1731379942219047,0.7737570968080608,-14.483919455762754,2.1068272911234716,-0.015352135470212525
380,-0.5814463483735717,0.13059244000825584,0.5894639521380486,-17.81388207082084,-6.616261392127591,-3.855692559065163
390,-0.5391377510804024,0.03953441155732854,0.6449965485760677,-17.446029044322156,-2.496404934172027,-3.017974618421806
400,-0.53711165160228,0.07636459404933396,0.6121806561917214,-11.39295248837105,-4.29336225684716,-5.646918732839424
410,-0.5175687786919448,0.07741847034462962,0.6675020018967055,-5.799718953169285,-6.598848016231043,-10.742710971922072
420,-0.5306362015461997,0.04545814196473187,0.6526586856422308,-8.232312152927628,-3.9776131680771374,-9.424761457068769
430,-0.49975039406415167,0.07394507906954599,0.6729496252547126,-8.233976373629195,-3.257077325094061,-8.532529251108976
440,-0.511102667490824,0.06380044894984137,0.6605415937858703,-7.860447728441841,-3.0911725949560367,-7.222535405788664
450,-0.5319496341537682,0.03668346930830549,0.6426610762559763,-1.322726241752489,0.5089273326214452,-1.7719865642264891
460,-0.5284870115960629,0.03620832090454916,0.6466200305621701,-0.8485320511990231,-3.854419495279157,-4.832322829148481
470,-0.4910372987972638,0.07385749036252405,0.685557828112731,14.500058850093362,5.058462915851958,-3.6391544708256736
480,-0.5656474368978965,0.08290310571237741,0.5885713572307455,25.49062413436986,17.46705212961723,-1.912048025443878
490,-0.41040986777766086,0.11938306234251608,0.8551577894008155,21.194230557891256,18.084578286251382,-2.589102149870854
500,-0.5113663919869695,0.11400915767474201,0.7518687288025282,10.36462837673734,19.866516534861436,0.37892596077166596
510,-0.29761993116949925,0.01248789295473032,1.0256532582481506,0.4954685220230328,21.845361997559397,3.0379207917381326
520,-0.6664066669885911,0.09496604768439486,0.4811480005901871,3.972068371407387,22.632260209710978,1.5106663724474565
530,-0.5543480343351616,0.07099930894538234,0.6376166481273223,-5.205759251127806,36.08936101223175,4.0524456188476465
540,-0.5626571924880204,0.07241341949326711,0.5898115361687769,10.660364355223546,29.321389596494555,-7.435411779731747
550,-0.6200360245418547,0.021676553262157276,0.49363751134172024,-17.756851529439295,43.440436839434824,3.3643631215169574
560,-0.58866460977786,0.1569049103322839,0.7036794160518681,2.61115594164375,33.010005388721034,-0.7052533430829999
570,-0.5165426841334176,0.25811819066798736,0.7809501081182427,6.992925173502342,35.25168507424427,5.453554567796792
580,-0.6539367601113806,0.1169279190076149,0.5398823278332981,16.02340645638337,35.444571217654335,5.200543125729759
590,-0.6057274800882362,0.12369290840756209,0.44651184561935453,5.97769806446526,42.71477511729046,3.4236547212108466
600,-0.6023813527726265,0.02995900908435343,0.5764018160831211,1.8362127352850606,32.81529611432764,-2.2414022323697127
610,-0.6748969693406245,0.06336227261403604,0.5102074476546887,5.578559187424597,34.87513969310764,1.9140721157375276
620,-0.5564112823240239,0.12416820393720396,0.6864158282268198,1.5509003562840173,34.390574563779786,3.3134652944537395
630,-0.4805601037411114,0.15720866223545038,0.7545457142113126,-0.47952324940353097,28.761724910562954,5.390329090172245
640,-0.5727651454669774,0.06748761419537103,0.5956269669097624,4.060919493548193,9.120804681609348,-3.115964369904525
650,-0.646055857141558,0.04783029726412834,0.4955084010434648,8.843638965052987,7.426288678494852,4.2358199219319035
660,-0.6176652116901955,0.07199508184594607,0.5387131906027516,16.49668883286344,5.121437227222502,8.708152751023125
670,-0.6070445178845681,0.11553530718149085,0.5499399847090506,13.519914730665693,-3.887682328137728,4.320609887474989
680,-0.6304033300724193,0.10174163167037166,0.529536177781078,5.877211521036989,-5.180546345431168,1.0785714055429647
690,-0.5920716669402686,0.13893365778103223,0.5840486290630922,-0.006526856548637827,-1.6911041263751936,0.06812137285864162
700,-0.601888055694767,0.1120959247538598,0.5591773076608236,-2.41952918143342,-0.4921285652579602,-1.9270833184681069
710,-0.6413742849831637,0.061790068709314576,0.5137689523024296,-3.0576939623816424,-0.5028753692649104,-0.04427325233917445
720,-0.6304170603770455,0.08308148794739545,0.5370303755453958,0.8644735655136964,0.6015932382254914,1.6211490702708156
730,-0.6344830771173515,0.08959714060993482,0.530198384011904,1.4034662737873282,1.88015638006991,4.201992538854509
740,-0.6167378406541978,0.1113038807028418,0.5477519619951587,-0.05570361906903276,1.0530401548217552,3.419105930410695
750,-0.6364868207432459,0.0827739190451868,0.5238898289396478,-1.6839561230030466,-0.6746081223156657,2.527736719398831
760,-0.6157866353129268,0.09812263928054561,0.548585298569715,6.262957518245189,-1.252826507378269,3.77489176449947
770,-0.6292396903438329,0.08784008650067526,0.538383419062462,3.3005321496476987,-3.682598435491037,0.7585438192380821
780,-0.5925597401898886,0.12411148862148917,0.5728625281205151,3.1588814993448326,-0.621312219226084,2.5381758700361288
790,-0.6157472523943746,0.09554236395398907,0.5439232093211657,-2.140640075106134,-0.08172129081089108,2.448956735387327
800,-0.6127312130879229,0.09859848039323364,0.5484023712910171,-4.009147099833191,0.7508143436901401,3.595290863089873
810,-0.6327070828522192,0.08192078273219429,0.5255108503254274,1.9146988713997892,2.2460169597324944,5.154005947851513
820,-0.6124139008858259,0.0991249347432435,0.5430585071526175,1.4646730422515413,-3.5400570358943995,-1.1914898360053539
830,-0.6279865252607807,0.08688591936417281,0.5315637817190844,1.8905904928817316,-0.9348511902132152,1.0201133602771342
840,-0.6045909780153537,0.11124580461588626,0.5516936361644784,1.5259914691939938,0.9071126298343208,2.854621809236574
850,-0.6385305054170627,0.07951968841347962,0.5256643014215837,0.06579105263573892,-0.6739185242404098,1.9633334925129686
860,-0.6159081059245753,0.106432238456515,0.5509008065757993,0.7636896237144943,-1.8129102891269548,1.1625528100860234
870,-0.6387290915710059,0.0769335219965913,0.5242718965226316,-2.0246427191149845,-1.190426452774954,-0.6750500344756458
880,-0.6076131150320413,0.10699595641024126,0.5561094672846639,-4.63395402588278,-2.0502989889448298,-2.4612411131611256
890,-0.610520401610261,0.09941706433960497,0.5503209871131456,0.9534220256027718,3.107241511141696,3.5193630415528028
900,-0.6091999037105721,0.10972226522779539,0.5545543920037154,2.583122924670395,2.3955656161715346,4.29510397927038
910,-0.6392502609980654,0.08277007892283268,0.5234754546866595,-0.37412154699350797,-1.9709435873735346,2.0962328182606473
920,-0.6184229958192269,0.10578673456906501,0.539028817003292,0.444411692125676,-1.2902851612804267,3.9795411293590464
930,-0.612698727353183,0.09714836766520218,0.5496912926766852,3.7044523987235847,1.7001080656816596,6.06551344174862
940,-0.6342878548790409,0.09353595508304954,0.5332939628430272,3.086150257507078,1.2209370988935646,3.89156695339136
950,-0.6022133364970247,0.13591364070653547,0.5604628064750461,0.9117457017052528,1.23749794349505,1.5866465880360914
960,-0.6378287750102203,0.09086391498384976,0.5256170474066353,-3.7226185162874392,-0.9609656557070682,-2.1401107609788443
970,-0.6219509672753188,0.10263112103770847,0.5459666800141106,-3.3295902295676627,-0.13687692390800427,-1.8641440604105808
980,-0.622265150532983,0.09445465876251534,0.543522835324131,-0.012550928269699835,0.9914499933844141,1.1144304423748435
990,-0.5988375816456405,0.1178218886430349,0.563840577914009,1.038476051545906,-0.014609313203505447,2.96472798111128
1000,-0.6131154287267377,0.1084927973242813,0.5496133658517953,-0.9031701482944956,-1.3330333795450053,1.9443412404118035
1010,-0.6152814384955761,0.10498588531492577,0.548848249041976,-0.4382510159075925,-0.6509940018706815,2.24132448994159
1020,-0.6114342385468181,0.10907649809314886,0.5530631235589065,-2.830662367988923,-2.538300647217498,0.04009064856018979
1030,-0.6429215589876827,0.0738788923752119,0.516803750423718,-3.350090951835215,-2.140411651915024,0.34988343383359966
1040,-0.5923344043859877,0.1215221368625762,0.5668958674173924,-6.872454322572727,-6.091813922637035,-3.0327430112100204
1050,-0.6271923792184451,0.08134333497347039,0.5299126056211209,-1.7079730703825649,-4.117594646408508,-0.752897789541674
1060,-0.6283128328983091,0.07412270806035148,0.5370063637201659,0.44589140562510954,-5.265713089704396,-1.490459595947761
1070,-0.6237977148755278,0.08289417868670951,0.5479689224731026,0.5266891360619144,-5.621146698120057,-1.1651979942142037
1080,-0.5887421527839872,0.10845475466809164,0.5663222120979106,1.7509930453581133,-0.7014024864170798,3.268082231957476
1090,-0.6191076006921309,0.09026431501340237,0.5467682856823378,3.4704567207844734,0.8378196103779032,3.553408941177294
1100,-0.6016034987649244,0.10843612404053586,0.5648738641464816,0.932892057442997,-0.6335480359882589,0.2389800307015889
1110,-0.6239594483524704,0.08753194236832366,0.5409809431784106,1.9087017296107025,0.797809010010819,2.267773139314416
1120,-0.6143875012381034,0.09525989395408027,0.5542569648014349,1.9629625929590637,0.33967308423345227,3.0361175334978836
1130,-0.6001897695251761,0.1089546526851058,0.5650451090562228,0.9089689010234825,-0.04838489476500074,2.5251020724998496
1140,-0.6303710365422825,0.08533298707649095,0.5411180204750785,0.2195180881994115,0.46969735622521824,2.202237629457699
1150,-0.6146649937191292,0.100547081305447,0.5512618523786214,-0.5774749444329086,-0.14506893019822004,-0.10738776680150647
1160,-0.6021462504984837,0.10823248272342602,0.5642452595434908,-0.30677001834616846,0.10809604077425322,-1.2579595282797575
1170,-0.6038576985705724,0.10171474677274416,0.5610411824780174,-1.6879804021463114,-1.1094303392523595,-1.4612780564312136
1180,-0.6098358171110401,0.09712964499379023,0.5563962763830835,-0.5344089503338209,-0.5273695196716484,-0.27762247605511226
1190,-0.6259258908424885,0.08414374352281989,0.5419739861373816,0.8791862237715014,-0.11053523351744832,0.5513150560586929
1200,-0.6117169661663687,0.1031437475419984,0.5584779968267324,0.9041256743627177,0.05246564060058881,0.47139145164697904
1210,-0.6015683865093241,0.11386541631088185,0.5643939405202818,2.051957909829106,-0.6122192308560745,0.18116523889741043
1220,-0.5969800078347369,0.12241353297443443,0.5616211591632466,3.6554799414644665,-0.31664249765853614,1.328496303099483
1230,-0.6050101522413402,0.11134473240439437,0.5596683172545199,2.38907856904148,-0.13244571789139736,1.8002964873820249
1240,-0.619329970588956,0.10077109517338571,0.5545091700161985,-0.9693191594686544,-0.3796035677586632,0.5868453086574456
1250,-0.6175139762110992,0.10363062238571927,0.5603628794882227,-0.1974978155521574,1.8359057408287975,1.0727765174672288
1260,-0.6010152866612903,0.11057879600571578,0.5673891392267049,-3.282801909601549,-0.9311279637401478,-2.396094680430356
1270,-0.6059505203321218,0.1112282289667232,0.563641065735671,1.6944966174260974,0.8256683064524816,1.9384485185275198
1280,-0.6164760381892597,0.09506072119010912,0.5540239205947047,1.598168655943576,0.22507593042303742,1.630591607655982
1290,-0.6236511819106205,0.09389550185771364,0.5484765469732843,-0.6573451102862303,-0.36455007964135033,1.0068844976457845
1300,-0.6117125356828954,0.10463546176451896,0.5557106475651225,-0.5655636380881705,0.09424871407531538,1.6567542050761097
1310,-0.6105949549137448,0.09982900600333156,0.5473845444226536,-1.4426070300465645,-1.0149445035563864,0.9277158813443608
1320,-0.631395143894717,0.08127411170824052,0.5338689029642208,-0.9719879220019356,-0.9501019553451677,0.7500507211730143
1330,-0.5935920145443735,0.12111725877589649,0.57619472578636,-3.12909768834271,-1.5950004916314136,-1.7704367358711712
1340,-0.6115633966914261,0.09873530972495258,0.5501014239973758,-3.4693099836207257,-0.410419202134222,-1.343062575016614
1350,-0.604967598809275,0.10448889064462603,0.5524301762096302,-3.153478518964488,0.17397619621138122,-0.4619628497163707
1360,-0.6095595022056641,0.10315333617493477,0.5530212056215333,-1.8020275750404444,0.074026210199027,0.14689788165982454
1370,-0.6260093443560971,0.08466689579105127,0.54062026858723,0.5719258721083156,0.8928781829164794,1.756919479266683
1380,-0.6084493309329941,0.1003086949744103,0.5581116140981809,2.200100855211603,1.5074792834681559,2.1650794537999287
1390,-0.6158923332858522,0.09078105100656211,0.5455799440000922,2.1968329860661084,0.6610205866352474,0.8031343124820243
1400,-0.5940628745853151,0.11684088691876698,0.5678623235148795,2.4912790864543695,-0.012465200226416756,0.2345995645921767
1410,-0.6248382297776267,0.08298372460154019,0.5422561561350072,1.2127836367205125,-1.7312362909342696,-1.2704348176160745
1420,-0.6292416937167915,0.07946492097573057,0.5377625734469678,2.0846726658904235,-0.05182561330669422,0.49471448379211136
1430,-0.6221511914807668,0.08177868583975666,0.546183255951386,-1.4597380641299869,-1.7188110715780547,-1.39348431810957
1440,-0.6277906455359036,0.08970327123200467,0.5408621389540554,-1.1301320964429624,-1.5311413031816161,-1.8324188981094867
1450,-0.6122424503837122,0.09765379960697233,0.5547257990192527,0.2810915227559465,0.7423369583356505,-0.22624702975059185
