time_ms,ax,ay,az,gx,gy,gz
0,-0.7219727596362169,0.025313409048687487,0.5565093155103918,2.6703056202677686,1.42106046372608,2.9481381683295043
10,-0.7091843205225393,0.04560065735895334,0.5704371877506631,-0.4656340383094798,0.7606817768871114,1.3136371369279836
20,-0.6979190698165674,0.04978567045715375,0.5808103365807904,-4.567001512965023,-1.7254614590242614,-1.8020948662505418
30,-0.7188247202273882,0.029882861943724682,0.563125042333443,-4.764377903440701,-0.612358097046889,-2.017395189875257
40,-0.7282743431622747,0.006952381486855513,0.5427864954413014,-2.7524218184416056,-2.3616823897948818,-1.4018934857583438
50,-0.7167462980300657,0.02938181187435524,0.5641978412037666,3.7101774727977945,1.760264422478976,3.456182743327788
60,-0.7039939682521426,0.045729825619856085,0.5777961440721422,0.5205141224631075,0.046685332260656964,0.794289763845237
70,-0.7209660366252952,0.032861748454151456,0.5600672024762591,1.195743263669903,1.3256005842148966,2.1018082640407947
80,-0.7205623971339742,0.032245132965871004,0.5597058477483385,-0.803750422145298,-0.8515503699408784,-0.060929687372588415
90,-0.7307779224385633,0.01681458849786563,0.5528925284293427,-1.3892455048865089,-2.9338984567679756,-2.1707379714112207
100,-0.7466905148283101,-0.001425493169912903,0.5314131427856855,-1.1296631273823141,-1.2191997583015428,-0.6244751943950632
110,-0.7217592895847478,0.027483774130503572,0.5522826533057872,-1.3181265227126824,-2.0816519671151616,-2.1383528096222757
120,-0.7157775322523259,0.030330652790553827,0.5577178305113358,-0.8871856954267269,-1.3818249164682126,-1.5138781874442235
130,-0.7259745196074114,0.026306086210099205,0.5594264084451492,0.5720694925997938,1.0510392732979996,-0.04752148288863345
140,-0.718650444679975,0.03058388149324931,0.5682957174117751,-0.1577086927602358,2.004579977046494,0.7022313813504406
150,-0.7266637322267819,0.01568267232387563,0.5475461651600024,-3.4183779616111205,-0.9126595341564485,-1.3841952848526318
160,-0.7028826836306853,0.04396726032404619,0.5705514054721699,0.8050185469128791,1.4059841162850228,1.8779539581078524
170,-0.7118575589397745,0.03919609143361695,0.5640903269154335,-1.3362567281878337,0.14722981805796487,0.3372095292155731
180,-0.7099366880920704,0.03992443291005321,0.5680658451450425,-0.7947916441047864,0.13203257018483508,0.48468358240898485
190,-0.7347338974778173,0.01154668068654687,0.5440318798427729,-1.667428398141868,-1.203888273830106,-0.8893115887236522
200,-0.7184212737987374,0.03107931616550957,0.5606830729690944,-1.8375136266832774,-0.7804489996528772,-0.5758244109551189
210,-0.7233564707658381,0.024290423991774564,0.5533002497746328,1.039784102226789,2.218642475972616,2.5753049740387057
220,-0.7182072482746319,0.031691749950273414,0.565700373957055,0.9656806721903198,2.25477409326017,3.4421373440262797
230,-0.7350443253827502,0.023978558872090258,0.5535464145113782,3.1046244563747636,2.686698522543086,5.5278148529119315
240,-0.7242708391479524,0.02838390166561267,0.5599553079770513,5.70202759145389,1.3015362836187945,6.426399002035515
250,-0.7281693536332818,0.017494685523396145,0.5694439686448344,10.923153705552307,-1.1362081932274035,4.4187462426313155
260,-0.7111403669393404,0.04859931392360543,0.5911924085389804,17.180133559265816,-1.2644328146270856,0.9573270961536193
270,-0.7240321545619605,0.01458563535916912,0.5687247116278255,21.7916989738758,2.903364310383974,-0.10553502483264987
280,-0.7982538561446836,0.0992591536768736,0.5794036970336081,5.9025442717527845,-10.744706981671804,6.98433047736702
290,-0.7208769381672036,0.06686949831922592,0.5816279512348203,-2.1281099283056237,-17.37170657914412,10.918358880077706
300,-0.664932993792979,-0.012991222224835298,0.519694098177875,-0.5290012352414872,-14.881894300339903,8.937060420301652
310,-0.6417791629185203,-0.0032926743185602196,0.5193344890490229,3.3084235354868303,-10.263325021943267,7.345449758758114
320,-0.6636365978242329,0.026767040077375095,0.5210897640986356,-2.28904201954351,-10.43743066473424,3.657437946510157
330,-0.6953403243071385,0.02505046977416788,0.5133599759211409,-6.416454619669895,-8.375982480637918,3.924777544120259
340,-0.7240241562764054,0.020096555769681015,0.5535289758782552,-9.54809196930478,-4.5815532460205795,4.649353445221665
350,-0.7193404721855637,0.03974874818379313,0.6311076373072989,-7.231708847913764,-1.788454507504705,6.109968023759708
360,-0.755630109089889,-0.00421294495426976,0.5789613092923761,-5.883765852063338,-2.520127118589812,4.750021981264258
370,-0.707915779177922,0.016767423804597045,0.5602733943543062,-4.436255510130004,-2.0370771941526886,3.7464980017273817
380,-0.6611629196692093,0.029324090938854686,0.5271299177440981,-5.212194504648576,-0.3823240283971886,3.079974392506891
390,-0.6263960644272055,0.07214782008314158,0.5298116489997469,-6.117256150008065,3.9051893064669985,4.58237010106847
400,-0.6229144089427088,0.07320387092087235,0.5636497105724252,-12.356969517012693,7.551734943446187,3.646972063143285
410,-0.6557692225423927,-0.016015364118809283,0.5366690180246442,-19.43921364494396,10.380582530703329,-0.8297039752713943
420,-0.5938378553543032,-0.014916625903173617,0.5586978265568976,-21.786298739551516,13.715894964293756,-6.417914713266579
430,-0.9161474495841212,0.05385954024645454,1.0502172478475171,-22.097308781840017,4.457032994237117,-3.028755956876644
440,-0.9345917591545596,0.02638380822057222,1.0750662495834271,-15.465853387036388,-10.198930951215377,-2.4596164654076844
450,-0.7177044898892952,-0.020182951773717102,0.5883058680631885,-5.7582145290590345,-10.651187279137542,-3.3321421496995303
460,-0.7440172412470316,-0.1758809476421618,0.45311220674991043,-8.707558296157462,-18.566542517872534,-19.801286584782844
470,-0.7103994979778206,-0.06430213116993677,0.4620409729823008,1.5436443347164523,-20.909744483894407,-20.927790373937654
480,-0.6291669964441565,-0.005151326667128744,0.6805039137246255,1.3943730852316099,-17.37816547419381,-12.186792712834949
490,-0.6370719993225632,-0.0958220549551189,0.6573548799157245,-19.22365035511425,-16.34124572182719,-15.264488259386276
500,-0.8487845792455545,0.09475043918708566,0.3820401188836585,-15.55220177982759,-13.956045698109753,-11.124695653313696
510,-0.8793092457303328,0.0880295434099217,0.44225629518827136,0.4435592527231219,-11.346262793573578,-7.469239426135713
520,-0.7459057772914574,0.08568096160034884,0.5673430912449449,-12.096395873080656,-5.752725161546216,-4.778551648299034
530,-0.7350455059206447,0.007263032134383594,0.5838976142138514,-21.903282173290673,-1.2232281109759113,-2.523374676121291
540,-0.6796360872669306,0.016317848922599208,0.6207778271926643,-11.066150937063297,-5.722940396146578,-4.206406497666387
550,-0.7063859941428616,-0.009606077616369734,0.585584543417289,-4.643964517909618,-3.3908438063976005,-5.180556360622759
560,-0.7553929436174255,-0.018451545433471543,0.5225373813963246,-4.943760364288765,4.198788066462522,-6.454100644529773
570,-0.7776852814216427,-0.02980765385971506,0.5011467585493753,-6.195199473438686,12.479058181938461,-7.061623443232044
580,-0.837023562178724,-0.030877321003570754,0.417917923674263,14.62277499975178,23.525051441202294,-0.40257095664897835
590,-0.8478331279303357,0.05094152935647353,0.4121462476927425,51.345381329067465,37.2499927074798,14.030199387666418
600,-0.6586205300166132,0.10753460629640024,0.7422943449907697,27.625494081477754,37.4793813074663,15.081204217830212
610,-0.620188435505517,0.0695960335139165,0.7293000819625737,7.363967492779034,36.425888262395524,18.318132286467886
620,-0.6062210777970288,0.1325279697263393,0.884156126726703,3.1995915821056706,30.718205695762716,16.684887004757382
630,-0.6518248405983611,0.06793770488960288,0.593072709921523,-6.140091732909625,25.46408969115145,9.229104854942488
640,-0.6580642298950214,0.011300902838241582,0.6536461205513304,-4.447408712653467,6.18919869209427,2.8691880694279925
650,-0.7244803956580012,0.015414362420606445,0.5537583628144542,-6.529119811248188,3.888603020681826,-0.20850073269768643
660,-0.7308272783026019,0.02005667482857649,0.5646167671487017,-4.058518764037833,-2.0961331091159385,-0.6293195371276527
670,-0.7058135235215404,0.03455168555339948,0.584137273044585,6.17439490704328,-2.3217498654506104,4.824844233368159
680,-0.7197624144371348,0.01127052424228442,0.5584170623245348,12.757018783884178,-4.897832194340953,5.842595437659554
690,-0.7225386594747862,0.013907052606053481,0.5701499404733704,17.46298034281206,-4.047786718145632,5.706865837602897
700,-0.7075355513300774,0.06754624953734857,0.6099441915111464,22.498718588286014,0.09557943032137106,2.719842857850658
710,-0.7769574523810272,0.17080192226336605,0.5698965449556823,-3.9927252205425625,5.9802832580001315,-5.376970945552658
720,-0.7850103035044025,0.14695142343676743,0.6531284209934851,-0.18907129983671078,5.456435532411067,12.849764286653686
730,-0.7187400376012116,0.052130500470385255,0.6369283288307988,-3.293204753133816,-2.961481970202251,17.843538674553443
740,-0.6185563003475483,0.07742875507167109,0.5525873000842919,-11.963283578805548,0.3179672881328715,13.503462918015614
750,-0.5673784515830345,0.15970262541026284,0.449274105224203,-25.564869334605646,7.587954313618912,11.988585033663467
760,-0.6108620948423116,0.033310196141956676,0.46322580018065074,-33.73839773348911,13.106612386589534,11.346364214483446
770,-0.7256659945140187,-0.3628221360579486,0.6107426912797876,-22.07342527551203,8.233584082508868,0.4227120300030701
780,-0.7338181886499804,-0.15578761105220312,0.5444546115587499,9.591514673968433,0.28401576476799284,-0.4935655311688695
790,-0.7019254835258685,-0.3751978045039185,0.6152355079669329,17.31108554651533,1.6715652828158936,-6.088011176113845
800,-0.6568293682425143,-0.22664969221531878,0.7831965227457326,25.499598113976663,-7.186792916129745,-27.669969377302454
810,-0.6738901232605139,-0.1428290791753527,0.5959266896456293,16.971800039751454,-4.979439294188514,-38.63670438924313
820,-0.6647776316875238,0.06064289170067712,0.8535619649457072,49.19182782848854,-10.745714702795262,-29.62665857527722
830,-0.7477098402511898,0.45761096420962566,0.5998341637428932,23.719972126038897,-1.745653027472013,1.1049718044868793
840,-0.6879791474267766,0.16815543870083857,0.5564727701743143,1.6037457087405977,0.018722310390074548,6.144391398133987
850,-0.7783485195317188,0.021024900086383115,0.5180955501185959,-4.66810389716113,0.5339216231613882,-1.9086330452778248
860,-0.7233137835561809,0.027177744338047483,0.5410673012326946,-7.439110981815944,0.06924335856654923,-4.454623330460756
870,-0.7306910283412492,0.024260283475983777,0.5584082833389209,-1.6673284932935497,1.7582932250218934,-0.641056806497265
880,-0.7100680379461706,0.05196017378537619,0.5735315989156976,-5.468279024332323,-2.3344056684316814,-2.0925342018471484
890,-0.7254198567200287,0.030560319125567205,0.5640649713429389,-4.0239716698669685,-2.236104541156559,1.471585023201635
900,-0.7169716225204424,0.04680921491613781,0.5579254502371042,-2.7335846100114596,-2.680656849280615,0.6589814261517202
910,-0.750831280419908,0.0122286279999296,0.525758286751852,-1.0980365850446594,-2.791810001640242,-0.27632813721414273
920,-0.7163918272263642,0.03523367187321799,0.5560198184812192,2.8273566109852,-0.6736785833020948,1.2010550637272663
930,-0.7158986432601517,0.03375559221698307,0.5666628033974463,-0.8395853037780703,-2.3142767478146196,-1.8740861074724555
940,-0.7076119788733272,0.052180334522617826,0.5738023279759684,0.17498185872972455,-0.19266705020135377,-2.172443216519574
950,-0.7151393748054843,0.027953224449062265,0.5612282562790054,-3.1064466672903848,1.074942562772118,-3.509085403620178
960,-0.7283729073868208,0.006279803815644714,0.5503347883009712,-3.981068911090804,-3.878274184472215,-5.827698716195206
970,-0.7208023234906193,0.011336348699534246,0.5573726898287946,3.9708005082541575,-2.1784492843659455,0.3407336892491113
980,-0.7140220016021012,0.02527755683759562,0.5668835657268161,7.019318789062375,-2.0222062753958503,4.2809453399917
990,-0.7221564708004459,0.030798576094902733,0.5546266650897791,11.702903845953907,3.106057163854504,10.038849236811126
1000,-0.7010397955478991,0.06750313819731146,0.5811190684743233,8.951296928033852,2.559942270241385,8.255772471873936
1010,-0.7189914487745233,0.038608397497992476,0.5488906046192719,-9.571387439442667,-1.719081257768209,-5.269298566848388
1020,-0.713587579469552,0.03275069782542689,0.5615948104345468,-7.603320887588078,0.8601978747727046,-2.9486988855303897
1030,-0.7182602282943864,0.024860988456086038,0.5633031448736461,-3.31382652349082,0.6326680533333918,-1.0560251508055136
1040,-0.7333610477142656,-0.004210712995365195,0.5381850311809429,0.6518112402404324,0.886629073098556,2.0509260906037547
1050,-0.7342325404828747,0.014398479485118642,0.5397831758848315,1.1908652680826686,-1.6232004763106826,0.5370990643616262
1060,-0.7066028363381088,0.04170318949107352,0.5697794168876671,4.21554962391475,1.0718813028437193,2.4486546147893047
1070,-0.7435890299997475,0.006898012933597982,0.5342994701402242,-2.502086894811955,-2.5860537178532788,-1.6885640148807095
1080,-0.7071686144579246,0.04546000096413457,0.5660069713172962,0.8114565449588347,-0.5151699011185138,0.41250992093952255
1090,-0.7014431082978527,0.06097143563933094,0.5769717950378239,2.4703796016370023,-0.06365702965993175,1.2675057484371417
1100,-0.7153745432850342,0.04469808000267403,0.5606745088664532,4.103698223315336,1.7583320300817258,3.56598186622547
1110,-0.7183394144225489,0.03700358799281932,0.5581034252628051,0.45612468627979885,-0.17806317037442862,1.5865069602545416
1120,-0.7266081324258232,0.02167721292839809,0.5456148960474906,0.5430229750972744,-0.33612724761068286,1.6279822167893767
1130,-0.7051729325917072,0.060506060536272645,0.5738032096845752,4.1207128094476655,-0.2980858965568782,2.5152538623219596
1140,-0.7141741083724386,0.0554064952450536,0.5632948775475717,4.986362705645689,1.167525686101099,2.5975885432767414
1150,-0.6968539033211579,0.0762609481869056,0.5932910713506798,2.8334224181255134,0.8105542611306429,-0.4441816809873523
1160,-0.7141152224768825,0.05073097711306673,0.5576188471807698,-2.618777033395276,1.6807095566920278,-1.3772494420126589
1170,-0.7200409121098326,0.03429494961616587,0.5600075190182999,-7.892448763747599,-3.0855183288639854,-6.034348521978927
1180,-0.7103650154991282,0.044736631569741336,0.5720631739060267,-2.3603548126402663,-0.6317145889049869,-2.7404049838772666
1190,-0.7241250508387784,0.025136626852839003,0.5531526272820758,-1.4420263590052835,-1.3867213986751463,-2.651396695048386
1200,-0.7011745565473331,0.04480174348763682,0.5730969939954575,4.621075374943846,3.1018228277693423,3.396343956375147
1210,-0.7324411826576863,0.025699837772526483,0.5461702842588054,4.693045233777199,3.2485159197755444,4.378362730392752
1220,-0.717095220332641,0.0503360201227345,0.5617720782272703,2.784813492133326,1.5323448887748448,2.845619273307534
1230,-0.7288155139663818,0.042567384140254474,0.5490199438660441,-1.8214217995888404,-1.7644549135112613,-1.2980223057431626
1240,-0.7130872629447608,0.05086751464136989,0.5671067944224917,-3.928531540624333,0.04878656081143523,-1.2864246424161783
1250,-0.7236171397234654,0.029899159432258553,0.5601174164874737,-0.04752194400079056,-0.20656433027767054,-0.557621958445004
1260,-0.7233184173856265,0.036046853015764886,0.5578078529858143,5.564427792044817,1.2461079617713013,1.3657869278560382
1270,-0.6974776055169062,0.06155186985722341,0.5801295985586618,3.526679850646568,-0.1904193159567213,-0.43599673959786994
1280,-0.7015629516293937,0.05878722581836007,0.5752500617472378,-1.887654873578274,-2.0573764453509273,-2.9475656521028393
1290,-0.7187323678294423,0.042989999568469814,0.5625241704900779,-2.973340923711879,-0.6336521998095749,-2.4054200249927753
1300,-0.701952825045103,0.05602589722810922,0.5794064248896019,-1.127345341240172,0.9980771870352615,-1.0948181460881472
1310,-0.7263373434395768,0.02708525459301848,0.5513854656406599,2.5970976363433182,3.0039044174699656,2.890589863067952
1320,-0.7143546764824195,0.0383121957666382,0.562374601481761,-1.6116632980903145,-3.177322224405736,-1.770462977369578
1330,-0.7163486886566247,0.040035271258708295,0.5612194401980629,0.12059096752645249,-1.7481781375379561,-0.7085979236750977
1340,-0.7369923640602647,0.015846909938923456,0.53825714051755,1.360764118381448,-0.7115337858694555,-0.48074917926913213
1350,-0.7215287221331753,0.031245301843160815,0.5537856309098055,5.608262308029872,2.578004605969459,2.19983543715699
1360,-0.7334394391211473,0.02575898273597691,0.5458841323225974,1.9842751726738739,-1.0650104985380824,-1.735519414246282
1370,-0.725954789713922,0.03363950668922141,0.5558559215781985,-0.5792612413272868,-1.307091218602569,-2.489809226911173
1380,-0.7078654138438583,0.05106219536045523,0.575127291485977,-2.09112558221154,-1.1202923816943333,-2.6015358581064265
1390,-0.7227031808740708,0.03272725164660148,0.5590621237809044,-1.8798907492860626,-1.879263011589948,-2.5653708155623174
1400,-0.7229561429286234,0.027749654979581012,0.5581394875858202,2.02918804936688,0.10104571923821923,0.9834087146188546
1410,-0.7496329558444594,0.0004518024244557252,0.5319133202959452,4.72436412521162,0.9519747601148182,3.055865753315558
1420,-0.7138601061975124,0.03644139622171308,0.5634618653765331,3.5097986399829115,-0.610898502265181,1.751666971338525
1430,-0.6984481763628465,0.05360598321507909,0.5774908928371849,2.6131829794895127,1.57503224871459,2.298042611614711
1440,-0.7503974648315554,0.0014227981865825926,0.5315852821179199,-4.116663071308087,-1.5038003991137434,-2.4475401173736664
1450,-0.7252661399208651,0.02368691325224992,0.5592064565206246,-1.0097433221706416,0.48370686681455377,0.11981388352680614
1460,-0.7030036538343651,0.043402184229325756,0.5794356952586404,1.5010327177777631,0.7935932505858286,0.9478290365104795
1470,-0.6931997517113658,0.05971606062818878,0.5853719652288006,2.9788224290494547,1.0779900928139075,1.7682172764122692
1480,-0.7063608991998727,0.05519021595636231,0.5695328816819996,0.9148652830388683,-0.7982244467459265,-0.27707132298830367
1490,-0.7095011930033825,0.04836131005904338,0.5675481032404641,-2.562224049070851,-1.5416548203440401,-2.0526361486380185
1500,-0.7244276676762813,0.03188202465928935,0.5531835394209155,-2.780517096843328,-0.7405183748873747,-1.3650178148109344
1510,-0.7200008851560541,0.03315047603136041,0.5611155730870855,2.5800787840710857,2.218211322089193,2.5076505067824613
1520,-0.7198520399651112,0.036744618608598456,0.564285190795733,2.623173611379517,-0.38279727654956097,0.683235763048565
1530,-0.7122303423584346,0.045879899991297636,0.5636860377011945,1.7897398808197904,-1.7381287613893028,-0.21025029409982243
1540,-0.7411704617417949,0.015453694260895486,0.5337505669316069,2.9406613657327743,0.5359862792123027,1.6264149199116271
1550,-0.7100763769656315,0.04286287173062196,0.5627539581932411,-0.6665401277984206,-0.6686921734098963,-0.5561022542351294
1560,-0.7036944873732166,0.05077005513755145,0.5697703928868403,0.05567767600660578,1.6942756688788094,1.0961423941732267
1570,-0.7259783807508059,0.029898721604706437,0.5515563391891954,-1.1253578102743438,-0.8882018791948578,-0.9724730022079147
1580,-0.7159386307183941,0.03616791341018154,0.558139078007509,1.6703989803759103,0.23937286878665343,0.5475645630687772
1590,-0.7053512655473481,0.05070946619074779,0.5703825407174458,4.661507824091812,3.2906086306161177,3.341317574926464
1600,-0.7086405512101117,0.04506190603539252,0.5688978319695461,0.28695243775735424,-0.0884432386176171,-0.3196250594619597
1610,-0.7310017335503495,0.02476024151165091,0.5473755159496307,-0.1895318562510352,-0.22758268006992244,-0.6326543150999956
1620,-0.7242263132249456,0.039205531528337854,0.5537955782133906,0.11505727284042633,0.9944107158063737,1.484785256963312
1630,-0.734561354642711,0.02266364771362582,0.5444035823350964,-0.7079049537451816,-0.2968572279969107,0.20034350107980958
1640,-0.7237239854895984,0.03907620297390144,0.5612265708132852,1.2721558709019094,0.9246738686030782,1.4372589775548534
1650,-0.729028630294839,0.03212425562223746,0.5569029000941076,-2.3805657010070274,-1.2522568789818191,-1.727519140920492
1660,-0.7187765755675379,0.040068152340768576,0.5578296713753067,-3.810968256992574,-0.937594216631448,-2.251059194498364
1670,-0.7090566639055575,0.04980949569585247,0.5753840597048535,-3.7599919320835755,0.15236997106530437,-1.5071590638938472
1680,-0.7373115831916993,0.015775191498454157,0.5426003942859325,-3.366865752533093,0.3786877737428914,0.02275552327929037
1690,-0.7281404384773402,0.01599847766394123,0.5449780699350537,-2.8919395409436337,-2.5571992356290205,-1.6671839316652792
1700,-0.7451499625312111,0.011958679870145827,0.5263281100822694,0.09630263175103382,-1.6679161824389381,-0.6126603585979127
1710,-0.7296984327351462,0.020762026606500734,0.5495920282930186,0.34278376932623417,-0.4623897168093816,-0.7957598767323217
1720,-0.7401401193357869,0.010620093240039916,0.5430752432680829,1.8222815329401305,1.7881537726799928,1.3035870098226991
1730,-0.7215742120737684,0.037098238196230836,0.5600014224678518,-2.1064044557868975,-0.37824292914750296,-0.6788855551634831
1740,-0.7716830782306552,-0.0194637411868478,0.5053914173970293,-3.985000446868019,-2.1214215042518427,-2.8465100622346897
1750,-0.6897693833918259,0.05935566194229282,0.579714697316462,1.8287568386367588,2.4399784388428003,2.7017349566236692
1760,-0.6994662642695743,0.0440368883245833,0.572429546716383,2.209262531897106,-0.061368862100038224,0.7268885882241052
1770,-0.7091288046533394,0.0365002415917559,0.5688243687643418,1.5308289489596425,0.13338167616900196,1.0706471875773769
1780,-0.705139536014854,0.04475747529782323,0.5728081128221293,2.919316364353053,1.59479132614758,2.5136056494836065
1790,-0.7074537327012372,0.05195022376064117,0.5675817624628603,1.5220239098045212,0.4694081839333826,0.34303011175640874
1800,-0.7304040775960949,0.02022779382881771,0.547733857784535,-2.627266380015145,-0.8513747440853751,-0.9638891716609321
1810,-0.7420673106053923,-0.0018495868965103385,0.5362753075564701,3.006260646523106,1.9861400507884386,2.8894125890497246
1820,-0.7070467426611127,0.039502818088828016,0.5724917810720117,2.1346441699736274,-0.02187266950002971,1.6332286783777024
1830,-0.7332886567934541,0.0180814989955086,0.5447997644974236,2.4794989070341527,-0.804031268250089,1.997776139394651
