time_ms,ax,ay,az,gx,gy,gz
0,-0.7757354951664055,0.5633767728863426,0.3796829167461337,2.377562078537577,1.6092307579671854,1.6406443953613743
10,-0.7854216045254552,0.5622046830301766,0.37828733070906195,0.7852066217381742,-0.051650599917418515,-0.1413903952484084
20,-0.7474962783650165,0.600859855528412,0.4147135606517859,-0.2300965800802135,-1.4452087321451652,-1.3169659042459056
30,-0.7550281293838083,0.5926531806402463,0.40325385092868665,1.1163929651186226,0.7370575014451004,0.21064029160205167
40,-0.7708744394037502,0.569904775436574,0.38569499407974994,-2.4429338292945855,-3.2253805871681847,-3.2035722273174456
50,-0.7657422998581888,0.5808876959953144,0.39737785041042245,1.9934065495193862,0.8291276385191607,1.8750536225134147
60,-0.7779557320742406,0.567990498741995,0.373824322623139,-1.393945183468329,-1.7245143551098936,-1.5502830388788185
70,-0.7733366869073328,0.5715146318299351,0.3849292975391184,-0.13068515075736986,-0.702764096858812,-0.267515382854014
80,-0.7766582069203258,0.5667089316776951,0.3805820790575282,-0.9530563105370741,-1.8552575003646794,-0.8364264092505617
90,-0.7862377257463549,0.5624180045561518,0.37326770336741016,1.212622138474021,0.052596396295116046,0.8662125409556574
100,-0.7490683512945064,0.596615660481095,0.41032310518800896,2.108309106114869,1.2610679954825272,1.9501000758526574
110,-0.7567750968204997,0.5903747681149695,0.4044388966880829,-0.46508256090558964,-0.7294121667195596,-0.5404762134146652
120,-0.751612507675173,0.5945025494169129,0.4109552506359959,-1.0239812050544927,-0.6011415250791119,-0.7478643086898001
130,-0.7443384179932998,0.6010708978669721,0.4179831285456639,0.07633538676571894,0.18940110838453264,0.6006111142989404
140,-0.7864002655962854,0.5602535999734027,0.376779335853082,2.6550683828551453,0.7080656990700696,2.560085919606945
150,-0.7628503423698405,0.5853538108517886,0.4021313215207502,2.323419568972694,-0.9753839802556019,2.7433827734309446
160,-0.7744067839447063,0.5709008416074765,0.3913065686416914,0.8951236658493276,-4.004382922149187,2.3710061437590664
170,-0.7508087461170688,0.5878850729999346,0.3808361044084199,3.356527172488469,-5.234353657896781,5.050409231135536
180,-0.8831275530113235,0.6209758812461,0.5486445440099125,3.453620665161032,-23.537821000767668,9.886046960879629
190,-1.046146705884976,0.6169809056081612,0.6908021517189302,5.6978506077357185,-57.35479851118786,17.81404623951236
200,-0.8762007992818479,0.6236447332397526,0.4312742401908088,2.3305592871648453,-80.42595751203072,40.49296965212974
210,-0.6041311685964492,0.7172911127663113,0.30047928642735644,-18.971391220241834,-88.11167160706098,65.73556655083493
220,-0.5494413610968448,0.603287159469022,0.24699766020399921,-18.044815827695253,-58.52690914064913,62.90559098732939
230,-0.5312807690143151,0.5356959700514442,0.2858027113050767,-24.948860810624126,-35.12398185326911,40.476139392726004
240,-0.5896619697351759,0.5142089461925662,0.4345116391361699,-17.47345015072852,-13.868476917237262,23.448057759200488
250,-0.7218850046681239,0.564813044462691,0.5161028963651874,-13.14391664005019,-8.296698802306024,11.795762710062778
260,-0.6870346121270965,0.630158632022904,0.5584259878663722,-11.80196166877979,-6.175235611976923,4.55534204481259
270,-0.7330927242250825,0.5879056117762085,0.4402430040781932,-12.962377285153806,16.269072183749593,-8.263148283443979
280,-0.7671539536030352,0.6065497923774094,0.5463913567414429,-11.404370979265943,19.182391533174297,-5.1289280612500185
290,-0.7688554300194878,0.6130307195487587,0.5833000527936677,-5.976305520135177,15.661085703175644,-3.258206690358222
300,-0.7544163846105675,0.635370919157434,0.5592374738153506,-1.1234418877147128,11.84715644493616,-3.4137211732511545
310,-0.8023106985853913,0.5631431411860242,0.5367572724161348,4.69844941651516,5.343009603674365,-6.192874305033208
320,-0.7591859791369219,0.6339640888825119,0.4765771814989588,10.26543770962271,7.279874931222802,-7.618153726928242
330,-0.6962775264939112,0.6800355561998781,0.41244861501857416,-0.27572108121057415,14.128478069071368,-11.10952678951095
340,-0.7062232354600625,0.6395170985669131,0.431375321436778,-11.056894440976023,24.152075125001517,-10.87224195417162
350,-0.8146669527310495,0.537434428502067,0.5125633927881459,-10.285431196938122,25.95432596759001,-18.63400652223619
360,-0.9127402204386394,0.5895147382410562,0.3401825536098235,-10.451299586014011,1.2652784998570827,-13.816238108970916
370,-0.7958544684673956,0.5850808766027338,0.4243239922004825,8.621326087982402,-3.3350174100830308,-5.677904866383041
380,-0.7605761339838364,0.5794031637989984,0.4592873682410658,14.000576040467816,0.6452422234971986,2.732602656646323
390,-0.778545164659888,0.8886998738846784,0.8922209716666768,14.277870707898474,51.159645286711154,-28.319613575670274
400,-0.7553406173535042,0.4773832031990392,0.005047903683449885,15.955501134226672,55.00820752510178,-23.002976437012418
410,-0.7548195578736566,0.6271231185361295,0.08528756480361327,5.208122418136785,33.422113077711685,-4.76536461992989
420,-0.7219963133653122,0.9118401414138841,0.35604664436810823,-2.956936433927464,38.464403508340965,2.98661026266151
430,-0.784861176065126,0.8202725946464129,0.1974481098404451,-15.391466861230892,36.35971011679042,-2.140376490293703
440,-0.6514908723833948,0.6121605679479625,0.5976849802651798,-9.961454568597365,43.12441641544062,-19.63681368770488
450,-0.650058452899679,0.7007570839443726,0.31627629739973906,16.41902652875366,54.180372155465115,-19.0172519977952
460,-0.47514348195033546,0.9567265340210229,0.7039878498849501,-36.5585291853625,50.14016006031247,-21.87188978171607
470,-0.4636663625512357,0.8155777205057229,0.7955329839658727,-49.0714329726162,42.9490105780924,-20.11821167999095
480,-0.865926912962551,0.6808875571454003,-0.2793739747490409,-24.177443287329442,39.9864780606859,-15.265506686184175
490,-0.9813519803536018,0.6768032019036604,-0.556140889338239,-35.48221457628282,38.13436063465048,-13.347235161064742
500,-0.8534235959249289,0.5508068140329041,0.002178317536692477,-14.673781016826757,23.114271703916746,-7.108753040349729
510,-0.7712356478533,0.6340365693335965,0.47211687482592507,8.731394099277972,12.29504216910545,3.0489332371188573
520,-0.7991201926374396,0.5345621853410584,0.3867659209223814,-3.0591274065741203,3.033864806038212,-1.7394705216528834
530,-0.7706959064845752,0.5698066723837478,0.32953304981867015,0.4377783129833541,7.259526716852289,-0.5736899107086804
540,-0.7741678317529552,0.5948508483304759,0.37030770213108577,-0.7326527927720307,3.096735197944591,-0.08898807260383268
550,-0.7702668485650035,0.578797864655339,0.3844067437478217,-4.327829006931719,4.026221758373101,-2.4332263700705035
560,-0.7377077589213074,0.5619972794400538,0.6061591352568526,0.26075984643114136,3.531623963839884,4.20299888380706
570,-0.7893558374014928,0.5380119889019475,0.3614275131556152,3.812968775417628,-0.7795235001377674,0.9772537640418766
580,-0.7762894605896117,0.5941359721780681,0.3609595977452973,2.3412336716691,2.088908428421823,2.539484881868748
590,-0.7863209100072536,0.5749273242081093,0.35553641780384726,0.47014119997837445,0.5830838931437939,1.1547406855187048
600,-0.8015790455365485,0.5532446767086358,0.33643523675359366,-2.2846588802728753,-2.3570611212953176,-0.9473035321477458
610,-0.7558996504584885,0.5965552644123752,0.37382804914002554,-3.0621467132349593,-4.864438053093432,-1.471925865861881
620,-0.7918837288353702,0.5483980654151073,0.3318622920145989,2.2349741250410684,-2.2728296013493194,2.527642438136591
630,-0.7744384677400845,0.5902688329244771,0.35991714631307553,2.5313873398347244,-2.450434310238607,2.014768453933426
640,-0.8167335686088745,0.5360507494560678,0.3138587208002727,-2.5034480225235884,-1.540818386209091,-0.1122424291587867
650,-0.7575792210336846,0.5924060803028485,0.3737020798940622,-0.5847928899063366,0.12265985250634992,1.6519909941547541
660,-0.7712363803516958,0.5798118165751358,0.3645139624256665,-0.7304595924701055,-0.40205111894000056,0.8337218359472764
670,-0.7830746258434914,0.572762414632529,0.3488974563837098,-2.9009427381635224,-2.328738950073614,-1.040511660453673
680,-0.7641701810097211,0.5872686869922862,0.3642784802381389,1.7038691083622752,1.8843803931754501,2.8850235196096836
690,-0.7689400387424858,0.5820971766809941,0.3609883830361328,1.070111261418417,-1.0149573162713241,0.715155488230689
700,-0.7768729083569912,0.5805364439819128,0.35509004772173164,0.629184846366318,0.40543144121396785,0.07027998339667396
710,-0.76699290891199,0.5882124084278685,0.3669055080857646,-1.6886047432460458,-0.49208126392210966,-1.9192558476432955
720,-0.7847048661938871,0.568480155696932,0.35570625157600383,-1.2226103244267892,-0.48007786506865063,-1.085153803188774
730,-0.767844408836807,0.5825149360997764,0.369552915596005,-1.9557068203663555,-1.6695000368695112,-1.3132434878651336
740,-0.7770402231430732,0.576879629330008,0.3551772295806311,5.595638012148731,3.2010563945816872,5.0912035773305
750,-0.7745432254779616,0.5854425306680262,0.3574799043806414,4.073049632743388,0.872394868172851,2.873681910057921
760,-0.7770247497694592,0.5847384549838374,0.35850150686383253,1.3034460649034219,0.10085363670178032,0.6654185559562504
770,-0.7925557588254803,0.5659602998753009,0.3433590196830857,-0.28089326018146954,0.288130604276818,-0.06871601881422551
780,-0.8029315827199227,0.5536535309448078,0.3329436683566084,-2.8054953539406604,-2.0246347468358743,-1.7655552342635212
790,-0.7852434124469878,0.5667668437293912,0.3506810767110118,-1.2946336843867585,-2.30107477739523,-0.19855578253555484
800,-0.7729549137250729,0.5812570799134054,0.36169562121918764,2.2203839851806606,-1.0968395807881466,2.050697134304068
810,-0.772797183380702,0.5918214767732101,0.36208750148713637,1.6322280066119963,-2.1719320816913656,-0.32032982964197987
820,-0.7825184195347021,0.5752988010059811,0.35268776259337636,-2.1447589200499713,-3.1577657575168336,-3.3099492882652926
830,-0.7755843515688824,0.5696853521538541,0.3602509052643549,-1.7899219791500043,-0.13635528829353394,-0.053543183896479274
840,-0.7854668994093141,0.5658280307485721,0.3489567426020344,3.083397039889523,2.6374538251061113,5.06402014803095
850,-0.7576876497926943,0.6040787075244097,0.3726202895328994,1.1313415890899474,-0.9173734506830941,2.207905741511515
860,-0.7709428801423122,0.597026120284109,0.3629417266213154,2.3410928007541254,0.041114062977293,1.5092489445482353
870,-0.7802809155266258,0.5829611628009321,0.3491176068482996,1.223898645314375,0.12540730044013493,-0.7024436040100552
880,-0.7881485778456958,0.573849926469636,0.3473392999489978,-0.8523705696052435,-0.5557107936293708,-1.7406639244790079
890,-0.7867258479432332,0.5732400614913896,0.34998962207600076,-0.9954984879422366,0.7036854627258522,0.6144455431395517
900,-0.7789718853101676,0.576155010137785,0.35732633042807066,-0.11604107612111084,0.75931591341096,1.2345858774921852
910,-0.7461047673127138,0.6108178327662801,0.3871896337952225,3.4688543386022546,1.5457094188231486,3.116592554469278
920,-0.7577741398160301,0.6083445855611807,0.37623139640389186,5.778750815175342,1.5427210440024457,3.4091312428074163
930,-0.7644645952554779,0.6062273297330395,0.3706033917063186,0.8720246662970492,-1.4641249446621303,-1.914360262914634
940,-0.7788009558257969,0.5816455634144433,0.35726237823337004,1.4791314577714525,1.4512599948832958,-0.40625790272649853
950,-0.7752173396680883,0.5798841601226076,0.36317774679964954,-2.6481794075518046,-1.5292633888119167,-0.7318748999038642
960,-0.7590828166279844,0.6022951972277929,0.38178949840504806,4.447130954253514,3.053241618661917,4.856266580373107
970,-0.777743227638485,0.5910357477544246,0.3577580751824759,1.2415421268531541,-0.08030866692052684,0.8761244819456222
980,-0.76756953781515,0.5927332011502784,0.36339620251707744,7.040872805904135,4.6231152143235645,5.308463725026255
990,-0.8137910242631179,0.5539997385365991,0.3248656522467537,2.1757075442803346,0.47229917228441565,0.8313827250912307
1000,-0.7920067181501544,0.5700468052752095,0.342446843581564,-2.0983313690379317,-1.5245754463644137,-2.5517306237660202
1010,-0.7620986803078996,0.5923979671568916,0.3767225873267098,0.2837466985510934,-0.0074088824652515095,0.8593558485529338
1020,-0.7769785302113683,0.5803621495804145,0.35687319916671395,2.534043364921635,0.10510296910789768,1.5791589377045612
1030,-0.7692389920627433,0.5988112179397849,0.3651506841166821,4.276988687693914,1.998933069684624,2.5797715362017835
1040,-0.7601375530233075,0.6085490536621662,0.36887068176498633,2.7345558931276335,1.8839155149317461,1.0865699830666693
1050,-0.7658451689849793,0.597637579910775,0.3646513847987671,-0.5851749041684837,0.7926233553669688,-0.7245224429987229
1060,-0.7954382087828323,0.5639826468014802,0.33745678825505054,-0.24131053987036122,2.4958559470362474,1.2824060217734912
1070,-0.7904540284325058,0.5730956311640281,0.34802810269332934,0.8584113821550009,0.21842791899234595,0.6152006121056217
1080,-0.7778576984719341,0.5890742732327928,0.36075939401965396,0.9069781655592217,-1.4378610556539293,-1.663598479922732
1090,-0.776968552783543,0.5843414365573281,0.3571877358100142,-0.9958544092878128,-2.5199314714944303,-3.9582886470330534
1100,-0.775492227075233,0.5827658626318979,0.3594092215919181,1.887186815059391,1.3259655151847145,-0.08038014424104867
1110,-0.7926750259317902,0.5686455745387345,0.34476032980510485,-0.6144146350414378,0.4219162557904921,-0.5397574285035363
1120,-0.8108509379716772,0.549175415181135,0.3250081868014416,-0.21100793483637503,1.6647525693711782,1.6198274070367606
1130,-0.7534722641728908,0.6101595537793023,0.38132304928513433,0.7835413846957549,0.8449329979916236,1.291384563405615
1140,-0.7624311526314234,0.6070202643954888,0.3717522764237556,2.3993643078334634,0.23979619982332434,-0.16567930531692576
1150,-0.7814368382487361,0.5810967425051824,0.34994784562030246,0.5401092811856066,-1.084994029233786,-2.3732844568844595
1160,-0.7952085602179416,0.5682020458501713,0.34210188060685104,0.7239941687011432,0.48097478480621514,-0.5436910754474904
1170,-0.7700183516593624,0.5937909777367165,0.3732386682405434,1.5961506670693426,2.681616949102244,2.283634041606523
1180,-0.765768742838717,0.5963933218147028,0.37140959843885846,0.35321317337814995,1.3412771136657553,2.1449133320636857
1190,-0.7650601312576037,0.5961654022976148,0.37297284254967517,-0.9158160080568454,-0.24113531444919312,-0.09075416884014853
1200,-0.7604293829454495,0.6054811418870172,0.3788687934830117,1.2371453457307466,1.1542182913549557,-0.9473459743578563
1210,-0.7738374909079746,0.5844544035288838,0.3570112947108426,-1.8344662649803678,-1.6370688956229873,-3.208887908089679
1220,-0.783169946831133,0.5735041729851038,0.35557966767166765,-0.7742952373409793,-1.2061444014489506,-1.4626413664344218
1230,-0.7671426345132276,0.5931685287688204,0.3704371669853378,-0.7054564438845883,-2.1775155107756596,-1.1657043324413017
1240,-0.7566944147671479,0.6039439756280927,0.3776196589719438,1.7004219939056622,-0.8056383641949089,1.1333159557507697
1250,-0.7489961140332015,0.6203273495033584,0.3844642805765188,2.2815325840110736,0.5622531807845468,1.7886299987156744
1260,-0.7902618486119043,0.5763937969590798,0.34910767470899057,1.5329156934355217,0.6612725751589413,0.17719814489339425
