time_ms,ax,ay,az,gx,gy,gz
0,-0.8316758189851551,0.055427938450368225,0.2485556070810597,-0.8976482102627534,0.40313365720210614,0.13752348093506206
10,-0.8137218073051254,0.08382528051633119,0.27985485875807,-3.722910368829937,-1.772048689031009,-2.1752763970164013
20,-0.8316865994016561,0.048849982417652225,0.2350784788359179,-0.5790547826577174,-1.3398721746132765,-1.1846177594569416
30,-0.8026729384923674,0.10345011066490542,0.28810479493326635,4.203686727900527,3.1075371011415114,3.4886068549350875
40,-0.7889221077609354,0.12447002143831325,0.303499103607806,-0.022998295594096052,-0.4408754907532746,0.1432624860403836
50,-0.8059854284996628,0.08771854340121225,0.27992452962105147,-2.345378013580091,-1.4159004270969606,-1.4094554862562976
60,-0.7989138833415691,0.09193329261125815,0.29686724080173854,-0.7968751296403802,0.9635971220414707,0.2939038126225166
70,-0.8074194262598433,0.09047633497724852,0.27542056216875455,0.6249875864626604,0.4177207878155037,0.8895410964524412
80,-0.8378673759477118,0.12775744571979325,0.2939995241305058,-0.42400598318814975,2.0689080769861965,2.6402956875070136
90,-0.8200438641361316,0.06843955962034555,0.26659715585815313,-1.4574626082686215,2.2928485082199277,1.6917090720036738
100,-0.8004622189851017,0.10777124209809304,0.2824742646820652,-1.8204736180014731,1.4486277879521796,-0.3061867066965931
110,-0.8262673787083347,0.06033252882157832,0.26395652309674056,-0.4106622353394195,1.419072544823095,0.5894484765637755
120,-0.8148151616045394,0.06575641484406106,0.2693067724076687,-0.8131924159754005,-0.42630623746262764,-0.6907415997092404
130,-0.837347977649871,0.06838412590761897,0.22967870913023736,-2.9231083658643686,-1.1019406900353763,-1.5194297984433525
140,-0.7664173609530583,0.13470029279704435,0.2945228290907381,-0.748778668947248,4.149746887662057,2.3195135280544377
150,-0.8000518986275355,0.09335968404261687,0.26399049636190514,-4.1721014042679005,4.037376349686964,1.761859809758324
160,-0.7978375866852195,0.05545603347484507,0.23364695310127295,-2.763735697691625,8.027525248983551,3.867825068650834
170,-0.7840043702056719,0.1029540833484586,0.2821299507838159,-4.649151342246749,9.493131160054048,2.5670539882302448
180,-0.768447938896167,0.10048244022537074,0.2568336756397586,-9.531324928958666,12.933890957590942,1.2439377598095138
190,-0.7631876886438022,0.12148912362836244,0.2484813963853825,-10.595231095312323,16.268566178313947,1.7863532614905604
200,-0.7538882039540727,0.10483637124429109,0.290525439767524,-18.655291190650942,15.433108188081071,-2.1165895336987406
210,-0.8639053344226404,-0.02114320431218804,0.22896869975589224,-19.949020317849104,8.071716672448833,-6.661483369684783
220,-0.8157056284621346,-0.0462874336735454,0.31375146351829225,-19.981588524531947,-2.8843805441116332,-13.040213994522048
230,-0.8592510772148888,0.027122416729811916,0.5366303454705459,-20.21433405374823,-14.417445847511853,-19.366632065790537
240,-0.6972695915154565,-0.21634618287887752,0.3651875904640338,-11.206184777980425,-23.064423466183364,-29.171298264540667
250,-0.7564822822892253,-0.08299842663635484,0.3636616659559846,1.718003339473527,-24.56026549150625,-27.400567853010138
260,-0.9021912921524731,0.05949594352121873,-0.11268574107143986,-21.270508932229,-15.268756090823178,-10.776749248308256
270,-0.8591781026529575,0.1120081363048479,0.03609506140910056,-1.5110716353368128,-6.030137608708481,3.714596533325136
280,-0.8482206757572969,-0.0224950057762187,0.24069794397236877,6.823331405622269,-1.1850530016044307,-1.7932781214711215
290,-0.9069685256946651,0.05069760164693198,0.1046886711959394,22.61973264685847,13.306702850523294,-4.84584571461814
300,-0.8116181846486376,0.20415384585214238,-0.014734934376245186,17.08757450057188,33.239116762518826,0.10877543450767024
310,-0.6091058921150897,0.22604524559509312,-0.0317316505440277,-18.062853688407337,63.83460000214818,12.301612153971632
320,-0.7418255402673356,0.12714985894109618,0.2325257693920408,-1.4657784050172817,32.19573533479561,13.41332777727823
330,-0.7338554348409128,0.4953837279693708,0.5087893091846062,16.582015650144818,25.04618728465598,25.749038905942548
340,-0.8183081208337435,0.059563209256995354,0.2972686459952757,-2.2128153306430356,1.2087274875304992,-5.647081657342895
350,-0.8357088413843071,0.05558979343149471,0.2526519673132548,1.2870066008342183,0.8250225713644331,-4.8864974055160895
360,-0.8034753498495786,0.09345523917721454,0.2804309930556371,5.749494269800279,1.849296097819599,-2.1851184548630456
370,-0.8262741683586725,0.05286792025143808,0.2583995212766493,9.384279313966534,0.1061991682767614,0.8014788642413286
380,-0.8228664239744732,0.05436845888664358,0.25045979807972724,14.983127993793019,-1.6349573821348022,6.17770745760678
390,-0.7774304613155133,0.15240100945683852,0.2656647093482566,-6.390673650185329,0.8123214416202893,5.971308306487514
400,-0.7502913863089897,0.20771684267668228,0.24035457165680213,-18.65467893234983,5.1755281694542346,7.630810914046233
410,-0.7667018839918308,0.19858818400459025,0.2188366248501888,-25.952930215402613,4.350554768023156,10.72428863989402
420,-0.8575468952878652,0.06276646270796332,0.27146484744430877,-22.679525075771647,4.125537954512343,10.375744862809505
430,-0.8778897244318841,-0.13188866271671904,0.26801300225540986,-8.660616867474783,-1.1565829522017936,-8.341434745007325
440,-0.7868515097381007,-0.1574545923456355,0.31762577321380736,15.781571288389722,0.8387228047218127,-13.341183420363375
450,-0.7228178257208175,-0.09756628990057536,0.2524417696983852,28.96663762653204,0.2017622316718114,-18.974292057278078
460,-0.7194127730715981,0.09108891062943031,0.31745832707739735,26.14265244308167,1.1123619288942177,-8.069915314076376
470,-0.8082750696623853,0.14320012551823103,0.11800830584746647,13.769930696518564,3.0450902417448047,0.6066153938067733
480,-0.8374139234262137,0.3387829447569057,0.25986759571222406,9.80581231589109,-2.205606667339195,6.8181618990656965
490,-0.8015969965387336,0.1985283785084444,0.2364017272624284,-2.1000101152551265,4.164750179146954,5.491980795589308
500,-0.8492344582167441,0.04174187313893861,0.23919539807052362,6.375618020307479,-1.4502473195898307,-3.766296665596842
510,-0.846187337759532,0.06087453603906906,0.25479476143848523,8.268050057712497,-5.29090848925596,-1.8332693406947067
520,-0.9566364437455201,0.03784172005200918,0.25427105221300045,9.368649335408508,-6.8245035294892755,7.713287588394588
530,-0.9886259605470904,0.05362554027049778,0.2574956230688825,4.203728748381591,-20.75983189184374,8.944211478814834
540,-0.8789792482098749,0.06030704737700786,0.22027942503610415,11.409278146854279,-22.601562726831247,12.372255267767137
550,-0.7780887528358458,0.0656205039612288,0.268938953387424,3.9345630161586613,-19.423888161065392,10.10316385235361
560,-0.7220295644344874,0.03234827863319979,0.18659878807869537,-1.4706288013770574,-15.514807058464612,1.2117457875534992
570,-0.6905885849188824,0.08064457474622233,0.1871672351374455,-1.3547942953365568,-4.1641182138278054,-3.5942489219901295
580,-0.7019739549914761,0.13558819919214726,0.22577996111004148,-6.845669821138628,2.825099987001957,-2.543503497722848
590,-0.7998466551161197,0.04763228027006833,0.25829221604223945,-6.612728304588483,8.33598841419197,-0.46852983221024225
600,-0.8613339774004101,0.04055391533791663,0.2881449571704126,-2.1423741360770103,5.477595758997431,-1.5743122457843781
610,-0.7552500138699307,0.07776915370461729,0.22244562251299982,4.211106698451457,1.2940605839039692,3.30787148143351
620,-0.762944818957956,0.08481990689543878,0.2585627587571384,1.5903406223299672,3.656981193689271,1.8614095189255364
630,-0.8206090579895308,0.07084240531900327,0.2960450893235944,3.8128200340051417,5.697653043767868,1.905132795425252
640,-0.8775998726263378,0.07924644016597997,0.2879570667171473,0.6031441665640602,-0.6185642551175787,-2.351574665057495
650,-0.8511255994924469,0.03853265798176955,0.26157608318635184,3.4718876148760875,-0.18894874982512366,-1.0484959967815746
660,-0.7871021356222789,0.10036234866763603,0.2594097380999773,2.122315242543351,1.4216631791515735,0.5098429878269215
670,-0.806532118089965,0.07462048383227858,0.25030990850136536,-0.25711338282609103,2.4498663379782206,1.3468095876823523
680,-0.8354127838512521,0.051544218849307294,0.26639655143135726,0.08309429518804679,2.9903200065521762,0.9822540046590247
690,-0.8453915655551593,0.0676867046304338,0.28268215745837044,-0.9003423208118773,-1.8382798261961157,-2.246446149581026
700,-0.8271787582047823,0.08027586847357693,0.2581840317597719,1.8890554160732558,-1.4065727472151601,0.17583478792004137
710,-0.807951230466064,0.08845398572710572,0.25945201520162114,-2.074795975476,-1.1003855150590909,-1.6949796145557467
720,-0.8636440973714724,0.041013022390519675,0.24047630250382265,-1.6558046805848425,2.255180787786222,0.5951072971168009
730,-0.8372433661508234,0.0777374404863821,0.2986745162263937,-0.7254361235705022,-0.18671323616705388,-0.6211164248658639
740,-0.8400813246962514,0.055073173210196905,0.23747541988767884,2.2334314075677537,-2.0939660257583643,0.271143839077624
750,-0.8014066382538668,0.041941462243885556,0.25414255303318367,3.78116220624222,0.0879671473018655,0.8595530955063929
760,-0.7902683620779506,0.09101950128469778,0.26750760694371034,2.1697458107538488,1.9846068964300891,-0.31580342071326695
770,-0.8313960293370952,0.07909128571659159,0.2789496431285719,-0.007744924750312077,1.726607867891841,0.9319978027685234
780,-0.8250250467290522,0.08385599122575296,0.26850508271592605,-0.9288728967525398,0.03679545211454538,-0.09031372457086129
790,-0.7982620736946786,0.08805417651691509,0.2716868355948936,1.9770680236658604,2.400000382999669,2.4705059687094235
800,-0.8009522170781797,0.10391768778003864,0.27243061247560846,2.3763790797813487,2.2387739264080517,1.8423163644941205
810,-0.798580308291979,0.08517230359194283,0.26650441798131486,1.830862681041864,2.42370967970415,2.672195956978581
820,-0.802730929774815,0.09668554984398846,0.28200918727444113,-0.45385655248165774,-0.13270686142035593,-0.3623207917319283
830,-0.8179261979423494,0.07894967334756531,0.2565408203008555,0.027105935166134465,0.3506034550529509,0.153827587042764
840,-0.826901639159379,0.07751981914292456,0.24277528022016956,0.8693397748049653,2.3096800504668424,1.3596216892957471
850,-0.8129979058514236,0.07023684610636248,0.2675198964494437,0.9426175342777665,2.684930434113549,1.9834873904499701
860,-0.8179767546239283,0.07431984647393136,0.2799398351708956,1.8155672612905576,2.8777879643719526,1.937191504189565
870,-0.8301437301344234,0.06713502283255754,0.24510794566815242,-0.06512968646734618,-0.41183928656968904,-0.14392755750326408
880,-0.8090616062043917,0.07929000402598235,0.2522434150143621,1.969564728838685,1.3287533997334964,0.40968918132336984
890,-0.8086003334928468,0.08309473370370166,0.25831192188920427,-1.970527601611936,-0.14167070479157706,-3.0528370939648983
900,-0.8273422713758941,0.07699658616769574,0.2622776656485293,-2.999271537580834,-0.29036315410280467,-2.8110515994004865
910,-0.830797864886871,0.08068194681671528,0.26484769916191836,0.9779639332554564,2.761661372306301,2.7248534422818533
920,-0.8432885983602977,0.05625227066192735,0.2646945343130714,2.001577936896082,1.497925825078122,2.73454537680126
930,-0.7809428215439482,0.09616841639007796,0.26572327362189174,1.023913242461857,2.151864010431077,1.0594196978506845
940,-0.7965055166248787,0.09949860256792892,0.2816044535591615,-0.21655638059321913,3.0173548787676494,0.5761420691487512
950,-0.8152147309912752,0.096750586277767,0.2874006116367969,-3.3826404254108775,-0.558270131166938,-2.0261297481773584
960,-0.8330816125735381,0.0640952331074908,0.2698328229966746,-0.5602461768742419,0.5623123979722293,0.17214695801569446
970,-0.8511867926287968,0.060989387695711,0.2652480223993,2.4806010256284807,0.06944580247822996,0.9964743503972036
980,-0.8170472939081594,0.0799839542667713,0.25490588765617384,-0.17036445854117482,-0.23360691431741304,0.1387568004690401
990,-0.8092859512803713,0.060361834771859725,0.2745978998583807,-2.504400979180839,-1.1603975843052279,-1.7791855824832619
