time_ms,ax,ay,az,gx,gy,gz
0,-0.6389298118434612,0.07584987491996695,0.725811400822674,-0.3776192719850363,-0.5189358280561978,-0.17539657721020574
10,-0.6424901632850307,0.06931477048664272,0.7279407981162802,-3.122784773400137,-1.6360401719226862,-1.3295071043820783
20,-0.6189354164501039,0.08948434557588127,0.7468309458611392,0.07819563966358523,1.5468131947872688,0.8522205141933721
30,-0.6262536120124957,0.0816229009934217,0.7407049888061149,-3.2266075675873465,-2.4698940458460097,-2.7520532601292422
40,-0.624984921977544,0.0841524953563922,0.741498921703218,0.1984092561632378,-0.47626629667528136,-0.32653541971694555
50,-0.6490564978936141,0.042062131780925854,0.6982103689972201,2.7241061242184337,1.9320475849871213,0.8436736520630881
60,-0.6343568694429572,0.07349814561702099,0.7311906588457736,-2.645696008104791,-0.028709215529712173,-1.6167898881951683
70,-0.6100105775389298,0.10101770150236267,0.7520153982523665,-4.994795443717762,-0.5597737985013758,-2.4229877853148785
80,-0.6549764945260639,0.046247034821347774,0.7129840399788975,-0.14587223537674188,2.434743791341958,2.058436419657658
90,-0.6453803087389614,0.055256258825541624,0.7282555664894242,-0.287494098180201,0.0665487419952811,1.0526150243539671
100,-0.6293344673797039,0.08136886552583146,0.7369502443808067,0.25475859304645865,-0.5732107300018854,0.8307163793842878
110,-0.6446102219574128,0.06708939692109618,0.7195177133683651,-2.2295504495357745,-2.579755455763477,-0.9040868997206877
120,-0.6363872658386257,0.06999689399746886,0.7339145138006168,-1.9050188688481637,-1.288242078050454,0.22097381153973428
130,-0.6181579679223039,0.09227869654113395,0.7555689726777295,0.027105302725717983,0.5561487736508036,1.5762843855534312
140,-0.6322029824938917,0.08154608896692435,0.7414674615787049,-1.0359691282911792,-1.2829096616574645,-0.2510509763004616
150,-0.6256888656876456,0.08403207638370053,0.7471223361638113,0.42473715904883075,-0.6823857138197728,0.5487467127737089
160,-0.6330785255428878,0.07891894006647052,0.7387191259898064,0.8396788838362149,0.04395162017442822,0.943281806786834
170,-0.6249894721265165,0.08705817953207634,0.7485183374762051,-2.1079991512389373,-1.4473106879292394,-1.5380116715890666
180,-0.6514988692140825,0.052833846666231116,0.7255444213997293,-2.1302912335399102,-1.2037616155884272,-1.7902090922563962
190,-0.6459851528708735,0.0547451192374892,0.7281782217248868,0.717642767120864,1.176257721278144,1.1029102158438688
200,-0.6600234841921794,0.039502162178071204,0.706444827956658,-1.1291223005411746,-0.6332345587681844,0.12480767494490408
210,-0.6318276648162234,0.08546941604400136,0.7406898238097386,-0.8676557556323798,0.8015279008714931,0.4233143675924417
220,-0.6443350750512369,0.052364410712206,0.7297570472656916,-0.7167785570601619,-1.5420363342671597,-1.457416109816669
230,-0.6488333053735652,0.041752700298021694,0.7223590942934041,5.236584742913045,1.596924778223586,3.1428534768645386
240,-0.6449664669722146,0.05578212113061661,0.7382142217309591,11.28512607690026,3.678457608612966,7.174992425633336
250,-0.6452136926690647,0.11897964852105299,0.7725027035278058,6.98668536094163,3.079425193297557,8.10903294640713
260,-0.6248908159640565,0.0983751168860613,0.7211413452433918,-2.6145781588524972,1.647235331196406,6.5143984579905485
270,-0.6276191930259221,0.03177289502629201,0.8030210334352067,6.416274338999964,3.7652739308169467,8.899874540068113
280,-0.6390284570620032,0.007072176798772305,0.8959473010947041,6.264760557964041,-12.156906605510056,-6.916006321582952
290,-0.7004673521026553,0.01393399207637542,0.855391005528171,8.890444430822821,-20.26607965578656,-13.059991340532292
300,-0.6786061935656558,0.05894503025605885,0.7500139920441019,13.397238086936945,-23.00681842656206,-13.62946582540355
310,-0.5853776023509353,0.13498757316955187,0.6385312026021549,12.795233279837225,-19.97389336052863,-10.578056217342807
320,-0.4981058315542634,0.14939532290440846,0.6224809516422207,11.043746147708543,-12.963762406527824,-5.887945524249233
330,-0.5662203417641297,0.07844711231534995,0.7743320144079577,8.030808741293336,-13.822270081840657,-9.244267966063239
340,-0.6402940139494937,0.018666718679197006,0.895976514502092,11.632100814414741,-15.587333862565966,-10.912962888076489
350,-0.6048257490919774,0.03049609626019349,0.8549176772872012,8.997488929782408,-24.206275600569114,-16.291678108295535
360,-0.5938948317233634,0.07604152651926954,0.7097262824139705,6.468043220254829,-25.84965251218551,-15.391713163972055
370,-0.5576626994307472,0.1339288768644961,0.5979752888722721,0.7856210167462563,-22.472061997463147,-14.187529233435614
380,-0.5172119625047149,0.14089649290611306,0.6185597497933609,0.09756762734220875,-12.589438768233835,-8.441665510776673
390,-0.5353240230342021,0.1300515549587252,0.74025643728331,-3.6522626025855383,-13.081822669917402,-9.624818251448865
400,-0.6462157528961173,0.0359500588880427,0.8197268864183322,-0.5527720090598418,-17.050524586268743,-12.165271277465177
410,-0.6448785594495448,0.10476135437196923,0.6557567993146756,-11.886319660146246,-18.041423262601814,-14.945485159309923
420,-0.584436879621719,0.15741285115479106,0.5981449318430462,-16.99164035773633,-7.30890206442031,-10.935935325027016
430,-0.5553905500482588,0.13964227245465316,0.6537322705868699,-11.136351070942197,0.2853606471809793,-5.77271826309733
440,-0.5651789692909811,0.11160183032308499,0.766975552666845,-4.41365930995735,5.351748350412514,1.0892756081052646
450,-0.6088869484744428,0.031012249164451146,0.8259837415803496,-10.06001881333478,1.017140653737294,0.19517824861098498
460,-0.5744537596231027,0.03428813468778666,0.7751451798724949,-1.2533982952842502,3.1023694241368185,-2.9526437327756865
470,-0.5366534923198064,0.12528909184548284,0.744255975101822,-7.993547577067655,5.404150223280238,-1.2280542097628144
480,-0.5721925098960837,0.11512334298557521,0.7751015367734685,-4.42349197722765,4.9367328857111845,-1.2914120115843195
490,-0.637138149587586,0.08778168980865804,0.8539671688270043,-9.97330784700961,1.4976125605465243,1.0280675344305399
500,-0.639567343071003,0.034270553198803975,0.8223257831085836,-12.572871272121986,0.6713050597696828,3.3422835546956233
510,-0.6276349695472601,0.004801804188682819,0.7521620629153262,-5.609471881232881,-1.918918029114487,-2.297940468897193
520,-0.5953246916185709,0.04627992564820542,0.790027628956464,-5.92747745988268,-3.8024794863801867,-3.743435808121057
530,-0.6084982557948491,0.04195465227324279,0.7799975731105554,-5.162936560174351,-3.505098026791438,-2.913039150903766
540,-0.60018019864112,0.031990996924981564,0.7711832460938067,-5.864335420266601,-5.437305142770625,-4.400414602527629
550,-0.5583507506637366,0.05219931934096947,0.8058647733300636,-4.565723631830304,-4.18635129062775,-2.6195809286671206
560,-0.5580246814489659,0.04605863998781261,0.8084302345280221,-6.60953770893246,-4.34243951722776,-2.466679759494773
570,-0.5721725819426189,0.024455016465373597,0.789931060971819,-4.6254927168990125,-1.3814275946639984,0.43480096899674747
580,-0.5661345629359504,0.035167622676614864,0.7925053921233914,0.6336316695560049,-0.3642796516243013,0.5861374009973433
590,-0.5915421866619421,0.029061180374964107,0.7714410538279044,3.865563381831909,-0.8142663036361681,-0.16031827449048386
600,-0.5930656161436901,0.021291079685944653,0.7694022494914503,-0.5400763517876385,-3.1186166561403144,-2.2797225785417603
610,-0.5817866215893714,0.02918307901034413,0.786253168289022,-3.2583189277948477,-3.2910368877102663,-3.625925247996934
620,-0.5740140013883199,0.03445371155450297,0.7893352803615838,-7.593809273799565,-3.0054530996568682,-3.8287113063096605
630,-0.5997114018095927,0.008364817671563277,0.7741404519160847,-2.8268575918309424,-1.690816978843437,-3.116315040802682
640,-0.5705206939424755,0.03290574756012724,0.7935159466485437,-8.516074542035952,-4.1307585862676035,-4.9184933384626595
650,-0.5598214963371955,0.043723434942393974,0.8121185436881999,-3.9421737757222166,-1.5485435217452381,-0.11480934434994305
660,-0.6019677179331934,-0.0063633830920480396,0.7655685324735615,-0.769410747514417,1.502124764496815,1.595256189808813
670,-0.5826526363951747,0.02009210693269069,0.7804277301078687,-2.5468187343952406,2.9100659255677255,2.4340865162804644
680,-0.6239070241649614,-0.02454530036678993,0.7495154334307739,-2.9935207754831987,3.037212320223263,0.7292684048556153
690,-0.5751094999620641,0.04054005131648446,0.7958855727102684,-2.8612582117091643,0.6164695403950189,-3.7601374969588712
700,-0.7018295848076562,-0.025954236790554003,0.6900522101407128,8.06949370129616,6.230434755257601,-6.105082039909295
710,-0.7604347553585173,-0.016184479879162186,0.49351356720385237,9.026166452586338,24.01002472901925,4.896382976333553
720,-0.6148533996965507,0.04825833098915818,0.7526499215717266,3.6854227645608644,12.396220818051143,3.7331742991126484
730,-0.7770659896597424,0.01188007838871196,0.5081033467037458,5.186623099589438,19.24717787514697,7.033694893150743
740,-0.5589383465762984,0.1120017547959107,0.8283662141258464,6.071620781061426,16.016466809751353,3.021871262863101
750,-0.5007342384993825,0.09889570001945747,0.9097166067619404,15.585375524870487,16.79666633110299,3.732550172534314
760,-0.4432874810946374,0.03837385971208993,1.0109437736843674,4.52233339726661,18.383002660323235,1.5002938785496829
770,-0.4336048046004952,-0.022412015931734686,0.9866791302082103,8.857947191678562,8.807577104168825,-0.6942835769387692
780,-0.46401442340910587,0.011871936186953477,0.9068259332051093,11.852473800525198,0.06696977232348428,-1.3170649006586812
790,-0.5503648259212018,0.024139378103449727,0.8330217822091559,2.5133073624473923,0.001974579896891232,-0.8673256620160508
800,-0.5773844938601611,0.0485497115372137,0.8008486887694091,0.5022775338192486,-0.11726189920281949,-0.7680584327085458
810,-0.5775792197025832,0.04460608721583099,0.7945461280281193,1.1748704003707322,0.9669316254549718,0.2131679164595827
820,-0.6095598567669981,0.01555361850557133,0.757362971156817,1.9819123675197876,1.2630952878283346,0.44177088320126656
830,-0.6006945847577161,0.03956197387381929,0.7680667876035642,3.173366406919797,1.2352677037447133,0.9234296063292395
840,-0.5995763570771266,0.04943732787681205,0.7735208650363108,3.6921162917558035,1.4033129486198157,2.2260974672046574
850,-0.6428442742713433,0.008638905848772221,0.7265871241671645,1.8816555664155103,-0.044788067451732305,1.0063922111065762
860,-0.6191507101851331,0.02393671288496252,0.7429941326268589,1.228312170906389,0.16868662713100435,1.7703185192768984
870,-0.6180268034344651,0.03409593782764579,0.7500122178153474,-1.4073159626429694,-0.7540403330560433,0.975776698276459
880,-0.5998762260754686,0.04331186851066553,0.7610434929345095,-2.6853948190700447,-0.4905708607577669,1.0988081567997714
890,-0.604654773807174,0.03981246988865511,0.7648388333678683,-1.3731625582094276,-1.440265341121063,-0.2901626827921987
900,-0.5935819447482055,0.051076029224602235,0.7729886211346363,4.221766180926128,1.6518021333696593,3.542391650828103
910,-0.6127768520302809,0.03792659245072942,0.7620252504458799,3.908243545864426,0.6270059743209826,3.598513859937357
920,-0.5935213476949198,0.06329007846551778,0.7747082709664583,4.925792269320408,2.1793206418608335,5.452035727086588
930,-0.5928031118337374,0.07093283078996848,0.7814667902112782,0.2571172579922938,-0.474937511028722,2.5086915444538733
940,-0.6096747511867225,0.05156381682986744,0.7675239878908463,1.826676542219609,2.085531760006062,3.717834823882148
950,-0.6198219102960266,0.037544956097616385,0.7556952753681307,-2.121243919431284,-1.853645512969372,-1.3075846894825998
960,-0.5976565591030744,0.0539310786860462,0.7728113229447022,2.9435235075550747,2.221394290644614,0.663179295403622
970,-0.6144148623285707,0.036547130101846646,0.7533987769143276,1.5050207001283942,1.293802463384778,-0.7915133130722838
980,-0.6302259475658625,0.02155869811171677,0.7390949979105385,-0.044736839615906465,-0.47715983863984635,-1.25611588530683
990,-0.6227673412208043,0.030669930088685723,0.7517537021131042,4.563471625615893,3.289901161971243,3.6302354776206007
1000,-0.6153486196528577,0.04746468486464625,0.7555691357148433,1.5948917228692459,-0.24406091369025668,0.6768116072229695
1010,-0.5889892150935804,0.07421376201798403,0.7780976594880114,2.2133537163715165,0.6775180111322043,1.733758371050106
1020,-0.5936847232926963,0.06457089226688158,0.7772250769788756,-1.5259979143647526,-1.5684174650969886,-1.3246608949614609
1030,-0.644834571434006,0.012889704905409895,0.7261161942945085,-0.07591826576935334,1.2177963216938437,0.72266150346421
1040,-0.625872783361102,0.02761895232107049,0.7440879062163182,-0.49349815387650287,0.970785485366076,0.9549895195743181
1050,-0.6174670599554188,0.04042395774331016,0.758911514594333,-1.1574210622167005,-0.012688531438368733,0.5478017865972287
1060,-0.6260383863450628,0.02894001998198112,0.7512739025863175,0.9107669657548219,1.5916061039147151,2.3735487895874012
1070,-0.5944840729327806,0.054092982612638896,0.7673383878485692,-5.198655746157372,-4.863398590545587,-3.9840594674944234
1080,-0.5936815550791483,0.0601872005045105,0.7780255168108499,-0.9500654041220006,-1.10842492982543,-0.5653996879545371
1090,-0.6231288348996182,0.030092727382495132,0.7501365340634291,-2.0725515453347043,-1.0693656628347177,-0.9322743734398232
1100,-0.6082655608887959,0.05040071908979764,0.7607803341678198,0.12314420073955845,-1.2275316129051264,-1.203784506706327
1110,-0.6259308162773478,0.04022102448130205,0.7457189364626604,1.5623101555359191,0.2814294332382069,-0.5710185660786908
1120,-0.5843168650008241,0.07940808609046701,0.7862755593552524,1.9590793407691223,2.1141516244744456,0.7988930061665153
1130,-0.6106738330695987,0.043203400316030295,0.7608361021929325,-2.899540322066524,-0.6514642594925178,-1.940700529955682
1140,-0.6025949298821325,0.04839870697709971,0.7646005267430245,-0.7104676877470604,-0.28466684592309777,-1.1268779951211654
1150,-0.6252404410451357,0.04108400491114709,0.7485403249248067,1.488902643156328,-1.2167307198980375,1.0394117304840111
1160,-0.6014140865421606,0.06147254360033162,0.76480094711508,2.993618354948489,1.739985237951171,3.4513866563999254
1170,-0.6185127819542839,0.035257876057897305,0.7422508247261487,-2.2162513444847836,-2.49403135592137,-1.4644694533055846
1180,-0.6215741363450306,0.03337606319356941,0.7465564297745261,3.3645752724834557,2.1140733666586855,2.0980103004131534
1190,-0.6216971551032124,0.03635746551415293,0.7464639528166905,1.9672157751472181,0.43012189922654476,-0.3747383873827043
1200,-0.6166458591887863,0.041074428749237404,0.7479065965263908,1.6907080838612893,1.3992046515214034,0.2119157949436702
1210,-0.6059985223631933,0.054048399149004826,0.7620672619297145,-3.647707967706872,-1.5534879726189303,-2.3221288650468743
1220,-0.5970962908505958,0.06779092622960159,0.7779580169012862,-1.5929685379435072,0.9734610267461599,0.8711326841985192
1230,-0.6017770232306106,0.05851016076428604,0.771302846966268,0.7367017714147096,1.6313636410158567,1.6020873375463731
1240,-0.5952330309714082,0.05914085275250569,0.7722668428964976,2.197987025876738,1.907062382890546,2.041632592022111
1250,-0.6145058524932554,0.0421783138538212,0.7540065815464781,1.5193333967618283,0.7782743521944855,1.4217182079547357
1260,-0.6332297497084387,0.027223057414178763,0.736820047790873,0.25870393502368816,-1.150030860536384,-0.20855149620941216
1270,-0.5885497677203689,0.07752779681225955,0.7822791005527537,0.9323676998588534,-0.08089887692732976,0.4513730729665979
1280,-0.5993545474823486,0.06646392586905037,0.7740348104514512,-1.0159650678084755,-0.39212016041638165,-1.5593564360839267
1290,-0.6076027527897105,0.04935819374869361,0.7596071746109969,-3.6379791073665815,-3.1778212697225086,-4.699377037068603
1300,-0.6024104351869829,0.04835679724635156,0.7590389383928321,0.5800921307622152,1.601207662498684,-0.04653903080620925
1310,-0.567569782037142,0.08229450995917686,0.803566607293214,0.8970938649539082,2.377572505164925,1.5318725047965338
1320,-0.6020874432890329,0.05138966597770161,0.7693291850991101,1.5617134169179532,1.3369089465581825,1.6470960713465366
1330,-0.6155868224107678,0.04659424895097235,0.7518144488770137,-0.7804803592055196,-1.46941682121148,0.2662233998886654
1340,-0.6370531957530826,0.021859589295001605,0.7338178127238715,0.4421123063209641,1.2767955402315903,1.8976809104294117
