time_ms,ax,ay,az,gx,gy,gz
0,-0.8828784125525054,-0.003620017888805332,0.4424738760372335,6.06519101879536,3.759343399631446,3.5565662355893655
10,-0.8508454407054603,0.026331729278569575,0.4708538083665363,-2.277884470868802,-1.0280610632430032,-3.100868764420251
20,-0.8565936404254018,0.013578149914782029,0.46732952819035334,-1.1101028986692012,0.182067650713476,-3.161096840719737
30,-0.8795923826541053,-0.022464293782617432,0.43982700901415306,0.12074209530915947,0.24755040102752998,-2.3742058617272974
40,-0.8613227168767904,0.001408714899136525,0.4542125572781246,1.1160476950173583,-1.8316247909107302,-1.1646931521336683
50,-0.9054832644971547,-0.03576156149949771,0.4133679119206362,2.6806647854435575,1.3299670599290367,2.031658103648183
60,-0.8834970694882259,-0.011305292602326643,0.44401795870227334,-1.9777741348221505,-0.02625569481726653,-0.9140407994361914
70,-0.8219735075152379,0.042554334359459184,0.5048087158629077,-1.0342511118663698,1.685518686799343,0.7883282061298496
80,-0.8759015736858847,-0.011019121541595019,0.44687096833052803,-2.587981175375621,-0.5740616763209901,-0.8093052833401402
90,-0.859777928158197,0.009196848657303223,0.4645826728192858,1.9821756090734992,1.3373325826391755,1.8644211739860772
100,-0.8766478361681387,-0.006391983522267525,0.45513473617246347,1.544950929659851,-2.7506099649491476,-1.0198145936426881
110,-0.874800660164363,0.020949931245249097,0.47978976903155246,9.2286807413253,0.9308170131569956,3.5173290809346307
120,-0.8985384934539226,0.1011164009626067,0.5718948649399684,7.899706032866764,-6.180193609570257,3.635821194402353
130,-0.9915715099548322,0.09069190510914873,0.6127235087091294,-1.03713266139771,-13.202115557414125,10.212336232005375
140,-1.0491989972824902,0.07704327495109603,0.682025029747386,-13.977695316601034,-31.827644741897103,7.419757593601789
150,-0.8929335620157035,0.19109247029932586,0.47719673961896814,-21.215080370010757,-30.39147428498722,15.744311422755883
160,-0.7226263493190659,0.21512318652613757,0.4050584041121914,-30.798619572344467,-21.39121445069344,30.69982831608726
170,-0.6411316261995869,0.07151454501894386,0.3765934492910011,-33.096557461903686,-11.478030081567677,39.01883321329836
180,-0.6732597074648969,-0.0257522846726917,0.3146833652489206,-31.243766696284634,2.604147738293814,33.903949106544104
190,-0.7656689642453307,-0.009794139714672204,0.38388238151656695,-38.87778310034979,12.064417708141772,22.240951318935004
200,-0.8347239367147349,0.018552824312692947,0.506709316492252,-43.79660281980817,14.768578550831633,15.735297276848572
210,-0.8861232200126828,-0.15721035322070476,0.5325701083936794,-23.926164709827724,15.962969170494112,2.6533218366417484
220,-0.8161615833751826,-0.25363970495003924,0.5695670912018417,-26.536891044436945,8.549612559085825,-13.088123790144701
230,-0.7008031206158266,-0.20311415132262606,0.5203949514405334,-32.71569099137181,4.782859242044447,-27.24273317984796
240,-0.7787805136137405,-0.18081623575854827,0.5621171687123334,-24.114014696422515,3.5622934604051464,-29.052990965789597
250,-1.0992890330453986,-0.19066755425661158,0.5070635693892138,-25.544229985877013,-37.648462960601755,-28.682379968389988
260,-1.0867822184280873,-0.11088812424730768,0.5794927323122816,-15.634679388628166,-30.977654562695562,-17.07288122686137
270,-1.1774334191309068,0.3409769555452944,-0.08541181853016855,-18.01091135977418,-29.571670725708906,-10.822261218023762
280,-0.8248765405173455,0.14027418521499732,0.20024305848012722,4.24783304540139,-20.90485705765215,-0.6254045397769942
290,-0.8967815927356763,-0.02225734852194058,0.46965286993266975,5.06086038832878,-14.2307964853447,2.9138415808123654
300,-0.8801582749265732,-0.0035490646766002873,0.3994817907777342,12.612017012298264,-13.141788465479872,-5.193309372309225
310,-0.8633982961460474,0.030769648520039692,0.4567155403515471,3.4427628108161024,-9.711618109365348,-5.752732414864562
320,-0.8935770483460079,-0.08193883709464642,0.31308408089774953,19.179834924957976,16.99807221518682,3.979925673826549
330,-0.9890119552827121,-0.22236625405547686,0.26208241389737563,55.27083227000319,55.97693896962007,25.17604970861394
340,-0.8834018411533155,-0.21431590592902922,0.33281641381323795,48.33967959478033,62.57208773827488,27.583477675010307
350,-0.6576824396030179,-0.23080589686477648,0.12507416877576424,48.14389145016202,68.89657288984596,29.19574628625456
360,-0.6181149516143667,-0.19621586205116254,1.1671067796671688,60.36963933570294,51.66606615585416,35.56802126880803
370,-0.7854138341125522,-0.08435267220073205,0.737712361482221,29.839494977942344,41.211415694630574,28.27488887526719
380,-0.816130158339775,0.007727810937795725,0.39472551055859356,4.764751151980972,18.415274864865868,10.270084728386148
390,-0.8520575477850332,0.01778748878551538,0.5127677225221419,4.0365026629103005,3.031077186834416,3.5864403222774524
400,-0.8760744291793221,0.054190862503417286,0.463260054951068,-3.190299577237835,-0.4033717999934021,-1.2303385188989746
410,-0.8451087147665052,0.0743279060177954,0.4931810697418149,-5.6711866975994525,1.4043869622582883,-3.764545911196784
420,-0.8815000401575317,0.03778031100214518,0.4599611070196568,-5.049815860059063,-1.7618638022442032,-9.463547455165623
430,-0.8890694462893146,0.002862466714595609,0.46484162624349107,-2.9533966146706767,-2.893101839538379,-12.57818890325715
440,-0.9296987913516424,0.19708696905613934,0.4300279347917936,-8.243196663021644,-0.20418974449387944,-7.8174569697874094
450,-0.8706340271907513,0.21104219487967676,0.5603506234275072,-16.234019836426715,-3.204559766871662,12.093703885843148
460,-0.883676443530913,0.13153054761775615,0.4316617525683883,-16.617429091851044,-3.4123722555189513,26.06301512444568
470,-0.8019243158423031,0.10412669921637052,0.4475891398980564,-23.817540142781596,-0.6621104582859587,25.696264544062007
480,-0.7603245359446686,0.06830199589726667,0.4055984564037926,-36.37494507967763,-2.7429441951073166,13.144876725929393
490,-0.7982895051399053,0.025646816637729514,0.3634746581810489,-35.515662368049874,6.183806983199217,11.733100945777785
500,-0.9777298229943525,-0.29297732159973483,0.3892965406381186,-42.07303318049731,1.3525035367094542,-0.19388337708048886
510,-0.8881312403641396,-0.686265916450559,0.44911385102952983,-19.462430158050775,-1.2331799314314942,-7.425022524431223
520,-0.9454931755235336,-0.5223317580960398,0.4153098070899637,29.307804705889055,10.250948629650942,3.105339950849244
530,-0.893230284917507,-0.47145772839163935,0.3639396992514202,46.49419139460236,7.0051164456346555,-31.4976586862274
540,-0.9786631516400949,0.008557669180778861,0.29837375740032235,74.92986704663274,9.685502620815898,-37.8990220628651
550,-0.9843181235950539,0.35502303127016377,0.531644093217831,85.50523868215849,5.028796910702936,-2.3266098739285432
560,-0.798983649991804,0.2363467893737392,0.4715974379739516,42.537965502672726,1.0501136479614863,21.08852569462221
570,-0.853091096953088,0.42142761486016933,0.40561515423735395,12.974442501757853,1.2219950775938062,14.17636677804943
580,-0.9086732639937897,0.5168010315880749,0.4842453790613732,7.085945817489958,0.6074874262187357,8.244348836383852
590,-0.8840049751543975,0.1840873268643449,0.42875663224863353,-5.329151829914347,0.7933406972461574,-11.67744052726304
600,-0.8941286299392266,0.049456420712081256,0.42254264318217405,-12.694308785528868,-1.5166674658500976,-24.834288443264246
610,-0.903995714471572,-0.023748706944241273,0.40617012953317877,-5.633004386725041,0.6661349184042497,-16.808760571843184
620,-0.8896466739535358,-0.027777648309413025,0.4209648795854518,-2.9485193607410007,0.3302760274538536,-8.337210382562848
630,-0.8892361330418819,-0.027483041846285465,0.42493291473840933,-1.9854339068040103,0.0364774777703642,-2.9166141596872524
640,-0.8810544971317374,-0.00976210875513502,0.43623079027186534,2.3753270445013195,4.139515486241526,6.08373922585977
650,-0.867061375339543,0.00732527030272565,0.4448597492087225,-1.0976319506676102,-0.7262453643885978,4.164644549122041
660,-0.8611509995437419,0.02182255066079035,0.44946579607826465,1.267967171615627,1.7352423606574336,6.236694839539152
670,-0.8597296390337995,0.027957870638646798,0.4547763218331582,-2.327411569784812,-0.6171344249405072,-2.349184669874654
680,-0.8618503990430914,0.014234337821255674,0.4581187411845634,-0.3929547661590175,0.02054534442223216,-2.0334562072143427
690,-0.8544704643168811,0.017001792288227686,0.4622255310827228,1.092923390651351,0.0018919201846442218,-0.27400337340432124
700,-0.8883002686267883,-0.014349229356614566,0.428976670858328,2.2525385287792083,0.6478378013409727,1.379792385656219
710,-0.8986783903766105,-0.021373665217259443,0.4093401477981006,2.753107582976465,0.11864290899290997,2.586159111706971
720,-0.883887401290618,-0.009284141481428988,0.4234178244638934,2.2165918109839557,0.892195024574244,3.497182194446539
730,-0.8999923756592744,-0.005373758128879061,0.41285743935211294,-3.4939027235610247,-1.7179647840282648,0.9069029019910786
740,-0.8805252148058481,0.010783462858716791,0.4362389328113842,-2.9544408988715096,2.49813027031544,4.0213930620993175
750,-0.8713409714990255,0.0047913255130515075,0.44736046525549755,-4.4581049625131,-0.1565215456108222,2.185222567281338
760,-0.8691344128287841,0.014392145948170357,0.45350595303521324,3.298712726884718,4.639282240753959,8.149545971117135
770,-0.8782240654032699,0.016963967138573757,0.4375145944359788,3.5097808479525616,3.8425247620120118,6.95425718848236
780,-0.8711598619391023,0.02571350957862817,0.4369891709842917,-0.8038769082306252,-0.4416630933504058,1.2691077682774294
790,-0.9141836608311051,-0.024754222258824295,0.4005502225902388,-1.2849974670012125,0.07614886852470365,-0.14021859168024964
800,-0.865993010269293,0.022599721608939714,0.4495740226770133,0.18779485358603676,0.8133532448053024,0.7340078649974331
810,-0.9037847804031267,-0.011480691718642272,0.41170470691702304,1.5078437276343037,2.2020939330712848,1.8299502595311274
820,-0.881401661824377,0.012831950084690642,0.43310743577940686,-1.7989944393330803,-0.5131462808497509,-1.8082799792113544
830,-0.8638117440739811,0.022717482724268365,0.4487520333463008,-1.677175725806442,-0.29324279211379356,-1.4386555917906547
840,-0.86611598390585,0.015502044838736333,0.449933553985292,-0.37059991285629645,-1.7277324061090633,-0.42309601137031283
850,-0.8733199809659704,0.026425625660759552,0.44503503653362236,2.7759374723209396,0.7553093728360891,2.760258299756129
860,-0.8753448831639763,0.01874524269106845,0.4401471887401245,-1.9293132288744246,-1.694484844915092,-2.1269882289415585
870,-0.8605979722957144,0.03103079910258504,0.45420941141189164,-0.047232087316541715,0.2101448415267111,-1.4382818438199285
880,-0.8856644711505167,0.006713566252616101,0.43146030618616243,3.6600273672236994,2.4409727561769836,0.14561264677909946
890,-0.8658011253921901,0.019665025511229953,0.4480922708361086,-0.3570710528228376,-2.43395580897343,-4.371855540136587
900,-0.8642909064541849,0.024651104016984962,0.4498574576136768,-2.3326189759371685,-0.7818643343218286,-1.1305772244613572
910,-0.8852731998380147,0.0018068129061631338,0.426512579835081,-2.968738357811452,-2.1511893707749543,-1.552116103164321
920,-0.8807632488333265,0.0028211729606478016,0.4380031426838515,2.354511364967866,2.1389358573067385,3.538034872705361
930,-0.8816896360103118,0.008575844286229671,0.4367262291093247,0.4888123124545887,-0.037302545205479404,1.0791775008028188
940,-0.8720604296679936,0.01244229604649776,0.4440117880424462,-0.4683039656877088,0.7440123810229048,0.6645344773512856
950,-0.8573699007385043,0.03143316568022508,0.4613804563339005,-1.4963536401540463,0.35814750659345485,-0.8803471909062408
960,-0.8790141390872056,0.007160566011108979,0.4345077865387144,-0.5581440819109784,1.9085156093015523,-0.6742309424762865
970,-0.8553550678409484,0.02545371897095871,0.45859915947214497,-0.271104064058895,0.7707227889042879,-0.529338760016797
980,-0.8860973362279879,-0.003184967647383498,0.4281121768815136,3.332170054453483,2.5961280267710922,2.9931089799754886
990,-0.880412446345598,0.006759729283383236,0.4411438011417305,2.7242892061012185,1.4071498353848784,2.6909429308546704
1000,-0.8480339895696983,0.040778522032959424,0.4678089841532267,2.0509806839245703,0.7907014230471945,1.6974766451122179
1010,-0.8730908876391527,0.01178890446875112,0.4393180525138052,2.9206674669844133,3.1329772144762074,2.5466836153243007
1020,-0.8534169022850469,0.035552309497819096,0.4614766156706511,-1.9353463855796962,0.36574155588932883,-1.322741035309455
1030,-0.8953780621167765,-0.013515834336058297,0.4162227302529204,-3.502780753043301,-2.688943238650848,-3.2750097384999837
1040,-0.8737820953445355,0.005657302613908109,0.43659064623595684,0.2701376564722764,-0.12810858110363232,-0.2298109452802685
1050,-0.8647910858309662,0.01662881298027757,0.45048874476703815,3.790485538983954,2.588325827149,3.074095082912811
1060,-0.8780708232625413,0.005412510577737979,0.43959025277271196,-0.15975334719605394,-1.6341476745898396,-0.5607034458174671
1070,-0.8446147355917148,0.040329444875763565,0.46442130458223646,-3.5629410246734876,-2.2039914253415667,-3.0006387154775926
1080,-0.8834290045429448,0.006667695456008564,0.4350803202958966,-2.728435414422577,-0.9677241919108639,-2.599094111081674
1090,-0.8726731387202883,0.011454261345504858,0.4493868726198491,0.40645757587996734,1.1874299048173766,0.1055369660213541
1100,-0.8951353773095728,-0.009519915388471635,0.42716025856191675,-2.195730335055021,-1.722023286321496,-3.1293065253157772
1110,-0.8744331080429747,0.005853253003349245,0.4458717463590823,1.269532142892743,0.27012673413147936,0.21929984244713574
1120,-0.8772615136698165,0.0023824409226753606,0.4391544492612364,4.177847004539033,2.706863315235208,3.25100797229785
1130,-0.8761688915103483,0.011859954497614098,0.4448113194823921,-1.1402132494026218,0.8332787498565289,-0.7306531602172048
1140,-0.8635945426200718,0.019829396441177073,0.4538936821314651,0.29818687112718467,1.999017116794427,0.6697683193247681
1150,-0.8804139432390445,0.0019661360106362743,0.4357323301642422,2.094732626131992,2.0395596249608787,2.4910853960215698
