time_ms,ax,ay,az,gx,gy,gz
0,-0.7914537285527246,-0.011272578994853984,0.6216985587754742,-1.3294263746706516,0.6726555199261731,0.5730102693545133
10,-0.7977862696566459,-0.015300756287108757,0.6226252483311966,-1.5865748053821007,-0.6159553218017562,-1.6413198300005827
20,-0.7700739033395281,0.007323930534190965,0.6470166537563788,-0.047341084521791865,1.2119881172479086,0.14107666638927607
30,-0.7707505876683957,0.007755170335208217,0.6495605934353412,-2.212275793759156,-0.4007796949170416,-1.4654687714519445
40,-0.7735815114818385,0.00614874986606794,0.6555400222435589,-0.6972440980789922,0.5983492460787104,-0.2532448096760763
50,-0.7936290051875828,-0.013832141467510111,0.6230296196204637,1.6953691627883536,1.0262746744743398,1.2914101991861482
60,-0.7835051128307494,-0.0009514748784628514,0.6367813064270611,0.9982856204984135,-0.05143211852457763,0.6276956764440609
70,-0.7753182497872562,-0.009399756483832877,0.6356179346683267,0.12693199614912876,-0.55196314423923,0.41409242240999705
80,-0.7955805543629618,-0.030149109808169542,0.6319514240580132,2.4620711830444613,1.1578140974219766,1.5392843136001537
90,-0.7700279097378363,0.004042173285132044,0.6515595449606675,1.5812645166478805,1.3239131695331992,0.09558825249528002
100,-0.7841443119934774,-0.006653835882729027,0.63444411735498,-1.8150227667098502,-4.015325188515576,-3.8236100788545206
110,-0.7950751062813459,-0.01869030367131507,0.6225820614932001,2.16366479362118,0.2348911292250655,1.0173792740112122
120,-0.7612565706998045,0.006858128134835051,0.6599078308664483,1.725021519146366,0.5497677704208702,0.9892884803466098
130,-0.7850475726255417,-0.018082404203629228,0.6324303946827612,3.1603094310107354,2.167332652366094,2.596570270904893
140,-0.8184119881908842,-0.04506391592102515,0.6064144857496786,1.8219622080735114,1.4643763432807257,1.9731945097881654
150,-0.7789364127550629,0.0030691836769256185,0.6402439184300817,-0.4895229081440358,-0.7071582403723872,-0.9358217951232337
160,-0.7936578750328485,-0.0133176354367831,0.6373810736952585,3.177039458746677,2.7498562675794807,1.2491262765775055
170,-0.8198737883925661,0.01778288705515833,0.6983807995050972,22.515330299517423,0.36942767742160476,-0.10478966709256032
180,-0.9482058145428548,0.010451636913439285,0.7860889854760611,29.02321247328668,-17.360541077505523,0.7601907852924659
190,-0.9175623546536128,-0.0591079193154905,0.9003310034917804,13.066811469693253,-33.91598557754111,5.771363947034848
200,-0.8116789709683847,-0.21422138922599607,0.9921494405572052,4.374011425387876,-46.63009174385732,1.9176748182957897
210,-0.5709388877509202,-0.20930283206946138,0.9238559895821653,23.437704706518677,-55.18351715579358,-1.5333112351818514
220,-0.35486757614903114,0.07318922902387602,0.6882830136888364,31.894518845785623,-35.431951662466695,-23.598604152000142
230,-0.3499115953197937,0.17409255823340067,0.659951370932479,-7.541483398940294,-21.899745395120597,-28.24276812480004
240,-0.4413524428478239,0.1712045884009034,0.620357769150315,-7.036875845333249,-15.725833259715706,-33.932168441011214
250,-0.5545500006047595,0.2615475209744304,0.45825987002857477,-41.12919643801697,5.245322721917869,-21.902081917895725
260,-0.6566810213566375,0.30715056583125777,0.33312258097991393,-65.62289478473149,22.557107619251525,-6.551638305090027
270,-1.3397783815136886,-0.4366729185943418,0.747970368074567,-115.49874762816279,11.306771871304663,-28.977746181623534
280,-1.0923042964395993,-0.22359060385953844,0.22060359712966632,-14.10067478948,15.746546349980289,-15.114198990768983
290,-1.1538962052067625,-0.046659831876853256,0.1953518296391639,23.841041655512768,24.35546649760945,-9.233043463402204
300,-1.0369071768271096,0.09398478407352504,0.5097573421856842,3.8622450200978906,30.478424093065463,9.311382182768085
310,-0.9470764208833539,-0.22720505065563598,0.6174227796309774,8.496861532269259,37.80430252503422,25.496062371615064
320,-0.9440888562558227,-0.33746885825940837,1.6176068299359971,15.692947961084231,10.154919993933266,15.469754163714788
330,-0.7939999322479382,-0.09007304132843837,0.5877362470595378,21.271666036553356,-0.3715623325530769,7.983209779830998
340,-0.7006658928394348,-0.07857917297322703,-0.42284889154251,3.9415456576698906,21.63570420742726,18.844171890105596
350,-0.6105584671929419,-0.37918190950979547,1.0276654337892877,5.682946629811283,13.131456603478036,13.773396654511457
360,-0.6013964100389746,-0.1054029636423601,0.9440967068176391,24.73844646868519,-1.073541890271665,13.852546580822091
370,-0.5852206364142782,-0.13364326512969923,0.9628354482734128,7.091523895544438,6.227835108091538,7.287570661660506
380,-0.8010439645151674,0.028081538355593502,0.6202243575276505,-18.12164782458003,10.995615667461536,-2.3539056392454336
390,-0.827305065585177,-0.005989088213832733,0.5116297023494049,-4.581719277984004,0.9715950984004593,-1.54314399194973
400,-0.8201033894423508,-0.024472946429587986,0.583562293496484,6.9397660426108985,-0.19018232162957283,6.056878179095172
410,-0.803952443322165,-0.031682947435431597,0.6044631734040258,6.923914777016383,-7.781494319752884,4.153436401983846
420,-0.8148616665496787,-0.04435115078305506,0.6166167790940494,6.0480900068241485,-7.116839696999396,2.8621699337822104
430,-0.7934392898194391,-0.029791752767658258,0.6151383540602728,-5.33304127920952,-2.3936853745024833,-3.637446500051217
440,-0.7770143266037999,-0.01857288564447631,0.6358321913435937,-2.7225088556853207,0.30532131303318,-4.07975080364384
450,-0.7618419672576761,-0.012154146318771673,0.6508092362432571,-0.3890227506534212,1.4118361324237385,-3.9641503451067956
460,-0.7869641389257183,-0.038413861100134186,0.6359750391516228,3.4357234151170335,1.9414453338770628,-1.2064924057159576
470,-0.7835377920895057,-0.03824888321341061,0.6286182848211536,3.5507645738670535,-2.158260212649971,-1.7733783005613444
480,-0.8012634612560339,-0.04379336252466412,0.6140256936566963,4.954635560058877,1.392982050138752,5.542997339358935
490,-0.7999357439200175,-0.03261446128533292,0.619078398294396,-0.23341935089286614,-1.6345159575318233,2.483030038458589
500,-0.8048409958454467,-0.03814686093550127,0.6069788352330366,0.8366401323858099,-0.8697878054876957,1.9967293865111908
510,-0.779827425532833,-0.010300116204639003,0.6334037267165137,6.383530723919273,2.5615203978054453,4.705433171203076
520,-0.807930362126325,-0.038609341434776866,0.6065183027512208,4.7921932552033875,3.9180004244293025,4.092845509959237
530,-0.803659019576469,-0.03179006503971178,0.6174307043067735,-2.953220974480086,0.56137470189942,-1.8201985633429212
540,-0.775832626637281,-0.004735075640413561,0.637116288299276,-2.7800858635506196,1.7045551955373814,-1.5205774203778593
550,-0.7926412623292883,-0.028155430449507888,0.6166648773711741,-0.7218226863255692,0.8812469753277118,-0.6095910577051775
560,-0.7746128022209244,-0.015432004862544271,0.6359459914602885,1.9599528064579728,-0.5329412669086736,0.2288566657009633
570,-0.7907850001727945,-0.03251580369942346,0.6267338632232788,4.607045397330694,-1.9130319133758276,0.7524519779986125
580,-0.8175384029931144,-0.05744701252916515,0.5953876230010487,8.134379612208607,1.8984670343018846,5.110305151175254
590,-0.8032185142168713,-0.018869457749071283,0.6127905702697252,1.048727600917669,-0.021102826694389232,0.22446853094596353
600,-0.7746112465541168,0.00838292312657638,0.6408870189058297,-1.1358515657085984,-1.21912295730109,-3.0603039681652593
610,-0.7985018556590752,-0.027812451495726285,0.6205776025167478,-1.6176336531762483,-0.35451524311953025,-4.080665245260722
620,-0.7849027971015383,-0.02437542054761989,0.6292559967792454,-1.1657433695715418,1.7791072464847808,-2.988798779219361
630,-0.7791088705294807,-0.026635290472233307,0.6320945240999103,-2.2312540702595096,0.6613252227204605,-2.377615654045816
640,-0.7962167404172908,-0.02201573024623575,0.6252137770186087,3.03695375615246,-0.2583437631167099,2.0874528205146277
650,-0.8178941659720413,-0.049583306909443264,0.5977649942941101,3.4820424545566055,-0.41661488392378626,1.3759897232259493
660,-0.7843831511164677,-0.009898784853080874,0.6287928750346364,1.6836481920152924,-1.9921556609089797,-0.7852881814461213
670,-0.8060172666516093,-0.02908648203396829,0.6075017822039928,-0.9035759545365813,-1.2346405965349463,-1.7198868800891272
680,-0.7731158141571791,0.004574372701626176,0.6452313244146366,-2.667711753015239,-0.4859633657693428,-2.539234650480081
690,-0.7924517395795629,-0.027635874797752084,0.6251629991084302,-1.1133354827764594,0.14459863094064113,-0.9988233893452686
700,-0.7650157684575274,-0.004030250829096471,0.6448323631303672,0.7829375520950244,-2.602349610633905,-0.8323255025201464
710,-0.775997389668882,-0.013480393933917856,0.633511111766076,1.519539845325529,-1.0699787516276302,0.38945433254777084
720,-0.7613741836249919,0.009415685222566427,0.6632220687205667,1.7690189516384724,-1.1958193568630435,-0.08718245409018016
730,-0.8078897951967197,-0.04180873143116577,0.6073743738463702,-1.8031550126291194,-3.5932819433941923,-2.207000189170519
740,-0.7769275019983739,-0.014147016632851141,0.6402745789151105,-0.4650924786316064,-1.856857267239852,-0.9237939625822158
750,-0.7818980310550858,-0.009311590840733365,0.6332943239581776,1.6942926152418176,-0.2906409556379361,0.9655623509947121
760,-0.7944949740530095,-0.02570014073191053,0.6192750309938804,-0.814593109448729,-1.4804937114211119,-0.940046661394205
770,-0.7753787203618112,-0.006520818855139393,0.6446002936117328,-3.374429215090825,-1.8170044576030469,-2.729681463915991
780,-0.8038650579275447,-0.03301054756528422,0.611661726822742,-2.2287141250713973,0.2256136921484907,-0.5462892397792704
790,-0.8039659809160737,-0.03618057278298413,0.6150479154569848,-3.4332975019942786,-0.33540808160531055,-1.6751085774496346
800,-0.7851646056474931,-0.019985086247078846,0.634425692112307,0.26710517973548875,-0.1989230340172169,1.2642722770122035
810,-0.7863624735280867,-0.016158724634321466,0.6344378491841148,1.9029814894454502,-0.8060667084450905,0.4125050600295127
820,-0.7773092934962301,-0.01098344299224079,0.636424953143246,-0.1545919984726445,-3.8903935962772174,-2.5838480203144614
830,-0.784483147440753,-0.012082118821499458,0.6222007078240128,-1.112700128584638,-3.3408371517865065,-2.7915380998171107
840,-0.7937526567489178,-0.026216433743539304,0.6223297585407738,-3.7956272348084843,-1.591790197060647,-3.133929855816384
850,-0.7903034893618649,-0.025101021844235016,0.63209569020078,0.776158048429967,0.6194561219738198,0.4140517796763517
860,-0.7854696484124,-0.01525821586661225,0.6380073362041154,1.8286563987780142,0.33736258942166913,1.0286970675337401
870,-0.7862728120035776,-0.024422407950696026,0.6173258092154866,1.4672407881262688,0.23392140272916026,0.7410136868519837
880,-0.7886288156329407,-0.021236388973321852,0.622609936831094,0.03923280639161031,0.6017616615814058,1.023184844672163
890,-0.7954308909581335,-0.031522574485499534,0.6230551752102805,-2.7916809080346168,-1.822554593911804,-2.003378620109665
900,-0.7749655745708063,-0.014546893949121467,0.6437265684408957,-1.1709483598002417,-1.3686548965647758,-0.9839376210732085
910,-0.7690459230507014,-0.0009684203788222073,0.6429570617451599,1.0208515899989545,-0.5502006106476417,0.6792851092488847
920,-0.7996331133964092,-0.025447115613266274,0.6189184241933561,3.703326932011392,0.6798565862869389,1.690798640655843
930,-0.8191285657181466,-0.04160631983489487,0.5940265875275121,-0.5332234498947024,-0.8471357432363712,-0.8494781916158497
