time_ms,ax,ay,az,gx,gy,gz
0,-0.7913707984407906,-0.03408293178410731,0.5005968479236879,-0.6790804691690493,-1.5651609414929228,-0.7677027471714182
10,-0.7959870361533631,-0.03072658073982929,0.49701256223037954,1.2817120588901747,0.10172546591458054,1.0437759263450674
20,-0.7976413325740922,-0.028860603652569847,0.4912696964065026,1.3754732440471582,0.9928166344714837,1.8775861803603868
30,-0.7772834957883015,-0.01286166631439211,0.5114926700851591,2.397576039146916,3.1904040571829615,2.8380728846505257
40,-0.7677514476224734,-0.00949113177876029,0.5247971480856042,-4.557950308721934,-0.9475273068265883,-2.9632661123619752
50,-0.757521697743862,-0.0057912562901695115,0.5261297794982197,-0.3261449545975432,-0.00972174795432812,-0.3111513286025571
60,-0.7916921162618303,-0.03673629974530642,0.4966809535723365,0.22157047677019936,-0.5575185488608629,-0.22475399941728463
70,-0.7866598932412525,-0.02841534976253825,0.5042323400932408,-1.4303544865050812,-3.109038302681648,-3.031378128212138
80,-0.7742899322532482,-0.012020260451845732,0.5174921463048583,-1.2509700869553215,-0.6639946633806951,-1.1154333656398454
90,-0.7466831280877967,0.012493794510815217,0.5469500290284129,-1.0087062691397661,1.1427723702855268,0.3033695175813137
100,-0.7872258478546457,-0.030356674123096842,0.504217389549188,2.3337965429419842,1.2468555141328341,1.4217473307822237
110,-0.7638399732682933,0.0026224738527393324,0.5254172558711802,0.3677789105313025,-1.563891129318234,-0.7921403994218437
120,-0.7574610788780932,0.006771010488982252,0.5337445857016949,0.3672564956997535,-1.072819814101003,-0.6957917348322371
130,-0.7393371114982121,0.012305849716223711,0.5476832236303358,0.5077284683439279,0.8239107987146167,0.7375931648135968
140,-0.7792610463694539,-0.021392644688426613,0.5071680054380862,1.7133771620977585,2.1085115204215006,1.796661793859445
150,-0.7561160258469064,0.0017324098698954845,0.5385757528076291,-0.6603968897476047,0.6116850288118315,-0.39864312435147264
160,-0.790260078405906,-0.03412280210318565,0.5053902978386324,4.088296945199668,3.265143927593311,2.4251978364918303
170,-0.7767064573009119,-0.019963125191604703,0.5166670220639288,2.7843125729043354,0.08133336980622338,0.8674981499822374
180,-0.7844265385958064,-0.027575623544016586,0.502548423931938,3.250891650869774,-1.0530527131539462,0.9644399536422799
190,-0.8062285111919003,-0.052720423764898564,0.48179573301256545,3.9412893471150743,-0.690569549507688,1.5278897801148437
200,-0.7572266579619922,-0.00010833717238575499,0.5309218444576839,2.423432050797514,-0.8567494451358473,0.03692564356063088
210,-0.7916382862312057,-0.03622127619647851,0.5000433931990532,3.4267416126690424,0.4601657617515964,1.1980851763764342
220,-0.8028690821051901,-0.057197955464218506,0.49647509453328925,10.296186576577293,-1.124655501162606,3.767460579562109
230,-0.7716474380315643,-0.01771398336519983,0.5281714729967144,26.39341581172877,-3.790630772639951,6.006822893205961
240,-0.8065357390463909,-0.028783342923633604,0.5321517222136112,36.61796183267749,-7.914848493826015,4.432933546350242
250,-0.8047902834265312,-0.04812338596202667,0.6422482500194862,25.02844350627659,-4.459268969820343,1.714378799152624
260,-0.8137877808540724,-0.10309825705508362,0.6231669613766202,11.856597509679842,-12.21474900807638,-11.343835721296601
270,-0.7775565393546334,-0.12602655648046837,0.6281908048207341,16.23081748610007,-22.998009826155137,-18.527931316227424
280,-0.6696683948771622,-0.0848669849677786,0.5615504157315236,9.964512193281477,-33.471236471462305,-27.181635955260187
290,-0.7237297852868648,0.018433718058227293,0.4741982464190411,5.012155446522315,-28.923334602232924,-26.215645656190944
300,-0.702491382147553,0.017529432110745424,0.5448650233115759,-7.128105787112343,-24.36078966753164,-26.130756949100764
310,-0.6212067799014708,-0.03957847379925021,0.5412060360424871,-7.776249117617432,-20.255967002467717,-25.030255157958358
320,-0.5919556369911215,-0.12699814789723343,0.530482249459798,-8.510273024496716,-16.21200244276804,-30.107838167962022
330,-0.636756697775381,0.02617326750473244,0.5458886737924016,-19.60051115849773,-10.176885334280653,-28.203558616660924
340,-0.735407843529937,0.16207768554732535,0.5312889965097901,-15.959850484873424,-5.219728595116337,-12.449866553084393
350,-0.7036431674822812,0.15153730135189356,0.5268651833611416,-6.600375886656137,-4.178588892619598,-0.2980348951388633
360,-0.6550669791739723,0.11153208919290046,0.5314612977278799,-19.93022965452476,-0.8731936331395758,5.740721377310398
370,-0.6270973846908598,-0.04962089941352897,0.5227054666569475,-36.651621814620036,7.371140870906203,3.0067241954712856
380,-1.0617485925879409,-0.1608102417742399,0.9360414857275023,-41.021534379286564,-2.2406151781854913,-1.0394115845407883
390,-1.2870186171653868,-0.1600822543030567,1.041913864032771,-32.2355972849193,-6.668707811329,-2.5706714661432066
400,-0.853620176953455,-0.031636475817368746,0.33069376117202354,-4.581396961088894,16.683526734600196,2.8531161467491106
410,-0.9200637752065173,-0.007307877221000585,-0.0730323079479773,20.484519078661386,31.038393849541137,13.607273657558789
420,-0.9599905940744443,0.030970607668789975,0.06591181340422951,22.620409518832204,46.037132089672966,21.925953921852212
430,-0.971024567355873,0.17006270341545782,0.04096340656994331,30.32001739289766,60.19612418928482,34.6391954351879
440,-0.7824505074029235,0.18663062972945466,0.33380405342758046,38.62149121581578,45.96074952297038,31.417797891963765
450,-0.6132807689088463,-0.01428707585091385,0.9480897490549851,34.82144329668671,19.67459960622919,18.325770478145877
460,-0.6285518314096178,-0.05352535340091401,0.5863525824240041,-3.833714289969589,19.79150882476766,6.3922327418170095
470,-0.5953530535976412,-0.036881451889425904,0.6266313493556124,-22.292574734628555,11.070018022987268,-1.7262105511054064
480,-0.6570924853244751,-0.049803109498710946,0.6943777197620971,-9.470451819468526,1.8036937163750129,3.4892737974489862
490,-0.7382624303937804,-0.023681449095274282,0.5438869478142662,-9.309442317656087,7.4200505543556154,10.193984913880731
500,-0.7706105375077699,-0.020770405371955826,0.5326533903253984,-3.8725259014182707,7.109677393988413,9.747774561837765
510,-0.7783230275583913,-0.012251768099675337,0.5167190540372668,-2.3872502168146137,1.910892826256863,2.889208298696035
520,-0.7663322346630034,-0.013299097574915772,0.5080651627345799,-2.906968808342132,-3.1308006296120885,-1.4738511653838968
530,-0.7955450419388869,-0.026941709682723088,0.4941940377299744,2.6920761009515144,-0.09727021343320974,2.113923569859221
540,-0.7840307595361051,-0.020162085027304037,0.5047989454899193,-0.3706909496348409,-3.166773888951223,-1.238877184417766
550,-0.7648357254082784,-0.0027174410389695126,0.5175485081509286,0.18009541469259788,-2.337239318063608,-0.3311447337593021
560,-0.7768753272226906,-0.018954149948451196,0.5113958234830089,-3.1563026508759187,-2.721090550996219,-1.7351542439037908
570,-0.7825747376007506,-0.03963919448687566,0.5091575657715,-7.067997918334233,-2.3147514452679694,-4.1859633146078945
580,-0.7878224067594629,-0.044307901103210506,0.4976263607111667,-7.525704184847113,-1.4673020034137854,-4.889779044556413
590,-0.7775979914204428,-0.026639502298326713,0.503081966342677,-6.916635320194006,0.5892481805550922,-3.297456413813559
600,-0.764846259045528,-0.01691425790428781,0.5160743817761436,-7.066249869881663,-0.034075387303685645,-4.190199200901942
610,-0.756287888786835,-0.01548555614715691,0.531386194497872,-8.32127955375845,-2.740300152243443,-6.5574703209185845
620,-0.7762499708825883,-0.048124034329006034,0.505387606461411,-5.590446552840358,-1.7785601546612033,-4.868867860014784
630,-0.7767676895932314,-0.0380063415305877,0.5079308606692708,-3.1069198895649706,-1.5259893451253816,-1.5986557769865095
640,-0.7897765212084585,-0.04585015288236914,0.5000059851673954,-1.9767215227535426,0.8622198829418157,0.9093638781886183
650,-0.7794315653822788,-0.030618993214193264,0.5103543155056947,-7.307363400819656,-2.0568065755662013,-4.06935375448199
660,-0.7725741707858841,-0.02115900838815393,0.5195874117600275,-4.277795067098092,1.2169198095190112,-1.8927641658113834
670,-0.7747898260614354,-0.029029668023562397,0.5335448669959878,2.2712522971424853,-0.07618472347705275,-3.3840767850241926
680,-0.7584727532688258,-0.023157005516736755,0.5249413061808286,-4.7746685676549045,-2.072353119090331,-6.3073736329339125
690,-0.7625887080646206,-0.027483983553203712,0.515497305461178,2.7451379146498933,1.9046679817497918,4.225613627134907
700,-0.7559170358053975,-0.020114440464433572,0.5250787751332432,-0.3629476507372813,-2.596490690153696,1.6723407938640078
710,-0.7527125673138017,-0.007243718413966697,0.5288476203683117,2.034767125449269,0.24487274993946118,4.0488167749039405
720,-0.7884737557591064,-0.045035201716145536,0.4981318273713935,-0.46340446736910423,-0.5309646872876985,1.58786330467639
730,-0.7566089043097863,-0.022185986305518,0.5328280751325187,0.9506474282557072,-2.1510814119229162,-1.0224151573207776
740,-0.7709542574448323,-0.04388742509367085,0.5155078409769389,2.267689277346776,-0.41653686136023027,-0.05268900162986171
750,-0.7956646014570041,-0.060628106952604274,0.4924277615511079,5.232641506588478,0.9557152674729308,2.2852517344242202
760,-0.7523366009447702,-0.007067002110326223,0.5323003065418777,10.077073492972062,2.1773265953653747,4.279151564874567
770,-0.8017715280826306,-0.050131363693802264,0.48458788411675635,1.7743949665977432,-4.5250599573554515,-3.9041500153369393
780,-0.7637059870396379,-0.020069495004516186,0.5214724720969182,7.556208304367781,3.1384506620792183,1.1062564376764967
790,-0.780780954021205,-0.02823291553326903,0.5040811956119517,4.752203204420585,1.6609487644626313,-1.1165872724695514
800,-0.744928013300543,-0.008339213882073322,0.5360813700138922,1.4308558732734507,-0.7064523142515208,-3.5827682782936763
810,-0.7613806997004731,-0.009333238870997242,0.5260837103247119,-7.119953109496061,-1.4842423807439373,-3.605815227939855
820,-0.7591583762553259,-0.02309753830013401,0.5271209989859784,-7.011828817271573,-0.4546756554766914,-3.270951814454195
830,-0.7724761618629025,-0.03313061613643914,0.5102860480585645,-5.606660116354577,-2.2335601279724178,-5.3740474099656135
840,-0.7711646736016583,-0.03499170676726789,0.5187388972610631,-1.9876969367984918,1.608639204295765,-1.9969945949592747
850,-0.7623641467775673,-0.033711997185646526,0.5244984588799216,-3.440071749914235,-0.5232648150909828,-4.105093362030025
860,-0.760855327699503,-0.03535533809408446,0.5202106187763773,-0.38983019552980225,1.351362348564281,-1.053356348246186
870,-0.7959170117773414,-0.06118150231253616,0.49452264140274,4.921583644033709,-0.5199647339714999,2.8079753538672327
880,-0.7781619404576005,-0.03677178976355548,0.5094881714454657,2.1941802972949604,-1.554337836509034,1.5041651719764833
890,-0.757498179829044,-0.015114032702286635,0.5248882874622934,2.335275099676836,-0.3362980740238446,1.861824634163146
900,-0.7984548809476858,-0.06599585705630612,0.4875183644520458,-4.065483295961341,-2.8785233547674136,-2.379245692948964
910,-0.769631971160509,-0.034788293577343754,0.5128304784377726,-3.2240338357271865,-1.0887755594102226,-1.444309996087736
920,-0.770083889036094,-0.04298792915597763,0.5140036310086813,-1.3775628180857966,-0.27995855077596243,-0.2788465469490411
930,-0.7599540908146949,-0.022515224325532657,0.5321974833484824,1.6359757738329255,-1.2084056608468678,-0.11932921491634862
940,-0.786064637696931,-0.04741335249694839,0.5044336061524827,3.063402459944285,1.2628753377558706,2.5327944242344373
950,-0.7669935210591767,-0.02402173576842583,0.5158032452167122,0.44631973325181057,0.2536377095296889,1.2172287089012142
960,-0.7468503633499448,-0.0013032965747285588,0.5431230374009569,-2.4934242178419903,-0.5955309445503769,-0.4170118399274307
970,-0.774955029391682,-0.047998963140063626,0.5096436500611204,-5.978756141571903,-1.2054359703549806,-2.128310324440864
980,-0.767392789892544,-0.04064274402777205,0.5220942575898289,1.3824625504438228,2.13701984148157,1.5701228455997183
990,-0.7734709663830188,-0.036147636382320235,0.5103313241292747,5.563509640299223,2.076290768821521,4.615145140956731
1000,-0.7639428934343525,-0.023634633872776995,0.5201703753084647,1.9341210525333483,-1.59048086512762,0.5735530156034299
1010,-0.7600233086127518,-0.015632175370148563,0.5317687934202753,0.3919711886114402,-1.6775675809884907,-0.6365787100726017
1020,-0.7546710044197064,-0.010787597356339646,0.5381966743191442,-0.46698124165201316,0.9662641963197702,0.5817220535448017
1030,-0.8014861125231388,-0.07337675751632139,0.48005852274330485,1.128927867557568,3.13816142259153,1.8871012367162787
1040,-0.7766280011199144,-0.038774123433521046,0.504150064411567,0.016688986035376677,0.2575988542522392,-0.5640896129335304
1050,-0.7644214597220639,-0.018299318986000897,0.5238846508041588,-0.5795581924203734,-3.718601950385369,-2.7676592092867036
1060,-0.8076049871149364,-0.06419749000044349,0.4896059064430974,4.616996954450649,2.621221631876032,2.6804600957234377
1070,-0.7927262387583346,-0.0562464502754798,0.4982934586996075,2.6386333559803563,1.2233482385577057,1.4702203147753299
1080,-0.785089847945165,-0.05008839902830049,0.5015866428588556,2.9435048383061106,0.31201634747785234,1.4104635976001432
1090,-0.7539686568166303,-0.01779642543472333,0.5367393744314363,3.127978759404019,1.00564091567754,2.200018808565847
1100,-0.773085194619946,-0.031896831757910034,0.5138689558713574,2.6058558149555884,1.784804900821263,2.3057674367665926
1110,-0.7888312317441473,-0.048529993977831656,0.4982441382656423,0.3263714414263007,-0.023463299786971092,-0.3682968093497544
1120,-0.7789156079689524,-0.03624580297914897,0.5123487897672542,-1.63938138698173,-2.0030968644725027,-2.516361818285813
1130,-0.7827434659463605,-0.04168896238569719,0.5094012244050312,-0.2667752522674368,-1.6636338531498982,-2.1539019948214992
1140,-0.7710434487059927,-0.03375822477935193,0.5219382218948935,2.3383848222978596,-1.0052352683650536,-0.6869804398015933
1150,-0.7768027476245054,-0.041893274559942226,0.5128796529037281,3.229722511338549,1.1161703645458756,1.4290788105924237
1160,-0.7619681041463092,-0.022027638719623186,0.5288524880264741,0.9805507938458129,0.6471486664974064,1.045780666002946
1170,-0.7880434681923323,-0.050305191838505264,0.4983890576399941,-2.1458426326612763,-0.11221720108448455,0.06433738111794099
1180,-0.7822951129769086,-0.04560977710562879,0.5062625746029185,-1.2445602439227088,0.8111525559870373,0.727419228278894
1190,-0.7997180477559683,-0.061495150386358596,0.49214734417851175,-2.6912616889611773,-0.627435596137153,-0.8412878130645948
1200,-0.7676179835130373,-0.030146019744142348,0.5215919471388146,-0.8818130518552755,0.738160044891254,0.6615188827969696
1210,-0.7480071928581381,-0.013979348574587658,0.5389955365682224,-0.5748219038459293,-0.3420119791144132,0.018290126924261962
1220,-0.7789663963351193,-0.039276712717364846,0.5112436767025883,2.0138994368926957,-0.01946295594070671,1.2809972347079095
1230,-0.7719074801211017,-0.02956047308933167,0.5160427583552334,2.71717542010705,-0.984144901821819,1.6914171449971973
1240,-0.7926268583109451,-0.0444789238384265,0.4953554471145802,-1.2157685659914437,-2.6442873119994044,-0.6623282327127495
1250,-0.7783041636808284,-0.02843969685217183,0.5104863514967575,-2.6121138962146793,-0.29551677467401716,-0.42752186689764937
1260,-0.7545022455536724,-0.018564365547567276,0.5365149868853024,-5.368524488472021,-3.2583503724356544,-4.8040225432856305
1270,-0.7511770728428535,-0.020278115097114222,0.5385694606174093,-0.9704325333684971,-0.9585951019301155,-2.898218476566059
1280,-0.773396126235921,-0.03359392195206126,0.5143522842691063,0.331893543594033,0.05118536981904716,-0.749805905063977
1290,-0.7462018979094268,-0.003444665043162428,0.5437860135373356,-0.9914650067755411,0.3454613896121123,-0.13200866519058663
1300,-0.7602046343391331,-0.016033976271140643,0.5268810162110442,-3.50007579067125,0.06642428330849895,-1.0925928636055646
1310,-0.7653163792778231,-0.026169515701363086,0.5189442213225739,-5.5329224925220295,-0.5687946463423201,-1.6915160370450055
1320,-0.7534572348943364,-0.024534188128772012,0.5318819057932694,-4.319432044739931,-0.047574396158371224,-1.027951519710834
1330,-0.7519491702854011,-0.020255611568279642,0.5326425971304173,-0.8359115857010989,0.2404429923955564,-0.08229157468155857
1340,-0.7787722984781773,-0.03934385811103838,0.5081242296942035,1.684337911676637,0.2873482862627335,0.9230822321912164
1350,-0.7685309259655397,-0.026921406461704687,0.5178349095538913,0.6343389090711549,0.06447920755874764,0.4125520334972069
1360,-0.7697913871202705,-0.030296793499503608,0.5178344021554082,-0.2267442442557881,0.6999827213046423,0.2640369070878491
1370,-0.771714942623889,-0.033370054386285236,0.5187866375420392,-5.103847366089996,-2.8966648033911433,-3.811351247146261
1380,-0.7392876377732677,-0.0025592462528139966,0.5499462134190007,-4.602936674377583,-2.3339723280575937,-3.376099155097636
1390,-0.7537476341183087,-0.020227760484746844,0.5313780162923538,0.075860355585126,0.2623563812417212,-0.4225331728182505
1400,-0.7694032597714024,-0.025381162767284443,0.5219967168986166,4.3099247691134135,2.0519072972464873,2.2901681977603725
1410,-0.7989416058453149,-0.05705927611522868,0.49208317729713064,0.9879511254081206,0.04664422907494889,0.4911139077390003
1420,-0.7619468955512326,-0.023240805936882557,0.5280086549019326,0.5879332280539111,1.501379200200639,1.3177801487391776
1430,-0.7629951604947885,-0.024845965501631137,0.5232657583073468,-0.8737548366379266,0.3502142746479459,0.3057924752732918
1440,-0.7585429505646997,-0.019155223805148364,0.5298848380787556,-0.5706026681980607,-0.02369280869144158,0.7397181102961657
1450,-0.7511394412137905,-0.015293670594358455,0.5320291445035663,2.890044535772982,1.0432466411478325,2.421471500177917
1460,-0.7558151086592108,-0.01587018473502307,0.5279461815699089,2.755216236855575,0.9561672618594879,1.6159103111914557
1470,-0.7404269400507322,0.00069064415260656,0.5477779466396071,0.23155935589927767,0.08203120237473854,-0.2085727043977026
1480,-0.787701616063855,-0.045798910538026164,0.4999056943190934,-1.7380749677520735,-0.983211214158909,-1.3117562373387783
1490,-0.7685259168196574,-0.029988957373712072,0.5166199926113413,-2.4939978343680798,-0.4751030752155087,-0.855662432855591
1500,-0.781261921156441,-0.04972856276348245,0.5029608179586512,-1.572418047890087,0.22652412100446379,-0.021166388794519722
1510,-0.7758665474683499,-0.04539918497963607,0.5048874578949759,-0.45115113346053254,-0.453660069831195,0.1432652983878392
1520,-0.7663253630213018,-0.022748688286635455,0.5212436928198985,-0.2353583943613648,-0.12703633313239532,-0.13321048082351988
1530,-0.7530564421836435,-0.008188694220815584,0.5327476624082946,-2.2700017867765245,-0.921864767025002,-1.641480727758602
1540,-0.7760810631703643,-0.03772401217915453,0.5078535660589745,-3.3675074286669884,-0.5765303931665312,-2.201800625415353
1550,-0.7999377714869262,-0.05771516552433373,0.4905318997350989,-4.462549268186033,-2.657861295364212,-3.849688046082722
1560,-0.7539951412227297,-0.019178015221479716,0.5352434031511712,-0.23400199183380865,0.33385334085732643,0.2168829105355854
1570,-0.7838691865527864,-0.04541370715653048,0.5064086760836026,1.5046812430998837,-0.022499355729036163,0.8114346006712938
1580,-0.7800283329254725,-0.03491196530145972,0.5127874281284748,1.3081373627293909,2.0325511810944015,1.4297388341465789
1590,-0.7859388178180248,-0.04347629561562639,0.5045820726866586,-3.720411086280393,-0.3129287837301633,-1.665491286016431
1600,-0.7807565316750043,-0.04571444200156295,0.5128827647883362,-4.178686726058108,-0.819234102618517,-2.4243314140642096
1610,-0.7515352295901108,-0.008294696641529903,0.5414038286286328,2.6018337587461,3.1055128900140447,2.174119006901967
1620,-0.7840953059962459,-0.04373945073149679,0.5066157721138063,1.065803150069877,1.5486461194577925,1.0499375392039658
1630,-0.771499559741288,-0.030772556615000408,0.5196285863496413,0.11976787730273863,0.3390708468698775,0.04371103833245932
1640,-0.7678295539783628,-0.02609518505732991,0.5204666623523989,-0.5171424901194103,-1.9642522305079881,-1.3878665210419
1650,-0.7634640424622405,-0.0157095962524689,0.5319902507357822,-0.7117923734258383,-1.3204454813365967,-1.1055985483005049
1660,-0.7589181499102328,-0.02108025083812353,0.5267055023266306,-0.6249629811909918,0.12646174403745597,-0.00858550810063241
1670,-0.7535200648740399,-0.018219392408473173,0.5333329542178928,-2.6076447341056257,-1.6645384540666868,-1.8058023285098432
1680,-0.7684165664815734,-0.03873368330034013,0.5232471140540614,2.610842085864441,0.7320675666279446,0.9930601935985902
1690,-0.7834283371142525,-0.04884259110990371,0.5065064139083828,-0.31005569725604487,-0.14041209099075724,-0.23450545926633243
1700,-0.7618923238657599,-0.012362787650747822,0.5285889448837774,2.664789786193039,1.9806586070399999,2.7300021139639155
1710,-0.7581859709982882,-0.0137520885740801,0.5282009348397171,2.010173215422374,1.1986793288371473,1.6291888260021787
