time_ms,ax,ay,az,gx,gy,gz
0,-0.9134000199234277,-0.027643228310731963,0.40371435002753414,-0.2887319630941131,-0.5460477167465284,-0.4465137173136078
10,-0.8897889680277417,0.0005696154256362058,0.4311300148337085,-0.43983930616375444,-1.359012450889917,0.18208084153837234
20,-0.9033888050384052,-0.018410363222852583,0.4139814084177522,0.8346222455876533,0.8867488512843702,2.3319992047576052
30,-0.9092693461487107,-0.024244150097485078,0.41134091108748927,-0.7746304243671867,-0.21976373065673493,-0.38336149424331667
40,-0.9064226888882507,-0.02120419818596302,0.42011361313174567,-0.37616351259891934,-2.8021876230136034,-2.425632606493414
50,-0.8936955021009946,-0.0017478592141255932,0.42939298373116863,5.108884590041294,2.5880169456640347,3.3416790933979224
60,-0.9006367140060675,-0.0042943719397156525,0.423236525874117,0.4762500325709793,-1.4311920247559622,-0.4478737998940614
70,-0.9126107448659353,-0.016022212719825978,0.410096526232198,-0.026863867784352014,-1.3898110340805794,-1.0231244820749446
80,-0.9542351615917273,-0.06249100648327151,0.370750062536021,1.4852339902482368,1.4657340537796064,1.5173950337276503
90,-0.8974022858085181,-0.011802884126582992,0.42838040158176965,0.09948849786562497,0.41711555908049935,0.964693647691885
100,-0.9020663328166391,-0.010382025623962192,0.4207020597967112,-0.689918738697743,-2.116984545963003,-1.4854425480519127
110,-0.8836216826697417,0.014135085355117856,0.4381138172995067,1.293881734140328,-0.06161721224635408,-0.32426547017096197
120,-0.8851992112611065,0.008481623789185811,0.4398377990936863,-0.005991395350088746,-0.5060967401016564,-1.4217319045375723
130,-0.9461528353496744,-0.009329468405847053,0.4007445517200718,8.129459023568366,-2.266106308941951,3.263663641322584
140,-1.0686033148146263,0.1444921190294593,0.39965634114870263,30.80178325873269,2.4198835955711306,22.243712237563287
150,-1.3182000861415166,0.13128438711733967,0.3538933919870323,7.385816894909348,-11.376782601815727,22.760344173481972
160,-1.0962898883559888,0.15862688376244383,0.2926661354761797,3.6883737083271972,-11.61093877908411,32.14010765938922
170,-1.0617203022263546,0.06995154595050562,0.07292933129295054,-2.7778226062475486,3.978189623049676,35.81170354150462
180,-0.684487065468509,-0.10818469404067779,0.31333335339081597,-29.33185068013736,18.46090905779308,28.549024188079276
190,-0.6783648079907515,-0.006331096939535238,0.36095493344229124,-9.95490624618688,35.89718627140047,23.11753935339003
200,-0.6998561544932255,0.05165125730042032,0.466724443936841,-10.547634440205725,35.137936232194015,16.402885807752305
210,-0.6956791944265469,0.0744907861193812,0.4372376644914643,1.5221716229906272,35.24203084402075,16.908995621462402
220,-0.6750473837498528,0.08357606369290134,0.26995571232648946,-4.590344367526788,39.345114399006896,13.565641018391675
230,-0.7264376020853311,0.005654204934146079,0.3489361155873328,-9.56241241413436,44.84832896326109,9.099387730056593
240,-0.9121635392827431,-0.13781862693784647,0.3888238689117218,8.055586422956491,-1.5952762570069141,-7.112240623392202
250,-0.8744561524132733,0.07033519788104214,0.5553983065554915,35.01265744484552,-8.330204685957456,15.992950951710288
260,-0.9565921551613792,0.11011914320134872,0.3126315273022366,46.51307801481231,-6.2372423590278805,39.98233703696749
270,-1.1776107037633103,0.05130049877816233,-0.32143363950621234,50.1943246342545,-20.35295811762554,33.753833468587686
280,-1.0519438515959147,0.3009381638466838,0.20188630647752812,27.165050611595955,-2.2097659858403516,35.47149649624227
290,-0.925122536856608,0.2237320117829553,0.28649488080175783,4.4593451023176565,-9.04598977047815,-14.572906102201003
300,-0.9511644655614674,0.17580046593093507,0.2895667855940468,-12.954102950349396,-5.2067265960566775,-22.06322766460052
310,-0.958544635210723,0.12374309006895635,0.2490659417944298,-37.12675728805425,-9.52647806748802,-35.260977407068
320,-1.0206312250871648,0.040890618432370275,0.23447226475899585,-20.726947211070534,2.290625004612796,-25.60078865575287
330,-0.9538942837348833,0.018480460065899193,0.13155595182618418,15.630592982462083,39.696048362794684,12.722853451081017
340,-0.9311994930406265,0.2114329088046288,0.7018812406920476,22.239659135322512,21.03642237126647,-16.085484546897185
350,-0.9474562127103086,0.3866291779918129,1.2090515177343244,19.961312732848718,22.46637398565235,-4.927485643964661
360,-0.8414218411942253,0.1451195847773503,0.5144894580282442,7.924516491502735,11.329872130209337,0.009291440663654393
370,-0.8168597020183986,0.2978293762172819,0.9914539725543212,6.272800871942107,-0.4211609344452456,9.87717376371511
380,-0.8472386680214941,0.19066733837597355,0.6513883382986976,6.3327930975397315,-2.5285482788720888,12.204439500834608
390,-0.9353678142915032,0.16551249066027998,0.3468702034453496,-1.1789860299650496,0.9910869474584417,6.356634447692123
400,-0.9338811288842331,0.13706947617873588,0.3816794927884149,-6.641392819883585,-7.2165453751537285,0.15042312624796095
410,-0.9813301565793087,0.08257627028541276,0.343477642021971,-6.1649333753020805,-12.321085924244588,4.490461002322283
420,-0.9711356246721254,0.11629290651832755,0.24631877475550726,-10.609208042070822,-10.213038101928264,5.2674939815288
430,-1.1845329130619002,0.3096239016994496,0.37326980902239343,-0.34722417494989444,-5.201739105008171,16.291788928791
440,-0.6721457645677489,0.22167362074658192,0.24055695149895057,-27.423009646580386,5.726512276464097,5.78586541789538
450,-0.6003745235462773,0.14276198192582953,0.23023433275531024,-32.62750415412621,23.159445497399705,8.19337408938118
460,-0.7540848246736035,-0.11449422428230056,0.3288737014998045,-36.03744161146393,35.89442142266244,-21.018501868907375
470,-1.0704033342555783,-0.27310393615465317,0.39405126103369104,-13.337521926976041,23.618199783404144,-30.87829527681648
480,-1.0115629159993065,-0.2092197983112371,0.40297432455557225,18.399698501689016,-0.6664052481036591,-18.275825274215876
490,-0.9322469448156658,-0.584939938886674,0.42146641162851933,1.0446152947625087,-7.887738059575043,-20.680117762210106
500,-0.9685969004933078,0.0789854616937909,0.3164493267846017,3.361201356022246,2.463787715942459,13.297725216597943
510,-0.7206421847170719,0.17292073394254678,0.3636670551882357,61.69555481322685,-9.503790364099357,18.9827519920852
520,-0.9519895043036781,0.6254828541614268,0.25184964088652667,24.194055604060566,4.706896883301593,12.96661781757584
530,-0.949584283910578,0.1731665017158087,0.301908231588866,-11.268322796349585,0.9308434371214802,-20.00252757216901
540,-0.971505587122668,0.10412848391427573,0.29898004267665773,-13.660725754520755,-4.588940049011306,-19.886812324478683
550,-0.912867225653817,0.10688282726665876,0.32816970109964283,-8.91796107072942,-3.503939037516235,-7.068639362154238
560,-0.9866958878528607,0.10234949617645493,0.3137288584861285,-56.074117176283146,-4.453865475117858,-15.406337592220614
570,-0.9294511160524825,0.11954926989721179,0.33955790573042516,-20.448037222645443,-1.7292230399583164,8.219955150248213
580,-0.9192950985808197,0.1211282404277016,0.3392766810326611,-13.767928535662739,0.4637911252672289,13.656993820828614
590,-0.9284352666415325,0.11488424017052434,0.33571462211193653,-19.425878853180635,-4.6069582970367495,3.047113914276967
600,-0.9356325356055082,0.08736103867535995,0.32544403202915545,-15.253263972885645,-4.675135794081292,1.5994365637793508
610,-0.951114908515846,0.07715316134784934,0.3079371647991558,-10.18886261800662,-6.711358902196174,4.1305655627041915
620,-0.9089176842146176,0.1504665308606689,0.35802678598745935,-8.175749385223543,-7.081890938470312,2.828218701379235
630,-0.9321382546452883,0.11047770297760812,0.34381870145385934,-14.911791971024515,-5.28478893349766,-3.7600378046802
640,-0.9521746679383937,0.07452546470088242,0.3239815745528021,-13.633038425261674,-4.09761476482174,-4.639102383862092
650,-0.9220431864118659,0.08485481050029381,0.35391784138090265,0.8800848676320591,-1.5127759356127182,6.02724973614751
660,-0.9404341396219715,0.08373930915682404,0.3298850316854992,3.95172587894336,-1.2374088447022802,8.440404293127987
670,-0.9307734669568183,0.09467380693812064,0.34684243897266215,1.0822800446453704,0.057825434038103696,5.607434615904259
680,-0.9241494908167412,0.09917010129580188,0.34509185129626074,0.8398416715277588,0.46107013929934126,2.7051956855890396
690,-0.9169210662559059,0.10832255520545303,0.3563103393307289,-1.378128994536351,-4.416818253147094,-3.8279313426328136
700,-0.9097728115017746,0.10517308441155292,0.3613142912398825,1.8606013440893259,-0.3750184450068783,-2.625346665881747
710,-0.9013463965658233,0.11171403818503334,0.3626096184767175,3.5338052507207425,-2.538379638994135,-3.271680375116238
720,-0.9324133382323481,0.0986748753761466,0.34591930481662997,-6.076395544351056,-4.471872453091828,-7.714330959570502
730,-0.9305547717938916,0.07826321477599717,0.3427518387219803,-4.6881784863230065,-0.3681915391614492,-4.008520040904825
740,-0.923051613287557,0.08105476447289109,0.3550895368004488,-3.010054720957131,0.7026238577773414,-0.702822985081174
750,-0.8974976415446189,0.11216387089604601,0.3815119830053414,-0.017128172318208845,1.1938327398330593,3.2948713923958115
760,-0.9398210885224153,0.08856699642570204,0.342496677282599,0.9659334616092399,-1.8557794279653108,0.20664298224056454
770,-0.9324083243706159,0.09596263430667054,0.34501837932864027,-1.3210457037627759,1.2267256969242504,-0.7092584711158292
780,-0.944008107569192,0.10223444957372213,0.3375196516926687,-15.570487819611884,-1.8378556981728549,-10.116061311746202
790,-0.8942341182784138,0.11215125558439637,0.383385716419618,-8.118614716814166,-0.9515782790731043,-7.986577582923218
800,-0.9471887352012922,0.044593320343003146,0.3311152722376173,-3.490301502882437,-2.379262804618178,-5.864919238989058
810,-0.9442211121018356,0.059671884087675965,0.33961634843579247,2.1043302264954415,1.7058639438057164,0.3031275114184233
820,-0.941901117521716,0.0608349624895509,0.3378729946139933,-1.949104544186674,-1.554992782078402,-0.748488816111994
830,-0.8947008654875117,0.10545326705260401,0.3796053417531484,-0.8730079944754296,-1.2636765302463204,2.1345151027184306
840,-0.9191158035367644,0.08685331307807194,0.36338865524844294,1.1221756686057893,-0.7645551044285074,2.396326264164185
850,-0.9172484674810262,0.0819770542667428,0.3632623013034876,-0.3179342433259773,1.4303408684355643,-1.8750453478890161
860,-0.9409471025189077,0.052309328519743334,0.34326319901260477,-2.8753250798262906,-1.480394710843106,-3.451916849609601
870,-0.916402583738588,0.07319143850335769,0.36307978267808333,0.15251117552142857,1.5943809321215476,1.774325020246795
880,-0.9308396624207059,0.06461693758784816,0.3541706426182844,-2.534711510998652,0.04452835263083818,1.0808759911539554
890,-0.9576412613478607,0.04434968477409776,0.32829402767256793,1.4172721696073474,1.991457615163104,4.2324924920499285
900,-0.9113345853104128,0.08852486329088935,0.3650400597246325,0.10115006609637367,-0.6233455967854942,-1.5444035469617743
910,-0.905248180408147,0.09475344374456279,0.3807260865648433,-0.8248175443547743,-1.865119019150474,-2.411879599047717
920,-0.9623475695420275,0.04331243440939527,0.325886036101179,2.6832437909914595,2.0278054852733707,2.067005206625154
930,-0.9385129786285642,0.0638347577523103,0.34279315274580285,0.7445747846531892,0.5230984680078804,0.9327895037545968
940,-0.9150930845593831,0.07680184963282861,0.3655762129830091,0.7849931424037353,0.16408056144553018,0.9860442676958368
950,-0.9188589367444393,0.08925420702228411,0.3613311672507103,8.11187041762374,2.543742370926503,4.79712807766112
960,-0.9381979502064287,0.0715780947783538,0.3469361412605353,3.8233975777344478,0.09913101448696326,0.8376205284360644
970,-0.9257038247219862,0.0799073721610392,0.3535812342558488,-1.0038485658344674,-2.186713571037792,-2.9258218065380595
980,-0.9358487540948035,0.06447170026800599,0.34008952746896887,0.017114857953561602,0.4517896641103709,-0.10178285631549444
990,-0.9217927036158294,0.08354003220405362,0.3576919722754018,-0.417202988996793,0.23362171768693266,-0.13066747550480295
1000,-0.9367352701379988,0.07593534674061551,0.3423538838889373,3.4774888393796295,0.4708552886627077,3.393841608421222
1010,-0.943262590934425,0.08003819169018639,0.34349463266890035,-3.458420121463698,-1.4289666267311827,-1.8166278999146148
1020,-0.927304370363922,0.07556899257642516,0.3492075571499145,-2.0861925249917173,0.39280545854882143,-1.6612293974121703
1030,-0.9358740834716207,0.06011432941833184,0.3471077334372989,-1.0873380227119118,1.5422699723962185,-0.6589447412738156
1040,-0.9334409050705983,0.06289760128558608,0.35215186084320016,0.12483086525293302,0.1470367758822972,-0.04881077199440961
1050,-0.929502291665083,0.08136839299295881,0.3478907891205784,0.8597730896342215,0.736499517175903,1.5145122784634815
1060,-0.9077001234083336,0.10581935946014401,0.3646463651322437,-3.6150354162248517,-1.2001460487992595,-2.1866700882379857
1070,-0.9340755867254152,0.07277452359442609,0.3500309962022472,-4.162610942306282,-1.7583181169147832,-3.2016744443934475
1080,-0.9247744240031234,0.07908006942494021,0.3573087623837644,-1.8817298302250183,-0.10110481633337892,-1.4486557341816848
1090,-0.9100976325887842,0.08802881607131892,0.37567347048827876,-1.526317543913763,-0.41947127523545835,-1.0356933112476558
1100,-0.9466777087829635,0.05289764638893279,0.3359138315155211,-2.5060943892107383,-1.1654779809233229,-0.7463568155329638
1110,-0.9332034132656112,0.07093103627050845,0.35112329581450463,-0.09645220799080323,-0.5071733294187668,-0.24987587766403585
1120,-0.9280376092171614,0.07504987214996864,0.35353354103811774,1.0550868779834182,0.133023952721521,-0.14580602927016842
1130,-0.9662460704975785,0.04156000977064233,0.3174547551866939,2.0267920777704385,0.07369088039495822,-0.47453450981631173
1140,-0.9163289712253425,0.0904708504968178,0.3622908258310587,-0.02942025987053254,-0.2039250519905923,-1.195591132511149
1150,-0.9148028200205973,0.09110087738908583,0.3619759802679616,0.4214124127675316,0.3524749385561028,1.3489857051300973
1160,-0.8993248410274497,0.10559185180655206,0.38610280862019863,2.233869841368326,-1.975502765696214,1.3575370504229345
1170,-0.9419749568807361,0.07536708250957197,0.3408798843621788,1.2076243771983668,-1.7059434583766466,-0.14543363836503098
1180,-0.8837921887863693,0.12449985589807504,0.39777741008154327,4.431576917984152,1.1033545956310777,1.4492936982209361
1190,-0.9035285446250445,0.10774551144656982,0.37660530725389196,0.024757544142412824,0.469695424869819,-0.6843712111730003
1200,-0.9147068641403313,0.09161570327613643,0.371148074822247,-0.1889492514696356,1.2862560831194811,1.2087145994506896
1210,-0.9220108991883705,0.07658370761130642,0.35333976403449235,-0.23331507974421567,-0.6739381843121499,0.7091207238618041
1220,-0.9292301671905826,0.08015749076052742,0.3513144653552372,2.4799343672285836,1.357382485459908,1.7722941618436376
1230,-0.9241688506327596,0.07223527594515827,0.3534770219033485,3.8788729438873393,1.114256014983125,0.5839547053153122
1240,-0.9091579280379183,0.09437998901810898,0.37855227511818484,1.940014188020541,1.450724401595268,0.4776395909345557
1250,-0.9156785325812493,0.09175842532556566,0.36093191256515533,1.7153447073150059,0.6248619797063487,0.8953030792974853
1260,-0.8949138867750206,0.11785559498955452,0.3847563393007358,0.897545263942022,1.2623210865580878,2.013630693577799
1270,-0.9329918316790203,0.07261309232575283,0.3436144780995638,-0.5138598422994177,-0.11834065170744901,0.08830981081881975
1280,-0.9256859347453884,0.08649637210616892,0.35572703739918293,-0.8769303231585384,-0.25258233737531555,-0.9506839342111009
1290,-0.9196716622255687,0.0862446003111028,0.35940276692341117,-0.8363061900531983,-0.03329280352016578,-1.3010156775774635
1300,-0.9327885780697055,0.06750282949927792,0.34150547272562576,-1.0251379170766524,0.6746865217994061,-0.5236428552089715
1310,-0.9314358205258536,0.07273056254241773,0.3503605671363275,0.739693670937255,0.4639898231091404,1.9369594034567286
1320,-0.9265388615354656,0.08019144038435438,0.35347934427953875,-1.1611556296651289,-1.3661829292774195,-0.424160793239027
1330,-0.9152770820178192,0.09369780185190836,0.3695802769054953,1.4421734053660848,1.5127530185157831,1.2815456164560624
1340,-0.9153054131953751,0.08925155775635821,0.3695549721310603,-3.4671064401690517,-1.3460475622571164,-3.2789222073538706
1350,-0.904959083812097,0.10388389075910498,0.3750558059203432,-1.0279018396079493,0.9224579552503103,-0.4450765349964271
1360,-0.9244058035513893,0.08298777285007605,0.3543068683482441,-1.1692455120183707,-1.174322554756862,-0.41763484453320343
1370,-0.9454467706865529,0.061288316865488496,0.3270423511537103,-0.8677430151514995,-0.8133517336969227,-0.29666856132877895
1380,-0.9081625697559603,0.10102483439454142,0.3670840084952697,0.535046519985779,1.0288294622732412,0.3302890968044126
1390,-0.9411083394093728,0.06569244449246564,0.3341406850654979,0.37395389194636397,0.9831470676368638,-0.06089444385578635
1400,-0.9259406969115938,0.08381517637218183,0.3539262042086623,-0.2970381906378109,-0.12768703123980069,-0.7169529962057508
1410,-0.8996169047041276,0.10440211548279191,0.3785059982704061,1.8818666486358964,1.9868853571907146,2.6685150684375625
1420,-0.9292851134660323,0.08842979402279112,0.347196113424346,-0.5948228074297361,-1.1154410432079171,-0.969060677393079
1430,-0.9463461509236497,0.061141309081995984,0.32804399291803243,2.3236104700297524,2.309865622649254,1.9174509094581929
1440,-0.9402021016674328,0.06653467342959538,0.33838419986696927,-2.830155136182424,-0.8671650103974877,-2.011438361434421
1450,-0.9205101955801006,0.09907592817239728,0.36030555696638467,-0.6543590898074294,1.4468406640166585,0.42347666755173896
1460,-0.8998596947196705,0.11114128297127183,0.38001236092987944,-0.10926841577487434,0.665245914689227,1.0679772821658733
1470,-0.9139796508548665,0.0999524404304555,0.3618844295372579,0.5144662175356487,1.6658406712273495,1.4700487805231204
1480,-0.9253286661654778,0.07935467044743162,0.35106141807035834,-2.7347897937244685,-0.6088936398197256,-1.457580289916757
1490,-0.9279351537296407,0.07478368930631393,0.35102517807949773,1.59216563250498,1.8328353438239946,1.1410944621456223
1500,-0.9153465826284204,0.09351029313137839,0.3659081072492624,-0.25381632375320584,-0.4750556552228786,-1.1002357727279304
1510,-0.9376627208124145,0.061942147676580885,0.3364614672321081,1.440289387498064,2.2746383563780195,2.830442361969317
