time_ms,ax,ay,az,gx,gy,gz
0,-0.681021039373212,0.5428672893474004,0.7287419390741025,0.737932568987735,0.8932693005713237,0.38691690101682263
10,-0.665450091076262,0.556188632336485,0.7398896823147273,0.2908237381291743,0.3448902720096221,0.5830801194750577
20,-0.6736165561643129,0.553036597126095,0.7363399836215154,-2.4961454802309606,-2.5531557898174855,-2.236371571917278
30,-0.6725688661914596,0.552480121095591,0.7348940813469003,1.7401956446385975,2.313349398992113,2.1739475244714193
40,-0.6762812608991455,0.5483839447236175,0.7303534371538186,0.19399642127096856,0.9779804339189586,0.6565490843750321
50,-0.6864802284927232,0.5387602510252104,0.7195219036184293,2.608838250903344,3.0997069536696196,3.0947826713724074
60,-0.6583430526775651,0.5645092781020873,0.7444320581740674,-0.4938757243354591,0.016627823778792572,0.2675184254961319
70,-0.6742529983824221,0.5551597394277594,0.7438783790028027,1.1565361366698834,1.7743278121162862,1.5702504099118886
80,-0.6923073165673923,0.5372380876218307,0.7250135565760958,-0.38692877896292804,-0.21589920056998174,-0.10404620917810598
90,-0.712107269416708,0.5162399745911539,0.6982092832088628,-1.3261452258214836,-2.0339125046640922,-1.6407246935201365
100,-0.6626200025484034,0.5615110337282269,0.7486776209559232,-1.6421650144493802,-1.5062767093083564,-1.7694325371627435
110,-0.7101209989659568,0.5113813883065992,0.7013716865895926,-0.5954563495802438,0.5712277512866434,-0.17522102298778508
120,-0.6745065546041313,0.5462980402069462,0.735677453871577,0.33353188914244236,1.690585645376948,0.8846326402294135
130,-0.6586241738505855,0.5615105088753791,0.7508535280424712,3.2738476728599992,4.281389310213558,3.710774773507115
140,-0.6845720230487298,0.5346586833683192,0.7222863977159695,-0.12913499087741148,0.9951363495949059,1.048833557441805
150,-0.6528157469900995,0.5673628114100655,0.7515908099415358,3.288312449525616,4.432664548298547,4.544375835850688
160,-0.6698328756784526,0.5550743344150092,0.7455277808237297,-1.720189037011329,-0.7778528539217932,0.5476360132349296
170,-0.6678334579172922,0.5593065099063965,0.7512758329619543,-3.0655635243008925,-1.465921113255678,3.5610627750872803
180,-0.6800058881757216,0.5456519077418754,0.7485207641122015,-3.8890756045529757,-3.0876249332791756,4.6477428568646015
190,-0.6682845688626171,0.5243270164778592,0.7968831242828165,-1.0955916051265977,-3.8429359657593123,7.367177595873239
200,-0.6765584625049975,0.4648000194271355,0.815590978453302,-1.701171812000644,-12.355339419869527,2.9909321779433875
210,-0.6528171294699953,0.48106001072917187,0.8074289280295798,-2.7016618773781054,-24.28356687281438,-7.499735376472737
220,-0.667211945161736,0.5478242798693365,0.7841552470001916,4.039609473686497,-20.83505546981133,-6.149032191223621
230,-0.6761365152427371,0.5706675462281119,0.7026160179005568,15.13777904739921,-19.433855522874556,-0.4751207479725036
240,-0.6462269118631234,0.574354733365892,0.7194257851431262,5.341357154243237,-10.789044427799261,-3.093063643764709
250,-0.66755834614825,0.534738974768683,0.7127832169717577,5.278703083496438,-2.5414587679536433,-1.2053502430209546
260,-0.643838323092429,0.5673035582295965,0.755964718569463,2.81388914679249,-4.583746138838123,-6.041026105890002
270,-0.6573216322565454,0.5663386264930006,0.7533521522274266,0.4506700309462719,-7.370600137021578,-9.807609243765388
280,-0.6409177677936447,0.5753085707431908,0.7663982722132306,1.1531172997641055,-5.890009026991553,-8.16845408949097
290,-0.6676144775860455,0.5394956629867806,0.7255422282934463,4.340792997330036,-2.3943147732655103,-6.546549840536812
300,-0.658544431034083,0.5596823066582399,0.7596489770994798,4.766972806756254,-3.4745542346184264,-6.313742872675126
310,-0.6580811787092932,0.5648963018075804,0.7445837162029774,-5.990881259568713,1.3582141099981104,-6.076414764771039
320,-0.6783898517677748,0.5359664701725335,0.7398105191718861,-10.726599637185041,-0.6303357301186314,-10.76921402027316
330,-0.651045020510966,0.5637612486200898,0.7734720510616193,-8.497741698874243,3.068899743968587,-9.648184331644538
340,-0.6631826871125084,0.5597757845079407,0.7577198445402231,-8.802574547145728,3.261114678549502,-10.209086353024354
350,-0.6880987665496275,0.5369441812262599,0.7281565260729836,-6.61471607333014,3.4737605293752942,-8.742793569922195
360,-0.7050415324388991,0.5088852103389931,0.7022268518319692,-7.136000951613172,2.747571099802172,-9.1911097452184
370,-0.6658122185114673,0.5374577611743213,0.7480883243218066,-8.103645908003855,3.1081459492583665,-7.604746309941076
380,-0.6529718021712005,0.5086327243176697,0.7903330339498683,-4.137950105354706,-1.8888379138299847,-5.879060532704664
390,-0.6484077505075454,0.4960162394254551,0.7383469840126274,-0.13917451875754572,-2.251534317330229,-5.552245193706158
400,-0.6685270883218831,0.5095332929493818,0.7203327911111312,2.0297510727806505,-1.564993104809163,-5.923293239871966
410,-0.6652224643292228,0.521819802391288,0.7680049470155088,5.978902171569221,-3.0040911551671314,-5.82465727485798
420,-0.6626882662322446,0.4897635291323546,0.7629438527278279,13.18258972968616,-6.835171020681773,-5.8736384978921965
430,-0.624260492400887,0.5250682063012766,0.7527727648525852,14.672978200554272,-15.052887244741623,-11.536127227847087
440,-0.6374732203879745,0.6280126133032633,0.897784302338618,15.301703778343734,-10.45556782269165,-7.040469111249727
450,-0.6692315114271572,0.570443994942177,0.7733681445544364,3.3569905623852705,-7.585037602897429,-10.461742187928987
460,-0.6380785735495534,0.46979977122140804,0.7616005902682617,1.9871624711554743,-8.543201699954931,-11.996237697610573
470,-0.6612107187460432,0.48474769109315285,0.7358797001020383,-0.5422159901689476,-9.366105327341902,-14.0925128384019
480,-0.6788052439737814,0.5242261815892199,0.7536870912306175,0.3935587281303145,-6.150888894098186,-9.906434251258064
490,-0.6682798887986728,0.5477936102922241,0.7479184354104002,2.878574960390444,-4.660010769657213,-6.977104565043895
500,-0.6889101611809829,0.5048860431421102,0.6563438559474395,5.938319451367388,-5.436666509712801,-6.5524068006168505
510,-0.6366917067226802,0.4968218822836206,0.7416420520924699,0.9470322527592796,-10.352501930486099,-6.55109566531972
520,-0.6609444183104742,0.5027441164957862,0.7528189336951628,-1.6793712581603735,-5.446288435602927,-3.2077368773730788
530,-0.6264472614539891,0.5472776505462805,0.7879719388673162,0.048359558470911,-2.492733530458131,-1.3941945051426796
540,-0.6517926270923766,0.5254611216431296,0.7566425728818339,-7.118310296933417,-5.937058230025266,-5.412056026755409
550,-0.6498914014510556,0.5374419305254511,0.7649951691456076,-12.970540954023807,-6.463623863511949,-7.872511802755034
560,-0.6548465446325077,0.5365867109272981,0.7577331888180888,-19.245925629934895,-7.085221304386248,-11.154018509638565
570,-0.7055693638639026,0.48486339099544157,0.6849343042660478,-20.171429967591646,-1.1469511328399535,-9.710393218000036
580,-0.6892179742676435,0.4739917545404495,0.7319720805179266,-24.064063355014543,4.559410304923408,-10.82087565640997
590,-0.5311253571128558,0.4372835496346969,1.1819772244729956,-26.96090647886648,10.639183843287594,-4.326677022889873
600,-0.6651093202192669,0.44907228366860996,0.8268879399958788,-24.51872708234181,4.3886238511798545,-7.013411039862319
610,-0.6699487276024066,0.4948659893956452,0.6773374158866045,-18.365393300724577,21.039306902176932,-0.5693832273122251
620,-0.680997524559719,0.534499727737724,0.659518961020716,-0.7162184453248013,18.41665649830647,4.230315375026597
630,-0.6597556703457556,0.49378698430817947,0.6735279990309264,3.701141438773538,21.39698907369405,2.4457122731719805
640,-0.6359449571703506,0.4869266053413924,0.6587752834824658,3.3498406427539056,24.285552466775187,1.6088910326316987
650,-0.6933144729986852,0.5655442615515687,0.5851330661977285,11.816520284445971,11.730475543964607,5.53644036020296
660,-0.7015451997361285,0.5831936610742794,0.5829742218146917,9.099745005486358,17.006198251678228,6.499931190771677
670,-0.6396141657324813,0.5104666930477635,0.7332557954190692,5.4719400493712556,2.902614997526223,1.0910635107789548
680,-0.6760261828447945,0.4997151163995375,0.6937403814544958,2.1907480160103603,10.421328146670026,2.706150220926216
690,-0.6714252920230652,0.4924812202128655,0.6957693832467355,6.798441973994339,12.961359822601452,6.338993201135922
700,-0.6488399601506715,0.5086123826523933,0.743325211412734,5.2561651864618675,8.02666545073004,3.5024903564109664
710,-0.6339949086673244,0.5226332760122652,0.7825099006869884,-1.2292358078855692,0.2509887188758668,-2.2103225044417063
720,-0.6497050001566091,0.5042927389268519,0.768146466181312,2.2314415029902963,3.0582613920754698,3.0012625197031317
730,-0.6590719958682297,0.5063426343405009,0.7537657316912338,1.7302478135798105,2.8234671239577778,3.4642976886446832
740,-0.6492696581133147,0.5132167649752445,0.7655573454279077,-1.8931149821961137,-1.2566799744868606,-0.09086542397316322
750,-0.6903606017225062,0.4834216541749896,0.7205227557588847,0.42423906123893595,0.6986572271761733,1.0659597924502113
760,-0.6476381237432198,0.5270049247190892,0.7559641771209811,0.5689727117326894,1.5194799554054015,1.2264918371902414
770,-0.6721438505711309,0.49934990388604505,0.7299215932213082,0.010196153206756597,1.41681351734516,0.4702877911769685
780,-0.6396562063862068,0.5313797866639629,0.7625705343008401,1.0783940058614259,2.5776660048243922,1.4687097762932628
790,-0.6653929392924126,0.5113900165935361,0.7387990266021732,-0.24223927659157685,0.5219919119993603,0.5421794580680581
800,-0.660017759599845,0.5319038313997739,0.7520202785854104,0.41361724639959907,-0.9056043248512944,2.4235880716741214
810,-0.6724845470545833,0.5477073701887328,0.7466352549807147,5.57191063705234,1.8896040258017481,10.974166606438727
820,-0.6772201034431662,0.4970684656918979,0.7068175564466249,1.007923656715386,-0.08166073674626606,7.276389170346409
830,-0.6457949319761247,0.5028416657036221,0.7495586503524581,5.715377077295693,5.339596594480142,7.400604455594081
840,-0.6794139896335928,0.48179882876456837,0.712139766730288,0.42886820836388795,-0.5730302864631263,-2.303656289513447
850,-0.6596373576711593,0.5147882762873274,0.7371321827525807,1.0816092378277347,-0.1380993615056796,-2.87587502894749
860,-0.6777081494993952,0.5008047190848117,0.728285646655524,1.0043267511280165,0.5605573919196859,-0.5998369943816624
870,-0.6584399293862945,0.5209814038840287,0.7461957014366868,0.3954487865374412,1.1336485865094166,1.9198246051924581
880,-0.6498423872174175,0.5236067405565817,0.7550018278757958,-0.2270952741055562,1.1660595537868892,1.062879424317991
890,-0.646650810295192,0.5312114245890821,0.7611954862018829,2.032500796922359,3.1002071792045838,3.6188106673619553
900,-0.6889096765512064,0.4885507148559475,0.7102054564512246,-0.11262462707496282,0.8399932123207332,1.0205207575316901
910,-0.6378496406231912,0.5404919132281246,0.7639923539197782,-2.404717092798876,-2.126518704040041,-1.4740141777641067
920,-0.6725859730237074,0.505368402117976,0.7267008551693332,-2.1958243459325457,-2.7215846696984,-1.8895151443525648
930,-0.6725669543556267,0.509408535497646,0.7276805029779202,-1.632100140970758,-1.722393125473467,-1.3244634840773333
940,-0.6777741813833156,0.506570783700544,0.7283465902289106,2.1471239512531715,3.487211968238462,3.1312398546354285
950,-0.6621415493170496,0.5119759405798585,0.7412315325768283,0.011378570048967918,2.0455688371654497,1.0634000319365904
960,-0.674393857957215,0.502013428977002,0.7235422168990782,0.10895748369980651,2.4753904341175854,1.2243823089635992
970,-0.6813387708208287,0.48246115100155557,0.7185595382758412,-0.32928159895064174,1.8145021077749166,1.376655018050433
980,-0.6812303770618964,0.49370249584215126,0.7235018322764911,0.8862525075395058,2.349934340139021,2.505649540966382
990,-0.6828197831240131,0.500009859357944,0.7217373870084204,0.449939317385986,1.387069765993819,1.9011866131995605
1000,-0.6956328063927412,0.48342327697517506,0.7052761544289506,-0.18638104817521023,1.103181895889966,1.228637948072003
1010,-0.6717887660410401,0.49796506930421386,0.7247780501588788,-2.226976093430954,-0.7897625432467162,-1.2628439786265264
1020,-0.6896072697047886,0.4774724867788432,0.7074760176450663,3.005587778207607,3.4653944601596534,2.964662751907081
1030,-0.6740095678747577,0.5017766710219079,0.7356275536561175,1.4006960722321653,1.713854247683779,1.2056078006234023
1040,-0.6505375412309311,0.5107717022277513,0.7371566773152173,2.002978703283037,2.9563202012842904,1.598717718783384
1050,-0.6563395831560447,0.44526393448658275,0.7145020418613357,2.3455340782285226,-0.2322192136681256,-14.473721352622299
1060,-0.688791274884487,0.4990618972107696,0.700097862572375,3.0340061547405295,2.1543715402211845,-8.590646841541696
1070,-0.6812028756172301,0.5328235350383224,0.7242224945350838,0.3485208643371074,1.8747755114930567,-2.7200606256377933
1080,-0.7033028050276138,0.4803112049334849,0.7034208645905604,0.835982039836892,3.300127656256996,0.42091462503957155
1090,-0.6745689469384825,0.49708042831307436,0.7235706535347387,1.8316659290861805,3.3730422274286465,-0.9945471265574877
1100,-0.6484721445790669,0.5219808975893707,0.7409939192375898,4.105587081513383,3.1318122214695556,-2.3260928924782442
1110,-0.6973021010323744,0.5040794415943188,0.6982757341429897,-0.8181011882733557,-0.7100522412561158,-4.7215978311321996
1120,-0.6512323182765938,0.5683962464245754,0.7553202913375481,0.03490098339539116,-0.09039292889167516,-2.2153525406576384
1130,-0.7158599674582712,0.493181092940918,0.6837989012713468,1.245099054305368,1.508323778292841,1.0085635362065333
1140,-0.6816027764879138,0.5099735484778268,0.7167207082018908,-3.61196094011277,-2.4029217616515326,-4.347580135980229
1150,-0.6769683258253718,0.5036733664208065,0.7236345339457462,-1.0861770380871936,1.2008617660775258,-2.625889278080663
1160,-0.6845729634222493,0.4933611695518821,0.7146664545458438,-2.101368019966416,0.7883990895988595,-3.253533199577339
1170,-0.6615704121355603,0.5167461929227153,0.7333161798149509,-4.321796469758499,-1.991022240178906,-5.018258864520755
1180,-0.6510524187582567,0.528506944050802,0.7466085828378747,1.0009639401833998,0.9708163409867967,-0.8337926424002349
1190,-0.6779295862566304,0.5077995718756925,0.7231194197928745,6.074936041276998,2.2613324532101213,0.9199078382206967
1200,-0.6605908282544591,0.47883127757690724,0.7158728241916033,8.92071902601201,0.4042006675633336,-2.6667952698377477
1210,-0.6754390507112197,0.5047666941661166,0.731325856768228,6.528474687270256,-1.0433663011560965,4.735928480764423
1220,-0.6855879549048983,0.5120056046972067,0.7246247354526704,3.8506776126385853,-1.5551954454759638,8.20070740490838
1230,-0.6683255499258787,0.5207658497911042,0.7281107094974848,2.248162589079198,-1.3790231046134558,5.087065736846235
1240,-0.6459917013079662,0.5543334621280998,0.7594120525690154,0.8845110235092352,-0.5184826879975093,1.937220569129237
1250,-0.675870385999043,0.5199434853354725,0.7263342031422896,-0.31601598538591463,0.30725997062858146,-0.8146301353056573
1260,-0.6818422710524875,0.5132574819447935,0.7239031868003531,-1.5282926132766397,-0.6951116146917143,-3.484415351014902
1270,-0.6797387371324795,0.5040304906884693,0.7198025427286228,-2.159056728081759,-1.292596593886651,-3.72573866746381
1280,-0.6623370375585301,0.5203351030633399,0.7341953654246927,-1.2495543371898026,-3.322081789197103,-0.539120720484046
1290,-0.6863473492792691,0.5030611268182696,0.7153648468044344,2.0944673236347446,-1.2498554859814788,3.2077751303290425
1300,-0.6825215762145773,0.5126362714026672,0.726642235197572,2.6489974418061784,-0.5753374948728025,3.0729057326079525
1310,-0.6598752273007589,0.5351258057371362,0.750528864132523,3.147050318094091,0.48988961797673825,3.123759644173658
1320,-0.6642028589632137,0.5263548264150952,0.7395225323275646,-0.8964838687360376,-2.0727337491007742,-1.3125873476534882
1330,-0.6857158751330779,0.49674877697119124,0.71576974215039,-0.010122951730364704,-0.32847015049334366,0.09113240571684791
1340,-0.6608933265611516,0.5320868660416749,0.7506219329973401,-0.09882792666291468,0.5777278856576328,1.2378858808843933
1350,-0.677724307521944,0.5168101176028019,0.7308205347586795,-1.754352389279464,-1.6272376344657489,-0.6795327498834798
1360,-0.6613006709254475,0.53035084127436,0.7384476855991707,-0.8257065256272191,-0.8928983117368647,0.25671641502562226
1370,-0.651748552604601,0.5418383727643805,0.7528894578231502,2.3631349317925867,2.268419926695914,3.673991632403074
1380,-0.6924617798803302,0.5042449937156959,0.7224123906727835,0.42856346874110357,0.17476431227859984,1.9470164957008642
1390,-0.6561782382377056,0.5371294072297892,0.7548126944267369,0.15446598176120985,-0.3545748116527903,1.694217236647728
1400,-0.6779712858642959,0.5121086713989903,0.7246321345803247,-0.2835670503215142,-1.1374401653273232,0.7499796351261783
1410,-0.6630733344921558,0.5232539562101147,0.7395211651077609,2.2466547515077444,1.5225591193361554,3.710303798152058
1420,-0.6758936641133615,0.5169002994886763,0.7284315718887532,-2.0265215634954745,-2.2781801966767996,-0.9953830224085197
1430,-0.6906156297558571,0.5020978812565603,0.7117842066134709,-0.7650883949081632,-0.9539048038907062,-0.325062156448788
1440,-0.675383377092831,0.5160065913014795,0.7291974266326191,-3.392710183454318,-3.6869052231343504,-3.762332248718235
1450,-0.6819565838685604,0.5048308375052963,0.7210572015057023,-0.6156622061063594,-0.8049992756411027,-1.4911682763268614
1460,-0.659474449404267,0.5229154329550175,0.737678585737186,-0.9947912994330532,-1.0149849895172998,-1.8642360783726604
1470,-0.6644807238910962,0.52569241288236,0.7391713175833657,3.2493216206974758,2.8767382622151274,2.504170612191643
1480,-0.6732580542496264,0.5165163155577172,0.7366739551126384,1.9990762687163397,1.495203400639122,2.7735247879193783
1490,-0.6836284011513195,0.5080029651700066,0.7227985548961333,1.5831836342877132,2.5115119855363317,2.6222890518892257
1500,-0.648810456585862,0.5449790664552756,0.7549227405495521,-1.6759846837513508,-0.29463599645462335,-0.34446883892401203
1510,-0.6493666170829666,0.545464686650872,0.7515985180752437,-0.13572020104176022,0.6496491742104773,0.5293165071291874
1520,-0.649944401639336,0.5417288486730422,0.7484738540698669,1.2376755603112994,1.189648608676016,1.5264012000629643
1530,-0.6688870746407646,0.5192886811812503,0.726891651398163,-1.402671408780252,-2.224312530879232,-1.1050829854262365
1540,-0.6904823150853531,0.5015327241817432,0.7040579717494827,2.343354137499189,0.6213180877164148,2.0413214288004964
1550,-0.6847846892619556,0.5159355824556203,0.7179357490914201,2.1212878114550984,0.008321828496009598,1.8191405786097838
1560,-0.6626795562984059,0.5284123907058871,0.7391854013133538,2.212625345408724,1.6730203311034346,2.4413738990131417
1570,-0.6669087095586043,0.5292845597249021,0.7404452584593939,-1.4515550177297492,-1.0050444342275835,-0.4741247245264091
1580,-0.6980696151633784,0.5024215463231794,0.7141205354815444,3.9824073343025845,4.935117293406228,5.072988079694156
1590,-0.6456152347137131,0.5507163978293266,0.760849276224338,1.5548835331017052,3.090394310382906,2.4999980436474547
1600,-0.6733536866425076,0.519091946813087,0.7277635683852556,0.4310002282101304,2.2244835149831896,1.2554103677442892
1610,-0.6641858130255713,0.5317325975455582,0.742016878661638,1.615863982249352,2.9007870397382582,2.55147220676964
1620,-0.6727659744631183,0.5231849944310522,0.7343676852054959,1.2663040399270034,1.9283946859064476,2.597314262908068
1630,-0.6629358028930553,0.5358831788034175,0.741238614729491,-0.9445183078367005,-0.9239091718484628,-2.020818541399108
1640,-0.6527761540337589,0.5486726106299173,0.7512993501389597,1.2712672494386428,0.9439972162123573,-0.0868975947192161
1650,-0.6674385868216814,0.5330690504244507,0.7401900389167041,2.410968522982486,2.5503527604641296,1.6261388732468796
1660,-0.6687255525415469,0.5293261684287477,0.7382170478909126,-1.4173258406354905,-1.0230921465753096,-1.8483423416829718
1670,-0.6664881177491133,0.5300731048325554,0.7359769404026006,1.6380439057650857,1.9690863619573178,1.3936672673628292
1680,-0.6573588404955196,0.5407022438719973,0.7425957243526038,-0.017514519420284036,0.16470091022939004,0.036082678193833484
1690,-0.6860980164658168,0.5148715006583388,0.7181847604040786,1.6073417063120659,1.6482371186313247,2.06808486290386
1700,-0.6663003211778643,0.5268957916471824,0.7467859333777973,-0.40058706833031615,-0.2377363005652426,0.8522144486130803
