time_ms,ax,ay,az,gx,gy,gz
0,-0.7014249201492676,0.5786163319066695,0.802897734702923,-3.318015126814968,-3.6139140592754115,-3.073947897789148
10,-0.6985083149186544,0.5811328268632955,0.8163600260760334,-0.20161768991833545,-0.5767061927150745,-0.0520259647973935
20,-0.7164452264916737,0.5612240841151006,0.7982613184232209,2.145773924963899,1.3206640481618626,1.5605877434796014
30,-0.6923432089268315,0.5829171089909932,0.8207867000081773,0.42783936249958177,-0.04638300394115598,-0.41254148316048367
40,-0.7164324113938826,0.5605910600590607,0.7949311906781532,0.1001414491795849,0.022136287563743584,-0.22758948622192662
50,-0.6890063226135306,0.5901778081443879,0.8265468212133716,0.9195042276636299,1.4608641843821277,0.9974572691850481
60,-0.7064311401401324,0.5699763969245955,0.8058850106224096,-0.573784654195732,-0.4798744937732855,-0.2760138096156112
70,-0.6986733136260781,0.5818145172491898,0.8114281410221607,-2.881924303860462,-2.6898695777773853,-2.297105492649909
80,-0.6924766231659014,0.5846059846242558,0.8189653736972131,0.9894579771559056,1.1492148357673813,1.277128747524329
90,-0.6774143141827287,0.6003594833761339,0.8363052263017505,-0.8185437446886695,-0.38448515265017424,-1.0889861748378107
100,-0.699395938576234,0.5798873097191568,0.8145014488400898,0.3039510490128503,0.8225576366804666,0.29788374015458813
110,-0.7352405298171162,0.5511408186161926,0.785541016970835,-2.9611192515421294,-2.16615419055283,-2.574275574974739
120,-0.716225467016049,0.5660983163997395,0.7939053585774212,-0.24187428883065576,-0.7063264209687398,0.07550401636073423
130,-0.6845786173520666,0.595334178797417,0.8331633341335208,-0.972094649898159,-0.541462299535146,0.29903300235407726
140,-0.6799919810406918,0.598548782719765,0.8430663442929462,-2.378927722489726,-1.4747677272454638,-0.1819093830268852
150,-0.7451794060526721,0.5480154005876121,0.8593922489670831,-1.2324162316726985,-2.0633240269386692,6.340479739648278
160,-0.7744543087349319,0.5064651092518139,0.8839244284012185,9.446590182117733,-15.342639803812474,12.075733663694027
170,-0.7321024438365453,0.4739397265567392,0.8412522581196037,22.869042890320802,-23.405964983516114,11.454401681894549
180,-0.6463315181503895,0.5030926268710428,0.9040994920587015,37.01002791177718,-26.966547112994277,11.096465553439048
190,-0.6581786793162077,0.5010556329240564,0.8905143661324908,47.21189519874082,-31.842744133519464,7.164393820866173
200,-0.5954568783143823,0.6683343768234509,0.8965112335571003,24.05035385588892,-22.685599485194555,-6.016723922109134
210,-0.6327808888928148,0.7084899838265629,0.8641312362526513,3.9948277646583974,-8.627428434377292,-7.08812053863835
220,-0.6076998433521196,0.6668297920278772,0.8881816629705149,-0.7184043289239989,-6.829954728427836,-6.74692996502017
230,-0.6595531453525665,0.595694802592327,0.89223235331728,1.5773261714775364,-5.580889156585504,-7.869238995849435
240,-0.6240865183220461,0.626071086168929,0.9116926366534149,6.442676124064306,-8.283597423690875,-7.249931709826898
250,-0.6623089900775548,0.6252899236861955,0.8388723703419654,11.63436529281273,-0.4608406329176086,3.271301840775079
260,-0.6914176183278495,0.619538098242334,0.8501648578454694,7.800824182022731,7.315384629527563,7.766813218382375
270,-0.6981058684771807,0.6569568466774923,0.8648291145115505,4.247753377944716,5.522717705756029,4.440452272190224
280,-0.710384071109375,0.6231184891573103,0.8477234888571458,-0.20956733212390288,6.24112054306079,3.4708261565472145
290,-0.6987725152052314,0.6036506605519182,0.863673084167143,-4.771474522728482,3.033098705203724,-1.180235862413153
300,-0.6744730807368463,0.668695799621534,0.8799427638395135,0.3076975367438699,-2.046164658690431,-2.345757922770834
310,-0.7097515551647953,0.6445136088582317,0.8078260113886127,7.970875387693123,-1.4741118482102744,-0.48483368524660686
320,-0.6952033790238249,0.6413911181999294,0.8292888632633463,-1.8810092622798973,-2.5184093792421347,-5.829751334278502
330,-0.6635742393445433,0.666302952501804,0.8487780063229755,-5.354986183243305,-1.7677927420763102,-7.2036466752106705
340,-0.6525016882613421,0.6231911244945539,0.8120784493476428,-9.114444332954186,0.2045141105332544,-9.194807990298402
350,-0.6531046758257958,0.6364671136232587,0.8604928764887405,-12.492032766250881,1.33953422973436,-10.595231162219257
360,-0.6912033331711332,0.5901619430925822,0.8690735518514167,-7.278688862341338,3.5145265779577524,-4.701871170753596
370,-0.672766834840027,0.5910842689003762,0.8763846890779861,-5.15629014856579,3.1217833962724195,-4.464937208831283
380,-0.7065078072133503,0.5778699161026029,0.8610363931727282,-8.601733224254009,-2.8908500810235993,-8.769846499598607
390,-0.7084115098771617,0.5906298246829137,0.8410910711792339,-2.721148891968707,-1.013136167124895,-5.314825344979942
400,-0.696737287425143,0.5856881262689663,0.8430528610834253,-4.897999473503733,-3.2107860671130437,-7.3779228017384595
410,-0.6446326890704259,0.610164230599059,0.9034924139838519,0.8507135732444642,0.41561426840598625,-0.6863785943116771
420,-0.617111519022921,0.6143749481458666,0.9355159661647758,-0.8279826646279472,-3.5599814687578455,-3.33879656512289
430,-0.6724757513219463,0.5667275415071111,0.9085074138844884,1.0657981962861383,-4.9826154056687075,-3.805744199762912
440,-0.6151566787593323,0.6609197988614348,1.018947135166476,4.327645820729446,-6.713257193353491,-2.4385591692498947
450,-0.6174636795530174,0.7076078124726044,1.0214484651198932,5.247559262408714,-17.590923567637404,-5.447589438181435
460,-0.6570533702795712,0.634421271899164,0.8552401950475771,6.712686432167445,-11.97161555831649,-4.218766818082949
470,-0.6305384372383983,0.5901369925903814,0.9492113503932886,2.3799639898773157,-13.195043582190845,-8.809291170054937
480,-0.6528532215089773,0.6099358078079404,0.9547448623691757,4.2335486913919835,-9.088098223633196,-6.398202482565927
490,-0.7030539885624641,0.6178866309268906,0.8320092596275521,-0.7326959052862017,-11.804413981297769,-3.0227860525278407
500,-0.6341075530118057,0.6105755834138499,1.0133452840467605,3.7914608887894965,-8.836109033327824,1.007972057883026
510,-0.6802968778513024,0.6178274329582502,0.8331742829685475,-1.8797801420159876,-6.2217091264691025,-0.997180568267629
520,-0.6701178788835915,0.5949580523986362,0.8830838554172147,0.15655895035178702,-0.44452111582131604,-0.8509469288107177
530,-0.6647817826014725,0.5886967922234966,0.8738206134371178,-7.7046532731278345,-4.329606698679748,-4.072392759491457
540,-0.6518581629890164,0.5864993311299729,0.8890709585032291,-12.704035360167595,-6.054026546782758,-5.688479688339796
550,-0.6816176888420258,0.562051283329224,0.8564382542654863,-13.543489256573373,-5.422752271089609,-5.246761403233337
560,-0.667202255724079,0.5246422062386707,0.8076069362301818,-19.52471001198684,12.636589284296901,-8.20003569857147
570,-0.8219043226084695,0.4958051052582817,0.5461576896647194,-18.934795691306626,17.603155545415724,-4.6422549892574185
580,-0.5951925183379592,0.5554639660650249,0.9920111460724104,-17.749028901239896,13.513634944005624,1.669098252626679
590,-0.5742891398735089,0.5823695161779866,0.9586232424100282,-18.090820229626807,20.032991837143673,-2.6804298195619403
600,-0.638715676933749,0.6627419471997076,0.8409164936201398,-6.480795056662177,26.13058479219218,2.4551190607033155
610,-0.6720616105369287,0.5664746078768376,0.9263184011906123,-11.782749641860121,17.834286946962088,-1.0940633450076858
620,-0.6769688828977913,0.5712849582589663,1.0841389041364757,-10.862990657753175,17.900470592398577,-3.0067611928318763
630,-0.8778670544942538,0.5715459311215211,0.7533954167664826,-19.34709708942761,22.199632581065618,9.05234234499216
640,-0.7508743441600976,0.4805193826080173,0.690337472140008,-9.337849163845451,20.22557664973753,3.51113375666044
650,-0.580572211205504,0.5177271579684819,0.830261149037867,-8.831098712297308,14.572233684662523,-1.5491178821993947
660,-0.6796849627893996,0.5459135216336376,0.8465535475332958,-7.486248694842186,10.416334455673837,3.8803560791852685
670,-0.7148705429370059,0.5797751337863292,0.6152532603689203,-6.677948642496188,14.893218202730669,1.8165300435012521
680,-0.6213108729894949,0.5038347979099652,0.9107341407317044,-12.195788496946845,10.237453017117282,1.4617738069534005
690,-0.654038613308417,0.47160070108093965,0.8355751133338644,-1.0339227780863078,9.364198787968725,2.63419636902614
700,-0.7193737317480481,0.5023872669595307,0.7126657370925237,1.4332512921317802,10.21167285808902,2.518262140947268
710,-0.6844621318559014,0.527020425995685,0.8407549942844857,-1.7157829828904827,4.525948812732526,-0.8912893798862722
720,-0.694231676805958,0.5224617403372477,0.8282341715269248,0.3780237485292992,4.660464027596781,1.1587383718356181
730,-0.6900039202658053,0.5550678597360044,0.8236198302431877,-1.5946030423658253,4.005742815779435,-0.22156089346649277
740,-0.660618549759622,0.56200085904278,0.8778570558205644,-1.3890016238223932,4.812196217696162,0.8442126817945635
750,-0.6841164874134,0.5491305745213858,0.8250456465857072,-0.19659453677514893,3.41781052159214,0.42474314843438726
760,-0.7025873548283806,0.5369459059944532,0.8030403216544123,0.09538202423645648,1.376330854800968,-0.8036283165487756
770,-0.6868936352151641,0.5534063400468475,0.8241711977086044,-0.9380987856768233,-1.9963236770930421,-1.4815747955797733
780,-0.6855093268338603,0.5624459938406903,0.8359411706820649,-1.8198297824184249,-2.5061782762793614,-1.5355594842062679
790,-0.6979289613564322,0.5441228794715599,0.8118865162531195,-1.416031447970347,-1.4644909697674895,-0.9236679049778155
800,-0.7129806576909975,0.5352132010986168,0.8029918930356114,-1.0567674792915398,-0.42834435774367097,-0.19321275647469796
810,-0.6855526993035295,0.5600686638602209,0.8247999078213528,0.20658252369885277,1.1908540922243358,1.3220838787103442
820,-0.6916432004804118,0.555786653010056,0.8206878302931409,-0.9092576893994625,0.9714195800011816,-0.19368694871414194
830,-0.7251606248572121,0.5263825229747908,0.7911435171098654,-3.1258645301584265,-0.4244950336877218,-1.5559050836641415
840,-0.6829845798298654,0.5725568202387293,0.8287457261925019,-2.8913019495497116,0.45119134246157144,0.5051686434313852
850,-0.6978949807250339,0.556228090794826,0.8094846263193577,-1.2561671229414326,2.307696591378688,4.2469783455160055
860,-0.6917828364897561,0.6143757741955673,0.8000063300903414,-7.76146113027112,-3.913974355109122,7.01786301711096
870,-0.6872641490366908,0.4489183169407245,0.7657951409742628,-17.83718772584841,-2.8422462857626316,20.72121852735469
880,-0.6801775974920099,0.3926687577623343,0.8392979841623714,-11.664405311629778,-4.80831725820973,12.66865639916935
890,-0.6882596958248167,0.5729909266545476,0.8040503591554462,-3.767925495243781,-3.468391537052977,7.062015167999627
900,-0.6642499134509068,0.4131949577078928,0.8031542158179448,-6.90094456430144,0.32766330328108584,11.556266066313388
910,-0.6578855623152494,0.49870328369094324,0.8481080011021271,-0.6790782995510012,-0.3551901765209262,4.453485427067273
920,-0.69767384051791,0.540160379762596,0.8130293923223492,1.5018601613591978,1.4443089424226971,3.3046250813478006
930,-0.6690506821037295,0.5443279834436334,0.8333072026121362,5.922485887260866,5.875025143338389,6.345164033488636
940,-0.7005709431743942,0.5126281907085516,0.8013090469654383,6.663017455055069,5.0373936385164395,4.374174570336574
950,-0.6584795857380733,0.4542721419812195,0.801022949498707,7.400075249737548,1.8356161662422625,-8.98205197388067
960,-0.8331305650251686,0.8055143600931707,0.9326613349495538,34.76066740408379,8.680804483481232,1.8038774182547404
970,-0.689130563031421,0.6217098750263639,0.8445266604546339,6.007406078115279,7.160251139828379,-3.4791506245023704
980,-0.7187111525328032,0.6700505872399204,0.955311968126462,1.433980451523047,1.4656331329460692,-13.158381897894644
990,-0.7112386739987402,0.6002836133022499,0.8221870431766988,-6.510458193982796,-2.133958534706691,-5.387042266556955
1000,-0.673996869278052,0.6213622699859871,0.8414992834976427,-0.5763577077905708,3.8621404248371176,-1.4731609141777455
1010,-0.6780623871801398,0.5932071454955218,0.8282749901926869,-3.909788433485585,0.46325914867199003,-6.924355635576005
1020,-0.7254505230416142,0.5336596192498462,0.780607711201199,-3.5735197520186444,-4.523552682099073,-1.3732927278680098
1030,-0.6866521936981737,0.578403457922346,0.8219074083697078,-0.8078140013975241,-1.8633038771565567,0.38923376382934205
1040,-0.683560572339987,0.5792575306795598,0.8340943132322988,-1.1258888543644936,-1.6870993150307525,-2.384247335238271
1050,-0.6809773985587899,0.5771793994008347,0.8342710482356507,0.23038003690557485,1.3166184860198318,-1.3992009042864044
1060,-0.704212028662824,0.548568292658363,0.8075003692629231,-0.17850024669216402,1.1931000895885397,-1.2555627432466423
1070,-0.7085884668437746,0.5454266166558219,0.8004622979370818,0.6937773168040973,0.8673521488679381,2.1186775757021516
1080,-0.7191627819181203,0.5461473185023498,0.7930749206798964,2.3269694313807805,1.9368736241096605,3.2650224115322906
1090,-0.7098238727709473,0.5533698031178459,0.8037324974516833,0.6352426116309049,0.6646851070732154,0.474303942014707
1100,-0.6810365967299192,0.5837693660123033,0.8319214294261873,-1.579647297077154,-0.7247290157808213,-1.472098925795812
1110,-0.7204185603719491,0.5426549336660542,0.7935929743521948,-0.6948067651492573,0.3348122988254087,-0.028115030393526697
1120,-0.6685762131091006,0.5934710019302599,0.8544240505023634,-0.21028096981926792,-0.554712681694306,0.9249743108076566
1130,-0.6913379299538869,0.5698412118130424,0.8208442409407222,-0.8020836229562137,-0.22710974307245835,1.3138604554594882
1140,-0.7007782396939476,0.5655654586145007,0.8239743389800601,-1.785787577178269,-0.6489287343130586,-0.025911792634725983
1150,-0.691286566432067,0.5741944288770191,0.8223333444195736,-1.1422251043562435,1.7161112111543,1.9584309481565894
1160,-0.7148027338640683,0.5490717263133823,0.7995144805049672,-4.436384741274983,-0.9795330481501844,-0.35950156796370725
1170,-0.738908260791997,0.5295065215908239,0.7843804175592709,-1.426410160900375,-0.3805874670273386,10.6548490099301
1180,-0.746944018526318,0.5178859073760022,0.7948152706026228,1.8541144192037562,-2.8792540672584916,11.177882126567248
1190,-0.6992728252003962,0.5823334901775136,0.8433102142231422,6.751098414371278,-6.388270460144453,8.223195656577735
1200,-0.6783366228873926,0.5833244314910053,0.8184299070077702,5.110690521450069,-7.705907184076697,4.94269683778087
1210,-0.6806299427422873,0.5702741868002161,0.8097233946392053,3.3461007342759252,-7.048567302616174,3.3128740482251673
1220,-0.705573332279403,0.560650280173271,0.7904043805466577,1.2075177905449246,-1.5519878034579233,2.515537167528292
1230,-0.7286886741058094,0.5576735147121928,0.8033218217526824,-3.4467098442580073,-2.3217096754402964,-0.21506677978970767
1240,-0.7066453156093117,0.5717639663399634,0.8468395386442418,-3.785439747706796,-5.080452105208713,-2.699226647924412
1250,-0.7271919993489071,0.5424811741425789,0.8078011691633669,1.6154452729000073,-3.0028795808250184,0.7045957301644603
1260,-0.657590801019118,0.5909628631213508,0.8426035483769982,0.5958269332359207,-4.363584863043198,-0.03502108432221851
1270,-0.6928762413351406,0.5695365733870295,0.8081940010297016,0.11184753102407824,-1.10263999230504,0.548166589635912
1280,-0.697333697895137,0.5679945022579489,0.8311896532312765,-2.3035269314840634,-1.6341753515232509,-0.9818924407646794
1290,-0.7130501102185698,0.5526609819743066,0.8107864441006201,-1.0222281817042007,-2.640635394399083,-0.7979927693104385
1300,-0.6887745909531621,0.5725037109596275,0.8243330383429104,2.6923801560025544,0.328048354325153,2.578539911366456
1310,-0.6960652077065359,0.5685174768025641,0.8141225797629223,0.4463881180586089,-1.2902242246728695,1.082560478436754
1320,-0.7091900072095205,0.5692848290565176,0.8226973834958065,0.25371626182290763,-0.8817474050909647,1.4814968766180172
1330,-0.6836852884400891,0.5934090648313819,0.855588812560587,1.911594445942626,0.13896986734595618,1.3458915786837808
1340,-0.7117988365461512,0.5569359490325075,0.820874704195603,3.1151402862700723,-2.556956879211616,-0.05580325334237779
1350,-0.6910984690375159,0.5861252079754171,0.8017198019760926,6.06616916391048,2.208739974882593,3.749887526421966
1360,-0.6908308617891058,0.5877424993418142,0.8240425249306239,-0.34989461415674183,-1.6353488666937164,-0.0653274417123565
1370,-0.7091052351351805,0.567974621162229,0.8183610472364752,1.7528091883252372,1.037796813533328,3.1052856390971386
1380,-0.6809639982507857,0.5951017923819425,0.8421968891735431,2.076590551119401,-0.757129855061776,1.7098663293820122
1390,-0.6899576663771732,0.5901565257869131,0.8200042918103408,2.950084538046416,2.0579748036260512,3.648309645129946
1400,-0.7046806306260822,0.5607582582694886,0.800037549465018,-1.121750025622464,1.8834866791629792,1.9174725115797817
1410,-0.7117756815184463,0.5584950565264248,0.7980259042856209,-2.987322902615383,0.26092921166247307,-1.0431441668642725
1420,-0.6896558692147811,0.5840736537954191,0.842862162100131,-3.48322662449253,-1.8064621739059723,-2.6905984080464957
1430,-0.7184531186652994,0.5505512282097896,0.8015403061839613,1.8880183886688864,0.15390797429196323,-0.002942010767589709
1440,-0.6986465239511656,0.5776986385492137,0.807499096562382,0.29627717742902404,-1.5773320048018893,-1.6646081444024787
1450,-0.6881678664619014,0.5861614752284465,0.8203289541676695,-1.3129784880603599,-1.3190965167585675,-0.9106907358188873
1460,-0.7028005743660021,0.5676039627562116,0.7985428672230782,-2.2010732720434203,0.6440000534001807,-0.6329193302621005
1470,-0.6991205002494291,0.571495886854471,0.8211309044331784,-3.3986814957024296,0.34953741380233216,-2.740861700170062
1480,-0.6803229204271272,0.577381818165837,0.8444204116525904,0.6432664606308139,1.2458154700397785,0.03659656695749902
1490,-0.6900837651088298,0.573831161040127,0.8250361172479924,-0.924675597243468,-1.3506645048311774,-1.7318005584867864
1500,-0.7019505559125667,0.5772871101731523,0.819508864880367,0.7782217614549697,0.4338496430787795,0.577264403631893
1510,-0.7067141753631047,0.5745262677844042,0.8139096117417539,0.39077205812274374,1.2369245883184872,1.3966448629110015
1520,-0.6600168431663217,0.6235215252553744,0.8506598867436728,-1.200027682672166,-0.8075737419772614,-1.4940596381325828
1530,-0.6920729310328638,0.5759174499694024,0.8285896655241535,0.3526477072067604,-0.4650920670930639,-0.3856963568839451
1540,-0.6924675294990931,0.5734724978827569,0.8137467091359551,-0.41462418489638964,-1.4821718148652616,-0.6778835262158392
1550,-0.6814825185632312,0.5898457199519701,0.8301836222275567,1.651474806798292,2.0640297245348758,2.621327499959349
1560,-0.6608950833862965,0.6158758725190919,0.8597552902892891,-0.6089286050839304,0.8369536145129042,-0.3386616167332599
1570,-0.6641650451958827,0.6180817955097857,0.8594193134331455,-1.2113420058326698,1.4209851495880965,-0.9873033055317024
1580,-0.7059886136098107,0.568411806084525,0.8174724566144334,2.9142359378039284,4.273907115081755,5.074034922307469
1590,-0.6865932289808728,0.5743629002662799,0.8347997279526244,-3.8796454828253966,-3.444630212010357,-1.759233516971602
1600,-0.6729264507208662,0.5931559165713293,0.8321326565217759,0.5301082461882598,0.7048451475569528,1.303314157275244
1610,-0.6962415390153651,0.5817187125107153,0.8160748057937102,-4.372433855066434,-3.492014283029678,-3.2096222726232106
1620,-0.7152552340966482,0.5616186139159939,0.8047852305014332,-2.081703893847958,-0.9259477563778669,-1.6379756476613418
1630,-0.7080091089603273,0.5605315030206738,0.8159125136712403,0.031690627926783455,0.7108464657094087,0.5263068799057592
1640,-0.7290179670510493,0.5407900334650979,0.7990721918835597,0.4867723401116393,0.16735969384965643,1.310012989936571
1650,-0.7036110378692343,0.5683997463960904,0.8094511182148749,-0.5761506961131702,-1.6127031823403373,-1.0821203264728831
1660,-0.691060674973035,0.5874629972324875,0.8191326255294313,-0.8527341028730433,-0.6841403333754208,-0.331163597526396
1670,-0.6855303319808217,0.5906380025340647,0.8312315856628419,0.23809256087739805,1.3695121172916451,1.5102426738592194
1680,-0.6792472685741916,0.5812593377399505,0.8279504491312432,-1.8721168266490074,-1.2813501364760036,-1.4875776864804655
1690,-0.7275526734365376,0.5537649594438855,0.7929778629563852,2.1604707531781906,2.761966610463673,2.2784873942433315
