time_ms,ax,ay,az,gx,gy,gz
0,-0.7843674287351317,0.031872074764644626,0.39118737049647595,2.301382736479581,1.8944696208516933,5.072812177322092
10,-0.7775699012615834,0.03862770999548078,0.4010639412792583,4.76101366696599,1.6514740141994626,5.920102424405629
20,-0.7782582930264759,0.05146906949764677,0.3972511179439821,2.4749173392209207,0.9689075647825377,3.86943127854454
30,-0.746334902888629,0.05829336679454304,0.4263882300524201,-12.495417126396548,-1.319588904182616,4.4017716597006755
40,-0.8322950889731583,0.00014106360688418817,0.4361945168033821,-22.218296640554804,0.908702157186883,9.617391854892677
50,-0.9791830346741552,-0.1084051666833593,0.5851897719316745,-1.9594270901842112,-3.916880368651819,16.162541121364182
60,-1.0044484038528876,-0.13440487144982058,0.6565650519957498,17.83186495630556,-27.35902665852894,8.912303212974624
70,-0.892380969329479,-0.06612873764819555,0.48713504498610566,27.03971944914919,-42.98784003728807,2.3526472823373736
80,-0.7531438202026138,0.014171251343149546,0.5335988879189779,39.777372410682815,-50.306922745221684,-3.318517901841617
90,-0.7777041590485557,0.038508853092722346,0.45334364881968475,45.39029720652462,-55.92501957368164,-10.739206191364737
100,-0.5853977700563278,0.148729293237527,0.405467441580057,32.19982481824196,-51.91431196600324,-14.300372923296262
110,-0.5489029210575372,0.1172108193069811,0.4103331224496611,23.870833071031214,-45.2002640763155,-12.839888751568342
120,-0.5414529569422462,0.1523537108607424,0.38083363631508227,23.7611012218673,-37.22303526361773,-9.413630287756774
130,-0.5311368215730516,0.2095646557945535,0.3383733322753391,17.02749108417387,-23.92144690214466,-3.3751075838547266
140,-0.5497941501287265,0.2116439334069912,0.315690493980634,1.8376551957842033,-6.343403913714147,2.7815544604442373
150,-0.5740208238180972,0.1926944639662575,0.38097945678872214,-12.184220466023955,6.180070629392119,3.3612512919572044
160,-0.7226379319577488,0.0857029630926327,0.4379199354980876,-25.457091348017883,10.938415002983668,-3.1583463947239725
170,-0.8639161477732795,0.0052971559473054125,0.5144586731552974,-42.06012119700969,7.878455372697395,-14.743634833870598
180,-0.8448580644921329,-0.023843209817410352,0.4987613616677305,-34.11147461083509,0.4950885304614353,-18.59812297616555
190,-0.7437067852263455,0.053480549509828335,0.44927628052282575,-16.923198615493966,2.208974406891388,-15.211984322846531
200,-0.7372272274876441,0.02986580680872306,0.3675463866565904,-16.08032398798472,3.593891073453559,-12.02022485287625
210,-0.7093597715167301,-0.010269786564274214,0.40644540492850945,-28.497828568290206,10.209624737202727,-6.364355786262102
220,-0.7291692775780861,-0.03930649972939307,0.4260163465405072,-35.84862073029179,7.179071755616787,-12.515487131706225
230,-1.4567394524229935,-0.013623742468978114,1.0381169331320645,-57.1328614546429,-11.912881697401865,-26.618705423858366
240,-1.3984747394234174,-0.04137202165098146,0.860075431802312,-26.457137678107802,-9.817074700136937,-15.730370719984235
250,-0.7993953554968412,0.014936844491375771,0.34801915134407635,5.059601668959193,1.9787692440966402,-3.670558181026685
260,-0.7732458853944123,0.07768044539316019,0.34538295670936225,-16.47092553939284,-0.08431028735694146,-15.738910861473894
270,-0.8071321004210783,-0.02302240397286691,0.3226916889434496,-24.146255970292536,-0.770077667489558,-24.95923342412818
280,-0.7023976130092764,-0.0021553536545146842,0.6539529464641233,11.60673710742973,22.913811481257916,-4.792025620075436
290,-0.9275592436223795,0.04840880734776336,0.2152656934119578,57.99033144199609,35.779865666941085,10.966392147833238
300,-0.686749997593921,-0.19400475189130514,1.4588634272115757,16.45997881771646,49.869376560356706,27.71976360833063
310,-0.8206884189847646,-0.07215531199894581,0.42109242746350123,14.744905232804216,41.816716599430364,26.633587802610634
320,-0.7539039094095631,0.0072198698751011064,0.3329119405037736,24.01483177030708,15.458042391934374,11.1589780986625
330,-0.7050396373876913,-0.10237715237933913,0.565435686395354,9.799292373422759,7.418414988913587,3.682258207780797
340,-0.7073048168866926,-0.08873474236766477,0.6003659900595336,-21.791096496435575,0.5373606309482417,-5.661265875304168
350,-0.751772658794873,-0.0031362418471517772,0.4774887825460982,-23.776730159139852,-2.8785851546289876,-6.40304581953643
360,-0.7541986253568531,0.009990203775502323,0.4251658752544559,-1.3818784066043606,3.312886942776582,0.28182327105946686
370,-0.7687254603099968,0.019397655832542188,0.4010102425383206,-11.29058056001039,0.9998553183149077,-10.74585820718737
380,-0.7725174703908211,0.021539327324876255,0.4007831721504881,-3.545510575093036,0.007625176068324135,-7.3398725576399535
390,-0.7873720162140326,0.012132356134858968,0.3887650736147928,-5.384369906672292,-1.407371924207397,-8.659033110571507
400,-0.7968323854185899,-0.006400404458959865,0.37418227930347436,-5.816862305886914,-1.2543164811562315,-7.675409843374688
410,-0.796685862027178,-0.009084947085127427,0.3755373275253959,-5.149405100924504,-1.2787564590801614,-4.901791817670288
420,-0.7858267063615245,0.0023121652971029097,0.3833446097201378,1.8065474023982895,1.8862362323982116,1.927476240395535
430,-0.7707358447977039,0.022104624258649036,0.40625129061575377,0.7065081270541076,-2.4256309964362806,-0.34503080775081085
440,-0.7848189007397974,0.009605068963367446,0.3986153663761638,3.45278954019433,1.470864247041755,3.7853616255466753
450,-0.7796088461508691,0.009679262722492836,0.39995193878125385,-2.0975565124203213,-0.31118715883892933,1.483324417798557
460,-0.7819255778453532,0.004454032800507518,0.397673677882265,-0.7360080465778882,2.358515020232349,3.249879118452428
470,-0.7504602369721238,0.04140075847003434,0.42736417865277854,1.50866529524475,3.1769529566421477,3.167145551145862
480,-0.7522846195905736,0.03920918722307832,0.42182508000218494,1.9407454865119727,0.3792733249779769,0.8069649883131995
490,-0.7687511474589015,0.022365998236083144,0.404903333072074,4.217201248140504,1.5026746187166333,2.1308035256247835
500,-0.7561003201660377,0.03894140274128595,0.4209533180223149,0.7590550905135047,0.37944359954308915,1.6542712350567974
510,-0.7636429377267278,0.03320170492611083,0.4111792951829441,4.884065334939144,2.896533652317525,5.413959528249915
520,-0.7680889633195576,0.03718895984381404,0.4035477671334489,2.7553653318356,-0.6800504158018223,1.8815783666731132
530,-0.7773517832927676,0.02989636045170645,0.39901947196675974,4.028984267471874,1.3445776629600776,2.828753634820119
540,-0.7861429827346441,0.013998921401055126,0.3944168920473623,-0.4335175781332692,-1.1484593807343408,-0.6655615070971923
550,-0.7672468195644346,0.029279430186149168,0.4088766165718938,0.964060217070395,0.44343664458650356,1.0273476107892283
560,-0.7689126137623181,0.033035365402312424,0.40545793393271334,3.878330006332972,-0.5534611914885078,1.846730853135735
570,-0.7698711519607956,0.04218266924027565,0.40417612379073453,9.830387654858487,2.2724414032455775,8.225100943145591
580,-0.7786914513214229,0.04644861416669766,0.4072906795326384,1.751857985903304,1.630197249336589,4.5657741530080695
590,-0.7833441169265485,0.028563892784722947,0.3919875326111453,-0.9256937323667676,0.2057872365541603,0.0067412700415958385
600,-0.7809615978956264,0.022742522016851438,0.39741216400550117,-3.4472210833048713,-0.7878986050306767,-1.6509295792821894
610,-0.7592020328102487,0.038649674603544584,0.4207300397943502,-2.3062390149249077,-2.1009121958661297,-2.2056925602884974
620,-0.7661759057060655,0.03088841802669696,0.412897964816656,0.40021345917932405,-1.4144816171110883,-0.6664196833659097
630,-0.799422495815756,0.006159765192257763,0.37643717943746124,0.05311567453985466,-3.154987243825701,-1.5196957701200988
640,-0.7926186683679375,0.019148319396661437,0.37953018535434346,3.826868067632826,-0.31805987676333203,0.9110740257211793
650,-0.764180951623548,0.04008950211286856,0.4081905404564796,1.6557072909107762,-1.381435747191457,-2.8173952652426895
660,-0.7675675244047343,0.033682028042507604,0.408928173737573,-0.2418923605133172,-2.1536806211851443,-5.161218025942019
670,-0.774172256243019,0.027212623181772606,0.4043392110226112,0.6378626942323858,-0.8984747845793897,-4.046303215225166
680,-0.7775519050589003,0.01812634199868503,0.39539635415223134,1.0690783659249674,0.36785699416606144,-2.9815807447723377
690,-0.749858672397815,0.05401161462449347,0.4252501301802577,1.3066440751481143,-2.9096788304802725,-5.103401015817669
700,-0.750416220858243,0.05287624870942903,0.431234905177691,1.8875725874605,-1.7117662037188723,-4.004317679777165
710,-0.7274086347677382,0.07155970549129033,0.4501745322270865,0.050212031590191386,-1.7492821430199228,-4.22200674554127
720,-0.7781579304648765,0.017941849680570818,0.39658542614621695,-0.5374811909780656,-1.2829976977440327,-3.1112635068145784
730,-0.758246573644528,0.038190665965515985,0.42034482461144124,-2.1650376638294495,-1.759416328405916,-2.3790734179027875
740,-0.7572918823093369,0.04040965170209685,0.42157639920987705,-4.31875993986096,-2.747127107236931,-2.617078712093408
750,-0.740036322175328,0.05630314796977173,0.4323330351669332,-0.9604150057798915,-0.6728777664992933,-0.6589846211061112
760,-0.7687347950996481,0.02600348699342105,0.41169008095910786,0.6463849345295725,-2.1641773080947444,-1.9457860686915578
770,-0.7454560813119886,0.05346006541145277,0.4370022940339651,-3.0358952890749342,-0.4530771767550287,-2.0705046338979853
780,-0.7911567779017473,0.01017780856570652,0.38933018560621696,-8.450670130388218,-3.153001394841764,-6.2953036083082585
790,-0.7842557552949154,0.010896351151054633,0.39755917574699284,-7.409334537508601,-3.0780161333960905,-6.035265537799821
800,-0.7607790679303781,0.027456722806628843,0.41752639732121405,-2.842395005476224,-0.3020728233974348,-2.3538812325212657
810,-0.7683615693910806,0.017923511459051255,0.40856362068357505,-2.0610626448496996,-1.085939045190599,-2.072990143295199
820,-0.7713087137122494,0.01864959258197189,0.4067082844682007,0.67941928898811,0.35250883133259553,0.6955326119330392
830,-0.7782006571741352,0.01892958441549215,0.402236590677374,1.1241290234000072,0.3794674311449095,1.5254077206183296
840,-0.7509896693767675,0.051292158382087116,0.4329108717587995,0.6175021997964325,1.5835893297782122,1.8918052175453588
850,-0.7808986206352435,0.01867377071459132,0.40373702216648344,-5.474764343926105,-0.8660705866939324,-2.2072448270703475
860,-0.7537759341026851,0.04555571852646606,0.42881124198543463,-4.1584310433560345,1.7701244059272918,0.6571834845077449
870,-0.7782024858948874,0.011761709311029761,0.4084758491377768,-1.7883355529957048,-2.3070046827570767,-2.4406557083277827
880,-0.7675452197666677,0.031923430196690784,0.42233838539086743,2.591774713556722,2.106442942774323,1.249004785981647
890,-0.7801959965322371,0.013888179353336397,0.40069510182838863,-2.0972612808818365,-0.6815802809851674,-2.153445988307814
900,-0.76852153391349,0.026819823167854667,0.4126412344580544,1.444210092990017,0.5542531187318476,1.6000707359107016
910,-0.7887116893332153,0.007078705951496775,0.39164850291131786,2.9689757242362305,1.4486479217929262,3.875031425271374
920,-0.7646825098030902,0.033152427663665544,0.4138556451513175,-1.885966317217208,-1.0945009893961046,0.6403868027400976
930,-0.8023936242060958,0.0006173363652940307,0.3782390983668734,-0.3998802557977865,2.768926881177397,3.5976253361439765
940,-0.7571589383636934,0.044231548163083154,0.424992909011159,-4.844779502802668,0.056208510759620384,0.08649874552661561
950,-0.7824089984411896,0.014529874632311111,0.39943028433672123,-5.675472013030092,0.5764109119661716,-0.5771646983507488
960,-0.7719173441810917,0.024723540511102603,0.4045314968129451,-5.480803932955645,0.9778931383063212,-1.267202082929538
970,-0.7491726737212868,0.028945282952784826,0.4261265885325394,-7.025119918884141,1.053715542239461,-1.3774735906610984
980,-0.7671516677172258,0.010997063417628922,0.4074893285636702,-3.230072022059667,1.6948091314186322,0.10423779854697779
990,-0.7727980212450876,0.011402182391744068,0.4068344378456753,-2.3602205454983136,-0.6365763521549437,-0.73873015761964
1000,-0.7495371643916182,0.03447777477464828,0.42865444392090213,2.365963444280946,0.8934248558103832,2.1426711671434546
1010,-0.7669154181896638,0.021366291836787725,0.412920320861423,2.381402668842918,-0.18909419861879453,1.4121619126557037
1020,-0.7634813205534744,0.027194749064538625,0.42023641537047185,1.6341029756117738,-0.687061835367912,0.5956677743809882
1030,-0.7542045280722621,0.03146162473675495,0.4260290636597676,4.403284113310839,3.0930891669371015,3.532248674448712
1040,-0.783036695955294,0.007438032755119816,0.39290568789208885,-1.6896882076249244,0.4582674868296389,-0.9147554528796458
1050,-0.7530792009515092,0.03173039227850245,0.42953286630320126,-1.5294791318524674,-0.6852772123687788,-1.9331353308041512
1060,-0.7972148502553096,-0.015645981206703873,0.3844768950880464,2.1510621448905995,2.0963301664459695,0.9812367657251959
1070,-0.7538722117114218,0.03499062452595203,0.4290459455104569,1.7617680497623556,1.662163181412776,1.0580007851270965
1080,-0.7644487647462391,0.025946827507860256,0.41754747899685446,0.17017856547167257,0.11900012630803544,0.7682976326267595
1090,-0.7849420233538037,0.004499593853873954,0.3949579845847873,0.8692066870854542,1.2700704099453022,2.3418892116105763
1100,-0.7703327059787518,0.02004284147708392,0.4098359926058224,-0.3267538498388446,-0.12219688320995419,1.148377160545758
1110,-0.788920749925504,0.0024745130070381073,0.3914637759950235,0.7719689067704817,1.2198483328641232,2.5086097152844293
1120,-0.7543823461496005,0.03653624838216506,0.42571901625215225,1.4393613577333433,2.667197487966979,3.508359953251878
1130,-0.7705949771005371,0.02098173427508322,0.4098340307944512,0.7597362239222292,1.9985430723088897,2.075045339814717
1140,-0.7437190407526674,0.05068659248886942,0.43280229668132214,-1.2579086191218467,0.17161168403587435,-0.5059303084618701
1150,-0.7601378027497652,0.0314640567642389,0.41702335730337464,-3.4133887122590547,-1.2225189219488894,-2.110775579704908
1160,-0.7540142528521677,0.036609260871174054,0.4280998619104969,-2.0250599583826405,-0.42683041714102504,-1.3557008480993593
1170,-0.8030419273049954,-0.009677716485395161,0.37705070861221446,-1.160028183975289,-1.4544593791946903,-1.0389768973662754
1180,-0.752576846613527,0.04065901046833018,0.4300081093613627,-2.2406035642925914,-1.9316442582224231,-1.67738040891563
1190,-0.765985362808612,0.022714000773242895,0.4174613614755664,-3.6737101494537407,-2.2710131850665753,-2.2521767816844402
1200,-0.772383102043717,0.009337950251269971,0.4103568458923103,-1.3632316903160164,0.31041361482730695,0.5514893338277383
1210,-0.7836492174522053,-0.004383531976849438,0.396963263421238,-2.028853908870943,-1.2433727969700068,-0.48297440705395167
1220,-0.7629479281403739,0.019401881200853854,0.41468221311972453,-0.7913398609003097,-1.603025626322214,-0.06135631585148005
1230,-0.7635316825466704,0.021597494750886525,0.41347354815583254,2.876622983949538,1.4730674543961828,3.058833975604789
1240,-0.7530343162818183,0.039253911838029544,0.42612599415747254,0.17990501721339047,1.5927141201952275,-0.5267579578826809
1250,-0.7815656835687199,0.002924914879546412,0.4030847105780469,-3.8595940506375337,-1.014701591052525,-3.300578326647633
1260,-0.7750128195624364,0.005412830316086068,0.40225324984665617,-4.25036100663863,-1.951532489667443,-3.1931364324847684
1270,-0.7663115872097431,0.016733635389482457,0.4158976639434246,-1.4697916396721213,-1.6942908578827565,-1.449048680650141
1280,-0.8044804338512515,-0.014355374804517311,0.38381493003584155,4.304597554250234,2.5690487543316594,3.9057355445760167
1290,-0.7474797718389297,0.04447702560759694,0.4361678428188733,2.255723580986458,-0.04662972021574821,2.22330946348375
1300,-0.7840111886699469,0.010572954114033556,0.3954042315089635,-1.2001283165133434,-2.1348918469018225,-1.0714011804997525
1310,-0.7550192372763469,0.04056041227761238,0.4256164018172083,1.8387415255795219,2.620112289882728,1.5524068017429578
1320,-0.7671025415926515,0.021432600379033457,0.4109458554031607,-0.7739063032949978,-0.3062278308142049,-1.6415179855942585
1330,-0.7853616964570987,0.0007386599769098265,0.3862407524103167,-0.9259398716942175,-1.2834332630574936,-2.174683953511322
1340,-0.7463080610346281,0.045340828523422666,0.4324110515302072,4.097463710282619,2.4382178021247345,3.591951971842321
1350,-0.7571795981706744,0.03520131284292955,0.42633304202592265,0.8831015429823417,-1.9509573287012811,0.8519560632518153
1360,-0.7993264060422577,-0.009898802571463323,0.3804192005374192,2.180071472168194,0.851755979904316,3.081549619391159
1370,-0.7726485824206497,0.01888723347224681,0.405367974747478,-1.1894290484038184,0.49462325104165195,0.4432131456583903
1380,-0.7703901723950454,0.022574353955010215,0.40864647758301414,-3.1548906545985247,-1.1918922429437848,-1.6334316950992023
1390,-0.7680900777400269,0.025343791189769115,0.4110541077843514,1.509590356282463,2.1442375179138606,1.744135861493604
1400,-0.7776105333431043,0.015522598102704753,0.4002784190610371,-0.9261554635298508,-0.9992401807066267,-1.5442723564243077
1410,-0.7761330644093479,0.013360635286460544,0.4006673975621429,-2.6527170658634875,-2.557940382511865,-3.0286154799574403
1420,-0.769390663091952,0.015145660879009797,0.4073856633175351,0.8918796733631993,0.8409695624552004,0.6805990504125605
1430,-0.8076495921806177,-0.015915440267354586,0.3720091266294025,0.5486833186857154,0.06193067272206708,0.8698620937645345
1440,-0.7682873070777586,0.03595387350042994,0.41956173863014035,-1.954700259820056,-1.0171914130312496,-0.8123279230101437
