time_ms,ax,ay,az,gx,gy,gz
0,-0.7429697809009382,0.06271232719806795,0.6514347693040153,1.7699284773531525,7.553961675277332e-05,1.2730556886471676
10,-0.726828566773045,0.09037377387012333,0.6673827426554992,2.437998135834872,1.9393153049310858,3.5407554559795096
20,-0.752125614019368,0.05352157110216331,0.6417013460591671,1.3406460637587219,-0.4537316393540214,1.243153546863879
30,-0.749487514005057,0.07058972532347575,0.646997313345976,0.6178001677046618,0.10931581902562182,1.5809932065455063
40,-0.7361643899247713,0.07884591234421214,0.6642551556375048,-0.15386257282145271,-1.0776921987743986,-1.493192988383249
50,-0.737555873166127,0.0753129621383352,0.661207712631592,0.720397365464394,0.3948386574650984,-0.08611121748451156
60,-0.7374490899401206,0.061060062650117805,0.6506101724354622,0.12652593036018794,0.7108608002173105,1.074218384433484
70,-0.7473307077983543,0.06237092453741853,0.6519634802275666,1.6719435890353544,3.1017637570636074,3.635109174289088
80,-0.7395091054928501,0.07774229092373221,0.6565792750085372,0.15068670328784406,2.3039126061108144,2.3763114263530474
90,-0.7387383867333687,0.07482488525634932,0.655561936798175,-1.7011304155184457,1.438750113489601,1.028030034928399
100,-0.6974160365419196,0.10896909612071129,0.6982175577130818,-0.02880283461532107,-0.38217153782126245,-1.1482197454244176
110,-0.719277559260534,0.0935176687121922,0.6760815466502816,0.31153464890069527,0.5644426915835687,1.586399954912512
120,-0.7472603432779646,0.06647461672043718,0.6459255394568159,-1.9100771892631856,0.39513271140336925,2.3282943285775906
130,-0.7380064676798637,0.07368936455479032,0.6588775153247733,-2.148488547844012,-1.3144806497837846,0.4929577868809893
140,-0.7369144923802017,0.07437162147662778,0.6567077527352162,0.7203448304802706,-0.4437183924576902,0.6293383889952738
150,-0.759047689645341,0.056020524994838186,0.6374044142167972,0.8139268440255722,2.2645854529269007,1.8823214002793112
160,-0.7372636945249434,0.07014341673491158,0.6622476775506475,-4.007014422078214,1.1849435357442402,-0.43737005141203555
170,-0.7267236132175418,0.08020780073550901,0.6744334568348518,-0.7396739680185078,3.0042141295394953,2.0325286405187115
180,-0.7224799032444925,0.08197446266198502,0.6765758113599724,-2.05628704613234,-0.7507333810441945,-0.9733066614009208
190,-0.7661309699492391,0.041658479808334016,0.6358157905636296,3.990100965245434,3.565225651010307,2.7090313996608497
200,-0.7599843669111328,0.05556498715188225,0.6599060641509612,5.717006895480069,3.790146069231697,0.8985689363908884
210,-0.7462343088020827,0.08025224446543336,0.7056005127480808,30.410042350952224,15.467824764676852,-3.45033852549595
220,-0.7522248178160845,0.15185890350957945,0.7906380655490828,11.291883300847436,24.954666363441653,-9.656181446581432
230,-0.8943726988431073,0.1901631758228781,1.0143569470359508,-21.270948008648137,2.3562309882351924,-6.9260697064057615
240,-0.9019088264886069,0.11408123409609265,1.1035037186094487,-0.6429715923736703,-36.36376263755433,-8.269147800937088
250,-0.7092965968581014,0.06939204577327822,0.870930032671484,28.335348231911976,-47.34876011618156,-8.380522536644646
260,-0.5663206313114113,0.17793091242941045,0.7154242429508658,22.771827881503064,-45.2355410953261,-11.505673041965261
270,-0.5098621624735115,0.07891484336431527,0.691841440816337,-8.851590473058174,-37.995382581145904,-3.8398510348867587
280,-0.4988903159866551,0.03418490236317887,0.5734093402831228,-31.921269132994556,-27.765656475192348,-1.8703466031258267
290,-0.44351321524524084,0.02490203205665495,0.5038069236512818,-57.88634669691647,-18.710367658640344,-10.498229626902477
300,-0.4308260214542878,-0.007466608047837341,0.485218339790816,-67.73287879841014,-5.650797642169517,-15.544134269741125
310,-0.5345331394224296,-0.06954878986537977,0.390928803915693,-76.01165675781535,7.988326784941953,-14.821202638827895
320,-0.5199101995711923,0.044947160296163594,0.42611888733041015,-65.2084784465496,18.389942689457957,-9.938787895620363
330,-0.786930483835613,-0.17998917402091544,0.6706889991308419,-7.500687989673543,0.7453195994547135,4.1257573763859625
340,-0.8376886616154879,-0.17372637921387393,0.5592310657464464,20.4721299947888,-9.447951672199448,0.23166600355044564
350,-0.7575073652891751,-0.010939930828620173,0.4182418574619893,20.453783219737907,-0.6210439712580241,-1.2974297476809493
360,-0.7302876352601784,0.05128745771640577,0.45379448534957223,2.101539551396206,12.434650264734609,1.4299939502797665
370,-0.7724151763000939,-0.04560826749750569,0.5552201133527195,-5.931024808056572,17.105116030686332,-2.593879166547854
380,-0.8193523969392548,-0.03364659797730192,0.6309456311774315,-3.06649034044101,17.23464738249911,-8.65638733151895
390,-1.7701287223790816,0.2761306896105823,1.7117830569041605,19.387105171692493,-29.634525008367003,9.701298673665937
400,-0.9070735852461975,0.16828290969718787,0.5300576329113597,60.99354164064143,-10.375645896347798,27.337185643830896
410,-0.8546005265535989,0.23850139216969135,0.49815184095555287,36.22900021872639,-8.271072753133419,23.006560621586083
420,-0.8100260141768311,0.10098454632983833,0.5811214189990139,9.521876419534124,-8.634473251381383,13.284691951531952
430,-0.844845538813677,0.1075450545520209,0.5949921863443155,-13.904813548839051,0.9750508841835086,3.919437658373508
440,-0.8583268196290393,0.1716575887799639,0.5820077720284651,-20.96759947580618,18.776669292536972,1.9928112295949214
450,-1.0943084028190482,0.2400745895822279,0.7213036977526603,11.414521836784997,33.64175853882235,22.203316728954086
460,-0.8375832876343597,-0.32545852082649196,-0.0924732277456218,8.102190170243718,15.721450195059493,15.397118924970307
470,-0.8960230908866256,-0.547775115951022,1.2355871057282564,1.5665175846792176,8.254649763100156,4.260953442976471
480,-0.7334139251993571,-0.5070049226070409,1.842531638310758,55.29632157332919,-8.864676827874021,0.238743117421099
490,-0.964094462031285,0.16318373877659428,1.0616582513002062,56.25076812933198,0.4885423796186179,2.2788624491206035
500,-0.6119252387217307,-0.16223943850247693,-0.2881480791378637,34.901292688817925,13.94861381298269,-2.2460274550902124
510,-0.589479545177547,0.26988073400815066,1.2627573135082224,43.43940324968904,-11.363996058358534,-14.8560266169987
520,-0.6913906402592135,0.34417114822783695,0.2311466192804253,23.29982497509269,-3.6554726522334007,-15.637124378593185
530,-0.7531941402269339,-0.0294326856357084,0.7549470403699788,22.08773224937239,-12.60675889945633,-27.692618757201046
540,-0.5954233054796043,-0.20814679754630205,0.8876635371756588,1.0833394138272983,-4.686298580940491,-31.70007515843868
550,-0.6902504728397009,-0.0067421404401177346,0.6476277420496032,-11.020936935554847,2.4469993627949087,-29.471602977688843
560,-0.7227787685558997,-0.03916604749859645,0.6640444285978966,-22.085378444096893,1.8391450788491177,-22.70493237320469
570,-0.7675361025403704,-0.04090686021119202,0.6283086145938969,-14.61640318037804,9.762128066457763,0.12659701111781563
580,-0.796601283073207,-0.08099613081203667,0.5886295528784535,-1.8015105568344256,6.903846674623297,6.9896105739467735
590,-0.7552425845588475,-0.022869434566699036,0.6217362256760095,17.17727607685282,8.807755417026883,18.212527234874333
600,-0.761278623456411,-0.009544951212823241,0.6150787636009448,21.986520960615007,3.9330880307684364,20.43355181902589
610,-0.7764248480506724,-0.005673267130440365,0.6097371535667604,17.19900189629305,-4.526711516406163,15.993188053133306
620,-0.771684387169591,0.012450939723685574,0.6169926118059296,19.232718139165044,-3.281446639811573,12.696740946415982
630,-0.7614577707785518,0.04793141106507006,0.6247103570195586,11.247405347471188,-5.298202622341211,2.160643947981667
640,-0.7567501465248272,0.04410026781582711,0.6306376829389889,0.08324719229744576,-7.502857480463761,-6.5485212580305765
650,-0.7640854493460594,0.021250372259890998,0.6317318058193035,-4.454353540889894,-6.033630613347809,-10.68146858803536
660,-0.7574939185592582,0.021103386898158893,0.6415118057333375,-6.523115668017426,-4.025357464769931,-11.584684047953667
670,-0.7323057439249113,0.03677867941864,0.6636886373829877,-9.254298302859619,-2.8078712195249524,-11.100203309627654
680,-0.7629647442832515,-0.00663964917840219,0.6263106083829679,-2.9166744003117144,0.2075648049897314,-2.8212342316332077
690,-0.733086352693119,0.014077216807756776,0.6578626164474422,-3.389483958365836,-5.308914847168646,-4.23129507522173
700,-0.7503269990039961,-0.009666780909762654,0.6396878260420721,3.294727883974728,-1.705474459941127,1.361904694917313
710,-0.763034373463642,-0.01786563546945501,0.6334237808150786,5.9077364036655595,-0.7341131304130812,4.39906835607604
720,-0.7143813439978821,0.04406252782458763,0.6784898339694159,4.021771488506585,-0.4304210427598155,5.271202307964344
730,-0.7421886488214556,0.02314495286410603,0.6569570540037698,2.610896904230394,0.24672687969852192,5.259458578968668
740,-0.7495003165929637,0.02778723890056408,0.6448165684144158,-2.2765660687068547,-2.1123141594302925,-0.6555883566182592
750,-0.769419202648484,-0.0010118201933501207,0.6188577305278726,2.806483477585247,2.8837781938210694,1.7718543417821482
760,-0.7543528200213451,0.014561417195442645,0.6414475890479772,0.9071149811500216,0.9164568121434751,-1.8209204179424896
770,-0.7756139168996196,-0.013216943867518134,0.6131515665302175,-3.8429924375127524,-2.4677697802039607,-5.172494389931274
780,-0.7821566966993327,-0.026600072012629056,0.6050954643353551,1.8523507935892762,0.1586780505597991,-0.9764725577041204
790,-0.7243817099074016,0.02494451747018752,0.670028537614546,0.5158486459736584,-5.176203198543308,-3.998776339876409
800,-0.7392956085149233,0.01248607935607897,0.6580054378314799,4.346176074227557,-2.7262899726182654,-0.5067768435227175
810,-0.7443453590628385,0.021029613808325704,0.6507572656449414,0.31427414018591415,-2.5603887168787156,-0.6271827361063289
820,-0.7368118929338948,0.035549065932415774,0.654634057817813,3.2457029807939373,1.3601675184515356,3.026719573485678
830,-0.7718497790288664,-0.013340221604549575,0.6156536511760742,-0.941600440801812,-1.7598871404452705,-0.4090222434465659
840,-0.7503915454257007,0.003556485530275204,0.6510533259899871,1.9674325785763531,0.6092359010880772,1.5994272545957917
850,-0.7628604827690235,-0.00855530151633222,0.634149839058514,2.405194474640725,1.947550431580792,2.6272555636087347
860,-0.7756188506739714,-0.005514253261468647,0.6215963658139728,-3.647859591505382,-1.4354606737527988,-3.114782267347159
870,-0.7457127404750119,0.02483908353174842,0.6511318092688309,-0.06391660748631567,1.6667295235201678,-1.4903552203005517
880,-0.7361260686979495,0.026966139096590902,0.6615763723462704,-2.3298140648547156,1.4872857797032504,-2.7657320514848394
890,-0.7617259625970966,0.004275385112126702,0.6348297296321811,-3.1532246251551994,3.017149827655082,-2.0065660318454492
900,-0.7689919255333448,-0.006153111478489331,0.6189491799173709,-1.0026646770387688,3.259048748177837,-1.5522168747262588
910,-0.7417829150470148,0.011601472949819919,0.6448260720823535,-2.4905132130847725,-0.09635879657707158,-3.0579282755512773
920,-0.7483976293340955,0.013503174848576643,0.6440169082138831,0.5207883465203652,1.3299910522455574,2.081582850627912
930,-0.763043212319874,-0.0038103052647161803,0.6289604443554627,1.7997897471920457,2.6125625122015728,4.004148525299949
940,-0.7394817061494512,0.022300553761135537,0.6502450847206578,-2.077431670014544,-1.3134493652766566,-0.43383523034202076
950,-0.7509925025100816,0.008829366894823741,0.6361285281281938,0.4449627464021164,-0.72720773487178,0.289374114305071
960,-0.7433020267086254,0.01604945974888808,0.6434162171348903,1.592569398696745,-0.3194758596998355,0.6368357610637119
970,-0.7410253547027931,0.022982111180730812,0.6501637627339112,1.5534713328134908,-0.8787514023709201,0.2514731339021927
980,-0.7704720888998189,-0.000636861214410301,0.6195566204051849,3.2750532486026707,-0.010256690589221101,2.544077327947647
990,-0.7630880301615098,0.00749389147356155,0.625700124812498,0.5838732370763655,-1.5781342361772468,1.4731824665195234
1000,-0.7477229493211849,0.024429154590337773,0.6441132295833233,2.9022601052870596,-0.642550313890728,1.7962410511477134
1010,-0.7856051270222543,-0.009904429088960935,0.608914238465165,3.9950663080229565,-2.554279075232592,-0.8765647561531085
1020,-0.7284614000862271,0.04593102880460925,0.6629197435134061,1.9476415101507545,-5.16283153079954,-4.106086372138048
1030,-0.7900255141016307,-0.020476109926036844,0.6031729761737397,3.7150707516038093,0.8948587320101495,1.529410221852002
1040,-0.7575153294781891,0.007898687201185521,0.6440154844268033,-4.486113131343743,-4.376669163946677,-3.6971171010352943
1050,-0.7781512539569065,-0.009535712007779341,0.6259205601130917,-0.8570875735979893,-2.224622779708209,-1.9635158448797676
1060,-0.7513791509779665,0.019882350285732073,0.6472943059290277,0.3203653452408681,-1.6474231814172882,-1.5243461861326333
1070,-0.7385300511905133,0.03084647121251396,0.6537722601238581,3.4941935396168193,2.276258169734577,2.4751125460943992
1080,-0.7783000736284926,-0.006420482393588292,0.6132920863043417,2.759414305183917,2.682317758385707,2.9024768602987345
1090,-0.7743791399831026,-0.006409692417020678,0.6146252866535116,3.2450184700161486,3.0294138648949223,3.236969965822907
1100,-0.7124960470875499,0.051718744654172005,0.6770842603601817,0.4909271539031326,0.32984213281541286,0.2334195406520796
1110,-0.7673074817048674,0.0006009274634392013,0.6214816731042881,0.25473679806971017,-1.3649972784386193,-1.662897094652632
1120,-0.749305660388375,0.022657992579715232,0.6384176870257924,5.219804873409093,2.769309207017976,2.0399652262054646
1130,-0.7488780886403715,0.02002616751660537,0.6365496189909684,-0.7919986131933683,-1.1154352894942114,-1.2312325196029144
1140,-0.7634917317996758,0.011417710909745792,0.6266936386555572,-2.7284534189149623,0.29569463971014454,0.9323682136383096
1150,-0.7642877851797495,0.013734879481917078,0.6220253767486573,-3.0985560856120857,0.11790161569322666,-0.40700048821530244
1160,-0.7711630248931881,0.005383409478528063,0.6212208278379402,0.5079079854617361,1.7723102091789587,0.9666169311662449
1170,-0.7393513120414973,0.033203206196957366,0.649613198637406,2.4397199102164526,1.1367630118345509,-0.11268120674085558
1180,-0.7577135931056406,0.00832530317173756,0.6273390131225758,0.3004089637305001,-1.771091664239262,-2.433936969402423
1190,-0.733851277840795,0.02991645922421105,0.6552484286276586,2.0319014383400105,-2.4093874123117427,-1.6452475716494308
1200,-0.7430766271271331,0.024091959912649476,0.653748242814699,4.657621902348903,-0.01299897894306512,2.1537875686585064
1210,-0.750184348242951,0.033865059016967416,0.6488559231659892,5.200188784815431,1.7617720431913813,3.6831395076555586
1220,-0.765568034685989,0.014289963604039025,0.6313287649553334,-0.19937078269353864,-0.20017957654682933,-0.8760866100359868
1230,-0.7492471704378909,0.02600426849512322,0.6476969927967042,-1.0221480570609387,-0.7128696478279476,-1.9004343887563826
1240,-0.7676343795341997,0.009193219920833688,0.6210061038412947,1.210355653419008,2.5692620498515613,1.8248944994196485
1250,-0.7440240842621785,0.029278865053503134,0.6362361160017573,-1.849037462496275,-0.09198376363968885,0.7423650942323412
1260,-0.7641059556090906,0.007724275407167282,0.6257970063063457,0.841869264945429,0.5094322022106572,2.4260007079460815
1270,-0.7467810070246497,0.03754309853532699,0.6543549570346674,-1.2857964946597067,-5.061713320885,-4.261416269353447
1280,-0.733641459018243,0.03520116279189947,0.662587029586126,6.616578154002115,1.3336033452972336,1.3366504607699947
1290,-0.7649037774697512,0.010371890685972454,0.6243126815277842,3.5224493119026485,-2.8290943740471555,-3.428295054117531
1300,-0.7232791155290228,0.04108090139887185,0.6675825713667553,4.682736854005954,-2.3449800095290483,-2.810457656064308
1310,-0.7650661693108607,0.004447642834796664,0.6281233217558984,2.2849081355131746,-1.8487227873133463,-1.2163222272291794
1320,-0.7449792977614869,0.03339525427628058,0.652908469412287,-3.5796920176713667,-2.937045371203361,-1.744210715858662
1330,-0.7449882870363571,0.03359678892515246,0.6553847035448728,-1.2447799355719908,3.212659205549396,1.0833634880084388
1340,-0.7378530723943622,0.03351644661785182,0.6550025503074668,-3.745067970215773,2.215874180040384,-1.5392874572596962
1350,-0.7365546968573784,0.0435642654466578,0.6543360525606131,-6.187611405110951,0.9497547492797853,-3.215360881189318
1360,-0.7299726969430752,0.04486772987336672,0.6623834247248102,-4.934873822059005,0.2963270611255939,-2.417591291542281
1370,-0.7785799564140259,-0.005534956490773756,0.6109431840202728,-0.5981033611010141,0.43563324269565584,-0.043871161544174406
1380,-0.7330493412322334,0.03934976315368069,0.6613275529252377,1.9526718455938357,0.2508958202014196,1.4399508051724494
1390,-0.7685565576813468,0.007594446681299341,0.6250705199561969,4.313111605755476,0.9393708836145926,1.8343082100838395
1400,-0.7517915117967378,0.026446454742771457,0.6432941913718211,2.5412280001503222,-0.6746586984265692,-1.121531352495222
1410,-0.7668459033512288,0.010241927638732273,0.6279630525009874,3.710873429287304,1.7917725821808603,0.7936119475070964
1420,-0.7810152860632115,-0.005602637759179085,0.6107786472970463,-4.826345941329141,-3.3400277130183116,-3.6363621399105734
1430,-0.7575986455791072,0.016999518503644458,0.6366253036161134,-3.778425566621601,-0.7377812871471605,-0.18506756120637646
1440,-0.7765508314839512,-0.002390013066826336,0.61794084770514,-1.0040611834865718,0.2620520904290437,-0.44306916530977114
1450,-0.7050087656988077,0.06396294603205648,0.6849651687115874,0.985634908584622,1.102333647014604,-0.9301775409143774
1460,-0.7482523844657463,0.021520685996255593,0.6428032166456071,-0.6736448139122101,0.8329295802484449,-0.8458434722750068
1470,-0.7714589066827163,-0.004232284405261931,0.6221849251744298,-1.3477606415579753,1.8078634449757423,0.8024283791817037
1480,-0.7219399372616309,0.04903270329549041,0.6745848250406892,-3.0341553179307903,0.5886439647947976,0.13764347263777788
1490,-0.7456151156853211,0.03058265310953147,0.6522689222014444,-3.776077305389832,-0.6321926229980241,-1.224903189819815
1500,-0.7622113312122736,0.010481355806658595,0.63552541165145,-0.6773214821079756,0.8077875927742009,0.6192159123630435
1510,-0.7567273797012521,0.014726586264633953,0.6351603533060884,0.9437030649855508,-0.09224847128587546,0.29725143539004223
1520,-0.7747146623586346,-0.0014040303271278497,0.62149285513318,2.8267651612771147,1.0962943153888947,1.7170104624556528
1530,-0.7407339017497454,0.03807882508660502,0.6581199212732707,0.40478087025918663,-1.3076828428691007,-0.3374876808124414
1540,-0.7536061258818046,0.019085440508025017,0.6428526676894067,-0.017122816351212294,-0.41576430086683414,0.15838282524974284
1550,-0.7484354815375072,0.022535683276720935,0.6487226712311691,-1.8677636228539178,-1.7637846691985275,-1.8754782869603255
1560,-0.7487505314367853,0.01891621409643324,0.6406987427464894,-2.4603604595717252,0.6859591697707076,-0.47812674651343856
1570,-0.7457464898601195,0.028037110115001294,0.6517640909264496,-2.967173018546956,-0.32628117946075663,-2.2577411233105265
1580,-0.7301114129358118,0.0395497974396606,0.6681734782351699,-2.4601916853208916,-0.3665494543604715,-2.8754174528311003
1590,-0.719312454000934,0.04880845306302241,0.6696646058497666,-1.7336438105399057,-0.12098542948188373,-1.515446508487699
1600,-0.7925228219390641,-0.02492176426602668,0.5989069648796964,-1.776978501764784,-0.31891008101418183,-0.1907058057408404
1610,-0.7756986496127185,-0.008123418335716419,0.6114508514207555,-1.6728691129229352,-0.9159513132525922,0.47903089457894854
1620,-0.7453981033302457,0.03832172209605962,0.6523518495523604,-2.895144598178075,-2.7011679581698047,-2.967504760757504
1630,-0.7311483724690414,0.040068730298722086,0.659445901731453,-1.9554096083547237,-2.1071058915662633,-2.2081137465528418
1640,-0.7432119080955989,0.02852391171781177,0.6442099502798818,-2.834784863556319,-2.284124643019268,-1.7973415895274953
1650,-0.7575357567011033,0.011250919667731129,0.6488595937737527,3.154726568706407,-2.1836641665930885,-1.151002842414301
1660,-0.7752810978990572,-0.0037361589297458756,0.6184836146511792,2.465546531175704,-1.3974721684421494,1.7961806893443846
1670,-0.7460479330738861,0.027056464787664145,0.6507790783272076,6.418466299733255,0.8703497361850239,3.499305425627858
1680,-0.7337495479105971,0.03490754718209368,0.6533986717901435,-0.9745394578123625,-0.585630611759379,-0.6305825282310424
1690,-0.7541922248960733,0.014460660248322564,0.6368291464507749,1.598934114935219,0.38115936286982405,0.24377412923712105
1700,-0.7403156662655819,0.031456806772310074,0.6479946593046766,0.2326601775238349,-0.36343202865163327,0.8739236715294293
1710,-0.7387921592646832,0.029136868047320838,0.6474641309938399,-1.123219364189159,-1.1778019253307674,0.467047951420976
1720,-0.7459110924448554,0.02686167954196986,0.6476827534492469,-2.76022066600945,-2.93573928800307,-1.0514591357208294
1730,-0.7640336307722573,0.01541829036528494,0.6345678375318295,-0.554696356744357,-2.094510493444213,-0.4187479080110398
1740,-0.7684983230177113,0.0030696686989333637,0.6273820883276416,1.535114769043528,-0.49429421755500935,0.20928504699041006
1750,-0.7546029726108852,0.022122358964200395,0.6384213386596517,2.5310952688625417,0.5529925783130656,0.2997142658552352
1760,-0.8008356982578301,-0.01854440056851586,0.5915259105382282,-0.3942543881775328,-0.13948680881763242,-0.6563864066334394
1770,-0.7196889050256474,0.05854832174125084,0.670868152897423,-2.7060017700798595,-0.553430688257557,-0.633704957454776
1780,-0.7416675737505353,0.031078223628658967,0.649877452146291,0.16770964920807607,1.9419695918596713,2.2790492070802166
1790,-0.7220029713690694,0.04793203780265669,0.6662876494557031,1.3830570834125087,2.022287078460208,2.4107333683212206
1800,-0.7500523562502381,0.01968742971800054,0.63470902963689,-0.12786975838901182,-2.473577317863475,-2.27661084010446
1810,-0.7734557051058659,0.0019279238123199663,0.6187975246029802,1.675199992279877,-1.0641323728712764,-0.8942665033643755
1820,-0.7240507435238981,0.04634151011682988,0.6770614900666501,5.994516902199059,2.4238305723657607,2.4996184975900815
1830,-0.7621263649233738,0.012696418129286218,0.6339433565253153,3.5455847805582383,1.8242317038424918,1.952384593884335
1840,-0.7654871132624719,0.015380071713958901,0.6308317592658866,-2.5811520089221576,-1.0619146798732815,-1.2546114775804902
1850,-0.7495885332726047,0.02549405104185629,0.6450435696914057,-3.6150702952820426,-0.2346164323468527,-0.8498371272196737
1860,-0.7457391338615986,0.023247859512921833,0.65028931602712,-0.25326219783375326,2.8838314820267366,2.4150834497368487
1870,-0.7828372343040252,-0.008448430189162928,0.6172193677783261,0.41001959433023427,2.3158787907419347,2.289748230140594
1880,-0.7510347006480776,0.02582268738374089,0.6500925966003614,-0.557870348570031,0.4574900445547285,0.5268857612193814
1890,-0.7438156897983084,0.025616278449671362,0.6548892857751771,2.4742926470208397,0.11359020631283406,0.38217502743695014
1900,-0.7385537658248615,0.031133635936673974,0.6547630385034744,0.9404156554228474,-1.1842224233141965,-0.6818097559191966
1910,-0.7820625634098242,-0.007995980109877815,0.6182808532734272,-1.0802765937959005,-0.6822903457433575,-1.0340351088409567
1920,-0.7629750050704343,0.01382507820001998,0.6387495768058371,-3.2215423172579296,-2.344963734828419,-3.3452889490835993
1930,-0.7416445303429596,0.025651609407839834,0.6578603149666744,-1.0773180061978764,-1.195270521833928,-1.7929806457170212
1940,-0.7356380182740869,0.022018410228640033,0.6507861069097406,2.862674572511538,1.7593541209105572,2.1670174543537377
1950,-0.7436010710106861,0.01957109117868137,0.6496692442563691,2.29975322963742,-0.9152785403785775,1.0514193953162716
1960,-0.7573048615375388,0.013497395920896058,0.6359083425515346,0.30691302469420867,-2.3350242060777417,0.3459463169355348
1970,-0.75579497488228,0.01998125900711121,0.639475206320485,-1.8643849860083732,-0.9521664323769818,-1.6067310792205098
1980,-0.7462117185906503,0.022446961604864042,0.6460858302288008,0.20276379677301848,1.1598299973292772,-1.0152967170123535
1990,-0.7483382126339178,0.014742215693258058,0.6424919605306719,0.6506159391817348,1.8407228800268443,0.2877302920289827
2000,-0.7420238354774318,0.023443764495250263,0.6543549056652352,-3.4258360973990563,-0.4266242784984742,-0.5967717084713137
2010,-0.746234731810327,0.024887352573136397,0.6440011515095806,-2.241252318475193,-0.18214928954740817,0.18020156904931905
2020,-0.7657029279654116,0.00735004267654232,0.6216199301216541,-0.3245776107444015,-0.7793760812231787,0.0362557309286472
2030,-0.7615012491083384,0.012524937949448249,0.6283410628443704,2.333448726851548,-0.6850873101914354,0.2001807320916954
2040,-0.7489447001281881,0.01696237954353687,0.6426489590106551,1.4125975948820966,1.5700942823157158,2.737927874264373
2050,-0.7508717969259264,0.0248172735221688,0.6406184921976248,-3.6162331904924137,-1.5709698716493496,-0.7498883377500176
2060,-0.7504390675575789,0.02399384991260747,0.6429156324365464,-2.18905668393052,-0.2059987462149142,0.2698276224083369
