time_ms,ax,ay,az,gx,gy,gz
0,-0.7438121811688141,0.040446372824266746,0.5154384336555562,-3.6830614970695166,-1.9016857013324355,-2.504373597899347
10,-0.7410494724631291,0.04837304812133798,0.51903403930777,-2.8222257186515893,-2.895203549357071,-2.50555986311266
20,-0.7325970580244366,0.06157233740164769,0.528928669057143,-0.13536895224133594,-0.21930282809387633,-0.15014444507916128
30,-0.747889951375324,0.04217511324691664,0.5160081824863401,1.7278523755609418,-0.010066686532958558,-0.6554128109610138
40,-0.7320955167701844,0.05913446931410618,0.5316656593468843,0.7610843846367679,-0.3652706271884718,-0.9470366201463769
50,-0.7124099314597229,0.07125697419316471,0.5514687069796954,2.60300867802873,2.023219356002491,2.056248989315904
60,-0.7488367832874885,0.03730964800792076,0.5143794162351811,0.1329236344928728,-1.0712765388953807,0.5032951283506595
70,-0.7355773780544539,0.05333737943092206,0.5252550199717447,3.93627038669902,-0.008741800751756401,2.3543119426717087
80,-0.7752918814331115,0.008999990178653154,0.4892501808775126,5.277600323500501,-0.16469296792673413,3.0828133243031703
90,-0.7682211660430783,0.02743827482761573,0.5260876204411882,8.857582710842893,0.7393533964597958,3.6264976151982964
100,-0.772489205730248,0.0517014184150307,0.5589387535941931,10.611001738408666,-7.832324985288199,-1.7458767224032692
110,-0.807092608485888,0.09766986991959883,0.726537379021691,13.525327018775938,-25.39538381083838,1.0975153983241521
120,-0.7050235926581684,-0.018256081812462917,0.7441531744668722,15.829529844233607,-49.49692118305367,2.480346821538703
130,-0.6959827826113305,-0.029564223262024965,0.7025062593583086,18.920949110065123,-60.81772139584262,-6.158727001575287
140,-0.6588451113220859,0.13529165712611763,0.5436089985675981,17.74865754998803,-64.94153757644251,-7.737834870568335
150,-0.5372749673533262,0.21720967751192777,0.566943046393372,-2.7240784250260006,-37.335285543033045,-4.562611621802196
160,-0.6762703510012672,0.32193103120587935,0.49715007100567876,-23.605834513852745,-16.47461863555016,0.7680524005234722
170,-0.7370997475725017,0.32052273065969017,0.38545990299415117,-37.47728251700344,-0.5864011427966747,11.787852680466669
180,-0.7013041201771723,0.038308470353921875,0.5110591000546673,-48.068056226941344,14.611114362009644,14.45113276322769
190,-0.7060491164719319,-0.2507604339887655,0.6229978904790349,-46.170580015781944,22.266057362945517,-3.532728931422679
200,-0.7745573923420342,-0.10360983101143928,0.7137128150332118,-21.010196876246283,10.66150185298907,-15.214163300376187
210,-0.6557503699799364,-0.12865166809908402,0.7619005516779145,-16.222471697517204,-9.125072122537842,-6.554623674478412
220,-0.4963668162438772,-0.17794098643564607,0.8225529765591654,6.8611516381997895,-18.40332466175642,-15.09669388800477
230,-0.5385733228740693,-0.21746626081625287,0.7532968844959983,9.709800823072388,-22.809133808589976,-19.195733543514248
240,-0.1334237392218091,-0.52951472522374,0.7558725773018778,3.497405948264164,-31.206492742154882,-34.989189939029266
250,-0.6458817398237795,0.10266720210870241,0.884400139679604,-0.01864609097553993,-28.996881018259252,-26.181833343433297
260,-0.7208231222234522,0.21548247210491137,0.5494851525457258,-6.283138648902362,-17.466233562923982,-9.670790554063732
270,-0.8120997839443517,0.08891311404558189,0.4588937515084507,-8.416818254034212,-4.203181574787895,1.8612960427595162
280,-0.7221271894565224,-0.031254762169666814,0.5528657452964404,15.420815102916288,-0.7156419058310665,0.09738582563846271
290,-0.8002376060501557,0.05948257740832216,0.45773729736697916,39.221444326231016,12.219104084761602,-6.4791482848714725
300,-0.8854047995538936,0.37690365439238727,0.3463898851074205,105.35346738545653,74.98386115724634,16.273135473337728
310,-0.6978516335370476,0.6903201477677109,0.6892231331435156,80.56146656203211,92.2026563495535,42.26028787932357
320,-0.7197982737651137,0.22803232734151058,0.6271129976681522,7.107334757095965,85.88538249900063,51.971180230673944
330,-0.4069730445256529,-0.14215838199645472,2.0421083513771534,-5.945764074556632,61.093924580127464,49.07279804491472
340,-0.5117860160980996,-0.052383491390123035,1.5899264823633485,11.464010489008661,19.099199323346607,7.636305537823836
350,-0.7009641458625235,0.1031234104187842,0.5386044002910337,-13.95408181010243,7.756092984229534,-7.581136777009099
360,-0.7363160662471151,0.015652013421145188,0.5328627592292494,-20.572291715358237,3.661530928403037,-12.179753243462041
370,-0.7205098118178785,0.05280877578504287,0.5472785312162703,-12.65749313477814,1.9703987748193985,-7.406654687197239
380,-0.744599031164544,0.03482144192643678,0.5443188453434562,3.298732909953947,-0.7861357568326448,1.4932466635956616
390,-0.7283904036416827,0.1070158819545168,0.5409163925041733,7.589541180407686,-3.126861439089517,1.9475604833602298
400,-0.7822082225740602,0.12472397951718371,0.5449449316302898,1.7808874771765681,1.208775436692471,4.1892154093418235
410,-0.7091061935607709,0.369943524957412,0.5617583941963626,-0.9457360262706147,2.328206610354049,23.816591032836026
420,-0.6614622045219694,0.3184422768402246,0.48877742087268483,-22.3703503342533,-3.3843567676562283,23.838524629787162
430,-0.6430993651705947,0.30032893702833213,0.4724481398934553,-35.21242587277349,4.818135092372087,27.90032243912956
440,-0.7776716544477862,-0.06519933155316811,0.48462034138030896,-28.520807366604593,3.160343547263406,-20.248335316388918
450,-0.7159911761492209,-0.2194140331355902,0.5136989035542636,13.434269087621892,9.65442824767033,-24.161346023862947
460,-0.7089664529295826,-0.6873293356601421,0.4076050310140797,28.764125601927713,11.227133987521073,-28.015241264524683
470,-0.6340291748827362,-0.6482744837486893,0.5335810450998951,38.15354811671981,-6.5509467118106794,-47.05991836946797
480,-0.7018555877584534,-0.0853817415897983,0.4275621096035265,23.63511597961876,-2.0022799196622225,-32.463234594409535
490,-0.6911648287905461,0.2636507869844729,0.585561012121009,37.418775653179026,4.956909419807195,23.80310113892739
500,-0.771502666466553,0.4365310279774256,0.45932971319386584,22.816109140580963,1.556828975107973,11.98079231670704
510,-0.6962100159209064,0.1977657258282156,0.5794533199958354,-12.875100241710788,2.0083771448125947,-7.150137211999429
520,-0.7486164540188223,0.08338000020646512,0.5161947347607186,-19.06614775943492,-1.2337998012584124,-21.31621015344988
530,-0.7395928144890475,0.041219700068909924,0.5155202900188147,-16.346217200193756,-3.9416010164721604,-23.1012054469027
540,-0.7210138455565843,0.05470691802516036,0.5307521816186401,1.5659322412052208,2.6395463399626453,1.5974531405011458
550,-0.7406996820478339,0.049619775022960416,0.5208355005885231,1.5978147549647166,2.208989430018422,7.433864882393003
560,-0.7274402603913502,0.06582439804730732,0.5316646713312971,1.544844259952336,-0.5126090491676026,6.473266057347022
570,-0.7347833882787327,0.0776815627016398,0.5269766867926862,2.5742675197623965,1.1898766691179656,6.562235937094946
580,-0.7538225795906133,0.05786300814122011,0.5070607877289922,-5.63304295790831,-1.0062401900213511,-0.7055743570152961
590,-0.7704554381212658,0.013812294334092215,0.4831504779636548,-4.450400774697483,-2.803927879340484,-5.121400313351806
600,-0.7713540407244524,0.014477132148273557,0.4931824916551378,-1.9492325119623002,-2.812219222478701,-3.4279752958543352
610,-0.7044344415284334,0.07517213443085376,0.5623495716694107,-2.4784194355670195,-0.9386888666175717,-0.48944462690936397
620,-0.7482881051108566,0.04378869900771112,0.5110350105894494,-2.5963222284932774,-2.4856995885390853,-0.684723941344771
630,-0.7232686516745014,0.07556313254468867,0.5389153180861985,2.5432850152861195,3.3973247293366775,5.507239809592108
640,-0.7371115012932226,0.05759836521244405,0.518414103960911,-2.1306209265048883,-0.31298097962244154,1.2085142283871728
650,-0.7099851395899195,0.09975202861871676,0.5411965284390441,0.5899967685345737,0.8688396503801531,1.2326352472049984
660,-0.7557309307731876,0.04532022838640824,0.5055032118578,-2.187233159262355,-2.0409610287315965,-3.2604610267844567
670,-0.7406651872710034,0.04844588461299047,0.515579159458122,-5.617317817900346,-3.3045799915675818,-5.814374560886254
680,-0.7399066216455881,0.04718629024795949,0.5121107852212837,-3.2726115643272804,-2.343603926104412,-3.6097667504992472
690,-0.7516422399015958,0.03973013772268065,0.5002126710275395,2.354865652713178,0.5699037119097256,1.0182936121123358
700,-0.7134230056036093,0.08768459497432503,0.5422110603549652,0.3304480044070379,-0.31957626099476055,-0.4556303024632897
710,-0.7451926610634538,0.04810148287721479,0.5158195317742066,-2.265409503785363,-2.1364513409302863,-2.7153645797584858
720,-0.7554070565389398,0.042303513029250894,0.5006110142088426,-4.426023359400569,-2.3781870111962053,-3.9469911676188416
730,-0.6937221418188089,0.09148310678174099,0.5620810883507954,-7.773858749911603,-3.066638256379129,-4.764648185251961
740,-0.7414808158835348,0.031951233489602875,0.5165832270873646,-1.6978468909097932,-0.8684612558991701,-1.7986479605202652
750,-0.7197794477822411,0.0694732689684573,0.5406247026417453,1.5236323217140366,-0.8443229941580095,0.14725322090447168
760,-0.7440093723549777,0.04394006051257504,0.5147753369039711,0.23641164009236892,0.07457829909031188,0.802001655160192
770,-0.7667626303612911,0.022018369362419143,0.4919754330464418,-1.0182889581525698,0.49484958538854074,0.6537122905473153
780,-0.7434331162703738,0.04708483610363542,0.5133098750554681,-0.68276855000563,0.4127026288323324,-0.03546346420396665
790,-0.7443576764097792,0.04377102427013938,0.5155077788199847,0.14755564206670813,-0.4239967502630195,-0.5244900758754988
800,-0.7577493672054189,0.023745455839523706,0.5006293210363668,0.082657389553916,-1.9932233013241394,-1.4412683623288023
810,-0.730025344399469,0.04798812951636001,0.5196385855545024,3.264800167987914,-0.22588758059512512,0.2767059944454911
820,-0.7286977494064736,0.07134656041448009,0.5311576273962186,3.0705494279974297,0.35651703979721916,-1.3987567800746787
830,-0.7407840839760211,0.04091247145771719,0.5160271283324088,-0.1400217211261141,1.6365780005029231,0.38203091732170913
840,-0.734624448658534,0.04744475657637624,0.5204095860579092,2.818266414525949,0.018118512819946475,0.735881959627362
850,-0.7516804967454417,0.03677932808520801,0.5017301922604993,3.394132139782085,-0.6264948775358657,1.0060393980720241
860,-0.6975769677808319,0.07901103392179575,0.5576762968591483,0.9730922175897707,-1.624138086726305,-0.6135316574141754
870,-0.7543039033533673,0.026930549204157512,0.4979333868246791,-1.9524421231463212,-1.5560987372411725,-1.7512738408466553
880,-0.7334769239976399,0.04624542416421581,0.5249804159509619,-0.6169717274960155,0.33377262089001686,0.5108057884571875
890,-0.7177124456876741,0.0629232924817159,0.5413679109831208,-2.07286342783347,-4.310562217833579,-3.688692237595615
900,-0.722289202582071,0.05856467780641971,0.5387205280821648,1.3202656176411374,0.12317700473171825,-0.49353331948028
910,-0.7542787521053779,0.03023544801839779,0.5054176183532121,0.08163562754379472,1.319139167488494,-0.2407730156727521
920,-0.743786617450801,0.03782604278639348,0.513356499088839,1.8205875017049937,2.129114287572847,1.2643147004849604
930,-0.7458314563268928,0.03681437777641704,0.5120799570357614,-0.7498314779442534,-2.802088197653163,-2.708594276656422
940,-0.7473874642418538,0.03959757017669288,0.5103177636647385,4.31684440675187,1.9090590420600213,2.052688028156373
950,-0.7340028616706952,0.05502474967417039,0.5205157626428355,-1.6130554667334045,-3.5430444626124222,-4.624589683665382
960,-0.7457085765423502,0.04257142668593547,0.5146433408206407,2.07414019027578,0.061756493332130624,-2.059095836290989
970,-0.7489466770919047,0.0324074466658536,0.5119414152397618,1.26847773707774,0.6388875771121075,0.20102603098141889
980,-0.767158954624824,0.009366753337054171,0.4945592143041928,3.376795948451956,0.39184594111131676,1.164367690819623
990,-0.7464137972454856,0.044067846377030505,0.5157955495079943,6.221645607961236,2.4420475620237343,2.346051892007946
1000,-0.7372393376188077,0.05179341290579338,0.5179615384839459,1.1644029097991937,0.8346452692570303,-0.5422936605292722
1010,-0.725614057007816,0.06370263281217689,0.5310048207782724,-4.377594662355116,-2.3861724912985305,-4.104701802528321
1020,-0.7322727978353823,0.053389510280364004,0.528037141564435,3.014820199459902,2.456773450405328,3.1560410422731167
1030,-0.7384531095626328,0.04061423774940903,0.5142767799658589,0.1373281504571151,-0.8550719737305456,-0.4892213495738108
1040,-0.7510624168400166,0.03382592566541083,0.5042299089182137,0.4459737307608965,1.4450248632669436,0.5992281486088228
1050,-0.7583833206666037,0.023270858171466343,0.5030066623143854,-2.370485611722741,-0.7824731774231002,-2.2701109431963213
1060,-0.7642989311801268,0.022721850825626676,0.49959133720147914,-1.2972543743879408,1.2501081866540515,0.27169955926027234
1070,-0.7571031033586142,0.03218718947726624,0.4996878123215318,0.39843792406991074,-0.18604373204442648,0.15353062815033036
1080,-0.7583789478818438,0.029757539844145964,0.5029936905881477,0.8235998685661651,0.11476158532177629,0.0405261787848849
1090,-0.7363131717269747,0.04350045756646934,0.5208737795195468,1.6242590204750371,1.0121673380963794,0.6681344205471841
1100,-0.716448662888874,0.06969614660871862,0.5439277698880873,-2.9338421937989576,-2.862509874701115,-3.0621405169219877
1110,-0.7078985267568412,0.07567557194646288,0.5481120799647721,-1.5246594706525307,-1.9100575850730899,-1.280425354659237
1120,-0.7406755631580529,0.042254191492551815,0.5168002421883806,2.9052287939617845,2.3656987973592623,2.1149755680373086
1130,-0.7398937958954324,0.04343078150172775,0.5138182334714699,-1.516918022585884,-0.8449166493634839,-0.9433983325320234
1140,-0.7087724052732683,0.07476802939846605,0.546717674751177,-2.081127257418503,-1.6246565061559313,-1.6571188058289321
1150,-0.7334943427545665,0.052934325953350965,0.523595590152367,-2.2610695000853824,-0.5724709735101887,-0.18491231059242458
1160,-0.7585637565890841,0.021878184402456737,0.5038092056480155,-1.964870291488345,-0.22568737948156892,-0.08372163722657783
1170,-0.7425947451919799,0.04237520988786764,0.5157311146535546,-2.9247698839653875,-3.301842632080665,-3.397405542319904
1180,-0.7703552503576524,0.012619672203863265,0.4890312671378254,-0.2502220535574958,-1.312414007339091,-1.309206177195565
1190,-0.7495493099159292,0.033349401092815534,0.5083565966823986,-1.6695978745888838,-2.1414156753765052,-1.5476120664258923
1200,-0.7602077277012452,0.024721690313064124,0.5073346058417085,-0.24222143973108465,-0.011527865259023218,1.0635040574019028
1210,-0.7175193446640533,0.06374076012480953,0.5454224039042721,-0.16416014842793697,-0.2238285266985549,-0.6359402456404675
1220,-0.7683163150842511,0.015419370865649599,0.493028003441771,0.14510941682615114,1.0154535043031743,-0.12011293893406813
1230,-0.7655411469429839,0.013262003949848503,0.49072095808864474,2.7972340763877943,3.035639404406923,3.358828084271426
1240,-0.7274927682929105,0.049761949801235515,0.5256264940205722,1.9233364573823077,1.8847426966728094,3.6681705465759666
1250,-0.7420378325994723,0.045734866440513576,0.5152968801431062,0.4043317833068485,1.1730034227461412,3.3350577522695097
1260,-0.7715967487111415,0.020551715582721015,0.49372136776533593,-2.6534368887645243,-1.2108941059608855,-1.713975305918441
1270,-0.7345756921191414,0.05300406250464718,0.5252038391318291,0.6648781486828619,0.6546316522749046,0.1700641237257296
1280,-0.7266795893287016,0.0572087741376322,0.5295762917362233,-1.2641286358092403,-2.5857380800120024,-2.362663554816149
1290,-0.7381911206797,0.04315633187023924,0.5212121049565395,0.8825215958108017,-0.7025490988610774,0.111378425231897
1300,-0.7491982675935266,0.036814785018116025,0.5059156827520485,3.8113280056567937,2.827723178776287,3.311419340158344
1310,-0.7321026076232865,0.055043560326994936,0.5294984614522313,-0.8743040783176725,-0.3503857860390009,-1.4521140075848256
