time_ms,ax,ay,az,gx,gy,gz
0,-0.8258357687180734,0.041429340556727576,0.43848941041614276,-0.2715222986168444,-1.0663576853593326,-1.1397228083308004
10,-0.8230007818049915,0.04731727094031681,0.4392200024369938,-1.2996800222227292,-2.5291088742278967,-2.7086034524178517
20,-0.8042890111238578,0.06001973832746566,0.4568248041228386,1.537247734885947,0.16241592842705171,-0.04622766948703083
30,-0.828107432292794,0.03422306460541193,0.4322573989686205,0.850386432231341,-0.062358885496410034,-0.44787359551286376
40,-0.8087888002368802,0.05561598272523345,0.4497192592839883,-1.6138285406228623,-0.9974539224686565,-1.565566577422779
50,-0.8019091216293536,0.06369884148412111,0.4543466132508323,-2.2940190012445902,-0.36848829109561043,-0.8676279744728147
60,-0.8048944739514662,0.058522706917221154,0.45187388525496924,-1.498745916300715,-1.0883579674043355,-1.193087747861162
70,-0.8139717059404116,0.055406983244437415,0.44423431164918364,-0.4898335740595342,-0.39327712718887003,-0.6898408398119279
80,-0.8192455406570986,0.0509890496381673,0.44048495011270083,1.2236937234921812,1.2426037702493358,0.8549704036992692
90,-0.8033812761108757,0.05875905025023043,0.4563661735701718,2.763292071779966,1.6546439805868833,1.4650308018160745
100,-0.8254531412315541,0.03603413965621377,0.43283781916568137,3.597181957731391,2.2066251785229967,2.3526807465279913
110,-0.7985316867636134,0.07001914469956984,0.45993070110562245,-3.5571963609787507,-3.6990386847211907,-3.634858038384267
120,-0.8391370343264544,0.032745173016615683,0.42250929241737506,-2.0936683681733417,-0.39089450437168155,-1.1521809439199253
130,-0.8176976880294478,0.04785846174639582,0.4427249678846508,-2.9448992435295684,-0.6617161146578723,-2.176831519177091
140,-0.8157441492088117,0.05051517517200158,0.4464653644643671,-5.914821946375828,-3.3757252230943515,-5.4103860323943
150,-0.8228731766900005,0.048573048037363634,0.4413275088766824,-2.5840557439803313,-0.4656568974465851,-2.2967331722099624
160,-0.8317891337493957,0.038496347124557635,0.4339977747956261,-2.930233173869252,-1.704273849287362,-2.905643615488712
170,-0.8134870456218972,0.04940988711468645,0.44792340917902823,-1.9063557401952833,-1.7097830018136055,-2.1649117978771306
180,-0.8044334704141431,0.05382184358207383,0.4527268823272233,-0.4734421339595453,-0.8173039119373883,-0.9550717357259176
190,-0.8088287691692093,0.0561797282892183,0.4572959277366108,-0.2629671804427775,-0.04250505041296804,-0.7978979903189082
200,-0.8362774739709524,0.01757639466299052,0.4058343763841334,-0.2127488505665729,0.5490946481452733,-0.3890562176774328
210,-0.8143376651420631,0.048971221662572964,0.44198510205107594,-2.1015824028212906,-0.701221618852863,-2.1791668860348037
220,-0.8149180811369281,0.05373820249650099,0.4477528476699119,-0.40300780789713225,-0.11922511175479938,-0.6811993859800498
230,-0.8165555708526104,0.05012275697065802,0.45621770257394245,2.736684362509246,0.06689962270292626,1.8826097428405009
240,-0.8326240527627674,0.03313726994197757,0.4515501565645526,7.270373481023263,0.3560440093279743,5.040151548395116
250,-0.8460510846490633,0.0100561084315591,0.4685847211212858,7.852441583934921,-2.1770540874596254,1.202879280235637
260,-0.8797399589151517,-0.09723133845279461,0.5729641130499246,-6.654153214948508,-13.286352887824247,-25.97341627212269
270,-0.9534681597479717,0.17494629658898525,0.5111588110209718,-2.655470016831185,-25.501392534205927,-18.117926431914672
280,-0.9136280664644337,0.2496549495604975,0.5223180669672914,-3.0138307564293307,-27.810464012111336,-1.9358661356812585
290,-0.8357439671374509,0.2260119560682513,0.5317815526537489,-12.729345955542549,-33.95037853372061,2.971634779365364
300,-0.7904568547693168,0.1813047887235537,0.4902329915157725,-21.387854214998853,-36.559017997679184,5.475631947153683
310,-0.7171102305116547,0.20887813647870537,0.48852845636096054,-28.145146515666312,-36.05049522834682,8.410051887994204
320,-0.7145481118157802,0.1370663349382307,0.4473562402548931,-35.45736772277892,-33.70659255109656,11.529320041300881
330,-0.6877557400357434,0.11233185788607357,0.41646483503497955,-40.75203697905746,-11.066850259060047,27.134973415005312
340,-0.7237872276311195,0.02002807219644282,0.47111640660592835,-48.12156534961112,-8.81711520152832,29.645641445029234
350,-0.7584497105095716,-0.034478091681973196,0.5149155942917156,-49.996165528718436,-10.950545851074015,23.708710463964543
360,-0.8408078277899328,-0.07595088987068424,0.5078396970050173,-48.493335204488204,-11.807891696136172,18.076737099746055
370,-0.8779053883636841,-0.05661082411578636,0.4856481380963755,-49.17037476712413,-13.628998305896394,12.435890842215443
380,-0.8483665229138319,-0.025429787202077284,0.4376051552037676,-46.55512899889057,-11.523096672503574,11.718483435158108
390,-0.8005036985517711,-0.05728957582815274,0.4413989504025979,-42.445720783174224,-8.775523389971353,11.81337636403574
400,-0.6873875748549355,-0.051126947334323825,0.38699558291843195,-44.27758131795922,14.207260464867042,8.978015869706239
410,-0.6448230591754518,-0.0949634341723526,0.4745465648881309,-48.908027599015476,21.175558307684206,0.6360353362229696
420,-0.6962936020409911,-0.18282482024693106,0.48216121213425484,-49.30498911001822,21.145292957187927,-13.2966356831289
430,-0.658530259853605,-0.1686535018989166,0.5533398006659417,-43.646989614701155,27.295076447065682,-21.747043480290802
440,-0.6890980071859548,-0.05446528839412102,0.5480282732987433,-45.31377279871521,7.76220278342649,-35.204220212499436
450,-0.8415443807137634,0.22093048555419478,0.43654303377176756,-31.436246894965933,-38.54056008865598,-35.05788672411072
460,-0.695632267624841,-0.24063964978782892,0.6458280925718369,-37.97412879478062,-12.935490664632347,-30.938640139138027
470,-1.0386282553010513,-0.2465674751196839,0.5497695013673157,-7.910771380866652,-27.549254189101894,-21.156372567051765
480,-0.7765760007606192,-0.19857368765945987,0.6930380525849866,30.692508254655454,-44.33914741203492,-20.264434793551423
490,-0.5723339543879413,-0.14836510990258694,0.6761785800670866,58.11084746921923,-44.96762597672805,-13.79960531040359
500,-0.9142376765078756,0.007781300340568903,0.24611632991043297,73.72866107845567,-28.64674371493481,-1.1010373544902998
510,-1.3673058164929024,0.3214574943504407,-0.12482058429966175,67.23920712675877,-16.001693015470256,0.9183105267172849
520,-0.8075164059690899,0.042219644975635795,0.46993233629658476,34.53774028842337,-3.7960516388261825,6.487959979280155
530,-0.7563765374207129,0.10634078775336327,0.46399174910896396,27.396980466908545,-10.744075550809391,-2.9708215549185044
540,-0.8768428137963699,-0.22924049669536967,0.5608081291343269,-3.8866191930901763,17.201224296280902,-19.940197461747204
550,-1.115588502522108,-0.3217607440148749,0.29429670836530264,-14.848657218626672,49.724823302494784,-18.929304039329587
560,-1.0575620166709228,-0.19404013911402354,0.05157326312949507,16.22449837975608,77.57839352601734,6.8228447973854935
570,-0.7947864178525769,0.053859130384214936,0.14330005812152583,47.682329091358675,91.29733191551934,32.86526228094505
580,-0.8440173597060039,0.32367485591294365,0.4296488479400312,34.4429948840445,100.78257334919348,43.949484801833044
590,-0.49928423959552115,0.11636898886046819,0.492883678467581,45.25306210500675,87.70750651107643,45.772589536444485
600,-0.48215940613476743,-0.06749523329331301,1.4321145204529893,12.487439346373156,49.112083716278136,42.41790785181755
610,-0.6206721287845414,0.020127663436746334,1.021558353842033,6.71199901225855,25.5541280554825,35.90727682082623
620,-0.7236459229197382,0.029931647530924987,0.6403701793009613,7.094804937336191,13.16832300370815,24.497457347464326
630,-0.7741075521625627,-0.01417455122694692,0.5599065079673777,1.7763383826021375,7.451999247113989,10.504997814879399
640,-0.8102726927057536,0.03232484096537726,0.47343711207867994,0.5117953023656914,12.169007583985499,5.835017661907552
650,-0.8204609077562272,0.03403219262468891,0.4837600762601924,-2.122600271308346,6.470271545251774,-2.17428065472959
660,-0.8389716703842424,0.05363262537932613,0.4378886048612817,5.68740612561201,-1.5112950649581145,-5.518323175534148
670,-0.8445637463184638,0.03846083524787585,0.4496976104564521,9.260287970068317,-4.823136444554682,-6.6773805777711015
680,-0.8601863057837027,0.033986622362522215,0.40520778882631997,1.6136009571129724,-1.9284924666965337,-14.015074889458383
690,-0.8708567180964276,0.1153167812324734,0.4287029446647012,-11.308311582932252,3.7749792812951726,-14.7566877885397
700,-0.8753470628028485,0.2385018765888762,0.5198944940952733,-20.8029597499861,4.365807790396838,-3.411961236421506
710,-0.874413923251879,0.26988685027917925,0.5291602459417404,-19.2712020943604,-2.950196648365223,14.775745266942605
720,-0.8347579210994598,0.16980561189305077,0.41311751864492746,-19.79158240586582,-7.81403600030375,24.571151715246035
730,-0.7632132007568695,0.12722830383410258,0.34339940339513514,-27.702069924909143,-6.6976735497677335,24.91319902129436
740,-0.6778683109998053,0.09644977027682294,0.32186268109347566,-33.568705321206735,3.234683824112854,25.03413430113587
750,-1.1392882419143908,-0.532698038034417,0.607734795732076,-47.90166565201474,-18.1844307449295,-2.0478894061986876
760,-1.426959543669704,-0.9920197084652259,0.7332571672623697,-48.463630998341195,-24.839573092325946,-20.372286766876254
770,-0.9382635737531707,-0.6243102648458363,0.4808913519561105,-18.38080388482869,8.757021682640376,-7.154393594263864
780,-0.7960002122920947,-0.5885908717264361,0.46368685132169724,30.243167195698994,6.588866726319928,-8.7103341781326
790,-0.8259364684914813,-0.8212386132585195,0.2930702505700656,46.236966354148464,2.326935610556546,-35.41139553092239
800,-0.9026702972070789,-0.22553002910879516,0.19302050293065315,71.0026607434641,-3.207740003960289,-54.27172700544727
810,-0.9013910673150285,-0.23893398763201334,0.10057503356765436,84.4040064591832,-5.956394701658212,-55.48557311622911
820,-0.882576360744989,0.15527056989998964,0.233779332954124,87.16729298915166,1.7503038727487281,-12.836792943329336
830,-0.8299154325041299,0.7571767959834302,0.4946945288924062,64.10955865220991,4.060130177363034,27.203451156731703
840,-0.7761774863208161,0.24940743029987464,0.45551676371450844,25.651039347322246,1.8605236743180167,11.903100055920042
850,-0.8551816379649915,0.27922822801680336,0.3787583570223934,12.024120963023165,4.489980553206573,-1.4224430468310998
860,-0.8356448701382393,0.12150632855389315,0.4234002328043678,-7.887915449109905,-0.3895959821578454,-20.044326499084114
870,-0.8253026784994368,0.06393088259247254,0.44233673874460583,-10.600118111372495,-0.1734896191079589,-24.86501191942126
880,-0.8314964789543328,0.023560919734551707,0.42817883098398146,-11.110663052109274,-0.6217060194593746,-23.633427673294687
890,-0.8120710449714649,0.02259940077942598,0.43709957558454404,-5.558743797196212,-1.8403052962267916,-10.41592105529271
900,-0.8096172845731547,0.023674701803293147,0.43666326028344815,10.610324135815013,1.1708534210595034,14.968772457245127
910,-0.8237040264999542,0.007069346884230793,0.42146165240906697,8.75318556397066,-2.0224595138686134,15.02140124457242
920,-0.8090673587331487,0.03911951677130798,0.45038972808939176,11.507895230536185,-0.9130992488935123,16.4573859504195
930,-0.8376755193179449,0.02092558853153845,0.4174852114931525,9.907701562733637,-1.2565357109620687,14.378849249301933
940,-0.8178331169411709,0.05262465226503472,0.43360146139582567,9.590108352052514,2.0751093170464574,12.831943721818336
950,-0.8073585669774774,0.07000201663769602,0.4471687431595783,4.69898615253518,1.509955475144452,5.898248146353806
960,-0.8241555472171834,0.0463026216319431,0.4332975680796193,-1.7813481095484156,-1.8787123550484914,-2.629828426159813
970,-0.8087637661853034,0.04309070436824976,0.44173995660610643,-1.8841304617904697,-1.3728637512086292,-3.7171366868290385
980,-0.8187484838112984,0.04052339438876151,0.42961352812710424,-0.8033523402666016,-1.7730470213607679,-2.2006334151139533
990,-0.8261150325577872,0.02018706797620568,0.4229800353765083,3.5357718584164557,0.15942506164778947,2.0072379966392786
1000,-0.8297859818428369,0.017413602624281314,0.4249203832875651,3.6105427440513957,-1.4804219332289632,2.235615147748182
1010,-0.8514697950469344,-0.0020861523906426024,0.4058403821043234,5.408991742180201,-0.8324967659868937,4.072214190729409
1020,-0.8141739611686323,0.03840584862932264,0.4403551983417741,5.67851115472512,-1.243025657553324,3.8504606955304723
1030,-0.8060328714119939,0.05160590488445532,0.44566687807014577,4.801900340980383,-0.5542041999446008,3.103313003759074
1040,-0.8430819199244213,0.014394010279705508,0.4158087793636362,-2.4650135595151292,-0.7871280969174738,-0.7719140305177343
1050,-0.8233543811757328,0.040116778742653965,0.4325349645484488,2.339604216852637,3.331103667568202,2.36765191022698
1060,-0.8206589753217117,0.04458208290171742,0.4305153719211235,4.196743578270743,4.851323518369987,3.9218368453548607
1070,-0.832592449399791,0.03505315778800409,0.4153573339043238,0.8671226352555009,1.6995565932936492,0.009487320025991952
1080,-0.827096349542429,0.03595232784471063,0.421977039396604,1.9492692530727551,2.5764001296606223,0.5566670004634195
1090,-0.8117067443388177,0.04670567507935874,0.44259667128063135,1.348684979889319,0.9663898142968419,-0.1743079927457185
1100,-0.7943781218499433,0.07064294034363096,0.46494709872762274,3.564925262679177,1.7748435633745194,2.4983616626579033
1110,-0.8287019905882075,0.030917487731479565,0.42652146755551446,1.9549173696606854,-0.601251562044767,2.623543834261623
1120,-0.8094695554647552,0.05908660014761092,0.44973131838168057,2.617575254609643,0.5102153849379077,2.7980970554417555
1130,-0.8070312777892567,0.06364318958955677,0.45002668293843145,0.16062766046600263,-1.5381635558146287,-0.5862710322278892
1140,-0.8188436211031537,0.056767433317711516,0.4319601162882838,3.819868666499303,2.35377008864437,1.4997140650621061
1150,-0.8337763298912076,0.04442711343256771,0.41792131363590884,2.7049643533351144,2.535992264367292,-0.5556250783849288
1160,-0.8047031359963113,0.06771829527767703,0.4560952073519317,1.323231754092855,3.3597285240630015,-1.5698744318449007
1170,-0.8217413439237324,0.04026350122365407,0.43908461333889387,-4.399963322750281,-2.192496482687888,-6.774365138891212
1180,-0.8252257035375422,0.02285680579143381,0.4410206973287417,-1.6413485716825178,-1.999687187479053,-2.6818267498428323
1190,-0.8093565040377585,0.04912912495765133,0.4488620613106982,0.761856205614609,0.5685833081366816,0.29612273540856304
1200,-0.8099796742151455,0.048201412235493665,0.4447605639820738,-1.7896834497133787,-1.162919524344296,-1.3445966224178916
1210,-0.795173117422939,0.058492766183197945,0.45868757529664766,0.390897371427138,0.8624704532657093,0.6739387605615734
1220,-0.8123289204243356,0.042291054511771085,0.44154778913733683,2.273405456836022,1.879568296654533,1.466636150786288
1230,-0.8153933844035788,0.04714005311769055,0.4393031733349775,1.9725774688235842,1.3864254819530732,0.5772501342217221
1240,-0.804346991497638,0.06134806746273455,0.4470701305571661,-1.8041663129881762,-1.8482146303603835,-3.080052657752934
1250,-0.8092390699051234,0.05053833176763259,0.4524785006126838,-1.1734906747384737,-1.4214420132923276,-1.6780754148687302
1260,-0.8159465512313555,0.03907431246668571,0.44840802649519945,0.013371639143069824,0.20163330939256768,0.5078043040161039
1270,-0.7977832656719894,0.05860072540909338,0.46368295122325986,-2.1005870074037762,-1.06083656409134,-0.4322285337243188
1280,-0.8101477256796579,0.05006978581864295,0.44960680362299177,-2.514728553655593,-1.2785267624631904,-0.25760895524242566
1290,-0.8015669963918272,0.061822173970229294,0.45930301537693174,1.8209707751577624,1.9670650943460064,3.4294468388118595
1300,-0.8097141993855201,0.05856524456304802,0.4486307376991535,2.07353639053091,0.5774726277739824,2.0229065262777715
1310,-0.8379776328603157,0.032849985117840506,0.4230109929618999,-0.9927282570299027,-1.9490572104993051,-1.1344564637942356
1320,-0.8341474051450083,0.027830173310704177,0.43247479779122316,-1.0488315938807933,-1.6446188743685237,-1.5602733368812076
1330,-0.84514348122936,0.013639061894024827,0.41300009361970424,-1.172332638216232,-1.8052595255991017,-2.0520673509684038
1340,-0.8164416928097626,0.041936749496520195,0.4363884175133525,1.3625662647725234,1.1782048508664211,0.7320551823361934
1350,-0.8185728435869002,0.04211963948318227,0.4374393280864974,-0.41499840112000996,0.2552306896807384,-0.409197731991423
1360,-0.8178920036088099,0.04830227361712712,0.4407506218739922,-3.8426924332193755,-2.8126511949694497,-3.762888545695767
1370,-0.8382117910840403,0.025357666426057173,0.41357273241194414,0.5513051100503849,0.8397653753443755,-0.7844939795514256
1380,-0.8015049876987625,0.06176336134691214,0.45525894035958825,-0.8911633837080419,-0.17998292784159953,-1.8736131558447833
1390,-0.8201359878003152,0.03445729230510969,0.43854824594226177,0.5586649986141113,0.7251746766469082,0.10988593744965458
1400,-0.8123408569899657,0.04234714316564821,0.44643577407021634,0.41836738996907774,0.35440485537713035,0.3568412813186165
1410,-0.8392109560093517,0.021377826219871866,0.41926259814805833,0.2856643289916438,0.38531078992061113,0.37806180160929503
1420,-0.8267729054422913,0.03540606203572526,0.43047380501076743,1.3920232994585209,1.7681841477255238,1.3167275129946798
1430,-0.834384447537566,0.020316647468470898,0.4190900675305903,-1.8360158394273105,-1.2149341597411714,-2.528161045199626
1440,-0.8312267770821217,0.027171961440326995,0.4270218603937637,-0.963462088540681,-1.0024321498728765,-2.143868305092073
1450,-0.8167381499301326,0.040749788597142636,0.4398278030730396,-0.2561365962795123,-0.8716281939744268,-1.3598125177706857
1460,-0.8062622769567418,0.05311601072855715,0.45314941228314504,-2.728989289223373,-2.5623643228899735,-2.439389634791325
1470,-0.816703503074072,0.04349689931811957,0.4447031803677089,-0.3622395553181279,0.6666367095680681,0.6122976529840587
1480,-0.7925583869596069,0.06797625460766542,0.4665568742995429,-3.2223913699291504,-1.7216148157610307,-2.383678303992991
1490,-0.8183848008751148,0.045168229472169044,0.43688168198796967,-2.3529241683988062,-0.7363196649001771,-1.6415555388393468
1500,-0.8485536057192162,0.018533163762371463,0.4110117633781206,0.3082266340202401,0.6378076463153076,-0.47721850029441426
