time_ms,ax,ay,az,gx,gy,gz
0,-0.6178936735326699,0.003162703771159752,0.5317019925297626,0.7170520934154555,1.0117961682936008,1.5847144609806443
10,-0.6413017938163847,-0.02287132529277288,0.5124614207029561,-3.834680014499086,-3.0875252397440622,-3.0169597962587176
20,-0.6329604396895525,-0.00824456696873057,0.516461634174975,-0.9856811565036689,-0.9013200680697461,-1.6092230461691004
30,-0.619249021285434,0.0023540748529404286,0.5288930172274093,3.053461682742086,2.408843663247267,1.8398540160043213
40,-0.6522936433799116,-0.032375082718413675,0.4981997158317782,3.035701602878752,1.0532115348561346,0.8916396429453409
50,-0.6103775824688799,0.013181541580628515,0.5461188625904095,2.9575666137695014,0.3486708893636161,0.6246731397426395
60,-0.5979045451077624,0.02387556967863886,0.557222377741988,3.4239157609974153,1.7382558464330062,1.9377164797845103
70,-0.644633463471748,-0.0185725833160284,0.5029998399626673,1.0947893375501334,1.7077550812628544,1.7077691817471377
80,-0.6303931987909406,-0.007103884590460186,0.516313832973756,-4.210821654523892,-2.120945224168594,-2.7935050730627857
90,-0.6314776381778813,-0.012096865616451468,0.5212861036808613,-1.1635578026331543,0.5024968586171181,1.068516004116419
100,-0.5999214195500409,0.015182194640687695,0.5528758475657759,-1.1323501100662752,0.3946327398533486,1.1199220539442347
110,-0.6366490971863038,-0.01985894391310277,0.515389500827658,-2.3057554661553823,-1.0365465929455477,-0.8635780989988884
120,-0.6265401746613505,-0.004698952976386125,0.524382405450672,1.9492140033681564,1.6170514242797611,1.4933013168056295
130,-0.6187034916892319,0.0009458162503460903,0.5273681213268623,2.2679286550341793,0.476170630028592,-0.24005076045081752
140,-0.6453111592447608,-0.005937173205422081,0.5264773352512436,9.377710696993914,2.5798938104655007,2.8050544115995564
150,-0.6433849682344297,0.049460424477614305,0.5546257505445864,-1.3737054248008638,-0.9038646912139513,-2.530864154284461
160,-0.6227346621591694,0.2376535190599128,0.5738490954022542,-26.731550625766392,-0.15768721976772931,8.574771289711718
170,-0.7094633693098787,0.15636643012875245,0.6283357932890933,-27.12377755759115,-15.104475534432886,10.452515026891753
180,-0.7263207042064986,-0.02719265003760333,0.6207589500187144,-23.486008962722355,-29.615728330480238,-1.0214949905746944
190,-0.5939212424266979,0.10334022142281372,0.5563958009697161,-41.9689205701283,-46.88345383036064,16.562533442782108
200,-0.5229223278316643,0.10803591905558026,0.43851236938119154,-44.799436105948324,-40.5047938177533,33.468361013705874
210,-0.4090387649133427,0.07295107418541094,0.4831559669177218,-40.69015224694173,-27.940129280962836,47.01499103615776
220,-0.3420129357139251,-0.01551723302737501,0.43017771638279173,-38.358309940601245,-17.43783179123531,42.824605263058444
230,-0.4163975551637712,-0.11112832975069063,0.413442880169582,-41.15977029004167,-0.4845146553862155,30.634418141029318
240,-0.6035516586144097,-0.08390379114304718,0.5065990539144803,-39.95363399007617,14.789189084492445,22.450752805328072
250,-0.6214815046191314,-0.12278663776948817,0.5211078914565384,-36.66505156735832,22.52026658152447,19.31059206868953
260,-0.548225291347684,-0.1620741285880315,0.4617293548726106,-34.680360441638506,26.823205443280273,11.207821625655713
270,-0.5035826635238299,-0.23401997669780017,0.4391249222862596,-33.15609092022098,34.807498647120944,-1.335194026884831
280,-0.5658805092105011,-0.18413479220464962,0.6357780301762426,-31.332664304695005,20.310873460245585,-18.17480108434274
290,-0.6479368924792676,-0.12026010522722119,0.4822380627632267,-37.15750366342794,-20.060623581288944,-19.070264492016126
300,-0.6701591515176337,0.06135931129155608,0.46828061755010164,-4.983765763371113,-27.042051291567482,-6.0801051593381965
310,-0.768620999306589,-0.21636831805178786,0.26058462917134917,-50.70950225486445,-34.79601066344306,-14.95610900053821
320,-1.2011361052445937,-0.17447346972562705,0.06924720654846131,-8.8550433302281,-31.00492056809914,-8.242623360500154
330,-0.7280067099460961,-0.0023889131078438544,0.2839263916971713,-9.09154714090708,-36.317400853909234,-36.841827812630754
340,-0.7995426653391683,-0.22947552121394318,0.1278214960075742,-2.5253529741619,-19.728583808592752,-20.64653451035176
350,-0.6530944897877843,-0.003255466842111609,0.5106242815313139,5.253762605338496,-4.419652225563229,-5.6183427482738715
360,-0.6617332815337589,-0.10475641354673967,0.5027828555440872,25.38927285376397,-6.7338283556005525,-12.600173619130473
370,-0.7856284168605269,-0.2757323434256009,0.37715763180632644,27.86454215931369,14.184193473282576,-15.763008463904699
380,-0.5824483012654819,-0.08129708713834827,0.8252054928155883,73.9412096098812,50.5149774919887,-0.6952652571488079
390,-0.910844692935486,0.4773650558214553,-0.1360893838806433,113.12762205347482,87.75189463387383,30.083578641996144
400,-0.2922420254649015,-0.1973926499357672,1.0901974864406374,42.59432714699462,15.774335748248255,26.5417477830836
410,-0.6082656972136993,0.03026679076314331,0.9208257211416732,-13.710548874748328,35.25263736517833,29.74425989225571
420,-0.676689124345481,0.21639892673991454,0.6847635630398838,-8.116997576050554,20.80649899483143,25.760827360083
430,-0.5913507472815194,-0.007061657522689974,0.5307949764535347,12.515157232024997,7.0647029068994955,16.204564333410087
440,-0.5213479098377716,-0.05936736898977873,0.6461715853023603,8.667218203832354,4.579043741130665,10.649797559663408
450,-0.6073753742343723,0.014725183320754865,0.5609946871184394,1.8277341972660763,-0.7613740175347326,-7.325456117569314
460,-0.7174220152745477,0.08680385618447686,0.44221003060379777,-1.22631786709171,-8.465398145153015,-15.744667377008128
470,-0.6666346919173632,0.007292224053917516,0.5097588806046867,-16.26541196349858,-9.14840094795461,-17.338189845921075
480,-0.6394077040780298,0.033439185330297855,0.5602102493840937,-18.97559064528469,-3.1315949757769057,-8.855110956979079
490,-0.7498814179034625,0.10429980103539391,0.6083914730341362,-17.55328738226733,-8.203129212133497,3.3758757579827976
500,-0.6105754719971472,0.07556869896890611,0.5038626175392373,-20.970141919310066,-19.127803727464844,16.300710384783144
510,-0.328057815198759,0.11204955027454919,0.4123658808798394,-33.99559449109949,-7.103161750445853,24.132055277362912
520,-0.3643106025378085,0.00427930894501552,0.346898306393778,-40.30434152874802,10.689641704491887,14.513171149288569
530,-0.4325440259016509,0.052497168072338576,0.44569397865351024,-44.331030869798205,29.790588955594075,8.524470777470206
540,-0.46957755451265965,-0.018239483542852923,0.45854228525881136,-52.78528724430696,38.57317270356204,4.085033690569162
550,-0.6858634416514756,-0.42284191910349034,0.3560187257732004,-25.69160637251845,34.995802072672504,-23.52417336117608
560,-0.9605658369343277,-0.11300916784279609,0.41415355029264794,63.102533392292884,9.298541606176663,-53.500930548313924
570,-0.7956868764468988,0.16338403268625704,0.4787445123672355,64.73056076775156,9.388267749153824,-23.195664288799385
580,-0.7780611420745734,0.34821134070494836,0.35356572059415864,67.17333018061532,1.5422864921736035,-3.716744200729196
590,-0.6613198045095082,-0.14383956601377512,0.3848809144259715,79.84428988885277,4.808607097639955,-4.274059927988754
600,-0.5965282190332024,0.20336218946305143,0.8306342618663843,57.02796978884373,0.7577018899134862,1.9530252085081332
610,-0.6540066463583489,0.019041278733901344,0.4837395542602069,-4.386669042637974,2.0550134793590917,-11.373895593614591
620,-0.6877937305803469,3.578977436778999e-05,0.49146905847790096,-11.169627812525853,-0.07812524184817424,-22.907725956919194
630,-0.6430586090338987,-0.029502870737642118,0.5088455221293061,-9.070186599590908,-3.051473682715619,-23.288495608114715
640,-0.6230714095954787,-0.032918873655016695,0.5172827501820203,-0.09591549794656062,-3.049744053690537,-14.5638025118016
650,-0.6324889271615541,-0.05012381866664846,0.5114815062371357,2.7433691165687826,-6.022629678760597,-7.950340478684106
660,-0.6322614681470995,-0.028527299614308804,0.5067083405282063,11.274142914119485,-0.17217397406997764,7.920340303146794
670,-0.5977142067202292,0.025801580348442783,0.5466646441222522,7.526247112020217,1.5613872385430452,6.593492965007192
680,-0.6199903102076533,0.009300379399116605,0.5332968807408416,0.3949935686841486,0.7781239590381774,0.1893183228763351
690,-0.6153064364280347,0.018341687745811238,0.5367479894537561,-1.6422875147843032,1.8463518760294755,-2.682454504004421
700,-0.6150489779296782,0.011432718515258369,0.5316022908731076,-5.180662275865322,-0.7933646447069564,-7.0522180320452765
710,-0.6105954555851125,-0.009394298696165914,0.5386206765985241,-3.529725607167622,-0.32514558363430934,-7.916644854523225
720,-0.6508274657344516,-0.05808276764473333,0.49549067142455294,3.026920460098904,2.190122541288077,-3.0402735273442376
730,-0.6388632903617895,-0.044143848711100886,0.5101672862458078,5.0830128043475025,2.0133031031530524,0.15790047797175677
740,-0.6035960541672024,-2.246846853326545e-05,0.5475416830364864,3.1291617534722156,3.149095524240188,3.8874571093618773
750,-0.6316214111240885,-0.02637844654199791,0.5127524542332562,-1.8130779528910619,-1.1398267901888341,1.6289506713415158
760,-0.6069047819969642,0.0025748814783188856,0.5342306966423923,7.382434313739793,0.7652222126918413,4.208683816147475
770,-0.6236395808761828,0.006982323207621215,0.5193024022564334,12.993370210119082,1.5822412440011036,2.6203752779657163
780,-0.6365374972512527,0.001203568926164929,0.5204703534973274,7.371347481722993,1.425952641868933,-0.6322405159860225
790,-0.5973993903396717,0.0192699038422272,0.5502200575745814,1.9919734711271908,0.4325607426585023,-2.1274078773733436
800,-0.6501584686774915,-0.029188572852576873,0.5034630222260712,0.15274452162512864,-0.8954829745423487,-2.343608343688786
810,-0.6312052888020635,-0.01317323623088084,0.5191237268285323,3.203851090966067,0.5805761154498055,0.9542579880738
820,-0.6061644112982821,0.006603433563946758,0.5361103568523038,-0.6476111465803471,0.13207116890200943,0.09649489563768177
830,-0.6425255014073182,-0.027171866351527067,0.500730300022618,-3.9869178175037927,-1.3164348024972232,-1.4903462920231363
840,-0.6438481436036337,-0.0205997177390131,0.5064899744904777,-2.0202502177811543,-1.357896246156644,-1.0334234763526648
850,-0.6330983784317289,-0.009495544038088225,0.5161256862160314,0.37475669987685056,-0.00936341951851577,0.5436877538378287
860,-0.6586390781831043,-0.04471884188618677,0.4902565612934373,4.041161915733971,1.1410143450974841,2.357486613874042
870,-0.6054214423780473,0.013875531254934625,0.5408270003066297,-0.3923606559178082,0.7428859087580513,3.132751867901417
880,-0.6365567953961354,-0.008228176509011352,0.5138459839985638,-1.3357863851375202,0.7443364329777344,2.7181201983815457
890,-0.623965335490515,0.001873135149948707,0.5239537472195097,-3.884049327621452,-1.0145069783169136,0.44672239215289733
900,-0.6104226443655723,0.014802542187362402,0.5387887323980705,-1.3628552227245865,-0.10044085738853512,1.4871709086056502
910,-0.6255303561568427,-0.0027195234592426497,0.522422497103485,0.9958915072276481,1.0311556333047904,2.5163008054549962
920,-0.5917733091561297,0.027706522630146287,0.5538222062523147,-2.0120863808281957,-1.2926381355689478,-0.6756452038902376
930,-0.62761884055567,0.0021558635158906454,0.517485383275528,-2.5502206740819013,0.4848954051639276,0.49272934604608876
940,-0.6657701044295066,-0.04044234814567472,0.48066828289405233,-2.081350233082526,0.4175135689856534,0.4233805219524034
950,-0.6361906805320215,-0.011231764168014677,0.51462519609321,-4.227045565514867,-3.543032992352535,-3.0117062716918164
960,-0.63793913003873,-0.009713771374779618,0.5111218505733207,-2.987994996629518,-3.6570343436321746,-3.028166141816032
970,-0.625373727044058,0.0025954496438847867,0.5213216906642932,1.4437082098250889,-0.3197511141021607,-0.7143820099959004
980,-0.6365078682927323,-0.005846023504690859,0.5129433412527165,0.8486759214107108,0.03017744075866713,-0.9722666862571969
990,-0.618903793314913,0.011797584720941532,0.5321189167235454,-0.2790519710097789,0.6467697538458348,-0.7073454020987144
1000,-0.6359206160214264,-0.011560700308425056,0.5144120396816231,0.19262050300658418,2.0839559196940165,0.2656942999762546
1010,-0.6564765171575112,-0.03574298271867127,0.4969049496476262,-0.19242821961191292,1.4709491019223562,-0.11249079899096559
1020,-0.6365470014970809,-0.01064376145578314,0.5142334722956499,0.09232425399229276,0.3401982917794476,-0.7949914059775463
1030,-0.6010872388787062,0.023059666723464285,0.5520903361253923,-0.46549593089837327,-0.9809027984426065,-1.2265096323957192
1040,-0.615912666087283,0.006076232230118964,0.5323633881915252,3.444632535030652,3.9170818228543482,4.191528975439252
1050,-0.632826448521564,-0.007274757236706919,0.518506673520735,-4.517892066167653,-3.0726918563756187,-2.6902178438827
1060,-0.6209176772949778,0.01136557833395319,0.5377944757384132,-1.520524713498748,0.3883306864933009,0.6297199197460714
1070,-0.6480967303040482,-0.02459461558629139,0.5004196115062954,-4.439421209834242,-2.640997664550731,-2.6105520614471476
1080,-0.6394584047418582,-0.014861545340084732,0.5168861304085269,-1.419054765051916,-0.40838877811737423,-0.3562714364868248
1090,-0.6086251714547484,0.012904441582683897,0.5466656566292483,-1.0132327350724821,-0.00908071134841637,0.5782347407836186
1100,-0.6343504284480427,-0.010688767086373781,0.5190444711098728,0.7743723737750245,0.7366416896331726,1.8240542977766525
1110,-0.6298725921144206,-0.003407797822198446,0.5217865836877965,-1.0242822131157285,-1.4612519584240737,-1.157994099814461
1120,-0.6496249839777375,-0.02024572205341571,0.5002577402555031,0.7949119831793721,0.5247006629409264,-0.047006175401156675
1130,-0.6075492909862292,0.005126209084989734,0.5383050148352739,-2.127139097763929,-1.4667712056575308,-1.7432420846755179
