time_ms,ax,ay,az,gx,gy,gz
0,-0.21630343718263353,0.008365732192644222,0.9461949195265816,-1.2519425710719547,-2.461287209243591,-2.3638322143614
10,-0.239782851881863,-0.017563693086942937,0.9168910066374466,-2.947288275687059,-2.971732457038428,-3.4005501634456325
20,-0.20295537294701807,0.021717772600252698,0.9523545955505444,0.8055168000352422,0.9929861419768337,1.6965518972853468
30,-0.22220763177258746,0.004220872193197174,0.9322334817923414,1.96931243616792,2.0176174007037564,2.724814941501474
40,-0.2049512181027983,0.021054336036364155,0.9489810780009682,-0.6633873153950584,-0.595227010557448,-0.7485887861397066
50,-0.21685368487776993,0.00721726614771579,0.9367407838197527,-2.4873294238462273,-2.067287781054744,-3.0435675847250074
60,-0.23068581476532043,-0.008199361595633153,0.9231414293619439,-3.127087784913531,-2.35850766097684,-3.6129126702074377
70,-0.22716330450128702,-0.0027802334769288896,0.9336256361237696,-0.6893418813605433,-0.5365977898013973,-1.0610732494278123
80,-0.21266783093667266,0.006879997506829296,0.9464138553222695,-0.29460026626354896,0.8419981234743095,0.5091342656978068
90,-0.20992269588896165,0.015254621152583598,0.9512246672672805,0.9935606334512788,1.7620441204089141,2.0154329135217255
100,-0.22523493619582502,0.002527494155494623,0.9331146530279189,0.7233061154321158,1.7578231215424167,1.4300708369979387
110,-0.1970806907156939,0.026783923856033422,0.9571246240214253,-3.0513990653058882,-1.8699758193402443,-3.031128634513441
120,-0.2099897027056587,0.01236533800342005,0.9453326766259162,2.15683203083109,2.6249841953607507,1.4881136103642671
130,-0.2172985049595408,0.012831892071047185,0.9433506658967692,1.6071289929264712,1.1369839017212868,0.7402641353572035
140,-0.21553114389521802,0.005774157934808049,0.9335052421975555,-0.018075430294416515,0.3361404605879273,-0.6088979908615161
150,-0.23773243519496368,-0.01829856272614125,0.9197214622193225,2.115677383763688,1.746510532649341,1.5207469041067712
160,-0.21301154693913552,0.011736469098333095,0.9479982808361577,0.91585055670342,1.4615160490432668,0.8582293447826691
170,-0.20296660886847284,0.0270084225164269,0.9550403196549256,-4.2125467135506165,-2.337407791452078,-3.7050788035327846
180,-0.26513617049048666,-0.0369088992800877,0.8879616724008873,-0.9864995312332792,0.8554812264243669,-0.30418006511615325
190,-0.1935226357917714,0.030264710802758218,0.957568231036062,-0.9720836816255856,-0.2030439968082304,-0.5805894127299653
200,-0.22282649928101564,0.003779039215385196,0.9310415705776257,-2.592295508028703,-2.012552214498869,-2.632664815430726
210,-0.2258614763969198,0.004647939820344442,0.9345542995821362,-1.422186085546623,-0.27699297961399577,-1.442701073997967
220,-0.1913390340545239,0.03937633407184611,0.9711078590655892,-3.9069146581551433,-2.432049636888239,-3.6667230375969284
230,-0.2387102423561296,-0.011030096655095918,0.9237278712487943,-2.871617333514351,-0.8187116409713582,-0.649557779633025
240,-0.2275294985157106,-0.005563411586083938,0.9290280876416057,-0.814549165166432,1.6507075049984803,2.5788107742835815
250,-0.2485495818751163,-0.028026163392155197,0.904221326396745,-5.510418599083518,-2.7798942523445827,-1.326681337671444
260,-0.22660678130738435,-0.004163808103001285,0.9281638173368586,-2.2337431193305006,0.5702463493634141,2.5459844446488487
270,-0.21081364514748488,0.011025802143841325,0.9475732607748071,-2.6568366643164536,-0.3360875237347469,1.5926230536315522
280,-0.23983791969105273,-0.011972722522728036,0.9206420340866266,2.115146637975881,2.693137960033626,4.111686387866892
290,-0.23446261049035205,0.0005828286111939258,0.9237119813143885,-4.143474911708625,-3.0626000282453574,-3.8142883117600146
300,-0.23916906580580954,-0.015134630095202758,0.9132421695130862,-6.55884392149166,-3.7196276638532138,-5.30286455272576
310,-0.19083965226865793,0.03164825133500716,0.9682533270455291,-1.4483876578929857,1.7197519496093916,1.0828055549153817
320,-0.2319654723649293,-0.006312660142057124,0.9306198305126508,-7.997045173391154,-5.044842451597463,-4.72162988109605
330,-0.2218448671224741,0.007209630215795289,0.9401346294921143,-3.6589946429133877,-0.5985096159165375,-0.4579642119851422
340,-0.2164223977054354,0.02418294195087118,0.9594105337657414,-4.671160937018016,-1.4224914536593836,-1.8471566789964242
350,-0.25886685851053665,0.01326815003244781,0.946519310441419,-6.803774433095892,-3.2556560681009383,-2.1418106000674633
360,-0.2694722625342848,0.0209375548002695,0.9299592069844778,-15.086661182649161,-6.0910232382783205,-4.188859502789837
370,-0.31907610221961047,0.28926863329253855,1.0121518965050167,-56.5632762925003,-8.538527937261556,27.87486999045307
380,-0.4849120590680766,0.30694776201196294,1.1312497757074504,-79.34613358332054,-43.610989535755344,48.77181166515943
390,-0.4837874211491292,0.22156536321164402,1.2231552670714236,-72.98344750906882,-72.48107218932198,66.17898514594638
400,-0.3035368172374311,0.0839179212340573,1.1777401703171664,-68.74830355456527,-90.71673826787222,68.27078372290416
410,-0.032408905928781026,-0.052656376968463536,1.1314942798029104,-54.85687358928555,-86.90317519064699,71.03677368573798
420,0.10429907151134162,-0.18722328588581513,1.0872883591002747,-36.505410195204014,-83.5409296845183,55.484771147871776
430,0.2090077418416798,-0.15794144419467646,0.9970615889432323,24.068525325473686,-66.62751257248061,64.33831026445306
440,-0.11578217699489354,-0.013723654738630736,1.0063871439373844,4.05647495117772,-13.606741291449524,17.363675128485717
450,-0.2613309160285499,0.04724131998954678,0.9596474808437614,-11.994984927936125,10.416544027261663,-4.651972247250687
460,-0.2705796581249363,-0.0674870206294891,0.9302311368173929,-15.064804021968653,13.436548127249228,-12.464588388957697
470,-0.22909974141136685,-0.20114416160568308,0.9292355186625701,-13.104417489136011,17.90517047684465,-23.272718814466142
480,-0.13773588777907875,-0.15909141176656608,0.8673270666624407,-14.271261778082174,23.637064221518457,-38.246292644699864
490,-0.12194130499853546,-0.12993218488424202,0.9147609444459612,-15.014197149746682,29.195754053758407,-45.75009155905709
500,-0.17595620312157118,-0.056040554118696115,0.8305823122850822,-17.36914026349924,41.27662877944152,-41.637674686738386
510,-0.328077840750269,0.15587620091643742,1.0750748253932998,-32.0731065616318,22.497211241127395,-14.136048712038335
520,-0.27241957062045186,0.16663045371237062,1.0513999913687981,-24.59507632771986,16.810380440694928,11.614376987011106
530,-0.21942780863079703,-0.04169693299186268,1.0147669758349043,-21.20438212322165,14.348552583532593,11.558414605793464
540,-0.2440872217097232,-0.1848712035926657,1.098771759971261,-28.73102154714303,5.076168717712658,-7.052140895761984
550,-0.2751274251616495,-0.07589944151409007,1.046540052522155,-23.822677859480475,-2.6907904431026797,-13.927827213278835
560,-0.3079054419765459,0.01261831090703747,1.0639997037981348,-14.102637769031517,-1.30245181361055,-4.906096029853796
570,-0.2536974838717076,-0.0626184572196975,1.0491885900318332,4.771387505122852,6.939031572296575,-0.10897287254839128
580,-0.3797193557945867,0.08144387229565032,0.980229246281738,26.29112974286717,-16.18886666510551,-37.27228870241798
590,0.021122746969803083,0.324136692775296,0.7222730995691462,38.45696213981214,-43.11280922103187,-80.06922016055252
600,0.09643076563958303,0.4679043851685433,0.7095452289922451,45.39636544484402,-53.363745101104264,-75.2218646114163
610,-0.22756255712270745,0.44744240055666923,0.7794068073862634,40.13754588713152,-41.72267565500458,-36.49934919778267
620,0.004785573629041917,0.4578326810171029,0.649163706753452,-1.9398277232240937,-39.78709753928868,-39.15829000750251
630,-0.1530280158790553,-0.09331543889349839,0.9406294097226073,42.5755041883395,0.594149299867782,26.72667055713264
640,-0.18570005649506194,0.05552166463067555,0.9181069056762726,15.912820071430186,-3.794834884325439,7.778403483857005
650,-0.1965875858741294,0.033870926976910284,0.9001258139995983,-42.52155921184064,-17.288362733054285,-28.11834954379949
660,-0.2692528451519522,-0.01139705945126901,0.818223970124753,-47.88427102855229,-3.783956834067836,-20.478729840364252
670,-0.30899079972395277,0.0584693055735989,0.5530350269355773,-21.913607997488658,19.863781567010754,3.9157009418993907
680,-0.2465208049135328,0.2600409397313522,0.3632406636057418,14.107776191708838,48.2134475478482,40.391457353010956
690,-0.12759855687605678,0.43825529454961115,0.4864885327213879,54.90562278305842,83.48775693355691,94.30023845737315
700,-0.022825871056994185,0.3472949362477276,-0.022001596630294655,48.497714801174205,76.92054918259663,60.694076936702416
710,0.0006295775994559858,0.446156951429742,0.4278299983930764,47.25110110631654,59.91591782608277,45.7781710470053
720,0.09757200247702694,0.045102022635322175,0.0034020122547810047,26.21529755058077,44.14147210765861,34.1794560111978
730,-0.09545876846994025,-0.194683345402825,0.5921076321399686,20.1104879394448,28.429284059377007,26.393045778498006
740,-0.25255483777665144,-0.16664379899762313,1.3932855381178941,14.665050881208575,17.077311236907555,19.720345110417405
750,-0.17801463241274285,0.031052741568073878,1.64815789826191,3.532427038289166,12.652933863807974,10.611370076517114
760,-0.16404659752979814,0.11319992198170487,1.3995126276339522,-5.66137938201782,9.603635885409583,-4.294856199843908
770,-0.15270001649172582,0.026916930225410203,1.0150320846531606,-34.06213955128795,-9.247644721656535,-26.354307199739605
780,-0.2722801046308728,0.008568381157387839,1.1409762927182752,-34.21358679328856,7.949848564538753,-7.535138511346086
790,0.044006840838895805,0.05618421493522314,0.9156181191389413,-28.123937839313392,10.385487241222853,28.40501374707737
800,0.06270390241151928,0.007354419954269054,0.9098822967016017,-43.31755974259322,6.016468283545208,18.181070320433015
810,-0.1787593275311915,-0.20071021087670127,0.9020459791705921,-33.411965764267464,-0.07918589185273273,-4.811036669612651
820,-0.2889970864232224,-0.3000535849338763,0.8757327105233964,-0.6603823239549806,-3.2923555998548464,-8.534798990748662
830,-0.25561820959053294,-0.22113600867403574,0.8621846864159732,6.571463699135784,-0.5121769901626547,4.337019409350985
840,-0.1869345530649279,-0.07501930679268448,0.9340760815128126,16.455912932816428,0.4665555373972101,22.82469670615538
850,-0.22708750774394748,-0.07248085282096647,0.9253097363809173,29.17682205774579,6.267352868275197,27.720849720416656
860,-0.3464360322814114,-0.4588776024896397,0.9823180195356522,53.65128108364307,-9.849799891774815,-26.648525958916892
870,-0.3403540151804891,-0.3899278937392854,0.6692870423098605,40.03606421252344,-21.03291729669183,-69.17303684996993
880,-0.28122673921435276,-0.41875282336332775,0.029882351933000602,64.91320968947021,-18.847174449963575,-73.69770798038333
890,-0.25696262453848556,-0.5320762578517493,-0.09466600032137555,111.95780606336639,-22.76080341849856,-62.72511745609668
900,-0.2956164595570343,-0.0012653232915379037,0.8583405392673457,109.01113512333109,-27.29726916502624,-40.595484053747356
910,-0.050358734721264016,1.3775540104979795,1.1285573403471527,122.65515593919847,14.24225942931279,44.951276591643975
920,-0.19393141173441247,0.8487379450006869,0.8284934009137073,70.25484013960387,8.783740180716189,33.15712766205791
930,-0.22562918540735052,0.24683774861778385,0.878362402681704,15.432825482853126,-1.1057183308340974,-3.36384345212323
940,-0.22957326233657005,0.02518226913632551,0.9231155445877836,-2.002357424892029,-4.035615097533816,-13.079975250240683
950,-0.2308439929085397,0.005256688739779353,0.9163032675032261,-0.207449102699639,-2.7110569793400545,-6.057778783785442
960,-0.22573127314960112,-0.0010665581839389877,0.9144304173123572,-1.2900840153678503,-3.4424977970474053,-1.4088574071172055
970,-0.20714921465796915,0.01382984088352072,0.9494659430275817,-4.098037460121375,-4.081773749914721,1.250538643504187
980,-0.23559208485319033,-0.008584591600525594,0.9291301277057168,-8.267266356458759,-4.839604994794598,1.8721530056169504
990,-0.23024778460174267,-0.013294862983086207,0.9316044015246142,-6.703312617661712,-2.254233909889154,4.842762447482934
1000,-0.2194349325388585,0.006167030575683637,0.933050304033126,-0.5390321607876024,1.406764992577853,2.166912995595688
1010,-0.24050078262958252,-0.014300222218055225,0.9123255596757199,1.441676637113226,0.8150427555348095,0.023439100404428093
1020,-0.23554880445801307,-0.011009116212718753,0.9174819099064232,4.2866115739085116,2.577049935992507,3.3788932970988244
1030,-0.22114656037020441,-0.0010073428820449632,0.9286646910281896,2.67960506016828,0.9680137725835942,3.1348675623391813
1040,-0.24117920208026908,-0.03210805214438688,0.9099135103936049,-0.23495723237317478,-1.7209925422576833,0.9029935899424018
1050,-0.22174584621934357,0.006676377589789446,0.9309667614872716,-2.751701619419918,-1.9671525932180767,-0.3366421222205167
1060,-0.21780315536378664,0.007236427231677041,0.9313001885234278,-2.9831549454412327,-2.4184906881436583,-0.7870200659898943
1070,-0.21399394777624234,0.017385303156069957,0.9373172109775664,-0.013717612566614374,1.1978347457449905,3.617982421756163
1080,-0.2250735146979981,0.0071029692351083865,0.926208014486674,-1.2160310901638223,0.202337257366894,2.790766169373775
1090,-0.21059492256093007,0.019616891260967082,0.9356215279806207,2.8390185206323935,3.70526886837335,6.026008780167238
1100,-0.2303443536089439,-0.0004993569878958826,0.9136052536334935,0.9164876043297032,0.8441760055599006,2.984176678280503
1110,-0.20637227661739782,0.02545037842018837,0.9446696528578837,2.600402109733383,1.9862162108966357,3.9836438995471033
1120,-0.2139362914950699,0.0254233260531463,0.929661244557565,3.9927473765842145,4.162358415913593,4.868540414035242
1130,-0.2092178616131049,0.03916351159525754,0.9330974843270382,1.68943588404669,1.3653198202153949,1.2716879009152748
1140,-0.21947052562336786,0.01804934869380721,0.923715399779194,-2.572205312192139,-1.5338211960397203,-1.6282019309600335
1150,-0.19027919015267505,0.038512646613507825,0.9528699168825956,-4.437237026140161,-2.62298554778456,-2.4038966905776893
1160,-0.19110835766676018,0.03186308930297515,0.9528896044004636,-2.9441305402340534,-1.5140593028671412,-1.1518722257514962
1170,-0.22411250939796634,-0.003754781694886221,0.9243460608374152,-1.7843908022598178,-1.138387978130647,-1.4016700824220107
1180,-0.2090881165824448,0.015035188502852513,0.9457356090376879,-0.4587748903796812,0.030811802730963955,-1.724331295774229
1190,-0.21018163931769898,0.016062937389384812,0.9399589391240072,2.8677729993244157,3.5270020351312255,1.1579722324168509
1200,-0.22958388413415487,-0.006835455188716306,0.914082940993723,1.8362141636580094,1.2635053086164154,0.6093699064918288
1210,-0.19996269737862288,0.025542795951186224,0.9461459442441202,-0.49404430049270953,-1.3769987665060293,1.3184927500787471
1220,-0.18937807524267128,0.03236093471675374,0.955582123463443,1.202106580112778,-0.47486652860265066,4.46699611747422
1230,-0.23401891411413642,-0.005937156427717966,0.9125140396717056,3.7485803945485645,2.3885748993336167,6.873404720873463
1240,-0.23682633465180541,0.003144741876690487,0.9140941973186286,-1.4864065014212107,-1.8303013279407154,0.5967164916284466
1250,-0.2215854564927528,0.013473666545776801,0.9271938792800121,3.72082138135438,2.996478685463724,4.212010419879832
1260,-0.19975799093782196,0.03088036769325922,0.9401668925070584,1.221617368496438,0.59302356150767,0.9534624931094735
1270,-0.20679416023730376,0.029704575210141065,0.9409931143716856,-3.1021383021490516,-3.1380822067464567,-4.3969646409311585
1280,-0.21949040062933817,0.016624880593028767,0.9233754997996085,-3.493549086150014,-2.529694906460377,-4.191565212785603
1290,-0.17184985211003292,0.06849083874689446,0.9736932391498245,-4.630827972746999,-3.176580126864461,-4.816779799456379
1300,-0.20058864551535416,0.040529370718030824,0.9518133731000934,-2.12136519970579,-0.527314239775913,-2.080602825140161
1310,-0.2049620168190262,0.03203677545858146,0.9514417380452376,-1.6737389914306675,-0.23088476290879822,-1.4779670285217108
1320,-0.20694029283998483,0.029655005023395513,0.9490446510492957,-1.9850461165653166,-0.9579998828063723,-1.68947893793763
1330,-0.18532743815708805,0.05463951340149488,0.967748644553813,-2.6172415410625396,-0.9707964133765515,-2.587194630390882
1340,-0.1869355173218626,0.048512942604692355,0.9674350682727995,-2.2711194650967297,-0.5334399504240274,-2.299081530615007
1350,-0.19901164365067475,0.04003672724713415,0.9577099744691605,-0.5883088994426349,0.4682556589459752,-0.4351005284061169
1360,-0.20442338156301937,0.03466785457918495,0.9501879203500627,-0.7205351780476875,0.2750614529741484,-0.617664996715992
1370,-0.1987827186499945,0.02952266246733969,0.9519652567717382,-1.7379231608741976,-1.3378912990962135,-2.186675334853016
1380,-0.20876058712200185,0.009555994685493317,0.9400960167041691,1.778090997049242,0.23769769574075883,0.32457267383739286
1390,-0.2147203741786411,0.011122794619395325,0.9352309261407566,3.5389940756598466,-0.3234187830062363,0.9265776493360076
1400,-0.24540122794050645,-0.01480866925543053,0.9066887308132549,2.782672783812619,-1.080180571769114,-0.8439826878071455
1410,-0.18031835176910838,0.04069244618874393,0.9787131213225119,4.3164357451339805,-1.9493351929186087,-0.5608030627652719
1420,-0.2132052068954271,0.013495347365092383,0.9468174287601993,3.435807519723853,-0.4640993741520236,0.09500940746120223
1430,-0.209734939315794,0.030867997983233135,0.943225137488876,4.9277495486814535,2.2033109520168463,2.1533809085656936
1440,-0.2169585638870924,0.02520406425106905,0.9302179984950505,3.8315732034126304,1.3188059809572148,1.384372032811409
1450,-0.2104823734468219,0.0231845730470553,0.9361878607909627,5.044947983680699,3.072435457470282,3.924199575925175
1460,-0.23960749301615772,-0.0045693930305238245,0.9068581142334871,3.5575859494099404,2.5157019911464444,4.42330033379549
1470,-0.21814163741579734,0.018936977932932843,0.9239646854303635,2.4335923283960574,2.071164207685676,3.8374268411295205
1480,-0.22122427515375662,0.018319686633082984,0.9186908575064116,-0.06555012570857932,0.01706301230611354,1.1563888126550685
1490,-0.2530057736095656,-0.015225975927795832,0.8888517570470069,-1.232142330008725,0.0635416798173701,-0.9449424905179898
1500,-0.21851590779762112,0.016600047219927284,0.9253902021373828,-5.955504986244147,-3.754424549406245,-5.553990515062297
1510,-0.19595693860109586,0.03924672197878916,0.9521579269946644,-2.2271707573482,0.38082396803746843,-0.9327219870730007
1520,-0.20336348971553847,0.03343362866316468,0.9478175900809775,-0.21029114769795387,2.140320849367955,1.8857347136615643
1530,-0.22864420039530023,0.006612065970598446,0.9180022088369718,-1.3738731178228434,0.13046668785571547,1.0689347149062014
1540,-0.2328660642704163,-0.0020953568220885913,0.9078711107681321,-0.07542469896193527,1.6027462211104777,3.141846083351938
1550,-0.20874498036184322,0.031039322678953603,0.9362736642490238,3.1526707526341604,4.988073239128308,6.530358267166374
1560,-0.23044115587337546,0.00362884108879211,0.9176837881058563,1.2803866695607051,0.8237359404223112,4.020546293263997
1570,-0.22033214387780212,0.015127033816173098,0.9278868866214471,2.983689756100711,1.1515823255582918,5.063645047614838
1580,-0.2374765139910462,0.0033728828521356127,0.9055484755168182,4.188405026022435,0.6717058082657806,5.010163133005977
1590,-0.19201927319259998,0.05454666179181171,0.946504379308734,5.327876910215701,0.5678130099044648,4.579307891604264
1600,-0.224345962767279,0.02856201236338951,0.9174642085572816,1.5116026019918245,-1.414716417147828,-0.14798522465456343
1610,-0.20127746143109138,0.04760192240143493,0.9368360869406951,-1.2747849546536372,-1.5177005318888908,-4.092041530551936
1620,-0.21581834906298075,0.01964793501206706,0.9263078156478587,0.8005612636658099,-2.1349946468898136,-4.629616746163955
1630,-0.2310323221317475,0.005263225072841056,0.909654287917468,1.1072168607876942,-0.23813920051349535,-1.388871309185969
1640,-0.22727231543597698,0.013547386440019309,0.9121318622682358,0.6392594679347889,0.016375105238708332,-0.5484737540917912
1650,-0.18870435745521988,0.055427637764153034,0.9526926494219795,0.3247691753162675,-0.3671922795887128,-1.2153717930222272
1660,-0.19865338094907478,0.046814267916871,0.9469259334538132,-1.057946907328973,-1.6564515099610473,-2.9331949010315914
1670,-0.25467798507680256,-0.009220712370386866,0.89266195407034,-2.5398413711843095,-2.806922143420419,-4.2108695166477705
1680,-0.230297418873065,0.011835017508714747,0.9113147801802465,-1.2507604133355046,-0.9159288816958793,-3.1258827612770532
1690,-0.23150463282595024,0.0073395939534934805,0.9187065716487667,-2.855995102066239,-1.6381973401966268,-2.888580002726313
1700,-0.24340101330943956,-0.0012662454067209061,0.9002509243641169,-3.1941877986844704,2.809717918334882,1.0612015011352576
1710,-0.20764334041877738,0.035589336686289226,0.9339067571877068,-5.489144789363964,-0.9162052629122306,-1.758221382354966
1720,-0.2370499911287834,0.0030470211268717427,0.9022861836719737,-0.2357107306566822,1.435791373112751,1.1702179633388943
1730,-0.19521648572989875,0.043289948439492264,0.940539593409084,0.14181329359430317,1.026978654337386,0.5548201633655326
1740,-0.23031475024733453,0.012417527041546637,0.907681566019692,4.008105159225506,4.493657993210248,4.484712309988276
1750,-0.22662306095137633,0.009172467666942394,0.9178106516736977,-4.278590985457067,-3.1262362610846113,-3.274152897886154
1760,-0.2233347655181503,0.005569158865708104,0.9149679998329472,-4.62482735061208,-1.923447053602389,-2.9140197897552147
1770,-0.19407892948429825,0.04297634316743222,0.9481800469028883,-7.678661129478478,-4.491800200219536,-5.463620496772863
1780,-0.2113364487649572,0.028696883893136696,0.93463255690179,-1.7212208573198655,0.5765769980904865,-0.40434392409078934
1790,-0.21576268325579614,0.02119628102068645,0.9289783043833647,-1.6546575879423788,0.7055049653493791,-1.3535073410986163
1800,-0.21263114830123614,0.02389974076364327,0.9312015429084449,-5.145813556206855,-1.384966007265334,-5.190419190633995
1810,-0.2309590219616389,0.01191816060538011,0.917486930957226,-1.6963888251467374,2.746315657586342,-2.0081623978046945
1820,-0.21360034817314338,0.023417149694777196,0.9258070351883898,-1.9013941835253934,1.5692752534275756,-3.1528864442552673
1830,-0.19353456250262097,0.04023457392718045,0.9501245639690897,-3.251521348196602,-0.054944139526980074,-4.269497821000766
1840,-0.21687358338087176,0.020058596799337698,0.9198677937852348,-0.31349155659448275,1.2638944483829986,0.29214620112336254
1850,-0.2111377026059447,0.03398530689551168,0.9305926386786522,5.476486148698409,5.20627112254047,5.9612899540732895
1860,-0.2197850608833372,0.027811972020217905,0.9239535922528288,-0.23076311345871314,-1.5571745793381784,-0.6505169453674489
1870,-0.23821500306792348,0.007056306599075829,0.900663332226012,3.061122121258517,1.9251189590633748,1.8218535783892826
1880,-0.18202948425905435,0.06625295764415753,0.9586186313395865,0.45384828608099115,-0.18387735076222078,-2.2530486591805046
1890,-0.21339240131792395,0.03668733471473389,0.930352700052629,2.6046934474734385,-0.750459913791957,-3.385727113054191
1900,-0.22662487963636258,0.0113450870917152,0.9121250885335703,-0.4274124920774527,-2.3433210213267857,-5.966430722988005
1910,-0.2307947155498334,0.00197113020059138,0.9113291178802039,0.44386055711094974,-0.3808124295444165,1.723796597519738
1920,-0.1905605194559639,0.0425359852228195,0.9521167338249428,3.1510599706688573,1.4114691472850376,5.598511211842537
1930,-0.207988618380669,0.02927167920727775,0.9345676872801445,4.792713834441402,2.6572375777134054,5.212828784070404
1940,-0.20450729568887693,0.0364188036807175,0.9387726793139562,4.879674492453301,3.6342954731916572,3.628957635253007
1950,-0.2468227273339579,-0.007186551946779814,0.8942831793250023,2.433565076390266,1.71217297290776,-0.06843502602055385
1960,-0.19396621273422243,0.04214440973029153,0.9377583183275541,-1.561575312980589,-1.5762771761902639,-4.105928328278056
1970,-0.23085413873440944,0.010625426154068895,0.9082771898992084,0.3480254677245199,0.1388252774310872,-1.867780763129123
1980,-0.2478500594436992,-0.010666830177582038,0.8910111170883708,-2.2431513704398327,-2.373053592041964,-3.151204012591104
1990,-0.22957274803525576,0.008242401979410958,0.9115641124541138,-1.4965217035705756,-1.3469293028011449,-1.3156867114663653
2000,-0.2212252395452046,0.017128920165308446,0.9240968065284147,-2.702505994348833,-2.3505759588230717,-1.7794305622853739
2010,-0.20986795570853303,0.0277964611996966,0.9355459182740548,0.43179633605579715,0.9729319192877741,2.134522598215728
2020,-0.1854619702579146,0.05569306618162174,0.9551714885921598,-2.5500456470591675,-1.4651155659692952,0.25617800188621453
2030,-0.18691702610481112,0.05568229608735831,0.9641972654600222,-2.7696587160502872,-0.735425364621729,0.9922558352841748
2040,-0.1914913661160499,0.050268139398094484,0.9489874112877049,1.9194774901738156,3.614128664413352,4.495373017192492
2050,-0.2117788264403141,0.02750890635337325,0.922808530729102,0.11095403392766784,0.5294188326279206,0.36429142248654817
2060,-0.22447991174075863,0.00593697498358357,0.9044128808565384,0.9141124410099317,0.7005800332851745,-0.09821018506088652
2070,-0.21002198880941145,0.02141008167662415,0.9199429014741279,-3.441331476456903,-2.886238305045749,-3.7055700470960726
2080,-0.2134442216112731,0.02826782537488014,0.9233561712908565,-2.3563823564945228,-1.1008718682982204,-1.3497845531035753
2090,-0.21010551810504619,0.03232790813062351,0.929789030956937,-3.4705916983449936,-3.366756388404227,-2.847567127245876
2100,-0.2101435719294433,0.021794028930901654,0.9279307898745034,-3.103083201124143,-2.8806251094465427,-2.6467921125920455
2110,-0.22234633787985367,0.01248424452651219,0.9231400677550435,0.005087469285674828,-0.20517174373876235,0.647262758564854
2120,-0.1971860150996499,0.0390217403035069,0.9489475693073746,-4.478690877205226,-3.84178114671771,-4.991605085909452
2130,-0.24528076571506383,-0.009629004352053966,0.9013945809690794,0.25018103721238427,1.098739414406681,-0.3666955563392924
2140,-0.21887237789952707,0.015047213231866842,0.9264768810961784,-1.8720108557824218,-1.2094010636190464,-1.6146007078465892
2150,-0.21997517097089847,0.012847190219749957,0.9218584493139133,-0.781360881109476,-0.10011366764557939,0.2332198419934648
2160,-0.22134868797937954,0.013020242219695262,0.9175823855486891,-0.04012223765632972,0.8387991102754268,0.7775198849871947
2170,-0.17960842397403015,0.05956493179139423,0.956464790553251,0.14410423237744197,0.551538632162678,0.351305538571804
2180,-0.2356517104314431,-0.0014617159073278714,0.9061572589178396,2.6115377545482445,2.932082276556846,3.1620372251209647
2190,-0.18985189667820884,0.053087686821664995,0.9541508617633699,-2.6847311719944873,-2.2716552143864885,-1.8675108287370064
2200,-0.20973365865564378,0.03594959663508436,0.9381552315667722,-1.7119980441628093,-1.5871731303796703,-1.5763961887299174
2210,-0.20574978024897456,0.03861805569144461,0.9448167864391138,-1.3190691926135893,-1.3366677836871146,-2.084138288762746
2220,-0.224223438246835,0.019160333998809356,0.9242085258174776,-5.575338418311628,-5.16141144279886,-6.720124987230916
2230,-0.217228141983046,0.024229529796566448,0.9257044128648327,-1.1468417350559634,-0.194072714825263,-2.1866154700317764
2240,-0.23127820994303863,0.003401245688877789,0.9133654612955331,1.7061600025498578,1.536471843906686,0.46011072024540844
2250,-0.18024570985942293,0.062032491395457114,0.9663001161719423,-2.944605406990468,-2.094014085529396,-3.93526981070773
2260,-0.23193340530118556,-0.010017203661470611,0.9070308806683416,-7.419611226323632,-3.482109805339954,-10.205672302747235
2270,-0.22572122328161784,0.007205062981413768,0.9182145646690251,-6.360593934381695,-3.011240586190965,-12.474840834007317
2280,-0.21742405455489106,0.015506524769008703,0.9331051954346493,-1.5912554388913664,-0.5758766289099551,-9.940914101197308
2290,-0.2179129760716382,-0.0030100661230838717,0.93419519807976,0.8118736039576924,0.7173963587982157,-7.655105289558701
2300,-0.22149115959357338,6.895495228138263e-06,0.9334305260979117,-0.8850437052232704,-0.5378102477124447,-8.66300562877609
2310,-0.21648537636206133,0.02016243875201376,0.9415388320394583,1.0919736716730608,0.3812236170602896,-6.605295784341903
2320,-0.22643661541018395,-0.003974150008614031,0.9260815659777574,1.9184451469426387,2.4328288062183168,-3.6666495126089695
2330,-0.2184049072527691,0.005320392150058053,0.9368261540278497,-0.9920537225286106,-0.07200908852438215,-1.2738233141729844
2340,-0.21887815996421447,0.0050684390600826655,0.9344149478723447,-0.554563321935082,0.5430288907449649,2.5965243082611886
2350,-0.22782167234149997,-0.005282445128926391,0.9204359379745723,1.1146816775773958,1.9946179136719486,5.554297698959967
2360,-0.21513065065900439,0.00957478190763604,0.9300527307281415,-1.4749811401797015,-0.974056973611331,2.2306246006428925
2370,-0.2017213273879686,0.029802713065539263,0.9438974042885144,0.8275016312688235,1.2354437003594976,1.6901677473429078
2380,-0.20525358135950952,0.024984449267730954,0.9392333436077027,3.25400309655108,2.981732546303487,2.054670779631978
2390,-0.2123808197290194,0.01432497520665118,0.9396968746999745,2.3652343050144804,2.1107372617341524,-0.2935129730264675
2400,-0.20395965673398095,0.022706709266384024,0.9477993115896804,-1.778045303764404,-0.16513491926933377,-0.8828177204018355
2410,-0.19686362053283363,0.028247168475638303,0.9518842884712558,-2.326688422077519,0.9626087818316842,0.858059362917085
2420,-0.2404483118525375,-0.01453104128803765,0.9073331097463256,-3.2666255241321784,1.075458402127901,0.47154453997993606
2430,-0.22066550951580305,0.006854787213806268,0.9288333913418919,-5.585968595444328,-0.8803048459636477,-2.370618478935418
2440,-0.20549737654830733,0.01952797002907697,0.9450647455874367,-3.020871954820089,1.26628526433729,-1.1168719197318087
2450,-0.20923026051864566,0.019538940747442543,0.9382820159981995,-4.630605198602594,-1.211581294202824,-3.243499750575363
2460,-0.2037106522564591,0.020064145752601126,0.9425823130782357,-3.3011733323064254,-1.2667112905647304,-2.8799732113725094
2470,-0.22808315257414488,-0.009279446460901357,0.9214657422718728,-0.7310914992335853,-0.2634582475480062,-0.46454012117642873
2480,-0.21538398444325418,0.008328785740556913,0.9352860308078067,1.2068780591033192,1.8804545931714058,1.9057438370990045
2490,-0.25405573168394674,-0.029801760223059234,0.8958111117838903,-1.8045219491147417,0.037244334405947765,-0.682720232423048
2500,-0.2093840391152184,0.009673404932660636,0.9389776876578407,-2.0500195294902803,0.0722335230723476,-0.9451020394778763
2510,-0.22988022605107442,-0.008557105788698342,0.9166721693309334,-1.0471560875565715,-0.3021094632886939,-0.25953221698063783
2520,-0.19821486768584265,0.02700613742377023,0.9479329362814891,-2.7894078184121613,-2.256666423906389,-1.6402666195907483
2530,-0.2262895301611288,0.0006765113343887835,0.9173956072573903,-2.0814162192641623,-1.9980311991343644,-0.6844185644507544
2540,-0.21931880405812357,0.011894140543027142,0.9302132238747807,2.6461141304841873,2.581373131666131,3.642841921269473
2550,-0.23810952637748584,-0.004696661928761317,0.9131520997995103,-0.5796602508188691,-0.646815348747599,-0.29426771631152004
2560,-0.2179817684161175,0.014516362152844015,0.9326299105196902,1.6326497192319227,1.3857888410083798,1.2858787910798004
2570,-0.23698833041275555,-0.008112217112899448,0.9117785587759891,-1.2619945789543383,-1.9293415075646971,-1.9310926809201756
2580,-0.183078231396767,0.04208010302498298,0.9616129687365746,4.150763181463739,3.324579933038303,3.6039614587806614
2590,-0.21246468458205547,0.01716014254666838,0.934045318574792,-0.587275207022623,-0.05648947708363122,-0.18810709598450032
2600,-0.2409325247318114,-0.021385175576207862,0.9072012356823559,0.5596332343293602,1.9783401812749974,3.064932486365648
2610,-0.1959014846869588,0.02752454983354303,0.9503152207835981,-1.703613530800264,-0.13692084747505817,1.3686681016919964
2620,-0.20585452958163278,0.022404885368677574,0.9376599211574765,2.406759025515919,3.266139439580721,4.569314667429403
2630,-0.2320509715550614,-0.0007379985363785927,0.9095365880894773,-0.4316077530674167,-0.12246670254106962,0.30109106061353774
2640,-0.22750386889587354,0.006228043659484109,0.9167506082403564,0.6116903470188757,1.1292835004736972,0.1090305105664563
2650,-0.2131213843622008,0.02241726088906774,0.939326972699495,-0.9331814532104847,0.08033336688932236,-2.238409534246185
2660,-0.20737608981527764,0.024638903644169062,0.9431016965851609,-3.762673638410451,-3.2955203929597827,-5.008414999176285
2670,-0.2243308361865585,0.007162985470315838,0.925376747469864,0.016547005973414297,0.5265725473671927,-0.13616046004296267
2680,-0.22765953647885362,0.0028194094422299316,0.9198080165320293,-2.356703085210129,-1.9781536845956043,-0.5569027994917584
2690,-0.19442622851355193,0.03267561736957372,0.9538446058700542,0.06416262096283618,0.3783240233719802,2.2761101285481193
2700,-0.19707411808593348,0.029756391050984748,0.9536136269280028,-1.2263045812032192,-1.0484790846123786,0.49331567861143544
2710,-0.23180629926449145,-0.0018746734671637403,0.9182994644919662,3.929725511347533,3.6901547273160418,4.9141157942920195
2720,-0.19305069276255868,0.037899070110362996,0.9504421673588356,1.866344350248764,1.1197639469981227,1.830713026880084
2730,-0.24825334938531438,-0.018049830931919943,0.8879108186744169,0.9543697863869001,0.8340485932522903,0.42031781043556005
2740,-0.2354355524662986,0.0016539829872468693,0.9151952519936709,-0.13247261377050096,0.29056580792701053,-0.5988128691362362
2750,-0.2139732393163402,0.021033077463937278,0.9308397458938669,-0.5684530343658432,-0.2985654292372444,-0.8667790798558674
2760,-0.22137759627245934,0.007719197448241985,0.9248798622597209,0.610426729342905,0.3072861872082032,-0.06128049661772528
2770,-0.21065581416947685,0.018662017555467852,0.940448252502639,-0.5976049312101477,-1.4050461527491787,-1.6799296545387201
2780,-0.2280531633111098,0.005727901372291606,0.9230317409170979,0.5634477383009375,-0.5004287060053416,-0.6683736175568342
2790,-0.23581704143210744,-0.0026828835795441493,0.9117820359135961,-0.5836233259608488,-1.7362897381939306,-2.0015462315681765
2800,-0.22525523524207375,0.010727264187364121,0.9276078285375157,1.9138358582099753,1.1221020865422409,-0.04950555958735192
