time_ms,ax,ay,az,gx,gy,gz
0,-0.7065527218753335,0.002409933307823707,0.35818210648569504,-3.5005598427505693,-0.6618178430268294,-3.443473814213026
10,-0.6900967224274256,0.016485529848271542,0.38028557821402836,2.443856333763771,3.0174410065357105,3.2450893764282984
20,-0.7107443470504871,-0.005054469754574946,0.35379169528203275,-0.5581506791818439,-0.21353448518170026,1.1346651632144145
30,-0.7338446370533682,-0.021819188773667883,0.3366595230727709,-3.9676257582401413,-3.900679079311178,-2.754822293493381
40,-0.6858783932757562,0.020039822715635716,0.38018408638547213,-1.0489755775888003,-0.3328421474038083,-0.7264615339257527
50,-0.7525677537930222,-0.04870497966821079,0.3134630750450143,-2.9416407884739977,-1.8443080543760908,-3.3464185134190476
60,-0.7271920470762405,-0.024873280317004316,0.33947796783680917,2.5186181092832505,1.9943200875569402,1.5923663165327557
70,-0.747995718490747,-0.040338888927190245,0.31520157831661155,0.6389887174745105,-0.22464856804033395,0.6601308817897856
80,-0.7512304790253099,-0.04570933316950857,0.3102339822119624,0.1315329183201135,0.7035217092225394,1.0028020817276908
90,-0.726228292968154,-0.021091044526292287,0.34016186888285493,-0.02505807440003649,-0.7418582390214892,-0.14792114492342057
100,-0.6934308595363121,0.012590644451614482,0.37755537943163897,-1.160158149227053,-2.2637495711436495,-1.3051852594374918
110,-0.6945915329079609,0.016855760841139548,0.37430681024930534,1.6332015677643739,1.2276655949458406,1.038064880510637
120,-0.70835888912241,-0.01490650333464591,0.36435843405878693,3.446235189434761,0.7859098855497062,0.7103310224756928
130,-0.7308479583071572,-0.026559298397027038,0.34150785271914996,0.7585893228986511,-2.0097075017531485,-0.7914210909261437
140,-0.7173293393497315,-0.010846035653855814,0.3595587538407665,4.059150799542364,0.6790435052296412,2.5288168655057683
150,-0.706510509502457,-0.0033983766410549954,0.37885806632299157,8.667731443370233,1.8114951602740872,5.603994825218421
160,-0.7043280031425135,-0.028543643996713185,0.3496801925528741,23.06779112536976,-0.551275208195897,11.396452291507709
170,-0.7674201675386346,0.04164758862112802,0.37505507031295504,20.154172310367912,-9.333170035016279,5.698434990462306
180,-0.8014382606366568,0.0971208415373055,0.48919423783998495,13.665668266744838,-26.640096529716942,1.2475724372438386
190,-0.7513948158466499,-0.01648192187747305,0.4778846754017514,6.074089098063828,-42.6215837823761,-0.03684329454633961
200,-0.5905399303340643,-0.08072473160486793,0.45181292683232976,3.8631874426151467,-45.912722183562316,-9.134596246287021
210,-0.5427054619889499,-0.049763013324967846,0.3130824835056408,3.5975515218659044,-41.19001163963358,-19.89038391212702
220,-0.6903560564731137,0.10781648317155172,0.4321574340380581,0.8247846520677895,-35.06574621146607,-11.889076733054731
230,-0.6766412571565414,0.026686493582797722,0.4104538214558441,-41.392828929526075,-37.737658929426715,-13.833349763481946
240,-0.6996795882099053,-0.020754657856513592,0.2734277755470521,-42.06591480562784,-32.056510380165754,-16.604193669288723
250,-0.579533733102233,-0.023582748757979808,0.32075379874713184,-42.14825813180938,-17.526348579176997,-19.06140785695527
260,-0.5977016805444001,-0.046115069248493956,0.2431199015219795,-40.87172213311422,2.032008258448676,-17.580439661679733
270,-0.4938391483551771,-0.03327519566193329,0.2801379118478744,-25.705109843706637,18.293964833203223,-14.187450447730372
280,-0.5818225901981998,-0.042487817486598654,0.3028352750194599,-30.422305878248263,11.71637073179808,-18.90802291694906
290,-0.7843352754794879,-0.11081338878249772,0.2473870177683989,-43.90544584315026,-18.925112560049136,-23.36899029246147
300,-0.7933179348480016,-0.12730264177767886,0.33438474715807825,-24.910856082093723,8.408292094013486,-3.926232784585472
310,-0.8692238375911255,0.1237146751100631,0.33694691031580926,-44.23768664471764,-0.2709355741723555,-11.107621923102293
320,-0.7795703005300754,-0.3262421896870085,0.3890390899725918,-35.021689789788645,-7.693284443273027,-9.956012676521139
330,-0.7204087895211677,-0.1484601515638507,0.4981068325009313,-3.4722738616569977,-5.751545402557155,0.8990597980331565
340,-0.6472859213673656,-0.1464903657013393,0.7289259357561813,30.990712040223617,-11.185790115510025,-2.8564299329787795
350,-0.8806978011471167,0.6375916809507752,-0.4608562297969705,66.48426551823624,-7.953536261824283,21.006229168855224
360,-0.7634005736960955,0.11193711214129828,0.20580083465072338,18.07284108354342,-0.4902928625731791,2.1010390719164738
370,-0.7123001635646083,-0.34962285970511137,0.9693438553142188,-36.10436615030604,-2.1682186307357196,-16.049003895524994
380,-0.9003696224553358,0.30666751241126317,-0.09599505362725375,26.342054419315186,7.663199484760131,34.1647477464223
390,-0.7378115619855341,-0.10295579743281334,0.25891685676118303,5.560234210378157,-6.9643212194998005,3.8429057126903645
400,-0.8101752187085752,-0.09048262222713738,0.15612995903210855,14.614382877788355,-15.083687459312097,-15.4246167769394
410,-0.8437175296595455,0.0267684385829097,-0.011666187783707798,33.615745689772965,6.816226923483336,-5.0945691667640975
420,-0.7576671075894356,0.04627517885967361,-0.06133736792160245,27.85161444541257,28.17029047912714,-2.348631867230017
430,-0.6753050080248043,-0.02618129054625449,0.52771445996476,50.32016490265965,26.793893847428894,11.89018922442429
440,-0.7285575805555948,-0.09871748806573212,0.6294581834329954,93.07490071451959,14.065314682184018,20.80526671805072
450,-0.6161283992569183,-0.09738183049912084,0.6102955493161809,77.73750597778445,14.628759245443083,26.776395678233285
460,-0.6885082143064387,0.034313088843188747,0.0635126393987032,43.81230754539798,18.7115325281295,22.006639556584553
470,-0.80984048963309,0.008259527706977238,0.39667889286937186,56.89527865560696,-4.593474716764312,28.87786128768844
480,-0.5606265414927829,-0.15697624897414267,1.0955906178236348,20.51052022925476,3.302903126747341,9.872891812291629
490,-0.560739855251891,-0.11089990841218372,0.5678668385129633,-31.69367551328305,11.117849687489059,-3.406021228166856
500,-0.5897322632116182,-0.08144266418504947,0.8287125974086204,11.111926421572946,-0.6639393201125129,10.123479147134223
510,-0.6998371855196858,0.013609075653559233,0.4024056121838797,-16.24940900853549,2.902582802154751,-7.933877308181597
520,-0.6935273060670927,0.007771517959868304,0.39666983351629936,-25.666997950603328,4.413639716563195,-16.292410819237688
530,-0.7272438594868771,-0.037934532175968955,0.3709005269319706,-7.950527455363005,1.223793539545551,-10.260454486250143
540,-0.7225233369808934,-0.03990067868099948,0.37107185123391834,20.534169710776585,-5.92800369150852,1.3613824739337335
550,-0.6934764471669385,0.007043854452066064,0.3980824660066744,29.821148301319422,-11.466970142361276,5.877807019972975
560,-0.6823538463735817,0.05640041216239826,0.37299907040813357,17.352535413300085,-9.328221342112975,18.075570561564607
570,-0.6247898024274205,0.09242705049508107,0.29382847726698436,-7.403688941306659,-7.329443598708067,21.291808611322963
580,-0.5520316432667943,0.1295133049347467,0.3214621351662069,-22.727736206144055,0.2523412346802354,18.325774983524056
590,-0.583309647975262,0.05393097163079408,0.35656154152243813,-28.817598011208847,8.865004713851484,15.80132689310334
600,-0.6861888731105528,0.20914829103248136,0.38553808674865764,-31.302440744732998,3.5854498003042856,14.733948621892914
610,-0.6433512561329077,-0.05197735953172987,0.29860128981231043,-37.99376932371641,12.979408931904304,14.460089505773054
620,-0.7920710751437227,-0.16211459524213787,0.20895444062236618,-44.05956483028943,3.4107833709086903,-9.644035976126226
630,-0.6581270602055138,-0.2648908599127671,0.3665619805979302,-1.3306511693670735,2.788161188383725,-15.732005996811807
640,-0.7088837920446074,-0.44960874054354,0.2773058699356874,11.408900709622618,4.727133753001202,-17.625243104995686
650,-0.6765563589898265,-0.6174397485781289,0.04053881294741618,28.581475284546155,5.828358934801994,-49.68927228235979
660,-0.6682875089382122,-0.2955912296939508,0.5000890020627687,51.57621709614355,-1.9993727594765345,-61.70312498084626
670,-0.6529286776217483,0.02902451451889205,0.41722075126215946,52.64264153705512,-1.0392624848297152,-23.712260284970966
680,-0.7330001482450204,0.3991743188345638,0.4413536377051773,61.39308902306712,-3.0475783991275236,29.81175356493763
690,-0.6936271723534622,0.3070536104731873,0.418404378352926,34.8241274181444,-0.7708709624490934,24.979095653626896
700,-0.70829559856253,0.1412800288686587,0.3745268633338397,-4.534224888404597,2.7370364777191214,2.9891837168539395
710,-0.7202584600915184,0.0033442028989390353,0.3675605017667158,-19.30222740770011,-1.2965520868049496,-20.659992984980963
720,-0.7171597794796928,-0.037008988391003625,0.3713520738552555,-11.249513541842829,1.7602632388834976,-19.695777619140244
730,-0.7335427698834994,-0.0501439331397661,0.34536044025654195,8.65357740868785,-0.028483290302079967,5.124090362963698
740,-0.7028536699840843,-0.020932885246602487,0.38465457411509907,6.024748167018861,-1.155204930466453,9.142204255200188
750,-0.7205820337786513,-0.02555373782060197,0.3589423465099484,7.268110387471319,1.1180046221740407,12.358103059482477
760,-0.7242478102437735,-0.028550799395054192,0.35634997924971773,3.822197033371802,0.853155327194375,9.880303077324784
770,-0.7037487884871316,0.010794371223185033,0.37861849719588736,0.48950870443009387,-0.6044414785803314,3.3073884335751176
780,-0.7098431864205471,0.0006950987441108917,0.3684597935675773,-0.4777797155061847,0.25259413611575343,-2.532493856412415
790,-0.7024630352729765,-0.016824325711401175,0.35900676368757134,-7.252894044542069,-0.2535868333857013,-7.522470394503616
800,-0.7104801675282885,-0.039654651596127494,0.3557766720533234,-7.094678666767606,0.3520517483451229,-4.9477651316371976
810,-0.7179288232229071,-0.040425741553841626,0.3649231473515878,-4.860127536314125,-0.8073520793196296,-1.8110241281116015
820,-0.690284938402209,-0.006126137450127418,0.39044937639056515,-1.4743817318663401,-1.0481157482599446,0.786302276196456
830,-0.6949463925234858,-0.007851959225821143,0.38752131811238116,4.2325929307068355,3.7180898300534357,4.968348267698541
840,-0.700877369215689,5.8670103540622506e-05,0.37648796985278127,-10.105589416541639,0.7193885091589431,-9.31072052617181
850,-0.6972069275013063,-0.0030265626463577867,0.3868071789761737,-10.501804193567683,3.6681221336890975,-9.76095604673766
860,-0.7013443620813359,-0.021343536294987572,0.37930226868516165,-13.845585602127176,-0.9392321869576623,-11.935190220758416
870,-0.7084874952281834,-0.04829451594758444,0.3660658388293604,-5.187186783317331,-0.00023535303281030373,-3.9671421403044556
880,-0.7139635099203618,-0.04897132398128154,0.3563491485952621,2.79952609532287,1.1314738778324216,2.9720780057736684
890,-0.6965784537090411,-0.02078488723922344,0.376697379248424,-0.7434955271441446,-3.2677517033785537,0.05628204251064117
900,-0.6712053358949798,0.021557965280473906,0.40597723390007356,-3.189810218493391,1.3951799974483676,0.7719655309074585
910,-0.7008037293969365,-0.012101078955731225,0.37990998719758934,-4.8481833026173025,0.21653041830900305,-1.7006822428324324
920,-0.7176732110988042,-0.03994661814276905,0.364061403633361,-4.796122711034428,-2.924210797669845,-4.285218428830321
930,-0.7061705014187728,-0.027812028803205963,0.37450837897891437,2.9586491401771395,1.1299111871733174,1.0157886811585033
940,-0.7036043411168036,-0.02022404943481643,0.37951626212248274,0.919339773480163,-0.21401719412593956,-0.6436144814742591
950,-0.6999079860181372,-0.01718051726320154,0.3762128768619304,-2.3975004952757377,0.038191716860368485,-0.633458668994939
960,-0.7148162799009774,-0.02628337140373102,0.3676025988847386,-1.9928066910406461,0.4930493073158317,1.5798006868745895
970,-0.7176738717890958,-0.03213414771760963,0.3670061761158761,2.0404074604665414,2.488175506880583,6.148277154243285
980,-0.7029590251250386,-0.018633726933365964,0.38260539424605916,5.936125660473751,1.611085293261419,7.685289901344667
990,-0.7261592055067757,-0.02322932446452075,0.35743610201076914,8.222614537464386,3.451596981032109,7.189892387818016
1000,-0.7091385263201155,-0.006600787153599043,0.37267284937126494,-0.023413045756145445,1.3321606583056047,0.37819201746932996
1010,-0.6873624622982096,-0.003838259844308786,0.3900006475249837,-1.2230436195901253,0.10789451011434004,-3.975614516563944
1020,-0.6913506250540492,-0.003901216234728371,0.3875776370282233,0.5184208252432596,1.319625974382952,-1.1926549181428672
1030,-0.6930755766811107,-0.0045181729396411175,0.3859786278317726,2.5006649858873646,1.3592250955639502,1.1201700330837085
1040,-0.7340003747628477,-0.04223807035057307,0.3491729995255293,-0.9716120708795213,-1.8442191267638848,-1.6625407194748787
1050,-0.7375668833748619,-0.049610162915354084,0.3422437460587611,-1.6148308793454524,-1.903132159399703,-2.118349778202484
1060,-0.7270831810079883,-0.03822979682832277,0.3511917023884007,0.4908920990373973,-0.3998134702956906,-1.7775922877573036
1070,-0.6975913713082242,-0.008707795201337486,0.38050677632463276,2.8063491374826075,0.6583087360080571,-0.852025217242707
1080,-0.6929200088518965,-0.010231674625329847,0.3800949029324272,0.9536201958194286,0.1269941521495208,-0.44361769731645884
1090,-0.7068836427275582,-0.020699861302723613,0.3693385676421488,-2.0122596192166275,-2.1998322076900507,-2.149053730439543
1100,-0.6791177944461558,0.015580216842738592,0.40215535875528496,-0.48629988007563685,-0.5522654428625313,-1.102599637037629
1110,-0.7316874772230411,-0.03161301280848197,0.3509016248340375,-0.06866132078374296,0.5239556840295126,-1.1086293669142568
1120,-0.7189656460739128,-0.0467112108155375,0.359633364403471,4.941972205994563,2.841027990013374,2.7221293230018833
1130,-0.6943722635627662,-0.013479589472922155,0.3784139351414494,2.4757825870787635,1.7646058644424714,2.73083937145323
1140,-0.7012991737611973,-0.008933748742703411,0.3723303194249997,3.9040379288991174,4.467315667408155,5.6332335681021295
1150,-0.7145082763548848,-0.012490916005683039,0.36722303283767627,-0.8543821534586781,0.6394268343708864,1.0389387863309267
1160,-0.7115419373264412,-0.016194930558607882,0.36523740236479796,-1.1538355062949892,0.694142609084929,0.12078840260937773
1170,-0.7198391252795175,-0.02793707684046642,0.355791034968619,0.7952692944052356,1.604278439877588,0.7652466479905405
1180,-0.7245701972189595,-0.031840709737542744,0.3518018221986353,1.8226155952623961,1.8644677631794522,1.5630297076046389
1190,-0.717432081748283,-0.021809119405534202,0.35477636185090333,2.6074072596900146,2.205179420844864,2.2135485907103463
1200,-0.6839885903534546,0.006885412792165247,0.3873911621417618,1.530003296096548,2.1851918634018728,2.587137340423414
1210,-0.7096514349218266,-0.01791077363601324,0.36880889298291064,0.05186656909258974,-0.0700630251164881,0.5553854607715528
1220,-0.7069351409919749,-0.019071309356287966,0.3628157114225373,1.8678425058880803,1.8425122564266176,2.4692793862759688
1230,-0.6999313558676585,-0.0026845119759308957,0.3748573141762743,-3.1919736197294677,-1.6222953761717975,-3.0492358961407042
1240,-0.7166726152232341,-0.03321742298488081,0.361295810926367,-1.9312883758508168,-1.2678605111775494,-2.093049087253453
1250,-0.7137833217727351,-0.030149307718789025,0.36318169403890654,0.46214268914314544,-0.4608635578362691,0.12865231311351344
1260,-0.7053929683755988,-0.01893479199314419,0.36919787301670115,-0.16013897999155735,-0.9994393494295117,0.05352756754736221
1270,-0.7004633076919605,-0.014277240108887965,0.3739858214518293,-1.5072199469416114,-0.6072660325322798,-0.8814659468730281
1280,-0.727010328960642,-0.035522702668505234,0.349924931761514,-0.7784937256654441,0.0660421386343717,-0.4724566367532073
1290,-0.6944799715597424,-0.0023925101321844895,0.3830100785771075,4.586519866526011,3.15329049100446,3.925325910772108
1300,-0.7146264507543788,-0.020381218496820567,0.3654129270746594,0.04588872499842478,-1.4895615419693953,-0.6353115087922514
1310,-0.7106083019874335,-0.017456104889822834,0.36833385075267566,-0.15878659721895105,0.8471287928185638,0.17297329931351746
1320,-0.7167745091502528,-0.023342795750015292,0.3615068448908371,0.1250612533962241,3.490027654353213,0.27921462584918233
1330,-0.7071872392249612,-0.014967371375075644,0.3682708833397602,-1.7479785339620164,1.6187087687746773,-2.0141735994654333
1340,-0.687609304847027,-0.00034724206177865966,0.39319706068845994,1.6957309439829387,0.6087682109795224,2.496993262089042
1350,-0.7034207618341468,-0.010954452805390223,0.37347363509482195,-0.9123145489885796,-1.6534305217312548,-0.4490997170008595
1360,-0.6981028197580984,-0.00556126485151202,0.3824104466862671,1.4055145171496164,1.8552705422624538,1.8672435738444304
