time_ms,ax,ay,az,gx,gy,gz
0,-0.9659522308677994,0.7922827969944435,0.7796367998338739,-0.7852637283632632,-2.4760484498935824,-0.6738722290398503
10,-0.9341252540284198,0.8206414437066553,0.7857135381182851,-1.6670953972558107,-2.453885183732371,-1.5701819276091373
20,-0.912147595661405,0.8611862965943369,0.8129423392541958,-0.1732537202462765,1.448253582159578,0.7352787383362075
30,-0.9207904011721275,0.8467976111040104,0.8190084410745254,-2.0554106370456333,0.7189311698570293,-1.2024028946923415
40,-0.9727649529065854,0.7844461266559074,0.7794792930041107,-1.199212167099094,-0.29658349629174563,-1.190389401722634
50,-0.9709567934347638,0.7845579203190481,0.7774876672772018,-0.8856824218047348,-1.6778820776979915,-1.6483829605533034
60,-0.9674936965252847,0.8003399026823107,0.7742127683127105,0.18553878879506114,-1.4151842815403628,-0.5772395868983832
70,-0.9540969927864796,0.8098229790952807,0.7734249170771184,-0.4389753814535165,-1.4816282843980195,-0.6185760066761316
80,-0.9211142706772438,0.8417924160017306,0.8005041893441713,-1.4963551627592704,-1.1454991394196472,-1.3808439496772553
90,-0.9634039216191617,0.7944142963001748,0.7818341700602557,0.9843172305963743,1.8678730997600577,0.4885024298316585
100,-0.9338412757803222,0.8216148423870456,0.8147039059540907,-2.9946434277743985,-3.111723285589875,-3.963203819755126
110,-0.9562971504938049,0.8005374553893037,0.7928830714387081,-0.1513417324345171,-0.49684089858016045,-0.9368018773418314
120,-0.9999678469807615,0.7665569701840078,0.7519542455892888,-0.13964499096866456,-0.9355132857767982,-0.4060593783094735
130,-0.9500109344498846,0.8079265146425302,0.7929995978765112,2.6842482115195025,0.7797106066382662,1.52082343409398
140,-0.9498407185642622,0.7980619857588115,0.7812860425858289,1.5061495621787166,-1.3576922562767617,0.09173334028265945
150,-0.9548271847224512,0.8040692511157785,0.784591998735477,-0.10356486268465204,-1.2471669898798607,-0.7076136899737246
160,-0.932741745425917,0.802649262958108,0.8061076098425439,-0.7462908712103183,-0.8642800085381657,-1.5702275907153174
170,-0.9512915144663621,0.7794102247182897,0.7994857659062584,-3.30093094601208,-4.991702215639045,-5.289902337814332
180,-0.932974837996619,0.8070850942598411,0.8108235571499399,1.369653762444847,-1.0409394247650499,-0.23804287300079952
190,-0.9024942315682571,0.8129638619754966,0.7475969528328931,1.8849090864825575,-4.405222947125623,-3.512368020279695
200,-0.9704106231849797,0.7688459720037459,0.7553480198008945,-0.8552249756780161,-3.2402486989252663,-4.790527668511187
210,-0.9641322254349594,0.7744358293220447,0.7786230923096812,1.3998415472551968,0.10113714841859256,-1.955048930991069
220,-0.9494854069506529,0.8156782736697233,0.7837787589063516,-0.5446665997935097,-0.8432498147626069,-3.832541540316019
230,-0.9173905854002636,0.8207562855890138,0.7796097096303987,-0.27937852643536587,3.323144231844761,-2.3817508847212805
240,-0.958498671798054,0.779212065428331,0.7881406590150578,-4.141950493683758,2.0006181405232537,-6.952623321336493
250,-0.9334697560370179,0.8035659081803662,0.7891617290904349,-7.781977340874116,1.4018947663609678,-10.478773657146583
260,-0.8987473949568057,0.8465950668040833,0.8015379022560984,-12.423363254897563,4.943532185631122,-19.328377771559936
270,-0.9301574469785192,0.8454286779841929,0.7754987454732621,-13.78758086486171,2.4901199130650578,-19.93480122087041
280,-0.9861526101819585,0.767553537912977,0.7605437503278701,-11.5920021803941,3.6469883366813862,-17.564891014973863
290,-1.0275522419795904,0.736391365432406,0.8145919115625032,-7.633517073661162,0.6601228275575995,-14.99632695776981
300,-1.0284360941036295,0.6951134477927047,0.7684925992565241,-3.253117361328168,-0.638136077946672,-9.238300810325304
310,-0.964085337560598,0.746432883718046,0.7856919989156571,5.609524284635093,1.6354846712479916,0.9017424992679797
320,-0.9681338451218496,0.7620981896929376,0.7856203676580511,5.85114763489171,0.34976935927836084,0.6002461156932661
330,-0.9606877693921178,0.7758419297163821,0.7853464057348465,8.961424579566248,-1.3491376211197554,-0.4524324176689809
340,-0.8800996722405341,0.7652156455254429,0.886146350065435,10.232535358134685,-10.970137405393187,-7.099480388142788
350,-0.9310126889123832,0.7390661373131033,0.9534428040080363,6.763354992907537,-9.617717739241593,-7.343913384724505
360,-1.017423968842607,0.8676033998767249,0.6480199315541636,18.03911128923593,-15.789099544591469,-3.4057187995463822
370,-0.9755599919204959,0.8165535720411388,0.7592252743429552,-1.7806658398664175,-6.638857394597247,-5.598982309344358
380,-0.9910799271734196,0.7170998317151438,0.7731936676803012,3.001388470699668,-5.736442644744287,-4.3834764363666725
390,-0.9787422597330805,0.7699545356374426,0.7776458655171772,3.9700399121272083,-1.9670623131609664,-0.8417865498502072
400,-0.9525340641553462,0.765186816744232,0.7975685916219989,3.273415906652186,-3.551117802830612,-0.9151090484594444
410,-0.9316829638884728,0.7700968175623688,0.7969643679948891,-0.9603459660605432,-6.0095182346608835,-3.170241770806906
420,-0.9628268639350407,0.7339063117534353,0.7855762107329893,-3.5220676096494383,-2.5849979177240607,-3.0190577267310155
430,-0.9419343597112098,0.7516870083659979,0.7883258223685353,-7.32633293027546,-1.1892336164799298,-3.8042594177029256
440,-0.9897274260111114,0.6891132180669964,0.7069764346542341,-14.062815257032817,-0.8770162880838797,-8.699493420317006
450,-0.9506753144042205,0.7293038824970841,0.703324864063264,-14.99451899417328,0.31646807790034126,-9.218345609102018
460,-0.9465685966224956,0.7477631071639277,0.6484270510653011,-9.101419011931613,9.979440900717757,-5.7712588269262985
470,-0.9526072674034352,0.751081036799153,0.7706639156036028,-7.758681981478606,8.212868101890042,-4.64427532297647
480,-0.9425405465979894,0.8145875349776297,0.8751800741286329,-0.7478812759216343,20.535875119406132,1.7980801066887293
490,-0.9406147720072048,0.7433405609751872,0.8144132292146046,-4.9097651776284295,15.504759297180755,0.25603683797499
500,-0.9171060439376363,0.7812036585779765,1.2628620224129594,-9.242550322739374,13.234700240118741,-0.614223372576479
510,-0.8431379364848203,0.7722718289161062,0.8973483234282675,-12.303382410053175,16.60841995005313,-4.569088395214905
520,-0.9636141396876066,0.7469395933805714,0.6920756281445404,-5.936186268108442,12.717900622081444,-1.370781032333423
530,-0.9526493196107843,0.714809414451497,0.7793306810889508,-5.428139890512019,11.76991773629607,1.0318882045150428
540,-0.8882848547013246,0.7879184252719975,0.9868704894819899,-7.490234428926752,13.475012013079475,0.7600528173154046
550,-0.9462909196599992,0.6556535501013654,0.7470083871768504,-4.773833369206029,13.87484175814369,0.37964269985880816
560,-0.9621029581807645,0.6676156781579873,0.6783112588900507,-3.4225578623118427,13.013515888875512,-2.5821551373669602
570,-0.9366644358025471,0.6771681833084577,0.6946063422057569,-9.620958946110429,14.741593907259176,-2.6459450539741445
580,-0.9320148318282968,0.7475352866893488,0.7835258073861526,-8.17550474889189,19.078019779090432,-0.21510355400278008
590,-0.9884545553065868,0.7125468012159692,0.43511040576560644,-0.6856960537253767,16.553012214386303,1.0468796792706843
600,-0.9804913400822881,0.6984136251550698,0.8302451005819589,-0.36102104161426074,6.989294210390043,1.067208297176891
610,-0.944420634476723,0.7224282718722942,0.6908310207560667,-0.5091701658658523,5.901119443861836,-1.267506086702883
620,-0.9750979184411281,0.7365839752255333,0.7559788151285111,-4.345525878981801,3.6699739990336933,-3.116414832021401
630,-0.9407970534664165,0.7642337852468833,0.7321654102303012,-6.251953814466162,3.6427083090293264,-1.478369740386204
640,-0.9786747475342114,0.7298895800600292,0.6686365742121949,-4.019302330300043,4.747749344809087,0.1578975086591614
650,-0.9430011073966719,0.7320543201215665,0.7460071447543772,0.11006886746001698,3.1300146515645046,2.0842651622179083
660,-0.9799910543993845,0.7020292797306291,0.7105680916495855,-0.844424499314653,2.5029681999011895,0.9638934810214761
670,-0.9535086903261089,0.7403047088853854,0.7340182786787178,-2.965508232612101,1.901134252351305,-1.6948243581162805
680,-0.9788457924745343,0.7235359347560749,0.7123200439141736,-1.253128697977551,7.2181844151266645,0.21130069194105516
690,-0.9512635325427274,0.7355666020009121,0.7447982324461541,-0.5845572939182717,5.65544010561059,0.616275772411807
700,-0.9932890708219327,0.6943857558859654,0.769134409414057,0.09851955201505823,1.8112025507577953,2.3008858585727316
710,-0.964432442764279,0.7107036988384922,0.670266399612724,-4.997563069995365,0.6971808107100932,-0.23150384746971753
720,-0.9528409898445397,0.7540959341706406,0.7477549286033637,-0.14567092657247466,1.3659347934525252,2.265853859729402
730,-0.9556160491041785,0.7326112726918051,0.7288922909115458,-0.9683760184703318,3.097267264666285,0.6361179007438922
740,-0.9486065042987617,0.7387042923902297,0.7481968152129089,1.4618856560142715,1.0837567781319735,-0.09701401535595233
750,-0.9585861032304468,0.7339821704789531,0.7382422402405847,-3.0898312385990776,-0.6346384415927595,-1.9971368858590652
760,-0.9935726948654309,0.7374663423880131,0.7050985805172922,-6.143970589060424,-1.7219673879254107,-1.2641437502830801
770,-1.0135889105796558,0.7778505192835874,0.6955541759100146,-5.028880817813759,-0.9791182152681558,4.462454757154527
780,-1.008766968601896,0.7950573849646956,0.6077060289424117,-3.9697059064889255,1.7705725975062738,19.997713516920484
790,-0.9715579067281777,0.6680334280875594,0.7187965653104741,-13.536411769668213,-3.5685154846379974,8.117129025735691
800,-0.9296398938132423,0.6269617498917228,0.7732129985607394,-19.152627001940214,-6.961167940383266,-4.17215487760911
810,-0.9553480192592085,0.6624244576851933,0.7497167225564803,-3.4961573827898667,-2.1319608009310054,0.12636119015142178
820,-0.958166907141458,0.7253703248285223,0.7355827689478486,4.064154487566914,2.7629936650262383,4.872691206798083
830,-0.9451601146470482,0.7541599707503281,0.7423235331784832,3.030236071172056,3.0419338017973407,3.836039972105029
840,-0.9792946496245394,0.7296501477090191,0.721928531539625,0.6412253134443752,1.9072695297760025,0.18930865443044487
850,-0.9889229161159715,0.6973999738352031,0.7063729926333122,2.519251896648895,3.2526765517098197,0.8161487805688423
860,-0.9897309403360289,0.6848851386936764,0.6853227593263445,12.729066411725864,4.648543669263229,2.4141220631021074
870,-1.0198176139890203,0.7231973705613762,0.6571898599858134,23.700164198464197,3.2203677261981722,-1.28990076387004
880,-0.9485021295047618,0.6138187048607588,0.6983930835151636,-0.9134041617203081,3.217898541097575,-8.991313986169903
890,-0.9234927934272421,0.738652742309959,0.671143500182873,1.5841351458133075,4.390654853373787,-3.856411445522286
900,-0.9760915172958373,0.8415249958886707,0.7258871069759856,5.625341772955103,4.50190311218271,5.33129160844216
910,-0.9704729375050716,0.703878977492792,0.7059642393274059,2.9985602230062542,0.005222985304037753,-11.65058965671319
920,-0.9821608033538252,0.714461946149801,0.6763608828870362,-1.0485394140853554,-1.516187669206809,-6.477097333910452
930,-0.9949885451024897,0.7167355994529999,0.702124410084455,-3.16076074206184,-1.428695705861825,-2.9723808498064894
940,-0.9555045572757432,0.7271831592571681,0.7318106050429666,-3.4066969409104595,-0.2814561871794214,-4.044474279064506
950,-0.9645385105389597,0.7269526013753661,0.7372397080096434,0.7697815852293515,3.4345017107196827,-0.6628943504599536
960,-0.9560243870311371,0.7692467515968604,0.7319394374656851,1.6482633049746611,3.9925831353973242,2.936846644460146
970,-0.9775979502528678,0.7433864002169,0.7081705774294893,-1.1397844481999726,0.4444371495402465,-0.2070416014300658
980,-0.9777740081052924,0.7319080273553475,0.7234904170660805,-3.1910336574366163,-2.301379610002998,-2.1102295654725998
990,-0.9887341513850499,0.719679014716428,0.7124213717364374,0.6765793198493903,1.840999076570883,3.621586349470122
1000,-0.9755058011135657,0.7447462785413148,0.733060038569691,-3.451751190453524,-2.7374427050350665,0.4972179486630526
1010,-1.0308367353525523,0.7070811344646445,0.7035108732295333,-0.13119337427081845,-0.8184887261283973,5.568803763432172
1020,-1.0284175421312662,0.7668223012594418,0.7482713609943572,-2.1464059832381523,-5.755015627047978,7.614691588977853
1030,-0.9673568668998052,0.7395869735947311,0.7426874064398713,11.895142125296585,-12.601750512055226,22.921594353812406
1040,-0.9468715416423258,0.7121807143191146,0.7995462269950644,19.58541754252509,-17.58588721807741,26.50385620215609
1050,-0.9345997803298587,0.7717535124560555,0.7462507338231124,19.256537118814922,-16.569989345293934,23.245932001456218
1060,-0.8936001001725092,0.8479225173935083,0.7535066941275442,15.547993204928346,-17.510673665254032,17.106209141026902
1070,-0.8749955016555998,0.8226695441410078,0.7499080040632118,13.71071829652411,-12.472667818687675,13.447089882118732
1080,-0.8977498028981395,0.8286181032884117,0.7197974975317657,6.182021863287346,-10.323476447720502,3.364010652224967
1090,-0.9745214222449132,0.7696765487844901,0.7754555908678678,1.8158784563604256,-3.3132113748774645,2.0114679199558405
1100,-0.9840807148505191,0.7581224535915264,0.7441228018348051,4.742020196301451,-5.322657596132208,2.0700444415362913
1110,-0.9585903350309226,0.774783231874545,0.714940657798885,5.3049936421150745,-4.525221571305439,1.0060070872067268
1120,-0.9645854746999561,0.7798495242961022,0.7447026054500097,0.5269032448424804,-4.174577946913719,0.24170927359248284
1130,-0.9606305575877352,0.7878198212238541,0.7494862683730161,0.34418635596100444,-4.390261534377382,0.308509681132047
1140,-0.9686755903797926,0.7611153283259658,0.7118574119603451,1.3643031141055681,-4.887122652274201,0.16124610917672455
1150,-0.9469918831012366,0.8217116517464552,0.7204757261366586,0.06741856183710992,-4.086971482036976,0.22177382151020697
1160,-0.9641358575941403,0.7873325898397516,0.7611755578022062,-1.8110561952738844,-2.033919937539038,0.5752792089086627
1170,-0.9755480231646362,0.7686699997025414,0.7690396430350732,-2.8115321098047663,-3.1818413583990433,-1.9412149894556423
1180,-0.964152232290162,0.7469944622031153,0.769812480845323,0.5711697062993346,-1.272017203756721,-0.8138260237793971
1190,-0.9746770715634254,0.7678289229272192,0.790067065169209,2.922727700169207,-2.736982880935922,0.10300649075313673
1200,-0.955497434347478,0.8022210252154397,0.7218672129746538,4.689092157591623,-2.759341857930659,2.098808851030239
1210,-0.9533143375567737,0.8173238700812971,0.7597405457601999,0.9731732773239623,-3.7756604889078584,-0.7721893617023111
1220,-0.9557179219735472,0.8149280622962654,0.7669813477222499,1.365216583754266,-1.8132305082544047,0.539136225279697
1230,-0.9663617511043194,0.8132474369459349,0.7979048676650842,-1.4384363422860265,-5.642119020011911,-1.7089587202617085
1240,-0.9602771746628056,0.7787387422099434,0.7882696497505924,3.657573965694542,-5.855807448682402,0.17611363186990192
1250,-0.9418423590992562,0.7992718148529955,0.7955431059753796,3.1753960212521153,-4.708754921847666,0.2665606508535673
1260,-0.9437754704707852,0.8158289472257887,0.771967572797696,0.47680122607412356,0.0282783435292272,1.0262887160748946
1270,-0.9659062773428109,0.8102438027620703,0.7673268016744939,-1.8644374816331581,-0.8644205955967237,-0.29439739486478733
1280,-0.9649917565796508,0.7891467645032398,0.7820481883974075,-0.31904659030712346,0.9660616050476059,0.27084846855949474
1290,-0.9664440267301715,0.7831355733839325,0.7739804545618802,1.6491976348259862,0.6983144006940087,-0.4832146760546989
1300,-0.9631293990060175,0.782418501397447,0.7777756449741838,4.792880088077583,1.9553619510320015,2.292803201288999
1310,-0.9569261093247816,0.7989091032551934,0.7727064382629,-1.201894026240089,-0.813565771063066,-0.10432000903601989
1320,-0.9897942198724052,0.7778894973306366,0.7465810401475743,-0.10713018711464661,2.7037802180385206e-05,0.9785078089150206
1330,-0.9704111560205233,0.7943969717535448,0.7570956229421999,0.3313759757686363,1.1405153453034491,1.6179829839272406
1340,-0.9805460262510403,0.7691823248227382,0.7588909849363841,-0.3081872836648286,0.3960467087708686,0.5190952080642536
1350,-0.9558868680969511,0.7925818039744725,0.7880077198003855,-0.9960690971942014,-1.2083762828569005,-0.9108808451836137
1360,-0.9456861578446649,0.8108080405727881,0.806507898723498,-0.7695971085934739,-0.44988478392263875,-0.5684958929698517
1370,-0.9623689058971646,0.7931832192380859,0.7734949667761477,-1.0864898763573532,0.6505943519669577,-0.0409774204539014
1380,-0.9455970374554716,0.8150586946669474,0.792626576151875,-1.4105619836463075,-0.5140014951713152,-0.16500002695566984
1390,-0.9671015580985549,0.7870656929525575,0.7763496205668117,1.6307108709643703,0.8795291027956073,2.7524959322065405
1400,-0.9438298640706742,0.8015126049574843,0.7956389718448242,0.922072490478957,-1.193225163924032,0.863638896280088
1410,-0.9555216533817895,0.7945692617777561,0.7964487913042265,3.0521360034016505,0.4002185928047963,2.5825974076807188
1420,-0.9775112849052839,0.7930455756225911,0.7701786059444407,-4.7477711614318325,-4.394504843899162,-4.0449513283567295
1430,-0.9248773105248187,0.8179328928158076,0.8117233930746571,0.6888158898973255,0.8611102686867039,1.3739197913887067
1440,-0.9800889866556548,0.7683756879949267,0.7636953271819772,-2.400939028808901,-2.6848044767075327,-2.009092158692353
1450,-0.9283979204948842,0.8310707877506571,0.8101552878287928,-2.403273285651855,-3.8054354002443516,-1.2642606853498617
1460,-0.9799408710174528,0.7837663594094418,0.7558167100319475,2.0719436770567,-0.830343933762042,3.279670635725158
1470,-0.9872865581581186,0.7712983406393905,0.7487618550802414,1.5695411003579367,-1.3374371344543727,2.2264798917071253
1480,-0.9712104099516292,0.775004864452572,0.765636789315971,0.6926665247160301,-1.235805975988228,-0.11627676727550534
1490,-0.9459918812487296,0.8119551036050061,0.7951254685109076,1.0381891446700475,-0.8611483887941898,0.2467381535792766
1500,-0.959401903896238,0.822080168928708,0.7806148004902596,2.3898421003739094,-2.105681140618307,1.0516295194885377
1510,-0.9046579785844723,0.8267400471559982,0.8168298504987344,1.455096856258474,-0.5966284859935447,0.10661345178891868
1520,-0.9321884112476568,0.7914140789529888,0.7870879134958341,-2.7200630429556547,1.3564476533495484,-2.0670129924265535
1530,-0.9507661450780418,0.8115794881626456,0.7696882999435479,1.8482068542450842,1.6505110443052002,2.603693261423066
1540,-0.9988399959861124,0.8000004367104486,0.7607967090793588,-2.193739038077039,-3.0799674354601168,-0.281495211718376
1550,-0.9382097831264841,0.8258598117280156,0.7885698730442056,0.7240381905737285,-1.175438540619773,1.5261440761798795
1560,-0.9112746927328726,0.7916378986811257,0.7608087943870578,-2.861244075895881,-1.0027638248685127,-2.8380281782446435
1570,-1.0031588427879479,0.7636490607068946,0.7803158404045569,-1.38348408145719,1.473333162681311,-0.21634953833907655
1580,-1.0156728861843871,0.7653208698607121,0.7742416105168545,-1.0505791655449876,-1.8272468349921498,-0.521544561849584
1590,-0.9442602062777328,0.8150165385534187,0.8021368474233332,2.609265537952661,0.43567728225798363,1.6041739712700593
1600,-0.9365882544525141,0.8035119026883042,0.7806230825496208,0.26987962958962636,-1.2645127849467195,-0.5140606959437429
1610,-0.947691050981984,0.7994351489992586,0.7711630829227124,1.5305465942568046,2.795544051662551,2.3748282987330382
1620,-0.9469063820013321,0.8123978927914492,0.8183116468821012,-3.7665646624199276,-1.8322645932315196,-1.7641419257329423
1630,-0.9490305473765387,0.784012997832263,0.7987762176271106,0.23368311015130594,1.1268556642135064,1.3292545710530268
1640,-0.9255185596827912,0.8148866172795624,0.7936947265789452,2.1084902906131497,-0.7156083377915833,0.29998763445705456
1650,-0.9381369971755372,0.8126442795770911,0.7760835725711354,-1.3865204091566812,-2.460049480022098,-2.902162849212747
1660,-0.9805869776158234,0.7669593918942549,0.7534775475524252,-2.240693901517019,-0.0038967611733913277,-2.2269090280747257
1670,-0.9689344560894511,0.7898916682678176,0.7981124184203,-0.11686335428937444,0.6754728923265101,0.030001602758566892
1680,-0.9553666392755535,0.7896634093320295,0.7829035128166991,-0.29494861888929325,-1.8025376028906355,-0.3518867670286293
1690,-0.9401463416980069,0.8098056263015906,0.7934073540937366,1.988376205730275,0.3973979519381088,1.7438970061127321
1700,-0.9790845026794052,0.7715913721328546,0.7569328648282797,2.3827938359750225,0.14482415601048304,1.0234394940216713
1710,-0.9488720377327213,0.8059378691887704,0.7850314430203928,-1.542644115190301,-2.0287822474608097,-1.4980625033563144
1720,-0.9164585505727074,0.8386132428131472,0.8157997165626856,-0.0924444620577296,0.48501702619998444,0.6242381927625535
1730,-0.9470235827414457,0.8200389122060676,0.7823919350217171,-4.387610220711343,-2.6697256217990435,-3.2498162720191464
1740,-0.9564843488206068,0.8173293838308853,0.7927412243468904,-2.5548582559297843,-0.7149998743438621,-1.330018028536616
1750,-0.9581151847659141,0.7556992822652437,0.7688870069762409,-1.2800133882360074,-1.7068179615065242,-1.549029246990464
1760,-0.9265771390972918,0.7887446911465931,0.8349366645461427,3.2684718729494455,-0.3089234419537972,-0.32913968444541775
1770,-0.9831162765897654,0.7906002219275662,0.7536173836730472,2.778650880304082,-0.2717515962371867,2.140434250692051
1780,-0.9469888047494264,0.7905623019717004,0.7702883373933005,-1.0042206173522785,-0.7916111622553894,-0.21650732455804034
1790,-0.929767211688202,0.8180407503868712,0.7794362117918505,2.7458716205867133,2.974183331993382,1.7563186506944044
1800,-0.9164100459021682,0.8416491293088836,0.823147528850603,-1.0149876305284316,0.7435317341130957,-0.8200584501027368
1810,-0.9430631606839013,0.7991106259675457,0.8042506288683969,-0.06521935725313721,0.05993933816398567,-0.8388676551189767
1820,-0.9585236112312232,0.7892277770111366,0.8002087049803107,0.5841683683730468,-0.09242135595073343,-0.21927827751804602
1830,-0.9698577553755812,0.7882949352360722,0.7854418121119563,3.422924985363791,1.768859548452809,2.0910911541784327
1840,-0.9456252517875697,0.8024915956540574,0.7823302608912364,-1.289086994960146,-2.35767059863266,-2.4183340345683937
1850,-0.938937288193717,0.817877851070069,0.7910204992111671,0.3439411020147179,0.06662812787002442,0.5577578914004498
1860,-0.96164124125737,0.7958600629783644,0.7955093248822299,1.6753678615411642,3.1919527170968403,2.5373006726106677
1870,-0.9342251579518264,0.8074676288905064,0.8254313656125798,-2.118455599234484,-1.5313056236860072,-2.0814798371089314
1880,-0.9192785172431405,0.7908735942782756,0.7973466923667112,2.8639532315642433,-0.41281161630001945,0.022096828877442964
1890,-0.9459685453948733,0.8099804567942667,0.7778423958277745,2.557729973275731,2.1699422151091534,1.0060237212913261
1900,-0.9689154785081905,0.8202245352949431,0.8207797346108391,-1.3740391559893061,-2.9846092239994286,-2.541731108588431
