time_ms,ax,ay,az,gx,gy,gz
0,-0.7467558617003308,1.0382083927184453,0.8426990298692029,1.7291905412531738,1.7152421221997933,2.5595767663744047
10,-0.7631438787166015,1.0188447898385644,0.8310839152953778,-1.570888897063725,-0.4698761848692702,-1.039890315184423
20,-0.7558634727234543,1.0330979440877084,0.8388215009918034,-3.6427897632269883,-4.306672343056613,-4.503654904468493
30,-0.7557387066279159,1.0375728414287924,0.8400662867323164,0.13538748957554161,-0.323523390931332,-0.6954500346396034
40,-0.7479074867526677,1.0403032984553373,0.8484095840139497,-3.1328993600672304,-2.610254620423371,-3.069954505720024
50,-0.7805681950781289,1.0042216408960003,0.8106560506773325,-3.408741950413735,-1.6994791324944991,-2.231472609037526
60,-0.7505366761777907,1.037791745433554,0.8448345793141888,-1.0254932747593384,-0.35749230375526686,0.03664039538541963
70,-0.7922594109547478,0.9981592823043558,0.804198281843284,-0.32149649082274756,-1.6913995680206453,-0.20509573547395799
80,-0.7607362226287188,1.0259154096550165,0.8288966983307621,0.8391062837201435,-0.27395778361460654,1.199451945468039
90,-0.7739755977036665,1.0072396662778837,0.8137073561168252,-1.5533275876117218,-2.187331016937139,-0.9231843086076281
100,-0.785559576201366,1.0184675001625352,0.8226183649075565,1.1049766223519193,-0.39039413277060836,0.5622870363575618
110,-0.7997241226812035,0.9844794347693455,0.8776729347849818,5.874842117621384,-2.4156573842691733,3.857389049567817
120,-0.86442621032113,0.9544830562123474,0.9228722474929831,7.382558440300517,-15.27820045143588,0.8878108527305963
130,-0.8788947894870995,1.0104546330151634,0.9266142757081621,12.799749980018623,-22.03562831949783,3.173417256407884
140,-0.7681200636383012,1.0203097305760136,0.9284373554210874,13.281264140727556,-27.19936564836505,3.71601740915976
150,-0.7049635194855595,0.8496479330475262,0.8097657321330851,-3.7251354961052376,-33.53517568834218,-7.824900805473368
160,-0.655977233350058,0.899954013915489,0.8724813684591446,0.4880780090781993,-29.296044681948224,-11.362804442930663
170,-0.5863952212614668,0.9950903319596283,0.872434614086005,-12.507274153568627,-19.8453163781099,-21.916057871875605
180,-0.6109054771824263,1.1000261176857487,0.7278890412493056,-14.648223516392203,-9.61741941391419,-17.59780930005465
190,-0.5767160255317678,1.1426969124190829,0.7227083799294391,-18.79333786090996,3.8364344480169934,-12.54970183303842
200,-0.6953305457342661,1.1260095074147163,0.827720341251262,-25.078168314550677,14.264421066457485,-6.203995782445171
210,-0.960823287020497,1.08235767593555,0.7886927963985881,-40.496309657580774,2.067823755575961,-10.974393056243043
220,-0.894316709396844,1.0162444557583696,0.7179733152448727,-37.7781471610135,0.8184902203957769,-11.12781073896777
230,-0.9063195631882388,0.9321098220389196,0.35250586373812426,-9.923187752950419,13.674273814154192,-2.904301909402505
240,-0.8970365188339495,0.9850108369593924,0.3596498325061162,19.96087647264231,28.599678980178453,4.9319349540721795
250,-0.7631658380851852,0.9639149795265382,0.8222499659653925,4.315349227339277,30.577986912239155,-6.508457889442771
260,-0.5626609406156243,1.1216308992296378,1.1775215674821693,25.146645463038006,38.23927399538815,2.6948586778111427
270,-0.6404032421726498,1.0727667124680373,1.7194872379199395,17.433439103352576,15.918986195058098,3.875828944217689
280,-0.7795453697551891,1.0942797907045387,0.8397470977517436,-5.4944627702860895,6.054257859111427,-3.069564395095627
290,-0.7488810731127381,1.0155352893908494,0.9340373270470218,-1.69260631022524,5.477152871852853,-0.016036241734994405
300,-0.7556531652996598,0.9754258957427366,0.8847476754291944,12.442301856657709,2.845674618765944,8.121149697848493
310,-0.8008955424944397,0.958875994390298,0.8523538552538101,35.656579830376174,2.0862266844071735,19.254332102098626
320,-0.802869267105684,0.9735821877440377,0.8869611380660017,59.11173870559579,-1.5070189292914686,29.158171171361605
330,-0.7576985351552414,1.0286377226597492,0.9511225961760398,-1.497996594671091,-32.64100507759857,5.368928393049271
340,-0.7326031937442147,1.112893450268665,0.8921127489585002,-16.212547238974565,-31.32923854021237,3.1781212973948016
350,-0.646845332651523,1.1158702520928843,0.72318349615561,-21.626362826718502,-27.33501956444079,0.27290150115680545
360,-0.5538672532849712,1.1485191410732376,0.6705385033116443,-24.186066853921133,-16.986580837949557,-2.2925438160316727
370,-0.5622178623077553,1.0994020019066215,0.7058991508455474,-27.26002023187445,-4.728054832563763,-3.682868179308294
380,-0.7225840247830055,0.9805047025319426,0.8597181228776535,-25.091427358934318,-2.7441701125454467,-6.014966178980593
390,-0.8010755690106907,0.9312715705785465,0.943540862410279,-16.97176488822582,-5.056825305695235,-6.1928489930550334
400,-0.7556677256191253,0.9964580567181007,0.9695707859710497,-5.927364157164535,-8.450657418416228,-1.7471273597745358
410,-0.7972188345261889,0.9017965653436167,0.6637049424136418,-12.572502690156476,-8.16881983723911,-5.599216341509797
420,-0.8317208867899059,0.8712182066574272,0.9031215078622146,7.790341139874632,-5.032453767831504,-1.9389657452202842
430,-0.7587388686948874,0.8135461032932952,0.8955802277036241,1.3357617512822795,-9.292544570358935,-18.037353848148065
440,-0.801681395583958,0.9292370193541951,1.0367315285705105,-20.048668913610314,-4.8589778271403645,-28.39140734972652
450,-0.8424823190826914,1.0099349732933889,0.8344957638858689,-5.887923939589388,2.755796225544089,-17.775450906691116
460,-0.8077926072017015,1.157008130942296,0.8963056336766979,-10.127049182771367,2.199700286916097,-17.256149110887126
470,-0.8189772071727224,1.3078195328143813,0.8795456687824631,-20.971077096119632,4.6441823277634,-15.974311436445124
480,-0.8098731188277944,1.09639843024343,0.7116186548511017,-21.18738029840347,8.268019252264697,-14.954628852499098
490,-0.7226500198408903,1.089004612690047,0.8092158368431157,0.2623751013882125,16.60304937384727,4.652892498611805
500,-0.8071775948768138,1.0935954407940394,0.7847272658897805,-18.804349225406,14.755716064909278,16.36045826639773
510,-0.8174075975047826,0.889098709219363,1.076516251829653,-44.36278111367148,1.4683247981328957,1.928612453692879
520,-0.7994657178581837,0.9816559635437453,1.1427179139744608,-39.48496680001037,1.192066151463858,11.06686745131945
530,-0.7572226436312542,1.069992422207548,1.0149928127287557,-16.274480836776945,5.184847671490946,21.728592710510345
540,-0.7414783553835267,1.0467162647701105,0.8297022915892777,8.506559196293155,1.2251555124708793,12.60060751208555
550,-0.7574705200172025,0.9508704593041942,0.8562354951567295,15.145128692188742,0.2604012708170933,3.83544807461089
560,-0.7466231943571552,0.8545479624772299,0.9741252484423482,16.03191551467476,-3.6456711588197788,0.5496925433771112
570,-0.8674756700154588,0.5554136882244012,0.8714088661403918,-3.799761355729341,-2.7228654596940713,-12.844890344306059
580,-0.7007969791909856,0.9074238555408661,0.7094316229504091,-16.060106595408058,-5.678838752464595,-24.487946946211736
590,-0.8503656022381796,0.9734104424006494,0.6697455935930965,10.553266825785848,-6.572815993863812,-19.78013564766758
600,-0.7104450277337236,1.1037434845081995,0.8892426107541415,16.834969357579094,6.154463986161907,-10.030600488795708
610,-0.7589096467693747,0.9883197432413133,0.9128149644615002,3.790828655867512,12.211406139682822,-10.275048582947473
620,-0.8011435631616722,0.9598280287662998,0.7724692770493805,-3.599931537849491,14.880619008086521,-12.075234460203497
630,-0.7379403455578849,1.1059508545493748,0.9518809770787792,8.703696998152953,17.29535007741305,-3.757515605568979
640,-0.686774791384787,1.0528337416913613,1.1779097652967614,5.844828773114582,14.2069963652677,2.996914162668632
650,-0.7802077664954432,0.8613408941258995,0.9694313376472581,-37.37919384970008,-4.921893477443172,-6.018300905709878
660,-0.6323649907389106,0.8809239845910265,0.9572516662323073,-8.098797855736391,4.194601568032642,19.559868210195
670,-0.8299640529285787,0.8563410203353226,0.922023681153519,-20.653045046200685,2.8816120274433628,3.551979251359035
680,-0.7833621719847133,0.8852880337793622,0.8628667997381584,-6.546979674216957,-1.1964993709919955,-2.8995719276426213
690,-0.7668578630256,0.9339384130689772,0.8558784972876842,17.21343065786061,0.1372539255101538,-2.8352999346619767
700,-0.7526241585141566,1.0111130079417712,0.8305430600046352,14.668046149659034,2.6898540873019474,4.5597383078438
710,-0.7818990950238592,0.9969862930048055,0.8021343281711295,7.223574510927576,1.640310040280524,7.232108533634877
720,-0.7966572978765117,0.9882093046725655,0.7932850308945968,6.848687273572583,1.9729846078453572,7.496675160464055
730,-0.7699453028881121,1.0387379681805256,0.8318474485329601,4.612833352639459,2.5721677894871404,6.549433656653495
740,-0.7855748656872685,1.0374320762372942,0.8093712348796138,-0.8082250507960449,2.623561866449106,3.72677344586471
750,-0.7763935017625223,1.0175020240578385,0.8157415080511782,-5.882301868264807,1.3803712947173403,-0.9554879062149964
760,-0.7665594761696233,1.0473016105131339,0.8385079448985008,-16.40113306506479,-0.2951747927353733,-11.903549400521367
770,-0.7756411416753911,1.0125621671417082,0.8200418308967183,-15.766301666012296,1.9495576582518936,-9.51074019492193
780,-0.7596145464495737,1.0079512411070508,0.8371824580947981,-16.35512646470077,0.5011510274755285,-9.490725043146398
790,-0.7606893470414381,0.9937125902329319,0.8317839895251162,-14.361143401028253,0.5136853852447506,-5.706328862034034
800,-0.7709784190937461,0.9877976715300532,0.8314767683044167,-5.843586781880363,3.239665823084095,1.5759424316328203
810,-0.7627833140415525,0.9942607998017802,0.8284862768448589,-2.6523967837960893,2.462013578940415,7.571550369964056
820,-0.7813755130154104,0.9894971432844694,0.8170537773297661,0.1052296951719345,0.459782277235001,7.422274999526465
830,-0.7561286759266911,1.0194818644280939,0.8417994532239479,-3.6428141712358015,-1.1343841580615135,3.9804790121332685
840,-0.7733043978135109,1.0101753722951834,0.8213454405897487,-7.5845799733882355,-1.5589506053514146,0.6274021012179178
850,-0.7730385065936412,1.0034890975869046,0.824628837756275,-10.206686810245706,-2.062827604882649,-2.22255962981673
860,-0.7809932968881239,0.9858944670991208,0.8184278361477405,-5.5219427420797,0.13304173782572537,0.8440136757402235
870,-0.7902303202643564,0.9741176009863062,0.8208959950476994,-3.2514664121978085,-0.4456572266579919,2.733840025424222
880,-0.7764298944552247,0.9831612167511097,0.8261526913122964,0.30792711621106195,-0.9365749339623072,4.292835277507772
890,-0.7284399963695743,1.0308749379804167,0.8637886564361705,8.06071468049858,0.7026481550856793,8.898158940224805
900,-0.767536370282622,1.006221191097037,0.8229567048139724,9.738745604957145,-1.9292836151912454,7.867210880111182
910,-0.7565459688733506,1.0314137249498,0.8387773546567026,9.933039349106354,-0.8902770930779853,6.745846369454878
920,-0.7620999883795155,1.017560305848085,0.8265265494833205,9.808580034429536,-3.1984986527258674,2.5735931016502835
930,-0.7453058949620364,1.0392384163374044,0.8358627433623693,5.561873998359311,-4.7693807543755025,-0.7916989182202028
940,-0.7869471990557282,1.0107758732558028,0.824971602203867,0.46272262949839754,-2.716053891409274,-2.454192595867453
950,-0.7831940355098275,1.0068389708006087,0.8344797473145221,-4.791883326942458,-3.0535330929742823,-5.408678064399298
960,-0.7547067310582043,1.0076022792175634,0.8344908500879265,0.06263569970510319,0.736584332395862,-0.5215461835540269
970,-0.7503792725910023,1.0156971262224197,0.8478502350813303,0.7119973086020148,-1.5823733971172196,0.8586711400464435
980,-0.7487939575146004,1.0353108101410338,0.8454137169931376,1.5999827057688467,-0.27924701828524934,2.2764317891265367
990,-0.7805023750229035,1.0090402782273828,0.8197634725553264,-1.0817199444658168,-0.29378185328935114,-0.0658855504339027
1000,-0.7676790075908685,1.0220557817179254,0.8405333681942925,-1.220984960137549,0.9872445389637083,-0.8759984113973145
1010,-0.7757374029363985,1.0019349992688487,0.8255057773960017,0.28188496874364777,2.2873439165927754,0.08895676247295192
1020,-0.7526332752095238,1.0197655579612155,0.8414468812349363,-3.168318751086537,-2.2094226473896477,-3.072068035011746
1030,-0.7558485403297908,1.01801682857315,0.8354645579896317,0.35992248688892925,0.7648967616544966,1.115654045107118
1040,-0.7477561156067487,1.0303706809067026,0.8541479822249878,1.8218646427564729,3.244383322329487,3.896825469678041
1050,-0.7718936341992017,1.0125416245013292,0.838749368393572,-2.199382420783592,0.9125881433297188,0.32466576280790094
1060,-0.7954460014542464,0.9784984842794758,0.8066882412467921,-4.360702293649742,-0.9786602509430631,-2.4264379787465313
1070,-0.7759133835196818,0.9991714881867766,0.8229091235129691,-0.7849955531633279,-2.474868063948955,-2.9098936360759944
1080,-0.7725395340259635,0.9963487703310075,0.833971027153123,-1.515360318221641,-2.6665000408994373,-2.8372177797898948
1090,-0.7687206347079364,0.9952739002361606,0.8260636554510097,-0.7238445593587711,-1.3952685993132916,-0.8780371693037585
1100,-0.7823702017097901,0.9905489033570167,0.8219453971826824,0.20755247256552023,-0.28426220037477845,0.6242592107587931
1110,-0.7533457429162601,1.0175699398564497,0.8471077722562812,1.7749321134512805,1.8407092292447178,2.6327038730418106
1120,-0.7859370412596242,0.9922261108555717,0.81965903969383,-2.932658174188998,-2.5652109023486807,-1.6212426068651797
1130,-0.7821384438987891,0.9945503248879349,0.8187975990021467,0.7163802240667574,1.201413351049311,1.5839503324526738
1140,-0.7703588147614836,1.0063490307544123,0.8356470314897333,-0.482080016668587,1.4365425207939881,1.9239455751434305
1150,-0.7797128573801198,0.9965335198935291,0.8141777637346697,-2.3642320843379805,-1.5182763778398147,-0.19556107520719435
1160,-0.7546759093069124,1.0276074023111206,0.8490417298098238,-1.3322165153483188,-1.1661463935730843,0.18016886842357904
1170,-0.7903154269075636,0.9890601953505685,0.8051621728997937,-2.0775960416040786,-0.10468771495048146,-0.1516271419166481
1180,-0.780035550078846,0.9906215935957585,0.8162391083996995,-3.029165270999123,-0.7998756258194715,-0.9771258176183168
1190,-0.7724371752459636,0.9996683938212574,0.8270006419143597,-3.351892702904551,0.022067871834829056,0.4236630775557592
1200,-0.7760121364019137,0.9986584255506646,0.8287121790201124,-3.371153906144786,-0.48330048601633246,0.32237625630981287
1210,-0.7439750428146722,1.0250721507647134,0.8639956712548791,0.1445908109218782,1.141659305852284,1.9461290070908783
1220,-0.7534384242198502,1.0026168431557432,0.8424579744514489,2.37353419006634,1.132682422058489,2.6819652493372397
1230,-0.7651392050213022,1.0024004093331038,0.8337266440019656,0.1370245517296249,-1.1056182090995657,0.4882633542637338
1240,-0.79201261125701,0.9859763433646398,0.8096520682101908,2.1668993030930603,3.5489168720149893,3.6509836387272263
1250,-0.7583987547317055,1.0137607124926147,0.8386882881835994,-3.067154222040139,-2.7942179880177602,-2.2623715322216915
1260,-0.7637684665421379,1.015844556382739,0.8416813508266979,2.909469572973932,1.3434413865557238,1.771573714321815
1270,-0.7726184740811192,1.000332786197302,0.8354327933165503,0.4390974321496684,-0.27286771615710703,-0.2329069473823913
1280,-0.7607569722287313,1.0164805636032166,0.8436555661253616,-2.9525288361429167,-2.2616323544151,-2.1358664477328486
1290,-0.7415067733963717,1.0296416151404648,0.8590755168123502,-0.7342787590485116,-0.18765495333714344,0.18278878974552124
1300,-0.7819708960725089,0.9819123094424203,0.8200793822009139,1.0236724151664132,0.1679331388760863,0.8904084700879716
1310,-0.7733787726601593,1.0014469586463475,0.8342408265979989,4.285784717541025,1.3212224013934484,2.9583639011697365
