time_ms,ax,ay,az,gx,gy,gz
0,-0.6608146960899414,0.8074516182138102,0.6500916073696934,-1.178860303476237,-1.7597693501258425,-1.20737678739941
10,-0.639033424348559,0.8280867783184678,0.6693610817315376,-1.345876899171953,-0.6189109040118627,-1.793057860774557
20,-0.6217990798681495,0.843195310654843,0.6873803821262437,0.796245003547008,1.348960342618828,1.3103733377312328
30,-0.6396219921748166,0.8298328111888713,0.6707161630609226,-0.24858949953030757,0.010056989507240682,0.4702992370144819
40,-0.6322311699640953,0.8355764987147688,0.681258769065165,0.36256053942885114,1.1767020063762859,1.5136834278394986
50,-0.6107339562380683,0.8560247115160311,0.699719070834147,-1.3777365701235111,-0.7173624261204334,-0.9366181325435738
60,-0.6364159213837649,0.825881265181848,0.6717937601327023,-0.35311504218833856,-1.537856704348978,-1.6207456251090888
70,-0.6333578156624503,0.8255886315618384,0.6708213330918934,4.777674519418966,3.1145774080718844,4.744462305979348
80,-0.6187414010010941,0.8436329990210152,0.6903782098165824,3.512224788530795,1.3090833714258445,4.334930861742955
90,-0.6435528282748048,0.8308041239322861,0.6683388995341599,-0.12324542797788984,-1.9840584805845172,1.2175498472583355
100,-0.6321024503691639,0.8456357320245476,0.6795028234057797,3.0406830638952984,2.391039882844031,4.085587403747775
110,-0.612731969955425,0.8608700952538265,0.6882770219720422,-0.9361946128808638,1.5827713848942664,-0.8037805187217106
120,-0.6507579504282414,0.8123161585222531,0.656623819561549,-5.479737164306597,-1.5605746159213936,-3.863922263297688
130,-0.6363319590834271,0.8222412469611182,0.6721888979251983,-2.9146045321483367,-0.5151830853657956,-1.63352833199424
140,-0.6251468579521425,0.839654936592539,0.6870549683167961,1.2831306288765947,0.9815605592513418,1.8116755488668002
150,-0.6345855899087732,0.8365859258510857,0.6773988497728246,2.865100557683908,0.12826094182895897,2.412957087652221
160,-0.6503677402275285,0.8315053991029727,0.6702461375654846,5.409088119037774,-0.31135453008978015,2.9503341395344718
170,-0.6462761358770391,0.8260460821374725,0.6893491651522647,12.203396359866574,0.7570384526609739,4.5845415054167535
180,-0.7028622376579382,0.815639132726401,0.8456082072466099,9.238160327004552,-10.633323872036001,4.670910152828367
190,-0.6883333300770642,0.8093610502148832,0.9344905446395708,-2.761574386159902,-28.391775099512536,-3.319298814650172
200,-0.6591946621087719,0.719943041749534,0.9548530560551182,-8.753784178531182,-48.98631789659789,-9.560517274685282
210,-0.49639873202723483,0.7952425030577398,0.5716147377663944,-27.472418662241708,-48.58379364366427,-16.958829523667337
220,-0.4446397422271068,0.9483814837472455,0.45741001512378215,-22.803339817488492,-22.9795192456069,-14.782716852248004
230,-0.4389484949492095,1.06434006393426,0.5421200945275756,-32.86682372389236,-5.932815722865943,-1.7482172171151156
240,-0.3901726757071155,0.9663778923321442,0.6462004909910212,-45.064097967692774,8.123535299545491,6.348989824406587
250,-0.526347188056677,0.7759376502033468,0.6093010049405567,-62.028371267800736,18.27353085030043,-3.286735005520727
260,-0.5970297152332492,0.7640196231698327,0.7041604332066133,-30.966050809401303,5.4783057168079425,-12.482698513419901
270,-0.6223304231080434,0.7779054460557923,0.7233143229169047,-10.012273608601754,3.288748088587242,-4.83758426678016
280,-0.70254007589497,0.6962920817800347,0.6117673668372244,-12.763248392759499,-1.0291058715249641,-7.641859593728591
290,-0.8364087454416546,0.48979251836316084,0.18596448035124158,-31.502366727978558,16.660888575846133,-14.243461914636292
300,-0.7938193627018738,0.7406684681396042,0.4588836531985284,9.62656220102971,30.95807641047026,-3.001687134244605
310,-0.6217120281101252,0.8856067576715085,0.4567328467266615,67.77163997420283,45.455459939677795,27.126790328779357
320,-0.5323040164178084,0.8915245422322874,0.7920793528782761,35.165246486358065,39.50207179153032,21.045744686668034
330,-0.38361531187821263,0.8589125448408593,1.3659236100804892,60.74570822699988,26.37516740223673,19.07757936965115
340,-0.5095652421443576,0.9787573828474236,0.7846644999496446,53.15497022156129,28.44814841171866,6.488624709471668
350,-0.5390810401160975,0.8047792829241281,0.8975345455043895,15.33688738378356,3.83995850834073,-7.060292797083113
360,-0.6440674570911166,0.7827058233888158,0.7231465746708189,39.51775129846747,-2.6111387056310877,9.559310778399368
370,-0.6284544420608892,0.8760641713094208,0.5420293762083152,26.634882619456935,-21.87117819536305,17.809289108308203
380,-0.6499520129751072,0.8923799653849059,0.48219754103198564,-17.74207957651383,-31.56327517996064,8.408888326717506
390,-0.529623949831078,0.9188710564224767,0.7622480866746424,-63.94457257395703,-44.268839334763875,-10.113520333770262
400,-0.589395858556058,1.004555856510183,0.6963350102762441,-55.307835918263336,-40.01751997675283,1.873899790987166
410,-0.6477509324076641,0.8801212301212552,0.6646242555333536,-46.83523274463719,-31.905839391281074,3.960794108543075
420,-0.6857384889283815,0.6036074091512467,0.8234737381069681,-36.205193339317944,-23.867081547832683,-10.38457219817399
430,-0.6427225707746156,0.651930988050096,0.8278130932073191,-12.273069413022473,-23.24860548004947,-16.083454631835682
440,-0.577977409821844,0.5714391600297745,1.1032896352995742,-40.96111933306669,-15.978425928204567,-24.528937141772644
450,-0.5488721413126307,0.3225983462298867,0.8975178194011736,-45.46944579933295,-15.112722765390277,-34.6931821937862
460,-0.7106331215185682,0.3206152502818671,0.9815067567326348,-13.565340347472038,-9.378145052959402,-17.802280303472713
470,-0.6874096514620871,1.0352839202429844,0.5876794854210178,30.928273127759837,0.5039715142625529,-15.202646459637615
480,-0.6853797402627828,0.6514695902230849,0.4035560348914148,-16.029136142477576,10.026409887373134,-29.951595501872696
490,-0.755768774291433,0.817437145564506,0.537955246682465,-16.39145588028528,10.593583777335851,-25.85564114833065
500,-0.6135044394993867,1.0374883365580039,0.6523987356649196,23.68084706103444,13.417535191581404,-10.901546083709588
510,-0.6545766555963723,0.931506874473445,0.8767996990040496,13.901849447892115,15.946583557306202,4.953135182127088
520,-0.5519900771327203,1.1566308201298863,0.8765590132265894,3.9416900966653228,25.206297122035842,40.7353175596893
530,-0.47160878302532216,1.1098453057057291,0.4282300690233544,-24.890149616039494,13.372992909998231,40.2074081734296
540,-0.510406350400082,0.7782716774658867,0.4263019130290532,-7.9832841752612556,12.052294252363582,28.625789747563637
550,-0.5539939403986331,0.5617744793229507,0.7836292367817399,1.8104987691810388,-0.1506339657135377,-2.2183702395085456
560,-0.612943858274774,0.7325344803707878,0.7392661143224044,30.646555455856905,3.1716333587170973,4.86074783145406
570,-0.5397658963917732,0.8800615231780091,0.6595588591212627,39.30986418327518,-6.9506398753121825,-10.938609938972743
580,-0.5441837447575543,1.150151612503341,0.547082443673219,19.516411068409557,-7.506947586870341,-21.894086686443757
590,-0.5121607338701154,1.1150816803432073,0.7385066496282959,16.292761934348725,-3.920720580552504,-13.945101389992393
600,-0.5670674761547637,1.0471854645968353,0.6759532508628238,40.29320131984281,2.040980737700776,-6.004516565521968
610,-0.6826250783998337,1.0768825919985012,0.5066088897064314,60.17218810065363,8.296214004974384,-3.7351493496953254
620,-0.621228519422351,1.0465592986756582,0.7665278134746663,28.858629721995626,26.333202332485513,-6.1784296584603915
630,-0.530759683570444,1.1150534739018558,0.5028937823468425,30.732553885673234,35.66798743856167,8.88002204932377
640,-0.5557682759680049,0.9142921829686995,0.5224903462651919,7.029229269092091,25.209931388723728,19.850173110991335
650,-0.5813569331128782,0.6517912264355897,0.8534800887713413,-15.754575079371765,20.392019031117698,24.158929376744524
660,-0.6136031937311344,0.798370184075597,0.8652499687631257,-21.647631504883904,8.352995797022286,24.455691008630627
670,-0.6818632539666611,0.6549436737551294,0.7042522445453677,6.488661691620419,-2.8651623702429716,-2.6051997585397015
680,-0.6012954934923735,0.8756543990149738,0.7065847078354698,13.55641169379071,-0.3044726446713053,4.114533096656396
690,-0.6213950741795674,0.8136318925455837,0.6495502044951956,9.714504967130694,-2.650994695353097,4.2971347742116945
700,-0.6478316659731636,0.8058688683169424,0.6697770536842966,17.57476161190879,2.574129092437832,10.197285377011129
710,-0.6258320296968098,0.8594763744855777,0.6904270026154109,15.08864357704932,1.3883152224185142,10.27506544260482
720,-0.6278955487367617,0.851866903160722,0.6778316148618561,-4.161016317264718,-0.579386024371832,-5.405853705865138
730,-0.6209854692781015,0.8397604692777966,0.6875809443439106,-5.221669384708385,-1.8272645600969808,-7.772682111450306
740,-0.6470933589311441,0.8213327575597134,0.6672956356568348,-2.7215156050263145,-0.18535771906097867,-5.298396044942773
750,-0.6493523266974105,0.8213934317396956,0.6670656823863463,1.4598052640929433,2.600951701408728,-0.8378960377554421
760,-0.6284937305996346,0.8332245295130484,0.6780115362269616,-0.12739862350649123,-2.635187418243122,-3.73110615640498
770,-0.6300442346762777,0.8471306104243911,0.6791503760284663,0.2066528422316992,-0.1636033108950311,-0.20965631319225944
780,-0.6123923453793865,0.8619399521376532,0.6941494077697652,-2.354917285062576,0.5451311259803249,-0.6498818027660609
790,-0.6146247584486145,0.8498376395852425,0.6911302376794898,-0.8933073714134816,-0.42526891896115926,-0.9250092854813639
800,-0.6031510261628722,0.8610177310025804,0.7010653224010152,2.101416788788547,0.7413330807013132,0.9766336968630829
810,-0.6215312951271512,0.84318933593517,0.6814787914035857,3.0273458488198983,1.6974713321226695,2.4882558728562794
820,-0.6193800601971248,0.849821242295516,0.6871283818139402,0.32261707508206117,-2.250837028382733,-1.7443487944108997
830,-0.6489075779069212,0.8283380528813293,0.664865081947297,6.04317798738381,0.1498059818140809,0.27992741609876803
840,-0.6538690276866693,0.8269069029490169,0.6492112692732791,3.434794643930915,-0.17745313941900653,-0.5697343462212079
850,-0.622345352008585,0.8493970350322213,0.6812591795911569,0.40503427299160855,-1.0859144835670178,-1.963123058177904
860,-0.6124752580609761,0.8621929874444002,0.6916204851577458,0.8804968805522195,-0.20238747506579513,-0.2760223516520304
870,-0.6101289084960687,0.859545432159735,0.6925999219511125,-4.795843339009129,-2.0758720469267917,-4.182095576061729
880,-0.65484880513605,0.8145195338890813,0.6520817897886795,-4.45539261876173,-0.5841588625474898,-3.1013605439530734
890,-0.6248108098081282,0.842233648586219,0.6902031000514439,-1.4254502606677375,0.02911515212561483,-2.0383919269450814
900,-0.6492566858173463,0.816509483681582,0.6614848630022987,1.442341036476197,-0.06691221062246128,0.26718379741890586
910,-0.6314432185472653,0.8363028368714983,0.6747213932747956,4.043311270418871,1.394120131559304,2.92047053742135
920,-0.6337864644020192,0.8386703085801193,0.6782559746586189,2.0131021749473366,0.9589952346932895,1.7401353930650818
930,-0.6226013179703654,0.8481294394696317,0.6857069201369828,0.5085759750771319,0.1566658512492083,0.39751802878788256
940,-0.6597180806945461,0.8017217134818495,0.6434946683320113,0.4433984600623634,-0.010313127967560065,0.9584562178728919
950,-0.6433394983872952,0.8228811149143699,0.665763792895722,3.544678604494555,0.6027552435618491,1.5777353578216802
960,-0.6210732039118744,0.8529556392772957,0.6864217832438332,3.33531486582516,-0.8393178346375232,0.37775023795626017
970,-0.6218195668482998,0.837100353063822,0.6799588603973056,5.081983929236144,1.6977638613959138,1.8778995966992764
980,-0.6205766715650581,0.8430476121156364,0.6805839077287785,4.128981903031018,0.49364349979217054,-0.5608631436349714
990,-0.6090437301753924,0.8740757005280134,0.6913450604124735,0.8513330559192537,-0.7814914774554154,-2.609695681666301
1000,-0.6250914046107453,0.8520321805058733,0.6850118221299469,-2.9952459498863337,-2.0296905996679193,-3.8479432803546167
1010,-0.6305465065666401,0.8408820821738026,0.6750468126866846,-2.960439030228545,-1.1345803933951966,-2.0131720885951174
1020,-0.6211572205690268,0.8551834003966517,0.6920077625356221,-0.3584815470504248,1.2671973601918083,0.7661529329543932
1030,-0.626156330927532,0.8549716259639463,0.6879896618869552,-2.968307450560129,-0.039912898689369675,-1.1207189483411149
1040,-0.6310797477650505,0.851294844021073,0.6794617962227487,-5.476299365358066,-1.8047551198908653,-3.680775102185883
1050,-0.5950357068831659,0.8757260135666531,0.7144870338769626,-6.175301211982803,-1.587063631984704,-3.468192641796842
1060,-0.625802143533502,0.8396937708577396,0.679335817567517,-4.519226769990945,-1.9733988822469628,-3.303768642553017
1070,-0.6222745029266045,0.840161997206014,0.6877976307792084,-2.7836003847478654,-1.9437302854869027,-2.031949862197137
1080,-0.6375949100963676,0.8338501214567455,0.6714271180977827,-5.01479495587911,-3.032973265456654,-3.273157384495047
1090,-0.6351400457626353,0.823703746743279,0.6725870172134053,-2.8941052987161804,-2.1419925676054308,-2.073752883840474
1100,-0.6587546009138104,0.8079222760777065,0.6533184782640398,0.30774593728357247,0.5134000834563756,1.1183305937189192
1110,-0.6234839227139928,0.8395467258397639,0.6791351265912254,3.952218147653184,3.465657054632538,4.022854359905261
1120,-0.6094614684990431,0.8652521322113241,0.6947842414162054,-0.3102717271871391,-0.5397036653053137,-0.8568793849770455
1130,-0.6193386819733099,0.845293831105021,0.6900247686713048,-0.30119920125294253,0.21565788470460956,0.08080157809048216
1140,-0.6037469913527294,0.8548002969445546,0.7033908249291845,-2.904110433196637,-3.346946445873962,-2.2958122265094323
1150,-0.6198551620687548,0.8453809712342104,0.6886022735082705,-0.6651409251902958,-1.7661163096210761,-0.15576995998064946
1160,-0.6066769719885357,0.8621432732684502,0.7004536746359481,-2.76544124314389,-1.9428212421671747,-2.0720420513278923
1170,-0.6404927522998545,0.8352902114063049,0.6660803543229091,-1.861762479432496,0.5542812400232078,-1.1838610001467404
1180,-0.6216886771788814,0.8409898935803072,0.6897502774505038,1.0557042231278024,2.1961389436928376,2.835274462756428
1190,-0.6202418065866597,0.8436565799190029,0.6892296043398115,1.4561269018351786,0.6943607514138317,2.4496474755859334
1200,-0.6202587131130076,0.843550888774928,0.6846114829047624,1.857420235230779,1.5637218198548564,2.650964625323444
1210,-0.6329450533112931,0.8360908480492262,0.6706100912752708,0.18562406629135358,0.13241351299960352,-0.013931251198108396
1220,-0.6036348958910891,0.8711771306768088,0.7129167737767296,-0.402909894588682,0.39325931784958434,-0.5992289573596208
1230,-0.6041736356191918,0.8637200605177725,0.7076083306705766,0.6104960841730062,1.486724328323254,2.1728326267255165
1240,-0.6291004257993238,0.8352712347906266,0.6812973625483744,1.6165703579778188,2.079650534092373,2.832951713401938
1250,-0.6335710024156167,0.8325208078715827,0.6766788912706753,0.11760136780345097,0.606662761771953,0.6421623609271692
1260,-0.642393090222716,0.8280647077583367,0.6633528432279444,2.254382277590195,3.64254446482062,1.92062664596739
1270,-0.6132755018900938,0.8581695803976841,0.6950510128523999,-1.6287976669018243,1.0359349631814558,-2.1812873668351074
1280,-0.6061537994669548,0.8569823634707112,0.7027243544273846,-3.0468927922029057,-1.0729250487915236,-0.32557077805037493
1290,-0.6239593891736684,0.8356814540633711,0.6864661597721394,0.3106262305485188,1.8505713671491653,3.3264006045779553
1300,-0.6154199317990476,0.8471225024182544,0.696683180528768,0.6101320313452775,1.2613877162146958,1.739756247148084
1310,-0.6221460991448763,0.8483710769387464,0.6915239650572056,1.7658766707608857,1.8223466542483628,1.1718629550636674
1320,-0.6163792197908157,0.8497215149994344,0.6921750848574534,0.8201304011502639,0.6396705610525918,-0.5602960880663114
1330,-0.6244764016496978,0.8369174271098105,0.6823085913522366,2.240151810859555,2.117279564169435,3.630203946321135
1340,-0.6144470203619105,0.8504683308770301,0.6998488788590008,-0.7251643166477185,-0.8956882366355059,0.5403820753706904
1350,-0.6173281720400933,0.8489927728513219,0.6960475631935723,2.6661710937951035,2.3557224257559937,2.480716529775486
1360,-0.5937196220385805,0.873181450451417,0.7220989861328844,0.29825641623495525,-0.7793111742315997,-1.2523065160510765
1370,-0.6267948020540727,0.841096860968305,0.6827971686082211,-0.38206272635946714,-1.109877163552424,-1.5096031295447698
1380,-0.6405670579865311,0.8294740697921998,0.6691082182186874,-0.8074488865648555,-1.97826422488072,-1.306247981305341
1390,-0.6073612063168528,0.8633417907243965,0.6986712391456699,-1.140229711414771,0.1579876218424529,0.27981776447821044
