time_ms,ax,ay,az,gx,gy,gz
0,-0.6737518487708041,0.7388700767067362,0.6941570005664323,2.758511685567737,0.09180776772847898,1.0971858691081633
10,-0.6769087543129321,0.7354171747815895,0.6836104231624893,5.141305500243546,3.105053061713013,4.097533241949495
20,-0.6636601989560853,0.7489287977081868,0.7033844256955784,1.6419593594200381,2.11293150026702,1.8624751249722544
30,-0.6966600089964867,0.7093214579825311,0.6660523074011503,-0.49896382200516376,1.143973399372064,-0.37062411013211927
40,-0.6591903585629447,0.7484279029299635,0.6995986757615963,1.5149973785744308,0.3554829421611214,0.8587605501221025
50,-0.6472150812039358,0.764160033761701,0.7117696960158776,-0.8602478912186333,-2.4983878003009776,-0.9368355215295674
60,-0.6664515286243063,0.7480636269978378,0.6982502238004058,0.6449153427155271,-0.8116521689675106,0.38992677799046904
70,-0.6581917630716847,0.7537087028965737,0.6992812006038643,-2.8550214150239395,-1.7661160324775524,-2.683035121307116
80,-0.6914466144508616,0.7107335187299619,0.6740776466314126,-0.7326659816515968,-1.5729373677734588,-1.4657800788207695
90,-0.6643272406527374,0.7515381026421399,0.713100783596752,5.302629386034092,0.3686523185469257,3.5496426987193592
100,-0.6723191304624354,0.7522139331533906,0.7204910671705866,8.079767111969975,-2.2875645405894285,3.794958072280499
110,-0.7362801228008709,0.6969354040876452,0.7121294791871506,15.807343826429218,2.610538489502544,10.48399410055443
120,-0.7080886697509703,0.603454671950563,0.732875498612472,3.7179291033869566,-7.978016159498665,-6.873878908923986
130,-0.6557538161979617,0.7080817949125897,0.8201592006039633,6.37724648367482,-26.45830875547508,-11.813678374117657
140,-0.6137510947754021,0.700350402189389,0.8086790052491459,-7.147277455513927,-37.08714165190164,-15.566026600078914
150,-0.5622655087405499,0.7243991829675386,0.7901753104140713,-26.025065723039766,-38.97192153191584,-22.755016164452375
160,-0.5508860447860671,0.7602787843454306,0.690702387207065,-49.71102285777251,-37.793027130640105,-29.377483282923205
170,-0.5960712286615412,0.7476303458938085,0.6024495193138628,-51.46693154698601,-28.55456377827862,-26.481632017015063
180,-0.6562676670883479,0.7098694440239075,0.605184215018012,-41.56211829956988,-10.189759597348836,-18.905145231605836
190,-0.6544894485816949,0.7580383792247934,0.6498469926416792,-32.170816074376766,7.988870896567996,-8.699089645064227
200,-0.753940337186617,0.7248250385990116,0.7199878815736372,-37.12917770871608,9.165611276979439,-5.729232742081823
210,-0.7892578460644082,0.7190948451670323,0.7749765621061123,-31.38145798416266,2.995378795015246,-6.503762834038884
220,-0.7955299810888429,0.6069244267074946,0.5673225300639546,2.096292313601768,5.957596532328239,0.550238004244854
230,-0.77772198216225,0.6351348760080374,0.3931299028755657,48.30441327694105,24.43080904297958,15.393890207666468
240,-0.7011162402558629,0.6274502201291029,0.5594073872306786,74.33914895198039,42.391754058688875,23.212022219089906
250,-0.5523419979428648,0.653539576258836,1.0488655570784937,68.80286883184141,36.880245294355234,19.428953998409998
260,-0.5353974040452462,0.7220645633797981,1.190532254304518,52.166455501471596,32.35547720729124,17.694514683660415
270,-0.6393815865490209,0.7570604652010753,0.7845428436464088,17.15612931330688,20.641104065958842,5.511364268687174
280,-0.6561226997250091,0.7436453225228894,0.8513635771590781,-9.6906555264185,12.42165030222357,-0.47359424856384313
290,-0.6623785745414468,0.70887726116408,0.7969376722496208,28.598228524546606,3.94047661980517,16.917483262338543
300,-0.6610703546357802,0.7789175764861979,0.8863431811703503,24.031259165577474,-16.27917744587509,18.014159175484032
310,-0.6895649885485232,0.688819562617966,0.8492287000894437,-3.7709669265328447,-30.431702371130456,2.5300633109750224
320,-0.6486133006844408,0.8465822732793042,0.7205036764837743,-28.66914564357465,-37.080395711600545,-1.5410366877389823
330,-0.6130870958807806,0.8654827739404507,0.6214946486341623,-31.91598880302851,-31.33800414099026,4.487970911414043
340,-0.6454118791341179,0.6767213682957814,0.727193042492472,-56.184468831237425,-11.947697436083907,-6.85670215849279
350,-0.7557813644629197,0.5005276002380032,0.7279116111303974,-65.12350999238467,-8.890617117583878,-29.49651397361093
360,-0.7376442105462747,0.5766884016096754,0.9704560422152435,-25.61787605108268,-13.373266525001396,-34.11466465853083
370,-0.6556969730052342,0.6026059662214581,0.7099030765739498,-37.98567161970894,-7.990721355824064,-34.29154518073146
380,-0.6744570232871548,0.6633069284159949,0.6738682691081599,-40.02953871861755,-22.574751303046746,-39.15647576127397
390,-0.7125691280651679,0.4266960805506693,0.8056508492406831,-36.851825268381376,-13.82880131985335,-37.122269806291285
400,-0.5121472761308986,0.4697828087945261,0.6778162259304195,-4.583625171370079,-4.921496937329994,-30.073752033927928
410,-0.5219585194735705,0.5505717140537676,0.8405024424000525,14.239440644824157,-0.4006103125235422,-25.04859597130032
420,-0.6839213546749632,0.7242954630734131,0.7452254103308065,5.255742073815554,3.989380052898425,-12.624872953743118
430,-0.6956850396333314,0.7751681157581304,0.7248895203019763,25.77806784971769,6.0981244189403245,-1.5427175558497337
440,-0.6541655015893468,0.7428308494109999,0.7352664652037147,30.16883485400724,13.7857488671478,2.36215912055112
450,-0.6566158017419054,0.7118041403951202,0.9436716090374306,20.423578673886816,16.896723103975525,25.423526215432823
460,-0.5915103290638921,0.8072499065402907,0.860569685887682,49.83168827753234,20.04994933861372,48.54739682505031
470,-0.6413155750125896,0.6425410874285998,0.8536681689056979,7.177576922095358,5.2061054136681815,27.07010881199526
480,-0.6335526801535012,0.788912903367397,0.673434517446464,26.61937870346802,4.688818862348818,36.56398363556033
490,-0.5959773201023354,0.8270787893263742,0.6564799249036922,51.4835452092078,3.2618572959832774,37.10803612326483
500,-0.6274564052190401,0.6334219916692144,0.7698185794617206,48.841977473009536,2.0404752064772036,21.30960878358852
510,-0.615947802092979,0.6531251003146921,0.7707366146608444,29.380262969957688,-3.1833550369441115,11.493179568948026
520,-0.6998152986628252,0.775706195490483,0.7302419594043146,26.958426573629232,-1.9484712064859484,3.004851708651252
530,-0.6198885670153318,0.566202368614437,0.6512126526621027,35.02892687086599,-5.7490214925118766,-18.22155621722764
540,-0.6870813618737052,0.815904929875043,0.6378706028077623,7.213006901305992,0.08685028488262336,-23.40146914763116
550,-0.684959394602247,0.7958265493287734,0.7207346559316518,-2.265814407952193,4.636220284489403,-21.611537365769607
560,-0.6765844648526237,0.696020364137873,0.6165514590721791,17.926755283038634,16.075857610694904,-9.524311363603175
570,-0.7070622006199854,0.6728806448503667,0.7337081852282498,23.75960911760525,21.007283046408364,2.3863032859431845
580,-0.6878145913619769,0.7004384745067217,0.650140199487094,11.066445476413504,22.401540863357816,7.678471405566302
590,-0.6938850702565388,0.716312421525142,0.7401355145880648,-31.574904233267638,13.578942476521144,-0.4886636066473602
600,-0.6219745397207042,0.810841922547192,0.8144744222630547,-9.521801057286101,17.076232289833946,16.986991967380735
610,-0.6488650520389098,0.6684799427811897,0.8228235544293228,-37.71899239452075,0.6035443119118631,29.08185010353018
620,-0.60162757345608,0.7545593403048301,0.5196812096665405,-30.644259280292218,2.5868258810273304,32.43076408901326
630,-0.7566615455732159,0.27671344319547936,0.635764994942749,-14.786577217564677,-1.182460256120773,-6.126238787079172
640,-0.6762177478975645,0.6019407099796378,0.6890034907879357,14.101823545199755,0.9550354485336413,0.410083251770634
650,-0.6555575037800202,0.7050576449700564,0.7028774295760634,21.073001517019804,-0.6943582034288107,6.138670919191186
660,-0.6440056988517426,0.7339763855057418,0.7254547775574263,10.765288711045262,-0.48180640204594827,3.9370290942045383
670,-0.674765335888079,0.730104728300536,0.6992694520672778,2.6170091964045836,-0.24179116709131954,-1.1828308217362753
680,-0.677470408184987,0.7510463632457375,0.6914403139690252,-7.353105978196457,-4.207539202479491,-5.549616321508642
690,-0.6749431302916136,0.730400558282668,0.6979396683169311,-2.6527287155446917,0.7503147136602408,-0.35679954992222074
700,-0.660078830622739,0.7340899042820136,0.7079729351136653,-2.427649517279959,0.15845184014309965,0.5601098464601054
710,-0.6460059088793354,0.7432324552135008,0.7138939878202801,-3.130230522646656,-0.04449562626233583,0.5534469738467804
720,-0.6901375039832368,0.6997614605738612,0.6724668648521112,-6.111910222061162,-0.9251290139336626,-2.0228192068904005
730,-0.6777517303002013,0.709547038702248,0.6924120975786355,-6.6803158280813335,-1.3047082862109334,-3.06453736726299
740,-0.692780232564697,0.6928414194513209,0.6750896092567085,-4.031626657278107,-0.5234622378367669,-0.15665503557790283
750,-0.6834071076928914,0.707691473511477,0.6838855283327326,-9.22055227371136,-3.0216049162101832,-2.3000228487743177
760,-0.6673952169591256,0.7195115303723763,0.7074443664925846,-4.59477742684681,-2.357678259018993,0.11142376343828864
770,-0.6635213330863231,0.7227009757038142,0.707681018997858,-9.590370444757598,-4.261265276375362,-3.8507741992285984
780,-0.6520466828953096,0.7462363833529453,0.718553465765682,-2.744283695717889,-0.4046316143405506,0.5964332535255947
790,-0.6570623413433352,0.7330685145079504,0.7162796881663203,-7.794692938309274,-6.100212454299757,-5.674404884697354
800,-0.6606472835150694,0.7185708645829672,0.7056017280609804,-2.681210017678103,-0.32542083991249904,-0.9949820163981529
810,-0.6671390249184276,0.7167985525563576,0.6967950565343018,-3.9042317584355,-4.670353569388195,-4.468002934261143
820,-0.6847296991678122,0.6989679532855295,0.6923959036564059,-3.629670233553609,-1.5912879196340028,-0.9589896377760225
830,-0.65700326306013,0.7258479404382513,0.715504056778474,1.5406486922160616,-0.5440916144150848,1.850741202150953
840,-0.6768908880658793,0.7075361171810796,0.6924513527483299,0.9144478660005955,-1.7796721964230975,1.3695496598847736
850,-0.6346208206290566,0.7500738187678425,0.7385023196205268,2.781371055006171,1.544859923892499,3.5855973072837775
860,-0.6519529580820708,0.7328056784618431,0.7168786544148515,-0.013202073195849873,-0.6116041866345766,0.3754536990395406
870,-0.6472092465526641,0.7409956446546024,0.7302364155080407,1.1192378015646314,-0.7139249138739071,-0.2248969145349855
880,-0.6497432548502715,0.7344331762810693,0.7211512559751576,2.944147826941902,-0.9084812639451315,0.8612782362339805
890,-0.6749957610364681,0.7044245394797691,0.6873717243806023,2.775931649267892,-1.2318530361440807,1.3455972176119901
900,-0.6590451474531466,0.7331959107477387,0.7070119075044482,8.165826987068572,2.3042477380186996,5.311338935842565
910,-0.6283057654731912,0.7606625520428714,0.7411158680135873,0.20238396374129675,1.377708255340468,0.6750000441618009
920,-0.6319392370747754,0.7503728980940981,0.7424389575254958,-0.8626866378361608,1.1853730140509717,-0.4128621904868186
930,-0.6627614106272941,0.7220601219434126,0.7095258191181169,-0.5943929182536174,-0.1754558692491935,-0.3279705863089617
940,-0.6555516971948294,0.7333293549599632,0.7200260255922826,0.9911721956228947,1.3193289181066992,0.18134612646829396
950,-0.6476411775453513,0.7335284895698887,0.722965006239589,1.045949181638927,0.4282823683958724,-0.4276044712290529
960,-0.6600446831258409,0.7246083589691861,0.7130410211472467,2.54238957667424,0.30996145508919054,1.5262056167964975
970,-0.6617078534340505,0.7209423340312033,0.7032696772735652,-4.4606864635482,0.22030498380589586,-0.5636022805145885
980,-0.6660561027024116,0.7348555507820901,0.7053264101045259,-1.4168571645076442,1.3673780881656894,-0.5980756109789148
990,-0.6961761497520804,0.6978484133547157,0.6748315487314401,-0.5417194555307825,1.0745845203527777,-1.403178291237723
1000,-0.6881621940399643,0.698561626903683,0.6892129043316834,-0.09703723350024296,0.8707294462261035,-1.1151892595033206
1010,-0.6686342861413991,0.711887819378276,0.7073019708068538,0.22421679272971068,-0.49403923440994496,-1.08790670019176
1020,-0.6760892536194893,0.7054239408638755,0.701479363921799,1.0118810444448805,-1.8580992040531972,-1.089814794914014
1030,-0.646820172679289,0.7442303574535458,0.7228413290309256,1.4748386300230634,0.7974048302378196,0.424974830775927
1040,-0.6524189328459677,0.739495418896513,0.7201094363374916,-0.7724606604100128,1.09136796875782,0.04076212451789951
1050,-0.6365015146947567,0.7437135056470431,0.7402027904126504,-1.2227227547286277,-3.0642002347492276,-2.164563227543873
1060,-0.6706079504890602,0.7182833904585132,0.7051494954897933,1.979684771172552,2.128355632170183,2.525124300107263
1070,-0.6783102018528411,0.701765407882294,0.696518959729815,2.6120886794990494,-0.24157066387639464,1.1723257946415964
1080,-0.6730985348187386,0.7154702561547464,0.7008439728901307,1.6183770564171451,-1.5313089004537197,-0.4868429746455136
1090,-0.6488057583645033,0.7429361992910227,0.7246126808297588,-1.615386680535901,-1.3640558917069838,-2.1359885445930926
1100,-0.6765524167774939,0.7191928984714695,0.6975271501270768,2.4455760470833168,3.3310616244669218,2.652954037989151
1110,-0.6901583676387022,0.7005566350967041,0.6848715817483718,2.701927330579108,2.014295053535084,2.473038560088264
1120,-0.6631082326749095,0.7320131412382146,0.7119928788079587,2.0171963951655747,-1.212190168421658,0.7652217920652857
1130,-0.6449320067036035,0.7390358590960978,0.7245773829574929,0.7581392973596293,-1.7812835349439964,-0.45944309990067067
1140,-0.6600831321423147,0.7338667399330189,0.709242921407586,-1.905603199205987,-1.083947820189474,-2.1049266123721737
1150,-0.6553755686451315,0.7317466581814929,0.715369874371584,-2.8295952995118787,-0.589713074609886,-1.6250832360195666
1160,-0.6908600503862945,0.6980825193059179,0.6844873905456423,-2.2175632765687157,-0.9475765521656939,-1.016692372003691
1170,-0.6317773265477366,0.7530547367070093,0.7430176348309637,3.056209111695897,2.133871607313084,3.2860306630340252
1180,-0.6477204160630762,0.7437956537394276,0.7269161540413885,0.17195962252732788,1.3342580525307637,1.3348986543324861
1190,-0.6964375474340593,0.6965079905193481,0.673697178262472,-1.3331349111179955,0.9343836573644886,-0.945500080000516
1200,-0.6832235911495522,0.7074561973280812,0.6861104420097422,-4.467486266496139,-0.8637717921862313,-2.7786577691475225
1210,-0.6610661450998736,0.7308052488788706,0.7100308473499656,-2.2239314304907913,0.6134020824073312,-1.1404528501569804
1220,-0.6866120766584098,0.6989130315157218,0.6837052812623281,-5.229783887190959,-3.079866353616187,-3.793398207404939
1230,-0.6625276960566365,0.7235204008167693,0.7105029646193846,-2.4494666069546067,-1.4964124884358774,-1.3142211700492576
1240,-0.6746937260883397,0.717880185520932,0.7021042602135777,2.9220144531586745,3.7059009181766553,2.9877675772364194
1250,-0.6795104374609252,0.7106413062767917,0.6939770359917444,-1.916431540995722,0.544362984867083,-1.1305407191032693
1260,-0.6593921269632691,0.7275074236256606,0.7125074057727945,-3.3822331905275678,-0.42300815473982223,-1.923266172827946
1270,-0.6613749303618416,0.7330471503196349,0.7112462851018755,-2.7978201155862332,-0.005248934694795301,-0.7731613310922655
1280,-0.6657729690997142,0.7198574115776338,0.7067308383915712,-2.830003696380351,-1.6523159366879299,-1.716818126738934
1290,-0.685331066297958,0.7027223856943372,0.6860863853766281,-4.269376111662189,-0.7907945855119795,-1.7023048169446644
1300,-0.6722267177101146,0.720199364095853,0.7068940233460234,2.2874313307209238,2.225338619990933,2.229194884489672
1310,-0.669965232828551,0.7173631503074996,0.7009907004222141,0.31390810959520987,1.5002788632861674,0.5002590302474315
1320,-0.688330735229353,0.6997916063108961,0.6858029289201651,-2.0616329961897617,1.1024749701920076,-0.8932818117325345
1330,-0.6685934374638585,0.7203659853112525,0.7065861712724539,-2.374659101238878,-0.8108489413884177,-2.3758227688944524
1340,-0.6637913552948429,0.7137462840165996,0.706764405417046,-4.512017612891678,-1.295103422965983,-2.623948198385433
1350,-0.6635808568992057,0.7146794519782053,0.702652230315275,2.4097634458358956,-1.2893769344841466,0.6430838632327243
1360,-0.6308560167097843,0.7599195555672401,0.7457947622958477,2.139969920421599,1.4838295360309848,1.7965611942772406
1370,-0.6481505674169985,0.7410241455771194,0.730349232546321,-1.6283614756271914,-2.4256505542578712,-2.778810811040502
1380,-0.6794282718005866,0.7158129811561906,0.7028657465843973,-1.614135972717212,-2.229434821826076,-2.5113362887010893
1390,-0.6757251021564561,0.7130516827764583,0.6958963494055296,1.9866776638281254,2.351143936286304,2.5023915447528835
1400,-0.6838764784571628,0.7083274535178641,0.6842902189628782,-2.1167266739613533,-2.015015971843916,-2.090550202554916
1410,-0.6432694745667796,0.7492767426037045,0.7259758723230109,-1.0323299612765804,0.536049776138281,-0.17349790195719395
1420,-0.6609634711458647,0.7287111819073102,0.7182929761006684,-1.4844417038295785,-0.34138120128071003,-1.5116277606900346
