time_ms,ax,ay,az,gx,gy,gz
0,-0.6363789509220866,0.9150775943815047,0.7127148798435257,0.13894900128336155,0.35227234382601025,0.27391807673689583
10,-0.6447059290782606,0.9039444814310861,0.712930960996361,-3.0091406380709755,-2.8922098200820554,-3.1667310298462024
20,-0.6575821625873889,0.8918341127651875,0.7000319703583542,1.1046020297029733,1.6535326963333583,0.9369611985506903
30,-0.6226714619532497,0.9211271894151452,0.7350778332860589,-1.3045452178141232,-1.0371449254807015,-1.3442413011352428
40,-0.6522194098138371,0.8907190102347695,0.69917503848695,0.9839512075209611,0.6652587781494852,1.4294295935163863
50,-0.653380988530954,0.8939875858193854,0.6952944655650566,-1.7819378477907615,-1.615210778895172,-0.9895507750910224
60,-0.6577651381871115,0.8942336854770758,0.6957911290114032,-0.39694750745159724,0.02923528187311064,-0.6747291817877217
70,-0.6326770664040027,0.9175679440875857,0.7189870583663913,2.905922773423292,2.6830327303275845,2.283811049242429
80,-0.6535325133586055,0.9014525707637885,0.7067734808491312,1.3278952194538323,1.0659754645421176,0.9300763516805298
90,-0.65164618547525,0.8947109193825298,0.7023203136625273,1.5051549027657742,1.1228068244788934,0.7419657480127435
100,-0.6246427326775414,0.9237280350500369,0.730407087683498,1.5555613249580222,2.183037065475022,2.76391830668835
110,-0.6450272799953661,0.8874121559623542,0.6910679188719991,-2.2664339830612947,-0.6505628573130433,-0.0670291702075535
120,-0.6343940899237933,0.897451531568802,0.7033296703148076,-4.717063198951241,-0.9299735578022676,-0.8329541563571122
130,-0.6892769032833823,0.8507164274903091,0.6593888133015968,-0.9546571333361553,1.9336485853638,1.5246520613969055
140,-0.656584248941624,0.8993671702132976,0.7060556519326032,-0.24138322815677737,0.23347574102428154,0.27329436741188007
150,-0.6700894222081503,0.8927525938727267,0.7062661053419448,1.2327080554208698,-1.9935269354053338,0.5545625708102748
160,-0.7383407452186174,0.8601801333741271,1.0086217108153792,2.2088510092511835,-11.103013245315044,9.25678210407187
170,-0.7400156568335823,0.8347984110704514,0.9297648363599766,11.311501168859401,-23.22473964874215,-5.33979605913154
180,-0.8544864970098807,0.8378368908962901,0.9068496651940096,5.866911300977096,-38.868086068157275,-7.330977471335395
190,-0.768331502551428,0.8244189262604122,0.9452302101566564,11.205647842773029,-53.5720261582628,-7.602585395821403
200,-0.6476503075060065,0.8255728112691798,0.9930358559776774,1.6564205375911847,-68.83049511326294,-8.806818626712797
210,-0.5292637798153746,0.8037446947856431,0.8423582387340953,7.404962958096996,-71.77839651974627,-8.558755482170238
220,-0.3946197819554832,0.8963854991160443,0.6336722896810986,-10.821840242273844,-33.7614188698291,-11.898085661332457
230,-0.3510602479298101,0.9920927730490343,0.6317260101602442,-15.381709809127496,-12.41554570098169,-12.268175898940088
240,-0.4006276103376014,1.0319269769257673,0.6784636918158503,-14.989769608751047,6.402947796758389,-2.898929740618569
250,-0.578810158595113,0.9637053165153513,0.618933781370781,-30.547943724331645,6.50624086775448,-8.5335713468328
260,-0.5765844579127547,0.9556027727156985,0.6612986431896484,-42.8990290570195,19.86289367890462,-1.0193914868831881
270,-0.6234584646166532,0.9448294156938303,0.6337050014615467,-53.38034189789286,25.38183239428469,-0.6675674037419528
280,-0.957144465568522,0.8487997330652994,0.7776876466112,-32.393012706199976,7.629933207517877,-9.008833936479096
290,-0.8857489818943443,0.8562048226972746,0.7555317318722187,-8.895066771329432,1.8968339272470147,-5.77619862851443
300,-0.8170966781641387,0.818041970776376,0.6554139579275647,-15.96012251032745,4.410151751563437,-8.322789048415114
310,-0.8059994129777851,0.707168021587872,0.6494975017796465,-7.367397951679973,15.170973333770533,-9.716763245804698
320,-0.7583567916355903,0.7392227315965443,0.7158992185201734,13.372700053260722,28.648057354696157,-1.0001921577784048
330,-0.7397580436271192,0.7528376609428464,0.8046703055603998,43.358061551708566,36.77000566819429,3.0811581318419865
340,-0.6333736183319595,0.8460310103901219,0.9834957533281041,66.57748040345997,38.83046194086298,12.068926015012636
350,-0.5915841928945175,0.8378972904314453,1.154066906119201,52.993883395404325,30.572906307703203,10.144478719006873
360,-0.5887622997493293,0.9793010843861921,0.8573307225967426,27.34956398488252,21.361824946612277,8.67871714122324
370,-0.5253708245974388,0.8792597389775156,1.0475073347978832,25.4351199323681,15.789234179611322,6.7050375739366395
380,-0.5009859214002577,0.8442665332301482,1.1584023090084818,7.450725597290743,16.836803820737764,6.575881531816535
390,-0.52066859259722,0.8952094991147381,1.0070899180158772,1.1691298302446458,9.16119447977594,4.486568719937326
400,-0.6496601982843366,0.8738448765282911,0.8090576002530842,32.715221884250525,-3.2122098472387317,15.477128121768144
410,-0.6553873891476623,0.8923223037410798,0.8526479059907753,34.70254975583481,-21.259269305729383,17.10220456094874
420,-0.6377430175578656,0.8487908956246043,0.8183195389331064,2.4000990188123468,-34.753458640574244,1.1315867181992345
430,-0.8031178824112358,0.867498430961326,0.7431135388795758,-31.81658025879853,-47.16966342434148,-10.987097693827996
440,-0.7885918159212522,0.9696961802539864,0.8340247575332684,-43.60849637843769,-52.18403061796976,-0.9286202159263368
450,-0.6311636120321577,0.8916939677682385,0.7784632979034671,-48.23457165907945,-58.14009202734129,1.5557847760138839
460,-0.4296918307960805,0.9563031120340554,0.6383046223371598,-40.37855981385153,-22.54637511641121,10.14697287272961
470,-0.39470571668316484,1.008198370176096,0.6413120318408803,-41.19098257532637,11.268530648059423,15.14101227364945
480,-0.5497445852385683,0.8551900068775294,0.7258619928237436,-47.15031490955771,17.5297570481487,8.361448917781642
490,-0.810032194755451,0.8344118496508358,0.8681429943592086,-48.983025102010956,-4.290211244711902,-3.3766639994785703
500,-0.892265784552423,0.8180490779016036,0.8744406782820854,-28.903757151890293,-26.807992243498663,-7.711900178105333
510,-0.7469261538535894,0.7229323240853431,0.7514516890728618,-12.352228109751778,-15.850736463827388,-6.46532854743742
520,-0.6781382898325248,0.5645118520639926,0.703876152640292,-10.248348581890106,-5.898030713790609,-15.17501474137019
530,-0.7391269012007929,0.3691543139638265,0.7052828309329525,3.91874187709654,-6.798297600477126,-29.32887143708113
540,-0.7629626611954364,0.5817994133610721,0.6078790439991432,10.872797712937013,-2.5312909402650368,-22.884310254541113
550,-0.691376717442908,1.1400977074204715,0.51827256094227,27.393983546648894,1.453700992339032,-3.119388697149941
560,-0.6935408587533147,1.544113379288499,0.6068514349743948,33.620987277510885,9.509122437028845,3.2603668368545646
570,-0.7033820179067188,1.5024118966624842,0.471768035756531,-2.2688475760055242,16.95815704954644,-0.9878906745631837
580,-0.6350985726933075,1.2714286309418579,0.559243171705424,8.99290470832922,22.39927718259947,8.225422910393672
590,-0.5973120789231258,0.9438090106533918,0.9299041920913613,5.90219041196703,16.6844771096269,4.484464474535468
600,-0.6405035327337516,0.4674904993416561,1.1667785649470572,-44.49563174947069,7.465187538823875,-5.340330402881484
610,-0.6295850996850835,0.4318963416010842,1.269597871890015,-48.868931350947285,13.754883080182495,11.342267651329838
620,-0.6853505499782114,0.7122436824334656,1.0609108786719974,-52.85435901535319,13.237050665171283,24.291799504625743
630,-0.7123382697481956,0.6662252791467178,0.9497298328262619,-52.58142876852894,11.856153802717063,25.00423341951508
640,-0.6040671361800046,0.6100748108163886,0.9116045946337685,-51.908550537965795,-2.22342421298222,5.996237195756084
650,-0.6272186251317168,0.8281855116483005,0.7583152277371455,26.82323149940641,-0.03270165713495232,15.038204760771935
660,-0.6808150061116329,0.7631619834403522,0.7461708354219151,33.318575968503765,-2.216227079393893,9.967764123414367
670,-0.6681830684980348,0.9284242882321636,0.7315128823551109,60.01198211420188,-4.522210666460355,3.460033451700451
680,-0.6766026756231028,0.9389772994461432,0.6793338698289274,79.45120352264675,-4.461326257700507,-4.417555773123215
690,-0.7524997215330268,0.7520703122547205,0.4907355622700429,71.49094375667629,-4.628678793037876,-20.45735334387026
700,-0.6489725128483761,1.0562631324439051,0.651302200797306,35.26905258661443,2.8650749183712714,-15.837578889945288
710,-0.6515203221681283,0.9591385181465438,0.6823592644682475,18.21480039238226,12.385743389674884,-17.145762443668023
720,-0.6566615123993766,0.9495126109643545,0.7931379046667916,54.08377560702358,16.872261688200055,-14.861193482903184
730,-0.7067847317909105,1.0383021424533019,0.6465942818352028,47.55838408046266,13.273968502568948,-13.195171570570036
740,-0.6615641175139614,1.0509875573297187,0.6852335550150581,16.376474402924437,12.415885562521055,-10.551009113715455
750,-0.7781760149902975,0.8701658387470373,0.5880487913345668,7.902017432536417,17.53008503591128,-17.663164810720616
760,-0.6679167911833446,0.9192566319820689,0.728718574424268,-4.675622730969414,18.614671142323598,-11.685476980568865
770,-0.6393919364968409,0.7379937194538493,1.0161708042044562,-45.18067913276129,12.4464767874108,4.643518850151941
780,-0.6909845219316892,0.6299297784449596,1.0591827203138924,-80.24216283523552,-5.663934338285724,-10.545532861356804
790,-0.8182249365028865,0.2632286373408352,1.05791863903227,-67.37961646046706,-3.2091479073398674,-13.17926957229445
800,-0.6857384948043613,0.4194797539322347,0.7737674657072023,-27.638340276224472,-7.46348184360817,-16.17793337031105
810,-0.697853014695425,0.7375099346479008,0.6887873158125146,9.16393495770479,-0.39131569513049713,0.6572823243081483
820,-0.628788860773556,0.8758114340978,0.7159216457210706,7.364877981969578,0.027663943882329345,11.82281753553291
830,-0.6347503149575582,0.9570532555789828,0.7229965121853106,10.143709836254034,4.895239213735991,18.406203369722977
840,-0.6834598694093065,0.9157295241398309,0.6771493596046957,-3.370875479639816,2.3192611045315474,7.495330694627759
850,-0.6625217732293174,0.905612579643268,0.6802294514820889,-10.010118429462816,-2.0212087490590696,-0.36341240465718094
860,-0.6254115213082698,0.9325583663594849,0.7160804769779996,-12.328022054075952,-2.8958203347169342,-3.4682487190046496
870,-0.659273073329314,0.8905985381513231,0.6897342416714696,-10.501069641328066,-2.746846726703092,-2.8829886609512836
880,-0.6289078705398453,0.9038058443794682,0.7062131810864891,-9.79300939891204,-0.8928600401989188,-1.027450303881455
890,-0.6753608123225203,0.8869309948791124,0.6614969059563839,-2.6247010364480556,1.2983374255427207,2.7508723785116205
900,-0.669709109926134,0.8936511946200982,0.6744267121361898,-8.396835878233304,-1.8264786585711765,-2.265795772678616
910,-0.6453655013944678,0.909727514743499,0.7156539617409117,-6.390870354138816,0.42358759906156473,-1.314658273253693
920,-0.6581247884006841,0.8803493354636052,0.6929209886128185,-5.9460324876899735,-2.148080540070514,-2.676566465680515
930,-0.6678845535011338,0.8725999705594691,0.6828123573713123,1.7076142522379052,-0.4957315955444591,3.338130805708319
940,-0.6379698379825549,0.9261217331569582,0.7128150804938184,2.490073117948114,-2.4067122445038063,4.3403297571995605
950,-0.6327796777457471,0.9078113090144733,0.7214490491255793,-13.29142108019953,-2.106770737044835,-1.3210394518379727
960,-0.6615491363058081,0.8801400689859712,0.6923712065886802,-12.887458083149212,-2.6673418045905217,-2.8747193570334804
970,-0.6388234273808094,0.8642992965201538,0.6930425208839024,-0.3523798317326503,-0.3875181201195004,2.563868554975117
980,-0.6394725459302975,0.906834977368257,0.7045744948355033,8.535522829431534,0.40447471940295177,4.7477111241450585
990,-0.6263955290538801,0.9378204014454783,0.732020710863323,7.0436773946743605,0.31320893933147,3.2717934013522214
1000,-0.6156693694105599,0.9356107152695021,0.7440489613320126,-2.4734831624667932,-2.196466289019612,-1.4880970333120118
1010,-0.6340735662497364,0.9221525972645249,0.7112141730635625,6.426216848465307,2.519046862440108,5.296035672089923
1020,-0.6578992754266101,0.9012928904846258,0.6912820642101035,3.9556931732218645,3.318882719575766,6.443554347148709
1030,-0.6372914844901401,0.9168920317406843,0.711736897977472,0.47648825276781714,1.2280970418895278,4.361073963038444
1040,-0.6710219380020532,0.8934721368490092,0.685800974966863,0.840158635541794,-0.4753858174311837,2.275030924879347
1050,-0.6594804802087593,0.8987436375443411,0.6858240266144429,3.869247685490949,0.9311933813332217,3.2242914076471028
1060,-0.6299716376393325,0.9240181657735483,0.7176376114931639,6.4973667546818525,2.679298104620486,4.715876283355838
1070,-0.6284139563332409,0.9279846706704913,0.715631373069425,1.1130275501174713,1.647430570493688,1.738804856076363
1080,-0.6499458502992941,0.9147979237545854,0.6994644996211857,-0.22042633862179833,-0.258066364516484,1.145217902307659
1090,-0.6329501456600549,0.9410464901933611,0.7162500946344862,1.337696023239892,1.8289208018721028,3.709082317805619
1100,-0.6702335043647623,0.903555742051654,0.6911075407428567,-3.2409123145807617,-0.9541427594600956,0.46904429273162995
1110,-0.6336406236099373,0.927993280308744,0.7179260578576467,-0.6260991459932246,0.6389897456335527,2.4224219624591714
1120,-0.6283835491767094,0.9258594051531901,0.7106577656767115,5.307022815239902,2.874210688160846,4.968560858459129
1130,-0.6369731962321663,0.9308037045787766,0.708836771976053,2.5273420298806264,-1.4575097090490705,0.6148927517678489
1140,-0.646859589699257,0.9135728098743543,0.6970420752428392,4.599020277486562,0.044885734155657386,1.2281937872329276
1150,-0.6734182068336544,0.8876032303841374,0.6740935052358502,8.00669469395794,3.8187251280770935,4.494231666873173
1160,-0.6079128676801548,0.9558768328466881,0.7238327331758531,-0.17081965364216184,-0.5058738360437064,-1.214905361928293
1170,-0.648716988349756,0.928558686493562,0.6992363522643904,-2.3182744528575414,-0.5309916883023982,-2.8204467641926074
1180,-0.6393289697454115,0.9341043887202728,0.7158802942951944,-2.1082384256000584,-0.12280556242556617,-3.078616492116096
1190,-0.6571144556813854,0.9015867097972282,0.6925611736080637,1.1446807519806985,-1.0089764957431449,-0.2764958198085758
1200,-0.6435283153910365,0.9155686941497142,0.7085475599733113,-0.6007107551112609,-3.02258499009591,-1.6691699606403214
1210,-0.6536509686960431,0.917589607056118,0.7000121233482696,-1.389504499578468,-1.8943027409326028,-0.7936835017386251
1220,-0.6371462721117475,0.9297998836672723,0.7105574017828683,-4.142553922818149,-1.7085247110141228,-1.411333819725773
1230,-0.6415513820053715,0.9150368360926293,0.7083006307975329,-3.798898193678564,-1.0572439120920862,-0.9950872270631803
1240,-0.6400228961757114,0.9148440414824457,0.7117453617229816,-3.1159984300268726,-2.371614130811145,-1.542323708547297
1250,-0.6516882793285458,0.917135008063821,0.700866651348146,3.6681845064914658,0.6289087608046148,2.753242735877886
1260,-0.6553131739572842,0.9201487525552569,0.6943524624539055,-1.0762283360211145,-1.359205033373048,-0.16886903898603522
1270,-0.6372935634135969,0.9377359534301822,0.7140476371925127,-0.6056981778917807,2.0967061735659542,1.3336481072867183
1280,-0.6721996468561885,0.8930843774700159,0.6752892160552328,-5.754192598662243,-2.93182379479582,-4.60956871891811
1290,-0.6599610839683339,0.8925853183954455,0.6808246855496737,-4.127341678963221,-2.9262009984514803,-4.590049659650926
1300,-0.6387823416312203,0.9174608901258052,0.7062950536029322,-0.4691093763868607,-0.970613499992702,-2.681748854585752
1310,-0.6644790199601353,0.8969490069362358,0.6874202359689269,-0.6570990664055921,0.14889895264684905,-1.6943271412205925
1320,-0.6535730259229705,0.9061494864009908,0.6985941753680255,-0.054128945262106765,1.4572901228239639,0.17801830060341328
1330,-0.6193163143230693,0.9394743350478119,0.7319588758799382,2.123515742611994,1.6487716624508424,1.354964449868101
1340,-0.6390788052114889,0.9179994809320574,0.710180208038449,1.9311615793621824,0.42744464024461587,0.502110546442772
1350,-0.6092476822546755,0.9500251192271675,0.7354317607736873,0.014034020961604471,0.11369784857586289,-0.019616334841341676
1360,-0.647230953218099,0.9146441480945192,0.6999065137041678,-1.3926537388762648,-0.30914672493468526,-1.1554656758452855
1370,-0.6384700480162216,0.9228438498762895,0.7112057744328087,-3.1624125628574427,-1.6529703520385657,-3.428131648754241
1380,-0.642304795170062,0.9181550893107145,0.7039127041955349,-4.5006167634638174,-3.1716419038244568,-4.97894198916369
1390,-0.6488988858839857,0.9098868869334272,0.7001275464030545,-0.41044230406530635,-0.1442029766481615,-1.5845229487723413
1400,-0.6710524377359476,0.8823562156095673,0.6789789067929825,-1.55620064854148,0.05072782651106689,-1.3877662995510933
1410,-0.6572271007693158,0.898732977875609,0.6976555439806458,-3.5219812467085223,-0.5420978312383702,-1.702445521776779
1420,-0.641246072832885,0.9302385791162981,0.7262025657159276,-2.4925400651655454,0.3609333811363917,-0.9070389209837596
1430,-0.6577831446606713,0.9130797830879746,0.7087775306630214,-5.297218680412185,-1.4228188550438803,-3.192423821251239
1440,-0.6607153177520494,0.8964410417696278,0.6975498368751756,-4.921567719887677,-2.013733856367627,-3.174419796961617
1450,-0.6581850385934641,0.8951650789576745,0.693176572675129,-3.0150851269412104,-2.0815748369343003,-2.2627299083044856
1460,-0.6541712574299821,0.8992275506678296,0.6943191486282445,1.2209797089751258,2.719723652139166,3.2290672749503684
1470,-0.6458764061408546,0.9069351836090939,0.7105245844903711,-2.299851118458735,-2.03753445406234,-1.1482531341837885
1480,-0.6594793934306604,0.8990597355434757,0.6999053716639204,-0.625889677492983,-2.172292061560765,-1.3754080803639306
1490,-0.6495104082510275,0.9126714682736058,0.7084238249465131,4.913567292564706,3.8519816404985026,3.73131712579256
1500,-0.6442590949451584,0.9162541452620402,0.7152250223759639,4.0025366046396815,3.021789636298677,2.437824690150675
1510,-0.6441615323141991,0.9130489483387403,0.7109685404759767,0.42121409363525586,-0.1749647500427286,-0.14302252692319528
1520,-0.646935990954489,0.9070543188747868,0.7040806953766815,1.71554818912638,1.3139656679263232,1.848762042070535
1530,-0.6646685170466013,0.8918456938490675,0.6854495947012932,0.2803401723730686,-0.02994486887491514,0.7471798386630419
1540,-0.6441143363937892,0.9138991548598597,0.7077715714784674,-3.452487220003249,-2.1652463977260474,-1.8174198813893312
1550,-0.6394661150866904,0.9160490689806248,0.7146735141562921,-3.7861808027736275,-1.4439630184011816,-2.416127873906888
1560,-0.6142395985857304,0.9389342697221627,0.740861086373335,-1.4349350946473054,0.5997717317442474,-1.0818544382991804
1570,-0.6458446008312855,0.9050794111886836,0.7103818715824783,-1.0636453583127508,-0.04373652040644693,-0.8415620106529886
1580,-0.650754164279782,0.8958055346787602,0.7020566331214932,1.1296409116728219,0.6997213833336811,1.1249513828654911
1590,-0.6271752891355366,0.9162134026972341,0.7232414932972909,2.3927485080043445,0.3174216548267189,2.072532140153656
1600,-0.6442693976867675,0.906162670568191,0.707431309416262,3.2694527691583906,1.7101446913448326,3.721144503461346
1610,-0.653690566667685,0.9044133618627869,0.7074603097781466,1.6435099498013375,2.160271765637616,2.757105241615643
1620,-0.6368965689089076,0.9163499179084168,0.7198981715292455,-0.43039931362886885,1.3390309404086616,-0.4262652106926761
1630,-0.6401832543401154,0.9096085925393192,0.7102047496035407,-2.265494831641153,-0.13400017108733187,-2.0565882298777556
1640,-0.6294739519077339,0.9186773831425733,0.7215933205261653,-2.433829720319181,-0.31414135207247995,-2.050976623621968
1650,-0.6250767481109436,0.9181693195630334,0.7293935493030376,0.8113671252171473,0.059662467882937276,-1.2753527179673458
1660,-0.6475714189889875,0.8983367602982829,0.709759175353994,2.2793319499527653,0.13420827539410407,-0.5676515966154049
1670,-0.6249603235147846,0.9254859407875222,0.7308958948254642,1.246428253224234,-0.36406295939144107,-0.12606021124800604
1680,-0.6329648423792538,0.9192102794883398,0.7275123764719111,-0.7432156513781816,0.00392106921665919,0.7795256824990136
1690,-0.6339254633718949,0.922200984198008,0.7269942742688309,-0.8203626346902932,0.3239257206789579,0.7512948491097781
1700,-0.6492233889769768,0.9116157197410677,0.7064945880155601,-4.295259874158282,-1.912370907098709,-2.2073853158346513
1710,-0.6492432262216342,0.9030782427128022,0.7065111462230946,-2.41562928482896,-0.32955317376707677,-0.7478580761211129
1720,-0.6633943273845921,0.8880559358403572,0.6941532299317714,-0.30076987463710925,0.951040691282705,0.6966974083240065
1730,-0.6642374360089804,0.8804015711208429,0.6851966519978757,-1.2180156091200227,-0.17014100040820707,0.061996138038903206
1740,-0.6603594090029826,0.8891859908615591,0.6846566035840315,-2.2805504735833924,-0.1469692809261804,0.554379670408502
1750,-0.631410536401196,0.9149788840853574,0.7136622133625723,-2.9918404191664374,0.4373760272560798,0.6472951334685344
1760,-0.6641515905828886,0.8912893749694407,0.7004679613282058,-4.265583376332739,-1.5192615405381058,-1.943752836793722
1770,-0.646006599617454,0.9100971591696394,0.7158429528713843,-2.646818122248882,-0.8264252837972431,-1.64773513653761
1780,-0.6383833698360218,0.9096425530646489,0.7206192317505035,-0.6198591677739169,0.8601748823854769,0.2811154962720108
1790,-0.6497548531492371,0.8920654705106413,0.7014553182883195,-2.456856788175746,-0.40025234249343333,-0.5238032178280985
1800,-0.6383563717016296,0.9061668052436351,0.7123721776044495,2.128879754702486,2.036962005192158,2.6653419376855463
1810,-0.6328870286187425,0.9128975912110804,0.7165615305640662,-0.12339419570284937,0.44668440940894916,1.2131952885073904
1820,-0.6359812256760631,0.9188934766648875,0.7205129426388306,-0.834644692911548,0.737734112020549,0.7473027791156531
1830,-0.6389689731210113,0.9155831333423763,0.7178360902133408,-1.1487247138513004,-0.8595010303142104,-1.0763913068010509
1840,-0.6523637326924737,0.893380657305264,0.7014040290862736,-0.8081806114995576,-1.3053627939504833,-1.4749295633094937
1850,-0.6399157387025395,0.9088784324800036,0.7098793716706797,0.7661150065973861,1.031701139678499,0.5459348007386278
1860,-0.6266701449831312,0.928184757038436,0.7384172135967756,-3.8198232090460595,-1.4269121601461718,-3.6549355714010208
1870,-0.645313628125239,0.9083150590515627,0.7123048677353546,-1.3371933406126333,-0.02919255215122102,-2.144887947597485
1880,-0.6382606464006826,0.8980475684822377,0.7131213289702634,2.192655425869622,-0.11217044774427468,-1.2267756277590547
1890,-0.6679105661395274,0.8785971278561523,0.6978376802187816,0.8155911605928503,0.8471280630313787,0.22793832113218981
1900,-0.6294704051178295,0.9211662385863819,0.7218914511369798,0.2511152448430113,0.8899281878363943,0.44225081509400344
1910,-0.6229605872676619,0.9058353196100962,0.7224547951230283,0.26958726074960127,-1.6564689117698659,-1.5312935891178876
1920,-0.6504683629181018,0.8948911290626826,0.7135638218111183,2.4909543789670314,0.6396650065023948,0.7749436883629695
1930,-0.6543034343223602,0.8900015998674755,0.6962140070634272,-0.08937311387928548,-0.16646528949238587,0.14192430386345511
1940,-0.624751871560406,0.9235145093053446,0.7359483914611837,-1.5381458662185448,-0.13939755221538913,-0.5402829610977681
1950,-0.6723340439533534,0.8793670570764482,0.6933697478204959,-1.086462190729733,0.03066102388040423,0.14772059801743423
1960,-0.6653208866890037,0.8797944905317812,0.6976060931208494,-1.2765847750676094,0.4793878195356897,0.657635081637366
1970,-0.6236752655554862,0.9219407760688434,0.736581709232966,0.5498524336556905,1.916329503486775,2.6341972047401905
1980,-0.6344058796651691,0.9216355084963014,0.7217180865132031,1.2830243283427754,2.3826292112077003,1.3478819710653873
