time_ms,ax,ay,az,gx,gy,gz
0,-0.9716059754022478,0.3458570320955283,0.3672354743772033,-0.5740791787899004,2.023041918015897,-2.014749521572158
10,-0.9359927298659539,0.3917818077252634,0.4101893938054073,0.5625262769847335,-1.0180694692944594,1.66814289467655
20,-0.9347532674848081,0.3961614089869127,0.4137668116602363,-4.441517248239064,-5.303422571296848,-3.2915183846555074
30,-0.9777368196470401,0.3503576763566087,0.37030090249710873,-1.278131559952304,-0.35184635777313467,-0.6528502441116977
40,-0.9547610667100548,0.370942260416587,0.3943664120874128,-1.2470154544064944,0.7208080866206681,-1.3122345267428392
50,-0.9601308457514245,0.36619337957504283,0.3918017795137176,1.0391015402890837,2.611257822757926,0.25988227653543605
60,-0.9605612319893659,0.3645701949381065,0.3903611801394743,1.0344491171156287,0.7643343457224923,0.09718503035422552
70,-0.9684962370415312,0.35505937135169763,0.38377033902744306,0.6816423164104837,-0.6696068142960173,0.2793888530871512
80,-0.954842762060252,0.37382049345170615,0.39705543006171984,-0.4986840020869512,-0.767885881443481,-0.7539093285523972
90,-0.9554015401329448,0.3745142285025151,0.39800847689728114,-3.226110043399099,-2.6047754703278856,-3.3589820458669126
100,-0.9533203202878692,0.3744226917065288,0.4004439185676339,-0.808276329037353,0.39510216278251326,-0.6505503329986323
110,-0.9451434942847099,0.3789330650067689,0.4058854391269121,1.9282284820880031,3.4840204131089942,2.45854627297045
120,-0.9669284795457208,0.3538903300288565,0.38083081017603126,-1.8230338129996309,-0.35702974253953323,-1.0486464404919884
130,-0.9569011656296212,0.3639163302954134,0.3978599425772109,1.894409561367763,2.092117841640767,2.85350957503258
140,-0.9617965140069601,0.3640287153446967,0.3887070969043157,4.283758151179953,3.321464169634793,5.343165885501415
150,-0.969499116768015,0.3614676544306001,0.3828020973378495,1.7906557882947103,2.6172399207899204,1.6347494416621642
160,-0.960016637083713,0.3688469983478795,0.39395523424763634,0.3036557907981221,2.191815400370337,-0.3105435070276905
170,-0.9666634154991153,0.35785532284478044,0.3833332021088812,-1.0388946912375103,-0.1942526278080171,-1.166036414783622
180,-0.9507296249709962,0.3733599830788471,0.3930121026141691,-1.2669930933395475,-2.5295245614188104,-0.7047465041775582
190,-0.9510157683497928,0.37443508886075083,0.39829764615079566,0.9326260399413744,-0.9407586059673527,1.7778958894782029
200,-0.9786857574738578,0.34758272221021236,0.36946068727921716,0.7290692054737533,-2.2676561114572453,1.0161772777297113
210,-0.9756954123156535,0.3574667779259323,0.37239481162886334,3.1672972943325783,0.659944437479656,2.6646408497869434
220,-0.9515590336538312,0.38250531621518213,0.39979835120126783,0.1680461813827656,-2.176251733153245,0.34125544754500325
230,-0.9819142605060523,0.34922409666357923,0.3788445689293622,1.8794074880814975,-2.5380371015821055,4.796191196736987
240,-0.9728277974152271,0.3452274191752391,0.394433229932008,3.6532413675088304,-6.236821439862613,11.242681176739056
250,-0.9665505030420367,0.3235659045050221,0.39305042899464954,8.219098403365711,-10.585985733228693,21.711544997187133
260,-0.9629586169653521,0.33430349582025737,0.4018013613356966,19.01351144094037,-11.009310262867954,38.61446425820964
270,-0.9635560386812151,0.3616253366855257,0.4424912777900244,22.365180670287582,-11.601862399482346,47.89480207275646
280,-0.9439004950964365,-0.15012686602407538,0.6782208382370757,7.274199971201217,-20.29257179155623,24.420591678371572
290,-0.9645031297262608,-0.09191156574251859,0.5423394404832232,32.06536551107543,-44.40334002770828,12.373141344863715
300,-0.8778623862495221,0.4131370054341441,0.31927802943612826,62.02084674741186,-64.54306011951284,13.309797103643488
310,-0.7397701892327219,0.6218419769754898,0.33572185728561244,53.629397619891336,-56.1238828391407,15.576447269975016
320,-0.7635918279739211,0.6158282559200445,0.426362514056743,35.089161476802865,-38.802748472117344,13.37563787201725
330,-0.7369083326749261,0.5031845261518886,0.4783216406519488,32.14440755796819,-26.349726019024875,9.613879908720552
340,-0.7530638896720652,0.5073031524555147,0.4987870563484299,24.48618482778097,-16.695428858517584,-8.367654694981152
350,-0.8224583233253864,0.475350404773175,0.49071491755836416,24.200808526007393,-1.0477839390919526,-18.297058752612667
360,-0.9941978203961966,0.5545346259258579,0.5918874394279922,14.201299699553466,16.91655353435282,-24.97761643086284
370,-1.13342241291915,0.6591267492484291,0.713486530290236,1.4485764484943848,31.26081091336836,-20.770062730950077
380,-1.0303250231305643,0.42887859014296204,0.5455880425223154,0.8756569469838815,21.673283378807863,-5.456978463156421
390,-1.0054088272397155,0.26674988132645533,0.49319823613657804,8.001047546562774,19.552081558476264,-7.0935367694955795
400,-0.9508444718214449,0.3259948197612792,0.4840427384788014,17.822744685426866,13.806684172945968,-3.101125873226759
410,-0.9747927664386604,0.3732611197766557,0.42833736953478185,20.00909793948322,12.840179818329258,0.3938640164939815
420,-0.9712667966943291,0.43528982040341907,0.42447946806307985,16.70761880950447,12.015349209366216,1.1097171926554248
430,-0.9337840360045722,0.5044934272767532,0.4383442909043001,11.284913025588477,21.509595076305786,1.831349102200246
440,-0.919030928493684,0.5192401632006701,0.3570216179250186,-4.9744497648262085,25.459736228436643,-8.374383055730586
450,-0.8920218651408259,0.4289851849708497,0.17431029495569755,-1.4958868695680405,-11.054699822852431,-12.726865584527221
460,-0.9212484902693066,0.4220987083208795,0.3932460998088323,-10.496872807898175,7.017731949275127,-6.857888580429021
470,-0.9677950816993162,0.41774429227456145,0.3999727266286261,-12.815999531146263,1.6912264438418685,-3.824903259837132
480,-0.9610618064099439,0.4261714768515125,0.4076651369452467,-14.461495716803034,-0.8457611768386795,-0.43348351867822005
490,-0.9453982906042577,0.4370700956951261,0.42119542026869816,-19.760398116167188,1.5100927245736333,-2.870741428604569
500,-0.9731600309823669,0.4716934972232633,0.3464575908650812,-19.53650269161304,18.01859804945985,-7.37138389942692
510,-1.0652134354312959,0.5363259480425747,0.11697860136491647,-1.9990274527029308,62.20660806026809,-1.5773506217837716
520,-1.1147326603278576,0.36619826783742215,0.361079054151962,-21.938458790897492,54.936488033734946,1.0375033493031478
530,-1.0460714752352556,0.6793030790143774,0.1770758949149302,-9.288708030588387,43.54612175095764,16.140345469276895
540,-0.9653440076802815,0.3911296925479666,0.3452788119546318,14.776624147063409,56.004147898631025,17.163062357697537
550,-0.9971923946863644,0.10530726063765906,0.7924963841570419,-3.6210686334703492,57.26505913983285,4.286043810046374
560,-1.0238404283566618,0.16490556176658025,1.0048538516080234,-28.117320366235347,43.230900410623086,0.2896456873575343
570,-0.9445544352689055,0.33582489885665295,0.6075608992215455,1.5547254647008395,34.44904714406776,19.622873638542405
580,-1.0099967315581873,0.2756429692030505,0.6603254857736138,-25.802595607168428,14.287744219655037,-1.6038461642000708
590,-0.9544738735123145,0.10467756921236233,0.7378486413375326,-16.07209620934625,20.931654240458865,-6.012382356682026
600,-0.9675048813245671,0.2674459384889356,0.5145430597259854,-4.688892915455876,16.903623815996532,-2.2456273694487345
610,-0.9731887077481697,0.37058433265749985,0.37955076405003085,-2.403992025003901,4.574038052784697,-3.960432053393983
620,-0.9583004828468986,0.3904736273566505,0.3580259540033155,5.670250380376102,1.115128154327839,2.4103744375409843
630,-0.9689577221078656,0.3887306542492116,0.32002635141327485,10.955452259321834,-2.9227688480535723,8.898475405733727
640,-0.9562613795535524,0.4152908183731814,0.33473636264009937,11.863452619980404,-8.886833404185849,16.57566716776483
650,-1.007897038884547,0.5771342661117734,0.5737245299171966,-2.2416524587129443,-59.56393755541464,28.708043792335847
660,-0.9762622949197072,0.3508598109438149,0.4036763988211899,-6.255666350427554,-64.96022958936621,23.534122192333978
670,-1.0618519097442394,0.2260266132369615,0.3749623482378126,3.1290071524406393,-72.87739036681023,2.080225517096109
680,-1.1072348716340146,0.23435688386494236,0.34393583650988824,17.02603718441832,-78.21584379752498,-9.17310708955637
690,-0.9822313321078872,0.36885101575676804,0.3219932279534839,24.096111851947988,-76.38723822357952,-5.387019165435726
700,-0.8765759214450036,0.4712328165450845,0.34617156293221873,16.912981158004328,-73.59908563647296,-5.136459386987132
710,-0.8877355371651523,0.5174457139301348,0.3713536796356574,9.129000727181849,-65.51736896029979,-6.2525337853220915
720,-0.8712612402060551,0.5397835915665663,0.41092721707256885,1.090806616742067,-31.843316955273448,-10.612025789420475
730,-0.9062069819194839,0.5129802883667048,0.4060687635886219,-4.048851506629843,-13.409226201483927,-12.331774414402126
740,-0.9357873167597481,0.48870779130551617,0.4158757643432479,-4.042183367022906,-0.9359953730027628,-10.213704952610339
750,-0.94494248782158,0.46612930531030455,0.4146040323712348,-2.765776126966858,8.518079187215513,-7.060820454870954
760,-0.8944650761209328,0.49545360444570324,0.4324803997951713,-9.162961073949358,10.810207791714358,-9.24125479886067
770,-0.9022003897573687,0.5210132002565159,0.4414139529182023,-18.696045152057508,14.313255040503838,-9.654696384565366
780,-0.9502388045850553,0.4711169662679664,0.4379351724311149,-22.92229915812259,17.473560331742252,-3.5160862365261782
790,-1.370953643800352,0.17740050964998277,0.4995107087864086,-20.26398309161057,-0.8569648738395619,-21.659803583243804
800,-1.203945146265473,0.19672432417911986,0.4327648032580364,-6.038214747390196,-7.514692251254137,-8.970635321239516
810,-0.9306727075809025,0.35800328040185336,0.405871519106559,3.1111490969764244,-8.915062091572308,6.499542436003344
820,-0.9407022221174693,0.4130381887040758,0.44520858982503303,-1.9068206198952575,-14.6427190164089,2.6233318266956793
830,-0.9873210587961181,0.38080222980212536,0.4291849450007074,-2.1767552537597847,-12.28783244924609,2.1480922568206484
840,-0.9776264204698292,0.3869470445680481,0.40224513582150095,-0.3847500185288396,-9.085477131946437,-0.42664022949882957
850,-0.966977393973664,0.3863386266443796,0.417132943369452,1.508091737516739,-7.851879658837089,-3.0722731032529693
860,-0.9659503378411214,0.28795106741857013,0.36209911144715917,8.90428410937189,-4.17431926440584,-6.237697519377532
870,-0.9326963991546354,0.2569444595044104,0.3870099890606396,12.745644480378466,-3.6853556904347227,-9.766919788690982
880,-0.985067726543036,0.30687950354587906,0.4152202514707365,11.169184541768816,-5.794132775431418,-7.505105845633432
890,-1.0332646548033277,0.4071694931504142,0.4406703888444601,7.915923237424719,-5.027336130849526,3.3354164050178934
900,-0.9591932862834498,0.03660761644306759,0.3232148498226821,-1.2866207960514449,-3.6196886513785596,1.7366128205330136
910,-0.9347308686263562,0.3696014629562451,0.4213614993142694,28.12037276543641,10.967441800647364,2.7920994751765056
920,-0.7956042371500126,0.32017985550706013,0.09889958804050798,20.992092771542207,14.613319722216817,-7.338197412188686
930,-0.8327803904696084,0.3197052379049171,0.06293576309254117,7.541076875219691,25.202515352152982,-9.547663530722978
940,-0.9605209894804403,0.38623036125006804,0.30331690774797804,-1.8551731842736434,33.13431863544286,-8.577817976317617
950,-1.0476337761321752,0.3749528726506545,0.6221492795327197,-12.202443272105576,33.48414765565019,-10.54080789525939
960,-1.035622446369043,0.2575798581749233,0.9031266674062313,-26.594528540343397,40.9041618856744,-7.109362236192654
970,-0.9885962704777866,0.4327855421703813,0.26412680995572035,-1.1740320638757802,25.02883471410374,-1.2183663875883861
980,-0.9396800184316709,0.8557684889276681,0.044215338985706384,2.6198616064821465,35.32055559489535,13.377222884795241
990,-0.9438673182493414,0.7130018828522091,0.23634440141617014,-4.9848312393751195,29.010986018009618,7.686408266764506
1000,-1.002693562388221,0.8902141753962074,0.20653537068645217,-9.781029256426233,14.409603715729894,14.661680354248794
1010,-0.9751580808892347,1.1492971652063915,0.20768654788871058,-10.767163698072462,0.32672425697615637,21.094422797152195
1020,-1.0215494044810018,0.4686285872810921,0.4623514492994683,-10.574449529770112,-7.121662395732472,1.1788902399565757
1030,-0.9341069126944438,0.22065349538739906,0.40085947324664145,-8.660773023856795,-11.930348888113365,-0.6847895411036244
1040,-0.9731976733736457,0.47437128380940735,0.3782303008301319,-9.609684587317643,-13.704660510737629,9.128690269091377
1050,-0.9524253640963717,0.48389093722646065,0.40472596537503625,-15.173552445574042,-23.811731519435348,11.042626288222037
1060,-0.9912729777658907,0.36041136365734766,0.3512103988759681,-15.39013535974833,-12.066998062650594,-6.329252004600459
1070,-0.9834054939602468,0.3416414934848306,0.3526343596802455,-10.40405088532793,-2.757073839815039,-12.867578131728298
1080,-0.939233304089894,0.42293642229186945,0.40997709226128143,5.239126825575984,-1.6420541623815532,14.342502913502713
1090,-0.9568530935297652,0.4159774433441734,0.39062091607702115,5.727200891831464,0.4424052445854424,15.444295594989006
1100,-0.9648289831116262,0.4093020328460728,0.38708094648601343,7.150511668186225,2.783065000856096,17.270526726950163
1110,-0.9901253587596868,0.39220226666739294,0.3660810895530913,10.207711530316232,4.659929747759337,18.122759630041884
1120,-0.9804317204031935,0.3696378696160382,0.3644278165577699,10.150986649803567,1.9877246620710962,14.755551981696211
1130,-0.9589864585057936,0.3561474257960743,0.36841169333602125,16.8953722430216,4.494904736257569,17.766620051132982
1140,-0.9673686252579511,0.36454620185849024,0.3410084856907172,17.04880679341148,7.437394933244827,9.788272901684596
1150,-0.9476188987985263,0.4637129620849468,0.3520008639717928,18.707927397724326,28.233704700766978,-2.569815380298141
1160,-1.0110099309957667,0.4010821507339175,0.36765125125391424,8.083334761594969,35.535587879128435,-9.856704209888466
1170,-0.9949580484889242,0.5226008554135183,0.32413673658955483,7.540347526208427,17.046162735790993,3.2578704593319916
1180,-0.9393370933707919,0.5369593523149321,0.3681619411274556,11.059683749441579,26.45619869996115,-0.6343828198827035
1190,-0.980550562591707,0.49207203899508306,0.37281693668719296,5.24877399875076,23.46949276929893,-5.368620899454537
1200,-0.9933929433108526,0.5105560096056262,0.4089324320433577,-1.5270340528316486,28.080312199413243,-5.718505770974068
1210,-0.9616965507965849,0.5267463065799495,0.4052580764916088,-6.822057790776546,51.36068848615498,-9.993190856742048
1220,-1.0012293220722797,0.4203648282356805,0.1819450796855576,-21.87034618472997,45.35850878389416,-18.545582433257223
1230,-0.9875979823005693,0.5050341142502449,0.34904012361431247,-36.91736111625114,37.288384822100454,-22.186123836262745
1240,-0.9550305926279095,0.24632797191442168,0.5214662300019431,-30.917520075158183,28.08735168760932,-22.81079496759022
1250,-0.9943716421574242,0.34852366721563344,0.34147882529733464,-20.968041166171876,19.21843411960184,-20.56015228253441
1260,-0.9897647295535614,0.6381578276116979,0.19832009364432532,-20.14878100296017,9.707312734217904,-17.24767310563146
1270,-0.9909268985463873,0.5588356047214863,0.23433739760372602,-15.500529399103083,10.828385251852549,-6.1994702729693465
1280,-0.9193182856737545,0.06901855128745576,0.4021253433558355,-16.70897063080751,-1.9005495163482373,-12.798149072772482
1290,-0.9367976830555114,0.33054289023719186,0.07854505447211006,-5.287031215832139,-26.161075711689588,4.372518778836614
1300,-0.9472018386747992,-0.18666682921484404,0.3410308078595667,-16.546664348877762,-25.35021903141189,2.104509567721557
1310,-0.9433082028014602,0.1156028517165012,0.34986733764385114,-12.461838773681627,-14.241562260762942,-4.50464313929637
1320,-0.9934497298173802,0.36835334317927476,0.2762106921716801,-6.849209763982508,-8.735819217064165,-0.011947921503922754
1330,-0.9647520858780185,0.42972637565893107,0.31005455562593537,-6.251762950656065,-8.254644453725179,10.716486544397041
1340,-0.9601932817817127,0.38592414984930856,0.2898674750272306,-12.40051082647179,-9.805016235582144,8.280181286340156
1350,-0.9821506379890651,0.3558457556863797,0.3001309607891252,-7.987410102175177,-3.4791278633532543,-2.169693332715807
1360,-0.9744276753827585,0.384446988035301,0.2982216336525037,1.3249322353404112,-0.47943764845262293,6.442833097211079
1370,-0.9469325168701211,0.4486393374168718,0.334022977217425,2.261101873513044,-0.29627459124595085,4.1356838850921935
1380,-0.9709687407941662,0.43827957402946316,0.3119091505106559,0.8002693857469123,1.2555523068793377,0.01936922347808001
1390,-0.9616134909396067,0.438367127774667,0.3212804102503031,-3.4691455813029464,-0.7658018097878008,-5.712162820680416
1400,-0.967199083468196,0.41960932345095786,0.3193646346287391,-2.5533777679709613,-0.3514402068054514,-5.096441744920387
1410,-0.9790881053210899,0.4095315079557087,0.3089431244525961,-2.814143057000396,-1.6607033483582883,-4.376445465862873
1420,-0.9622082001283523,0.4205284606712778,0.3185352122195467,-0.7015788454166644,-1.0974024681627528,-0.8574371865241751
1430,-0.9710199259311687,0.42627875931900805,0.31299020177430753,-3.084551306677927,0.08618222689955837,-3.465759714427156
1440,-0.9765245876173275,0.4164614725748269,0.31063236535559163,-5.991683059524589,-0.9694620255795128,-6.8308921417717645
1450,-0.9673266675497382,0.4174140194430832,0.31631639097050473,-1.2748860879293793,3.781232793825587,-2.343351910051502
1460,-0.9789653278959908,0.40261628774171865,0.30062203385954944,-4.742578881933524,-0.1855082945999098,-5.2880958372626425
1470,-0.9422894983859122,0.4404801669824998,0.33950804907663307,-1.6151543708988254,2.5208533420918355,-0.7851789732495569
1480,-0.9703541629657377,0.4192237878452727,0.303331994276322,-1.9520227346814627,-0.381214601804863,-0.25946744364254326
1490,-0.9609207841545621,0.43536952946309493,0.32311247085447065,-1.9797844222028846,0.9124895499072669,-0.8286021205570185
1500,-0.9714747436270356,0.41674333356946014,0.31233713534160784,-6.323340018101062,-3.717830086174154,-8.618998951782498
1510,-0.9652501437850776,0.41458836388995346,0.3157932312845027,0.022707550111325858,1.6625354144287403,-4.190596260402534
1520,-0.9804041488424773,0.3968464521902094,0.30052827173854657,-2.095001435429283,-0.4615273889087002,-6.538379362234298
1530,-0.9505917511551899,0.42828216882340736,0.33360779920983474,-0.6369233758059687,1.620088680460972,-4.532263537549962
1540,-0.9951519214285516,0.38276449862090095,0.29187599802308634,0.49473374617043664,0.9312175535733811,-1.8410816820127054
1550,-0.9714463801750935,0.39803389281424567,0.31262083709352406,1.3560080760337136,-0.36483544730800543,0.4015022642757271
1560,-0.9680484906719881,0.40890455025596484,0.31222365118490697,-0.4719159258082062,-2.0016848108832193,-0.8310336301473294
1570,-0.9835886174493265,0.39375199387600723,0.29534519124458364,-0.9610582739514213,1.8987318604163663,-2.8251046084339033
1580,-0.9714749183692631,0.4047729698476786,0.3114318191454569,-1.0078349897968089,4.57706010643948,-2.7991352566589547
1590,-0.9754380590840307,0.4000796189947242,0.30994339099887047,-1.897942274256038,2.7892475663660754,-1.4505360483006355
1600,-0.9424561195120253,0.42919910738420863,0.334798231853075,-3.511842025855813,-0.7818525991363965,-1.0914361740611835
1610,-0.9448199905181549,0.42660506235515794,0.32582616257527497,-1.5185200767638216,-0.8057440577664108,2.4868494225625937
1620,-0.9780071000771758,0.4022795505502916,0.3002101212137563,1.2305679934153844,1.0000254097907018,4.29419476496343
1630,-0.9674745327301153,0.41821688637940085,0.31523536663314783,1.334811555645178,2.0826325627007285,1.998618723498546
1640,-0.972758300182299,0.40730485240272424,0.3094252964931685,-2.4155403748909725,-0.7289845224404334,-3.1365927286125093
1650,-0.9943910923425842,0.37537623167320483,0.286353415740149,-0.2840671225633399,1.3093262907507155,-0.6903385113375067
1660,-0.9671151116091201,0.3971858469584507,0.3123818234669038,2.1099026968730414,2.804230460578877,3.20029126563606
1670,-0.9700776598893189,0.39566493581504253,0.3011286267839966,-1.5522314541984434,-1.3550373570772303,1.3538156974045696
1680,-1.0044431218189431,0.3738579506636525,0.27798783538011756,1.3063745840398049,1.1921211406738792,5.131874135850295
1690,-0.9426677854706547,0.3944100156567369,0.30941076122618527,2.2239801421274583,3.639958034228801,4.736707955653677
1700,-0.9486196089239353,0.4133423753771228,0.3161967720448862,-1.2018495215059228,3.8361711162055143,0.10963036344692985
1710,-0.9567369152937983,0.42481574376855447,0.3217748561257774,-2.6066827154344163,1.476009840567924,-1.9038900100410248
1720,-0.9794700441933236,0.3886458787588635,0.2928080116420408,4.200953216435817,3.106104159206538,4.975528065088464
1730,-0.9918924686495021,0.38413836090744785,0.28090943513912203,3.681851204182586,0.6385987192675819,4.944489356650523
1740,-0.9677005987139264,0.4203171725576256,0.29611611879891975,3.1503917923054923,-0.8439170643324113,3.052952351774165
1750,-1.002871618978134,0.3850715045189522,0.2700183515626274,-1.0426343414037922,-0.24076246563331277,-6.219306190951357
1760,-0.9758660268722439,0.40656356698336205,0.2967250312813074,-1.8928360091357366,0.9911973845946302,-12.308506258369643
1770,-0.9711130522020747,0.40596244517378205,0.3014676164132992,-5.8973977179285715,-2.4067547008614416,-18.828418179668887
1780,-0.9595682912351575,0.40720599252185224,0.31214641382227254,0.026428426088421553,0.19824995238373022,-9.718574618036115
1790,-0.9790630376128575,0.37371892794911615,0.2889454327432399,2.631265093455207,-4.076724714512321,0.05743634319656937
1800,-0.9592243733862322,0.4032104933766003,0.3160487686983816,0.5000186146379895,-4.9736464669881215,-2.057407366532513
1810,-0.9780872632976632,0.39101254407736663,0.2974106630346373,-1.534412955297757,-1.9829002022941467,-6.154370034093782
1820,-0.9296796764708432,0.43946320200125816,0.34771496885478864,-4.614011376665275,-2.556398130531317,-11.210088874322668
1830,-0.9705398079651618,0.38668603719326056,0.3035437702808267,-2.981613493142229,-0.15166578370644204,-9.316863697107504
1840,-0.9655870942609714,0.3827278197676205,0.3070607988794862,-3.3710156212817513,-1.2731098815738595,-7.757171317158463
1850,-0.9890514275775294,0.3656112361826757,0.28696999872498563,-2.0885582118420283,-1.6108604599594465,-3.218759967763096
1860,-0.9549227691366332,0.41647178546362823,0.32258725585972914,-0.586046249506781,-1.0886686610109293,2.5651172162390967
1870,-0.9635551811293889,0.3961551982196439,0.3142272181697259,-2.942909809492535,-0.2506491071962753,-3.044191745039801
1880,-0.9417686085267264,0.4239721978657362,0.3425073106109549,-6.720894548417403,-0.5013416101479315,-5.772986396123038
1890,-0.9813596724537873,0.373305465434041,0.2957631443684233,-5.3247460430237865,1.4838485179620426,-3.176245957650845
1900,-0.9754186273294381,0.3703285772668113,0.2955332246070582,-5.999247932197848,-0.6571558324008338,-2.4945836388478124
1910,-0.9839147077810323,0.3623565795934094,0.2887135894610799,-2.827679402460099,-0.36602258842071034,1.4561828261233822
1920,-0.9764391135416737,0.37645179311565086,0.3003306131773364,2.9585732131252236,2.357185776907262,5.724117983727833
1930,-0.9552442759935822,0.41644348178201884,0.3151609277504557,-0.3907821270391223,0.055866294687703544,-3.401843862161283
1940,-0.9687821436560827,0.3938661358240364,0.30261122111533134,-1.925811643321253,-0.3765959991975283,-4.637442926501876
1950,-0.9768498930348853,0.388474993098683,0.30436187434515943,-1.7516221868897504,-0.6464682132564603,-3.2903732308810585
1960,-0.9740165723118518,0.39184112048283043,0.3107259307026668,-1.7612872376990776,-1.802374798822516,-2.000572169224318
1970,-0.9766808681264478,0.38597067800607965,0.3012190680830031,0.020615605873239073,-1.2228519326285114,0.4517482188854839
1980,-0.9650835644077241,0.39478789980490997,0.30477089039297667,1.662788669777237,-0.5683027011098698,1.9366524499120574
1990,-0.9410163617048958,0.4201960705587765,0.33606371218622233,2.0114309488429813,-0.6702101205063562,1.84012150992073
2000,-0.983729717606438,0.37822188288691644,0.29076365840098495,-0.8349614963047188,1.642359217416137,-1.8777791154689072
2010,-0.9682915287059309,0.3892587880242499,0.30239659453900936,-0.31721091616373265,2.4128190350850645,-1.1609492646178687
2020,-0.975608715367614,0.37971261884184687,0.28991190647572507,-0.8326660087878808,0.6449660466204388,-1.4280394327863999
2030,-0.9589673837381075,0.39641590109774355,0.3094729734325848,1.9121412059972214,2.5763312577737643,2.0642887503855754
2040,-0.973522967884102,0.38276682821971847,0.30056209439779114,-1.3652475031312103,-1.126627917052292,-0.20584428344936256
2050,-0.9756573841428092,0.3802853579459246,0.29431850093289186,-0.21564021692164148,-0.853108177679968,1.4952627224740842
2060,-0.9535251546445999,0.39717818260082366,0.3138723907743038,2.9436174308667025,2.7794823650425853,5.151110266612097
2070,-0.9757163760599287,0.38612249153375783,0.2947605043277333,1.8425100146765616,1.246276714030556,1.9544669938211245
2080,-0.9753685633651502,0.3892509935107267,0.3005557657981449,-2.976969197806218,-3.146835004040699,-2.3443136316708917
2090,-0.9578132793810683,0.40406966585896015,0.319872786361552,-3.243213093893371,-2.9537332734254322,-1.256342547448835
2100,-0.9928260445415158,0.36573722003260967,0.2832250984177887,-1.9592989222389008,-1.730275985444588,1.1968472411607285
2110,-0.9881839859447447,0.3716592302260379,0.2881984968399618,-1.5328888265797929,-1.6691477564766597,1.9625899677704388
2120,-0.9520520165912455,0.41656289976431304,0.3324677441705942,-0.2070853703475859,-0.01992489273183584,1.9336787159282574
2130,-0.982043289452408,0.3787805805455077,0.28739841149636147,1.9745169694029894,1.406618600041257,0.4720089028789932
2140,-0.9705080361693551,0.38912534720280606,0.2969337251705741,0.4854873669924742,2.2606075849102254,-1.2674975870751304
2150,-0.9610223807632631,0.3924611662233271,0.3071059739301856,0.9690122812999302,2.4512948941735653,-0.20788880318856506
2160,-0.9555274363298449,0.3956267175513239,0.31818467396604977,-1.3393022059960609,-1.1782547331183024,-1.224750164577434
2170,-0.9709829778030394,0.3854357543525002,0.3101503201624724,-0.07268406678893649,-0.8691479469507912,1.5662792148663116
2180,-0.965022346133108,0.3994397079983976,0.3178244624540288,1.7713756551358384,-0.05962305909937071,3.995341822960028
2190,-0.9595389797767188,0.4182214865855756,0.3278661781873127,2.801055002150386,0.42084245044286106,4.417465173805125
2200,-0.9646375629829743,0.40727715771474443,0.3161741795732549,-0.5761332820714548,-0.6389664188675317,-0.9615561122710157
2210,-0.9817016065317097,0.3721481321112584,0.28721359470775093,0.6837046784458688,1.2721642509005509,-0.5016628411728812
2220,-0.9892430588514063,0.35771142184538357,0.27258876973920865,0.11573809098682708,-0.37552417326941445,-0.3873956749769364
2230,-0.9523691489491123,0.3965500840658274,0.3110861201038941,-0.043649125214183515,-2.1381769010210374,0.5067815106703892
2240,-0.9711671918461555,0.38022951962879525,0.29979096939619093,1.808984265332255,-1.1440405210500812,2.5103748328929294
2250,-0.9593943249939609,0.40709254161547154,0.3171568150692119,2.7103352927501563,-0.0846240540690133,2.5570675471759183
2260,-0.9541134688469282,0.415188949411713,0.32238363127473746,-2.004284453376313,-1.1290169437554733,-4.715383317751265
2270,-0.9637694704034966,0.3930267025372999,0.31094023396823234,0.07383830182522172,2.9094246675629982,-3.2153412405596544
2280,-0.9795904129880888,0.3693843837333346,0.2899813966820064,1.561363572330623,3.512279309810171,1.4282019116315703
2290,-0.9230539832225353,0.42892006217840833,0.34558292602372603,1.8232554291756942,1.4845824326209525,3.674516247776012
2300,-0.9852706491761387,0.3768266552620706,0.28720913109566304,2.6480226377446208,0.35637616801388006,2.886825720848327
2310,-0.9917434087980295,0.37841621817561316,0.28078038552344964,5.760050889586481,2.7598872786415063,3.5393611849178432
2320,-0.9662121623171854,0.40543828794012465,0.30918432882869584,4.210178464414054,2.0029342843348,-0.7492111610245376
2330,-0.9858805383880067,0.38120796889885955,0.29708444154146946,2.133448704068922,0.3535255951189168,-3.6062989901836455
2340,-0.9245044943495934,0.43666139002276655,0.3549667769222488,0.38762638064021804,-1.5538732841826877,-5.204068700304541
2350,-0.9881256502515484,0.36686084581019573,0.2820434429515096,-3.510760252455488,-4.617308803556779,-6.5916632708040765
2360,-0.9665933859224478,0.384427735142941,0.29425927302908544,-0.46024607481764057,0.08292406276513475,-1.1883518907536992
2370,-0.9739634294234627,0.37714572356438547,0.2831853523319061,-1.5380967502746317,0.5368059073363156,-2.9820997373463203
2380,-0.9823982184147257,0.37018886729428274,0.28553738166851383,-1.0564607694295431,3.2065847295600696,-2.719790653521403
