time_ms,ax,ay,az,gx,gy,gz
0,-0.537586191639964,0.4216803862541236,0.7204072947749287,1.6486610577009906,1.9566699411120263,1.8681516358855705
10,-0.5242556108992589,0.4275494266881604,0.7355150119360832,1.3483720023200612,3.320649684923188,2.248661020765761
20,-0.5490955395205586,0.40829894964552277,0.7136662119028115,-2.5278316105181298,-1.180289193137705,-2.192414955912891
30,-0.5031168602167999,0.44968190364869554,0.7531959125455918,-2.4758995976669165,-1.495233247131653,-1.9893889624166534
40,-0.5217490318771871,0.43262794613825417,0.7379941948610078,0.45533995054306436,0.4736799255108582,0.8687896569120568
50,-0.5211821508397102,0.43771402514963276,0.7455534696766012,1.0656668571066623,0.5621527994504889,1.4111821043193908
60,-0.5248427028231233,0.43822501718798285,0.7435052302174061,2.5519782379168197,2.1237312612930284,3.097229705910121
70,-0.531190345766366,0.4330177450601408,0.734690522267931,0.39494536780563083,0.41742084756114906,1.0606396124992712
80,-0.537519005192586,0.4220948245907843,0.726382888061718,1.2450350078860963,1.8945365445819817,1.6653744252197935
90,-0.5407395244983231,0.415339323261715,0.7220495051224931,-0.8957910476877504,-0.6249844515036633,-0.7550544410820774
100,-0.5247631171510773,0.43132422185510205,0.7379760947649583,0.7304157026245013,0.16653502446530477,0.7077771755139993
110,-0.520033497247033,0.4344922211968835,0.737698833789571,-0.600627077535797,-1.455830565151769,-0.8816406197415845
120,-0.514193744297489,0.4412778558660806,0.7436831887587585,-0.724271807646897,-0.7128081931383454,-0.6730208029775179
130,-0.5176549513691886,0.444746111189023,0.7434950590064612,2.2560544034688066,3.3413429829081647,2.808580510597124
140,-0.518584782263999,0.4362572377290437,0.740298880061542,0.9988162803315803,0.5957525560778684,0.49679353458022535
150,-0.5035734146700196,0.4504546409430473,0.7549639267360583,1.0211124779037655,0.2440375122974932,0.2992538060881122
160,-0.5452698946448248,0.41352956619404924,0.7170341688880646,0.8867660999370967,0.5470452822345198,0.7705953563333049
170,-0.5415306015642951,0.4191486572911263,0.7225309041214695,-0.1187668752834792,0.33761375739816835,0.46204709338214744
180,-0.505809425319948,0.4525841391553205,0.7564693733097362,-3.0564739585303826,-1.3609992813345415,-1.8561725299254528
190,-0.5268162760084845,0.42860423750898213,0.7358691198114772,-2.4386479253982456,-0.2289785631497731,-1.1034007298682609
200,-0.5284247089401067,0.42841884575122235,0.7348349947218955,-2.1850901957210915,-0.5522244206875758,-1.6966940071990602
210,-0.5378756657569517,0.41807938475809725,0.7225454270318986,1.0349182959378243,1.8022450182899663,1.50836518029191
220,-0.5259830611944565,0.424488683785766,0.7357486286708249,-0.4257974636656406,0.13261390341102608,-0.12067907294488156
230,-0.5293971503400315,0.4259555795299998,0.7360988206265002,-0.3532407655676431,0.40435796350559683,-0.32081173941905594
240,-0.5150238910565649,0.44519114147091204,0.7468541371915941,1.3942831495692836,2.471476735776685,1.1117529478101227
250,-0.5009438375907935,0.4587325300431905,0.7650025596948599,1.4890772836564194,2.6529362623182022,0.9351531604025074
260,-0.512452711180672,0.44830256924155215,0.7532999874815123,-0.9071481528106973,0.2652030162597473,-1.6278569371515452
270,-0.5320551982780246,0.4292933478240076,0.7414198744064064,1.25711344246989,1.7121269654630922,0.28301620417891005
280,-0.5465702844818985,0.4184076683833016,0.7482835922376457,3.9681939415675287,5.142408578523515,5.338765240349188
290,-0.5493235853774266,0.43124681560344885,0.773739542631156,-4.301508897067631,0.6649798689936502,3.953817414711467
300,-0.5711266863618025,0.4308559363730486,0.7974080912510636,-8.597597546685964,1.1577930867582158,8.641380170320325
310,-0.666146534470475,0.3473540075260608,0.8286641891189258,-16.988516025059365,-7.349520173720216,5.30410075212005
320,-0.86977894909075,0.17887701935878883,1.1915542750171717,10.861729439342312,-50.51711679775888,-15.667978286413247
330,-0.6671988500226546,0.32597270614530693,0.9445867202545912,41.406616458754044,-64.06393412294283,-10.104678584562475
340,-0.391787691311187,0.4637402797317671,0.7454801212691656,44.74768447467845,-49.07250269011742,-12.406932658689094
350,-0.35592565011308824,0.5391299177970085,0.6492978766479727,46.93562026828132,-33.45749142582739,5.035545769716736
360,-0.28064396739947295,0.6188952292897958,0.640763914492266,53.34516064834178,-17.46971673210999,22.284180348775045
370,-0.21838976126204449,0.6711646221103178,0.5408689995235856,56.08195657984149,3.42401767436739,41.65321499901911
380,-0.13132482550669936,0.7628269288926781,0.46946387842611176,48.93104808166431,36.96985332940465,66.72301848364502
390,-0.14589619167441695,0.7581569550329277,0.5677518387836766,23.419265306734538,69.06287336310585,84.43866962378941
400,-0.40420989638713994,0.5507288553822134,0.7639962876044186,-15.268823963499703,61.72362904137177,63.106767058792045
410,-0.6112464218480208,0.4342388710560185,0.8555133358690706,-33.87709135132572,5.535147593230042,-7.426472405806154
420,-0.4973715063237131,0.46519942316812185,0.8049404876502638,-8.272378506422083,-2.1400554735322297,-1.6974231164237163
430,-0.4731834679720161,0.45203787341353757,0.7445634424203363,4.575457900070793,-3.848553223079665,-1.2124799144498406
440,-0.44715787621233255,0.5192872161724397,0.7677294349018188,0.6996147931684424,-3.7929023932856083,-5.455554860244919
450,-0.48152488188095366,0.5252677425226856,0.7977320561878704,-9.803350701101852,-11.69622409176198,-13.375193266513858
460,-0.5091944016338633,0.5488112794542659,0.809038316384766,-9.114539000842663,-13.773229844997033,-12.648179813072252
470,-0.4975933210466553,0.4879504517949468,0.7652311465205902,-16.65331568676842,-8.916836151926029,-14.82215204171113
480,-0.5034827365175444,0.4296266918365373,0.7677722606462516,-30.88148478141628,-9.028122627263242,-22.816217101713356
490,-0.524648508656262,0.4506455450842547,0.793763140381845,-38.24916187918364,-18.819239950673698,-30.889676979343665
500,-0.5895150244980173,0.4461389984740294,0.6979781729739657,-30.435643057002096,-23.006727865331392,-31.238389671520608
510,-0.5681873897621376,0.48029931044214536,0.6799820350793554,-20.597764968860538,-13.986181486652995,-24.986560692487316
520,-0.5586045829730479,0.4345253345785608,0.7227465698290071,-29.643951486579045,-7.770712161221837,-13.593747619247129
530,-0.5579200742048261,0.4611916318558823,0.7145593187648027,-57.74702616378704,-5.277324977724506,-14.161567342479223
540,-0.3836766640527429,0.4787502804116032,1.4091725367882357,20.85659063789936,28.183029391631557,6.646415247056889
550,-0.4435752339486013,0.5657914977171703,0.9138711299177357,31.020104332253904,38.93077866523119,8.918534461609458
560,-0.48581676854617345,0.5852709963865008,0.7912811320745102,14.489361874680853,28.6700641727548,6.359129175842127
570,-0.4457639866373688,0.4193199743772649,0.8617617853659201,2.481034100994863,28.100320495178558,7.94913512548667
580,-0.35595308050634195,0.38525660912773885,1.0197438538674564,4.863084274201139,27.240776015480193,8.276801673075198
590,-0.39148974771456013,0.4237215092329665,0.9151249743918766,2.96649847260877,19.119310139928494,4.248118719704373
600,-0.4991593839301496,0.4146068202292922,0.7220580872915179,9.812038128958326,15.152271588023972,8.584956745610274
610,-0.48731774062971633,0.4311613206004713,0.8156211442660577,21.284295291901536,6.482741335433369,10.807891702772535
620,-0.49408960090481285,0.4038005621071396,0.8475880587565889,20.338510323085448,-1.363208635912666,11.432040416223472
630,-0.49316376034626397,0.3714381442668464,0.8417543815658575,20.38491346426383,-12.829091308856958,11.290422309131406
640,-0.46908751868894116,0.4389039365993977,0.7885911228365173,19.27500271030998,-23.175048252929084,8.745145296445479
650,-0.46420667972354696,0.47162186313001164,0.8096074621700717,24.045514877500636,-32.11833084556307,5.6398596186138175
660,-0.45912467087844244,0.500607753971471,0.7492273252675389,23.65582582486548,-29.471461200931063,7.517850665817516
670,-0.47817669081112435,0.4603371819050843,0.744697904448628,1.9673719907781528,-19.64588033297892,-7.1352969302684865
680,-0.5022310465648011,0.4878595548217916,0.8257480918547905,-2.6374244028208955,-16.349155102511205,-13.49542521701487
690,-0.5307362307013906,0.4681563902329827,0.8474957469763433,-6.526983278482635,-21.482690246796665,-14.615934000081324
700,-0.5685062433421583,0.42977491246696553,0.7677980148682441,-5.585195640524548,-21.568359053336337,-14.012496233203438
710,-0.5617092208006712,0.37648146882283834,0.7545573189383957,-1.134997253048348,-17.843690737335823,-16.716247349909004
720,-0.49458196192108805,0.25226221016171746,0.8215476926232951,-3.8240349435932846,-14.501479962507737,-17.767722742395964
730,-0.3308148573419138,0.42693132916356874,0.8623375851825608,-7.750722914983421,-14.136667213396763,-18.213932084963734
740,-0.6316840633041096,0.44971562871155213,0.7358301943020241,20.07788097182634,0.016853849841461994,-18.577545385538503
750,-0.5162940587728712,0.4313859437110587,0.7197529400351477,1.2026925009516465,-0.05945113977605443,-20.916579249802158
760,-0.5675710101095218,0.47089544370262776,0.6615190876544519,-4.55357380315498,10.24550248825322,-17.236340025064823
770,-0.5616631420750473,0.31826904017207946,0.670216187916299,-17.995713358337742,3.0195355615486825,-17.387096805978203
780,-0.5928335589797344,0.42217636535654196,0.6689567098871171,-25.483929017635838,8.099042628822135,-10.498188636648889
790,-0.5963153294279532,0.6507869810876796,0.6116157080120797,-17.559101328587857,11.8181754082226,-0.23913786421915484
800,-0.4681196637812037,0.6883958917198827,0.76231457912956,-0.392064635683093,13.302667676655854,3.0823210379585078
810,-0.4145519753827975,0.5597030975461678,0.8687547389632393,11.304035214467223,11.947970932818746,2.5538089879625696
820,-0.5144717860961314,0.44487227163475546,0.7400381357242566,9.891017860509697,6.5551156902526575,4.802885323155812
830,-0.4322863772339739,0.45553091390960543,0.822501353963909,1.7672280705471088,3.6049883452271234,7.514680812487244
840,-0.469841154970941,0.39024006129739774,0.8288606279415158,-3.179710887840021,2.848844588968628,6.761739616913481
850,-0.47975716826122805,0.3428213128064921,0.7821498244633934,11.892917563586424,4.758449980953271,-1.562418116327537
860,-0.444526776242246,0.44850549740689866,0.809098041298822,10.481017835952999,-0.13257107434113213,1.317340239829808
870,-0.49893813970029166,0.34885285098747093,0.7666209038450968,1.3076535368545859,1.2362057497859853,-1.6929069434013195
880,-0.5020632958466211,0.3911598393520615,0.7723569968199718,4.7291565720869775,2.521534104252876,2.224674928976333
890,-0.5190059014850291,0.3899745956013667,0.7479285676375548,5.474777513407423,1.052420957763856,3.4822609411470467
900,-0.5066884285402872,0.413214422248123,0.7608160080925016,10.457972520374673,4.533349983619303,7.92753158700406
910,-0.5221298077026622,0.40654605358509527,0.7488595503899987,6.072460987634379,-0.4023538547132164,2.601635749565954
920,-0.49182084486972283,0.4263959762144906,0.7805296326664765,7.791862389538694,0.5324527790912814,2.7839391722899833
930,-0.4715103896483173,0.39024341045691135,0.7891704919558642,7.638465810481074,1.3030884738927269,-0.9824329620831314
940,-0.5072301757439498,0.27648782938870037,0.7240080834160608,-3.424284776005216,-3.043665412857786,-13.918769663414498
950,-0.5048392861910798,0.38826334183558314,0.7693902756949298,2.178632594095704,2.605435370264031,0.5458303790195299
960,-0.5097706809999043,0.38321319277980537,0.739904237759717,-14.404194654830366,0.09346362475023284,-11.577989813693685
970,-0.4568309823558103,0.2801814749432783,0.6250507760706695,-5.1029111112088685,7.838686554997823,-21.99491828411147
980,-0.48646335645599215,0.3723737132682477,0.7492861998981841,6.861550200353171,4.078562122122112,-8.340446578995312
990,-0.502671631654206,0.5682279944186026,0.8455383813725705,-1.0193985013462485,0.2320996282458836,-4.094362875360677
1000,-0.4942154714670837,0.5243000138985672,0.8109040319004295,-13.26208419518164,10.993713869946388,-10.475607604845461
1010,-0.4103071288116911,0.506440790097033,0.971112288801438,-5.82718978244161,16.604586769748998,-16.716046568436486
1020,-0.39370941014363015,0.5236892656064736,0.996518514933877,4.060008159669846,19.54519746041639,-8.722320791011342
1030,-0.5012485483746346,0.4551615812429301,0.7714883158262914,-10.790911515558896,11.818174364830407,-6.95901289628676
1040,-0.5452394390752549,0.445027949509824,0.6962922394879871,-14.72129084821556,11.507259153336356,-7.414168764150483
1050,-0.5746256358536556,0.4670116241316462,0.5690559413419501,-16.101259278696052,16.03095840667469,-12.282495560404215
1060,-0.4287270383520589,0.5335967404672167,0.8922509626304672,-8.55104101897015,7.585112919086276,-1.1382155562046854
1070,-0.4108546692088547,0.4694808517966782,0.8965386902556574,-6.268815185769203,4.988352443875939,1.1107225108726944
1080,-0.419478954924105,0.6154725359691041,0.8241557387293255,9.387635999470032,6.218508708183948,22.798480521477906
1090,-0.45290291621402945,0.47061326215158833,0.8208751097547116,-2.966174931137867,3.7259298253166087,17.516636982165764
1100,-0.468304768699535,0.47081630663322466,0.8312673305612439,1.0446590696257256,1.05628066903985,7.584057835823656
1110,-0.4911534021691416,0.4775084122309355,0.815445961996397,5.962888368491428,-0.7711270680157067,14.761959403775606
1120,-0.5009464990417244,0.45684722396727645,0.8151082389577586,11.476663540198363,1.436496054867469,19.15089070744951
1130,-0.4957952758205927,0.42894508688980665,0.7969083283919504,11.778244957520332,0.15805106163216798,8.832351510974886
1140,-0.5177428758689616,0.3936241439360502,0.731055924810729,10.888503173982778,-0.19361820809655095,4.481467603487512
1150,-0.5372903851599005,0.4088247367807554,0.7237575429013469,6.941242538950262,-2.7981278352523598,3.6139869438617787
1160,-0.5321654779403463,0.4297149919980576,0.7418743504053522,4.673699922088484,-1.4244314601572925,4.373850531877997
1170,-0.5208103209361439,0.4334583789796999,0.7444633214784085,2.7965305340650968,0.1826260252056111,3.2115063945070252
1180,-0.5136765512612608,0.44177489869404546,0.7540820220096393,1.5413358661452168,-0.6953742567759691,0.3540436687426648
1190,-0.5055869254245438,0.43480905136641945,0.7549838421911345,-0.6672162536818917,-2.264562712236571,-1.100940073133418
1200,-0.5032591397016365,0.42084254288521067,0.7597746737710948,3.498432878175347,1.0131015325131387,2.4175628898522197
1210,-0.5055861676889314,0.41868887097846785,0.7564682981172142,2.4283620682318814,-0.6005471287334763,2.0838784964974275
1220,-0.5188498787800759,0.4126862672268492,0.7420761074277986,2.7805947858078204,-0.42800183414950665,3.715261145027436
1230,-0.49685984311539527,0.44204479016970183,0.7649105486447145,2.371592362591385,-0.7740525011523969,3.4990620779157497
1240,-0.4922981498514409,0.45397827496290366,0.7734264700083677,-0.8166169440713817,-3.224488494354754,-0.4894845971907753
1250,-0.5051850442896277,0.4426115470729064,0.763636242760452,0.7495217919061415,-0.581032102814717,0.07249980385085042
1260,-0.5027855599606073,0.4362750723269792,0.7621494720025697,0.39569905621426593,-0.6496803860984401,-0.9785922957188679
1270,-0.5372192225807444,0.40758997013359016,0.7331227097618669,0.43975134102910296,-0.17114392104010567,0.6128668096463388
1280,-0.5360944845125931,0.4104449857465952,0.737788112505261,3.6009690389681293,2.6521294858482194,3.8801263003396995
1290,-0.5319135709701559,0.40971506161979543,0.7350436679640507,1.883680303186103,1.4634179549441364,2.6649360636611004
1300,-0.5271850626172984,0.4108793209404096,0.7356163327226516,-1.380051301455278,-0.8126893047928105,0.2615630598870613
1310,-0.5258928081734895,0.4097456522000442,0.7338368531140335,-0.49330464568015975,0.020291568413634498,0.8357229184509049
1320,-0.5329935714087544,0.4016569044709077,0.7274942221891586,0.5607266838660184,0.5197540839367295,1.7079391728953646
1330,-0.4948384498084208,0.44631474892180667,0.7677911745989818,-0.2754082025212088,-0.17508298195958083,0.6550352740180206
1340,-0.5095839977725376,0.4367361254094139,0.7548312114471517,1.8772359234093856,2.369042099703373,2.7143313034197023
1350,-0.5139385886051737,0.4309001644183107,0.7502291932457731,0.06187734087310781,0.5539623491474279,0.8763059915929825
1360,-0.5163115539451492,0.42478231617044915,0.7443282332861942,-1.1339129201426106,-0.4270106330239975,-0.3846165485086623
1370,-0.4790937880344221,0.45627264471863016,0.7802800428444915,3.216523161677287,4.807174797482766,4.851295245727218
1380,-0.5102682005177648,0.43824266601826817,0.7615711552889816,-3.451643395018911,-1.7117184477680658,-0.8857132685059161
1390,-0.5445598322262458,0.40249506664038787,0.7327791037180215,-1.9050185404918967,-0.17086447020216755,0.27394536213119114
1400,-0.4994178480020324,0.44551104811303505,0.7626284008924198,0.2934076441653089,2.544772419847918,1.4353390058113433
1410,-0.5241342020205131,0.4215334593096207,0.7371593571242975,-0.8060219977223131,0.3043402796421546,-1.0528992898126008
1420,-0.49986011821679527,0.44724317863289303,0.7603066683199339,2.123021519019794,2.549645972070175,1.4239945528878106
1430,-0.5176027869570815,0.42859505989661945,0.7466968551773641,-3.4596480838923167,-2.8587803630518236,-3.5784860405265393
1440,-0.5032060500641096,0.4411862412725073,0.7669763948018785,0.46518136515601394,1.3386856610058389,1.12583688467792
1450,-0.5265694104288393,0.4174657550573038,0.7459401851912295,-1.7423186180260113,-0.822702807571832,-0.6956089091806441
1460,-0.5147576548083763,0.4298213817048972,0.7563319912343409,-1.8185023697818767,-0.6240584184745162,-0.8315290711947616
1470,-0.5084568978257027,0.4351543421032926,0.7592376303190452,1.4200262875076524,2.726991248152666,1.791538085639841
1480,-0.5079984351679346,0.4330993329491182,0.7555918892413489,-0.8238911760206853,-1.3999941896000145,-1.8312273301353938
1490,-0.5211857063292805,0.41861320021707527,0.7405821946585044,-1.3849794596169869,-2.7935498864549264,-2.8354925726319213
1500,-0.5072191611283855,0.4376720695271286,0.7544454405597846,1.6458062000473554,0.5201071129336812,0.12057997426362027
1510,-0.5001152333499965,0.44656380646545013,0.7631180413137534,1.1325830253148592,-0.2997881585775723,-0.7422741949302423
1520,-0.5164622173287047,0.4316882242332547,0.746326381440746,0.040982107713376625,-0.8242522113059185,-0.9470848546196405
1530,-0.5006134408130338,0.4436654645748182,0.7609631453907769,-1.0510748010834368,-1.2757951876011844,-0.8217599129610538
1540,-0.5091373783017622,0.43525889751763674,0.7537897657584581,-0.18854714552326096,0.28549622928014484,1.2538182247640541
1550,-0.4949043389906972,0.4529546133501886,0.7695422271133957,-0.730833722479945,0.45685391190806457,1.0713512525218634
1560,-0.5371498395255292,0.411362024051802,0.7263448760626748,1.0093760577031945,2.1344113306776773,1.9063580876151247
1570,-0.48989415797404334,0.45623965546090267,0.7736773143117236,-1.0429640216396872,-0.657173983286048,-1.5625187947310988
1580,-0.5273545272406431,0.4181870446164179,0.7404070291592708,0.9349697917786287,1.4725908794198537,-0.3402206466458745
1590,-0.5155203560884133,0.4311060129227887,0.7503731377498729,0.5790534100117553,1.460201385789261,-0.24998911521601364
1600,-0.5032827948869244,0.43725491115712767,0.7622868748476057,-0.1327173641893128,-0.307975510886605,1.0317977492200887
