time_ms,ax,ay,az,gx,gy,gz
0,-0.5379095898446776,0.45245844530089757,0.7300109886897472,3.311957847762255,4.333406898219064,3.016023925667716
10,-0.5425441634922642,0.45013045897489584,0.7278657165656623,-1.5339251616413976,0.07594927769822568,-0.9348967894415714
20,-0.5178229156269383,0.47223993149461535,0.7547808637885199,-2.355501894927492,-1.6012279180315379,-1.5974510420266406
30,-0.5051043285071262,0.48244293110705744,0.7688092144582394,0.4443135427132573,0.46191660835619663,0.9524538656485223
40,-0.5053971677837258,0.48346727214905794,0.7685499546411747,0.6785323736586145,0.8626270801896073,1.0875629688581445
50,-0.5283532866971994,0.46451477310579886,0.7457994866586494,0.923285421468987,1.9954330391218615,1.7188526661037438
60,-0.5152565527145321,0.4787781111757293,0.7592433944534087,-1.0152197640208191,0.7592816516284013,0.31410062401257943
70,-0.5486727833552864,0.43836202606798497,0.7196706872710219,-1.2615183290553125,0.06428985297243228,-0.4414224825196527
80,-0.5273268013309692,0.46139266230111076,0.7430091061478875,-0.07445056871573674,1.2074083339767347,1.095641584816277
90,-0.5209430239275576,0.4666627806712853,0.7504362291785123,-0.9181626195443864,0.26221314031421394,0.25187674160218165
100,-0.5157053441740096,0.47144156469116405,0.7555394281506508,1.0626414103293447,1.7381678198531048,2.000830893888356
110,-0.5344401218076468,0.45312484060723995,0.7376389616435638,-0.011795478027932738,0.31409393713618605,0.5188965151276324
120,-0.5354358472205942,0.4527846201762713,0.7371165480480226,-2.199586621038053,-1.8413049885347963,-2.2878189546380656
130,-0.5211397506199376,0.4671686217583857,0.749754758199199,-0.003970875614858926,0.4646876274925434,-0.9418231212955317
140,-0.5176482586517904,0.4697537277090405,0.7526156609986226,-0.7900019455672987,-0.5722946839877163,-2.5856915521510535
150,-0.5308693384816663,0.4587116792758414,0.744638720091065,2.5343235229616434,3.0288616450633326,1.1693907852684418
160,-0.5348063787795533,0.45315220310987486,0.7416709297627452,2.602688839115319,2.0411541954709502,0.7278433792179396
170,-0.5161627770383778,0.4742023318110677,0.7678501506053185,2.447517097541226,0.7391502366690028,0.7106635436857164
180,-0.5318204867855595,0.4533640699373414,0.7623812203178012,5.5479967534494445,0.3700801438638195,5.1951137021749965
190,-0.5279643192104871,0.40289603256849144,0.7949448691832199,13.566372705982726,-0.22311917749475407,10.261901850199166
200,-0.48993322452284893,0.4004367795762107,0.8867115863576294,16.578456709774088,-10.866875392575752,4.5919662116098685
210,-0.5577128963858362,0.4688984197564811,0.8612218760393989,23.32437392422624,-19.875424654438344,4.9587275193043485
220,-0.5455055760696633,0.4435337176494583,0.8082056460441877,39.72396669326084,-29.15432095620065,10.145244394120427
230,-0.5185111943111103,0.41862195894129967,0.7492416383104942,43.54637678140727,-33.09310445078091,9.683101753783317
240,-0.4648339428269497,0.4714956274806879,0.759795628801771,43.01820478299141,-33.691169158879326,7.661202660353917
250,-0.4490925443886877,0.5320941537816263,0.7388342934703994,26.476790389260184,-27.654801261027508,4.703203066675479
260,-0.41960502988615805,0.5942090604710372,0.7576620908373634,8.34637955730865,-21.221145590091545,1.751736330740946
270,-0.4461088340219131,0.5755892671716926,0.7539424405638301,4.479723891472909,-16.43593005804059,1.132966135997326
280,-0.4778997976607494,0.5662433480054532,0.7357124186818484,3.665367497766218,-13.261192847121375,-1.723041372323108
290,-0.4944543485574366,0.4948121694024057,0.6906999782461863,-17.047877386014033,-8.647175970837328,-5.716438123769484
300,-0.4601631931909947,0.5070544373136913,0.7299146684379908,-32.14192966496685,-1.7344630065018845,-12.424104099779685
310,-0.64582631341528,0.4300943585313547,0.7509919601406583,-46.48778218725532,-2.9423961456148318,-21.63626416536099
320,-0.624952061645458,0.44348081418375007,0.7417218057759313,-60.91005637111757,-4.186445995724291,-17.57052207482402
330,-0.6782734737948595,0.44239125819945807,0.5677423748846968,-50.583415813432126,7.269917868182357,-9.34346770376327
340,-0.7477890451312159,0.5332597824853822,0.5162595359647029,-16.50044102615905,26.290199271696945,-2.811632324730968
350,-0.6439973656811477,0.6922676956824588,0.7443089435489539,13.633784195029913,38.74247936542205,8.729015903380045
360,-0.5885410928534015,0.5773662527808098,0.6624240166740405,15.905123815637772,38.65553887524731,8.236238411699105
370,-0.48931378151318283,0.43004311401225886,0.5972511618884255,0.40107905257518706,49.986643634946574,-0.11890491786543089
380,-0.37169951458258077,0.32857611809263604,1.0322745172777845,-13.576318117107984,43.63980120101104,-5.9170405798711325
390,-0.42455198037174025,0.431637786030884,0.8944674763084244,-1.884105659419121,32.819022762130416,5.163331859230421
400,-0.4895245849310363,0.45087382149709776,0.6578367149689485,-2.867116172697676,16.959565804166505,4.564447288220862
410,-0.4598583226813426,0.4029699585397173,0.7136440959550404,-3.192202975570274,12.678932397903631,5.425613751831488
420,-0.4422149898110883,0.43194268316014156,0.8629759202478192,5.636191963130432,7.964367068688314,9.613741481495596
430,-0.49260886926723163,0.43009185176801634,0.8040617388126406,8.69450039329073,2.064041963766979,8.947566227184096
440,-0.5181445897674947,0.4502193526401861,0.7716320088568246,17.11436217526782,5.988827347496158,11.716270155597975
450,-0.5205171303158375,0.4624782274552718,0.7690176421801551,20.461662099165878,7.183870849179678,10.195262303804114
460,-0.5359385263753167,0.4334615855371053,0.7971621573019633,22.177620862567508,-6.063343537389473,8.19475171478651
470,-0.5123512475705928,0.4881677072301593,0.8474564272225898,28.069353475057703,-21.11345931638809,7.949772418186912
480,-0.5496845199016869,0.4874594241377834,0.7667392176409593,30.577883334845644,-29.47737795507549,6.642772593816316
490,-0.5512137468103926,0.47007479173845224,0.682723232513165,27.12760842887384,-26.65244189883509,7.2187708593707605
500,-0.5460128516664494,0.4591126860452181,0.6879366700076995,20.69960256173431,-23.22927324061049,8.363396563344281
510,-0.5192798506924671,0.47179358497784923,0.7182638072314185,11.135846719437499,-24.237828525000186,1.8978245817023192
520,-0.49461863363949776,0.5096387343934017,0.7538634541935051,10.667166537114024,-21.474016834362804,0.10528084666361415
530,-0.5001458715537399,0.5078142039673188,0.7462793609252062,3.259230477244568,-17.338021560011015,-3.4456224677683736
540,-0.5058558678855043,0.5017964841180719,0.7338467061548366,1.2156160677389747,-11.877654319938067,-2.486096001529016
550,-0.4750901514389407,0.5304498196881995,0.7631948563224693,-1.9099946934925454,-9.831584421901702,-2.5729296663995376
560,-0.5295484012286297,0.47503943764610673,0.7143341022903442,-11.009467422430605,-8.856918578010339,-6.0415886821925415
570,-0.5218494387376327,0.4887075279525111,0.7264447301503715,-19.716267746637303,-3.217063379483116,-8.985749933976246
580,-0.5219492658990176,0.48553743289541323,0.7234210701959679,-20.213640965017134,0.9701977555391839,-9.828532083765472
590,-0.515421473114386,0.5209964692520501,0.8410249518017505,-19.352043882040213,-1.2754741294931833,-9.46918488797812
600,-0.5797309690416496,0.4392225482368161,0.7767871372620815,-7.667585795270398,-7.428538840587524,-7.826327708138438
610,-0.5472081459756726,0.4704774144900454,0.7611648717397891,-5.0032987922142365,-10.842511707718645,-8.415909005361225
620,-0.5518951003596158,0.4534844739622081,0.733758861930468,-0.9085069372549166,-8.644493062421464,-5.520686730859758
630,-0.5146625596589415,0.4282330267763178,0.7882146073050551,5.387831813532525,-6.89307430920203,-4.227975319418109
640,-0.4979767489827426,0.3706320611387171,0.8108890090232864,7.5563931380724885,-3.4538749857729223,-6.359827772766494
650,-0.5194768248277443,0.45107430303476537,0.732298077948216,4.023426549059593,-3.1740406145797504,-7.169045774926417
660,-0.5301365266758895,0.30490339196773736,0.7070015754268474,3.342144546949247,-5.236346780660661,-26.65816405907633
670,-0.552046388805686,0.36630355498820505,0.6837211640269379,-0.3272999233444168,2.3434406719717176,-11.099782479398973
680,-0.5571587536316471,0.40988183894517055,0.6938948936090942,-7.124665534191941,4.56010077768751,-4.5729661750167105
690,-0.5420763910915227,0.5068662065313676,0.7794434988176269,-7.13350515652737,5.626013079102751,-8.521178655852658
700,-0.5794344823406424,0.526551963954457,0.7255269786234636,-12.153192137143655,5.766129803380017,-15.847794388582937
710,-0.6403021980394324,0.33737949260003613,0.4450514614978865,-25.01207770285655,14.144995768991782,-11.758829649162626
720,-0.5511680070261881,0.26106308875731304,0.5117962716896042,-29.414631289500644,23.64652643570903,-11.118542961795155
730,-0.5691662905792417,0.40181906969397074,0.6104854336336156,-19.200006450933344,16.55358328075231,-7.651568218715665
740,-0.5077564184683918,0.5249714409975675,0.7146545455200535,-7.736748736009143,13.593329808407493,-1.5227193172618023
750,-0.4949873397069057,0.6623165292923364,0.7941614569748688,3.5559556694449315,15.392484361683922,20.783020434784216
760,-0.5346015571355454,0.5976474220912468,0.7645126722546017,-1.517472876144864,13.234096588047441,26.093014660553393
770,-0.5576714334593231,0.37883570108509534,0.7049609298090483,-13.95287304760645,5.301425334106484,11.147612972026831
780,-0.5377858380192414,0.2618065383874415,0.7238098029650663,-9.8425379958698,2.8759143541693533,7.740052887662196
790,-0.5011421297918023,0.4509072519974033,0.8044888665046841,-4.5831398700832535,3.457257253563968,23.742596703433943
800,-0.479765722245129,0.3192215193787545,0.7927022336739845,-5.48269575025054,0.8798170100032056,3.9521820193173904
810,-0.5426242371529432,0.23926331945708262,0.7078849001711803,1.5434065713473335,-0.011209839112616304,-5.119300150346827
820,-0.5334746846739067,0.35842193947957496,0.7368407511543924,5.478243427381715,1.3425799163525105,-4.138699333845402
830,-0.508223438443492,0.4545861359797045,0.7738127439823361,7.553054648164108,2.69231562150688,0.9531829464901521
840,-0.5414698865404335,0.4338058614340482,0.7369977716317303,5.24494436782248,-0.40024675715232627,0.7159450978048492
850,-0.5051393495113853,0.47802039507497346,0.7722213973954842,7.4728829105514265,1.8373398693051017,2.5550318857475776
860,-0.5009255893886795,0.4835287581587686,0.7789782539334764,6.7931579146818155,2.563413635189855,2.0707784438781878
870,-0.5005171025110217,0.4784859966271222,0.77933733494656,9.252015183909268,2.576032504482423,1.1727271238118404
880,-0.5152412704015095,0.4505644685641058,0.7719256750672251,2.499748650352487,-1.542867183864024,-0.060534626491404175
890,-0.5219940592739727,0.4088247798299923,0.7695197406547006,2.055814885166214,-2.014361698918162,-0.44757046431053893
900,-0.4999382262563826,0.39122565115223784,0.778866852715415,2.1940103997248097,-1.3106341275632567,-3.343770005067442
910,-0.48995446895310196,0.3251800615197738,0.769816019331654,-4.522957739988991,-5.106429052196212,-14.872066499905575
920,-0.47498472580697726,0.26718823332351765,0.760617196263869,-7.57898151248576,-2.556472010856001,-20.91467797397588
930,-0.5362191629883064,0.2619251427896131,0.666994903983758,-9.85442351932275,0.5410916231944572,-19.855407384895816
940,-0.543903105484872,0.4012534649830591,0.723733929488568,3.0066661318134864,2.314441336083297,-8.67898737917047
950,-0.6074360802889983,0.35750054343449383,0.5537235773318507,-14.496692842613626,7.324404231297018,-18.023021431446637
960,-0.6351894337418794,0.48112540821341415,0.6131770505807379,-10.559939257295362,7.002288177776647,-11.91500914319229
970,-0.5765166585538896,0.48837655344678815,0.6899169783986078,-5.665063766043926,11.86160929215037,-9.328720393571041
980,-0.5560344595003275,0.44733425094447304,0.6000256453995829,-12.203835526834705,15.527604369818537,-13.737535004344524
990,-0.5838297183425901,0.49363767199666114,0.5009029440660072,-17.943004590137857,19.183779005364336,-9.592329134312815
1000,-0.6165901823539347,0.5242351783152399,0.5975578158250974,-21.66446343061944,13.006855567645415,-3.7167114604986806
1010,-0.5169258267880183,0.48467858680880177,0.7261236814783562,-21.382003672904244,7.86112694061026,-9.597242662940742
1020,-0.4918158343606918,0.45444426051263825,0.9288535428432532,-23.139726166441644,11.812813553233523,6.712872574681549
1030,-0.46947037697491995,0.3732939956679276,0.8414183414675069,-21.654047316765443,4.457188468521986,-2.9659085934789884
1040,-0.5014958338963542,0.5560691130094754,0.7608797875973012,-2.2342973612567762,3.561407668212393,7.398690767341486
1050,-0.5255769544967399,0.6288504790559334,0.7509212107006327,8.436685328553974,2.6160005223874965,19.060506477853426
1060,-0.47018113140891193,0.5234190976427895,0.8130623995525637,5.645414940913519,1.819533317030048,19.96037285389242
1070,-0.5126452110189557,0.35497615679043903,0.7435942122172298,2.4424170182685545,1.40045879472167,14.530053044437132
1080,-0.47805015273565576,0.49962251679006286,0.7380526858015128,7.56982171873771,-1.6490670214754128,16.76542361871935
1090,-0.5290104030092984,0.5269368074459629,0.7210825471706576,14.515826957882737,-2.2295598866293442,15.827229455584956
1100,-0.5525998584925993,0.4596419064799426,0.730068855674875,10.731360070567495,2.4459120983735323,8.890699092866653
1110,-0.5193008477011319,0.44940700254490984,0.7510700248016249,10.264568309732855,2.8240370228015537,9.377520381862663
1120,-0.5612028027451683,0.3741372072036802,0.6818501298690092,1.0619963555273562,-3.414794817818976,5.930786384188336
1130,-0.5426358862703319,0.4087238005280459,0.710198878615599,2.245836964484946,0.42372500996749585,9.708549509805867
1140,-0.5368295192997611,0.4675082469522791,0.758916924372788,2.9092798687911503,-2.2623171949726526,4.1464040957424695
1150,-0.5343289956769868,0.42206255922869246,0.7419957135932935,5.274819972805342,1.6021813005211585,1.0793650880106007
1160,-0.5459069956145858,0.4267555458723333,0.7352514399113557,-1.8307943460226241,-3.090493026873483,-4.137704122231119
1170,-0.529479776541517,0.4430824075306417,0.7435350854525098,2.9839401615480097,0.3333190995119039,1.1578890838148221
1180,-0.5171480130332793,0.4609973386219554,0.7537904712717445,5.595659436583947,1.7252183982235119,4.239866330400568
1190,-0.5173211514741234,0.4676815219116483,0.7536394758501951,4.857598779752018,0.49957041923282675,3.6371020832602556
1200,-0.5397716202163538,0.4509049457129697,0.7341359255828944,2.9016212812940414,-0.28264501447307494,2.23220617361424
1210,-0.5312198825594033,0.46196640220620194,0.7468580737905892,0.6705782829644336,0.16604020470422376,1.459015078703251
1220,-0.5390715946505161,0.4494956811543749,0.7358265207268634,-3.8936169379661436,-2.6580550256580926,-1.7991615355333341
1230,-0.5237015336626462,0.45779496610446924,0.7494292607605605,4.003537081990864,2.9466523963250553,5.547507888885468
1240,-0.5236582602014056,0.45896609445384584,0.7454813965192263,-0.8074951238445792,-1.3502734934117853,1.0223166822056824
1250,-0.5143502177052192,0.4696712960779046,0.7590658321184524,-2.88035443779827,-2.5587252486394005,-0.20531837477958992
1260,-0.5121187437041789,0.4730286412899642,0.7654079804768293,-0.8315992616048111,-0.12194116216019824,1.826189854522708
1270,-0.5428009806868859,0.44151397048486757,0.7339738858036103,0.44086819047472076,0.8231613332879767,2.4100625883504443
1280,-0.512283987017827,0.4698691021120929,0.76090290529737,0.22850801987904823,-0.395417056515946,1.00834437189833
1290,-0.5119850926780285,0.4699672691066973,0.7608289088293441,4.940145170556622,3.0824174750348226,3.8399339346891694
1300,-0.5252493629392526,0.45825153869173085,0.7517213136926277,2.149172038033057,0.6384525342384699,0.47547289634249634
1310,-0.5440021723445209,0.4459825285507732,0.7279770888812569,1.1360142909243058,-0.27566380426962245,-0.36675476028690124
1320,-0.5405095444964688,0.4549136221807365,0.7336875312863439,0.3878357069242613,-0.44333393265685017,-0.2940093502775163
1330,-0.5292650813917189,0.4620746282000586,0.7445062040235433,2.4279327078962245,1.749985473950562,1.737072687571401
1340,-0.5456334228913134,0.44355585096984274,0.7228649736004852,2.0738984228256934,1.5694835415815638,1.0886653201269825
1350,-0.5530990096791437,0.43940658567358526,0.712186508101603,0.32048334404204004,0.27590309687077186,-0.6242965434925717
1360,-0.5479221039977347,0.44590519305352316,0.7233204351389758,1.0072116531509123,1.4726042461479052,0.5065833108793902
1370,-0.5183004028293041,0.47678255434135464,0.7589245988888111,1.5422016254456594,2.7079246157576593,2.1174347901319672
1380,-0.5490614245844255,0.43364493023185974,0.7223860952127057,1.0537159533285554,2.154673999061042,1.8777104211683169
1390,-0.5075784270471833,0.4849627475253487,0.7687263492904679,-0.0424450168038113,1.6238816087170012,1.5824646039615367
1400,-0.5507365482776524,0.43809916965572415,0.7256921891168935,-4.044078303259172,-2.79967188622122,-2.6180611263853826
1410,-0.5469488297465871,0.4416575842067001,0.7288930165342464,-0.4820575455284878,-0.2769094312214214,0.09725674609992419
1420,-0.5398470598402692,0.4549610495323029,0.7364295813942524,3.01500123190172,2.335223852536664,2.683135629492563
1430,-0.5278314357118549,0.46646622577755376,0.747893097356132,-2.4215391457286173,-2.8397991640908247,-3.204063270213478
1440,-0.5364924844713637,0.4504602842304768,0.7397074123352423,0.2959950398503324,2.3920476325965456,0.14965357585810435
1450,-0.5311911524881983,0.45389519962431596,0.7475373301948306,-2.7538342470208264,-1.7042915173680595,-3.037554405072277
1460,-0.5504796776363208,0.43591179309123906,0.7236395945626909,-0.21933204100778914,-0.36720177075703964,-0.9764454988860894
1470,-0.531921962692425,0.4515100391288455,0.7416917190364919,3.355066244452585,2.4206375543838368,2.68047811775745
1480,-0.5141155214649167,0.4729912540424278,0.7617932050050233,1.4110065902803068,0.08710216602204535,0.7772596325929103
1490,-0.5392092335864679,0.4530791996852077,0.7358042074510204,4.056178710583685,2.5971600230871386,3.338497025820537
1500,-0.546644097681206,0.44467089553528877,0.7248504211492368,1.4292712625022252,0.32662538626837717,1.5366897701925835
1510,-0.514389122106659,0.47773658652945084,0.7618954048098967,-2.5647876149775244,-2.2548825226943774,0.4495825397659202
1520,-0.5251025609889249,0.47072495815824733,0.7501562677192474,-0.4600659337174551,0.36196468697917505,2.0752533883487776
1530,-0.5270926981793349,0.4613092029685586,0.7475033173733606,-3.471236566470271,-1.9173142185400032,-1.1706633096864199
1540,-0.5414880286117606,0.4436800051550582,0.7325156534059101,-0.7971833667839865,0.7139436154073433,0.09539314173766963
1550,-0.5422332620394356,0.4438593692095125,0.7337616141115703,0.8466176948234756,1.8222942744727386,0.7141046430079117
1560,-0.5600043341990131,0.42829491797999236,0.7153995905432166,1.8388134524020276,2.3265548054899066,1.4296023405353329
1570,-0.5059601509836014,0.48429940523317866,0.7652314190395717,2.235998137512276,2.6556285803161703,2.081157829665907
1580,-0.541957479982936,0.45101294785410245,0.7301104284890674,-1.180585608519885,-0.47787614022523345,-0.7539282006022581
1590,-0.5388201882409072,0.4572934601054447,0.7416756157713303,-0.007834718391652604,0.6813417485224327,-0.10628563700126425
1600,-0.5201808269037065,0.47221658323160315,0.7464003657077501,2.7862458452368664,2.4505127216250955,2.8509269034488094
1610,-0.5218498141762474,0.47213617316139533,0.746988483539017,-0.12140943691066053,0.7170356627096168,1.4330911701293032
1620,-0.5412735669248977,0.45469563127307233,0.7291677730686963,2.1769161735092375,3.7287416020287854,4.13869945494209
1630,-0.5216154283651901,0.4735199057663536,0.7531323288125155,-0.14160668872840176,1.6501209008332374,1.238873822784813
1640,-0.5508359048797289,0.4416328636543052,0.7273507688059399,0.48226492557864664,2.2231126444396683,1.1318535050720335
1650,-0.5110841539439798,0.4803674950381579,0.7595847121139604,-0.3278325986872083,0.6775283367095043,0.001896389687007144
1660,-0.5642836553743232,0.42794357256211224,0.7144650269586301,-0.4855643655755181,0.3994764559701328,0.8039197627678523
