time_ms,ax,ay,az,gx,gy,gz
0,-0.4192987790200113,0.7950326083692347,0.7430494315427711,1.8564827535524908,1.2093554276177156,0.7354917676212672
10,-0.42634311470496894,0.7937569150379615,0.7429245592747673,-1.026192381719289,1.890532498695605,-0.7582992225107867
20,-0.4275063404578192,0.7875333436474099,0.7415740928023002,-1.2618516636016197,0.8578053854905094,-1.7755143171360401
30,-0.4342040260739429,0.7828891497814058,0.7347515930590294,-4.008938510568288,-2.083844854583214,-4.610093856198703
40,-0.4220458865967664,0.789675698669417,0.7519774651300333,-2.811643673167578,-2.0211462532610445,-4.411436306209196
50,-0.4414027840134654,0.7738833570317246,0.7316364091685704,-0.6886981832446148,-0.6185187636306535,-2.965593286919635
60,-0.43291349831122417,0.786937612113399,0.7310027339860191,-1.5789162803967385,-1.148221988841835,-2.8505636811252595
70,-0.4196382801599653,0.7906866380044072,0.7505704192349951,-4.385251415854699,-1.8334974497092702,-1.0817872453944175
80,-0.4498444490890969,0.7630144527630437,0.7280108650532354,-0.614922182307809,-0.9878911393896997,0.48576801243440104
90,-0.4225601457692826,0.796710996626472,0.750069383101988,1.4943267874241812,0.133504216163972,1.9613755682830232
100,-0.41928183610791997,0.7977564091894779,0.7476261389590106,-0.4269504484619645,0.6678982093896029,1.709103947642027
110,-0.4294291823348286,0.7912008762825323,0.7506041834596674,-0.7982162663230485,1.7848206399052629,1.138864724017815
120,-0.4568117694163229,0.7683172212993166,0.739249224016417,1.4025060479060731,-0.19917757870077313,1.6294477356261532
130,-0.4502617374482599,0.7778050442923479,0.7596483717056276,14.249889334624266,2.179935316174214,12.018890810492938
140,-0.45974144171765235,0.7538889160220875,0.7375654090717121,18.339945463635836,1.7568622828015714,13.054700528028576
150,-0.4408452462463319,0.7372511986531887,0.8163457969678852,17.85962945372241,4.173467380150167,12.553699277210274
160,-0.46888454590503525,0.6582703138997762,0.8945642019677047,7.178465203650542,-5.804220941702544,-1.825187476125107
170,-0.5335663164506552,0.7232033202011497,0.8341814745158819,18.623451653265672,-18.46770291843525,-11.212146516002495
180,-0.44131508339062914,0.959548449147809,0.7997824399022435,33.83434306351853,-25.399439074587033,-6.9058226358983035
190,-0.3412997923376119,1.1063181818913823,0.6729768401120764,18.061181488691755,-28.712832282745843,-4.841216699312006
200,-0.29240101170124044,1.0600097034830185,0.5904744806040313,0.8101152673720126,-19.002973606386938,2.113951997147991
210,-0.2868120151589679,0.8973342824896311,0.5939759655816008,-17.59353665853528,-10.973494888091635,2.966841131819501
220,-0.28285435690330546,0.75437873636615,0.6680319729081875,-29.750258358902734,-6.226454217841558,-1.549355648288435
230,-0.3032906212500936,0.6273349218275878,0.6868457361173539,-25.25562438787919,-3.7505543335829055,-8.178219230564759
240,-0.3645203108284608,0.616941115075847,0.6849694133002979,-34.24587778832031,3.9142270274076267,-26.55870031587381
250,-0.479552395814952,0.5950218552937185,0.7079766359429513,-50.028737531200235,9.274788073283807,-40.24920257288032
260,-0.6056598696543767,0.7044110372578958,0.8418946478745872,-38.8316552436288,7.1036339814726785,-35.0671635800002
270,-0.6616166765530307,0.8187668475734018,0.8251655813052693,-19.912545111885215,2.9819529512457397,-18.82076392649592
280,-0.5710720020512958,0.7601976617732109,0.761961054493835,-12.161130749488253,1.9998915754121378,-3.1614889754673667
290,-0.47347644691509294,0.7704655028625713,0.7190152009126183,-10.959774321753372,3.427818543344107,2.6138654185683143
300,-0.492806027678048,0.6577828344124406,0.7501725968886702,-4.765796311319102,14.900101369823096,-5.052377890292242
310,-0.46239281692993567,0.6664805740779267,0.8721899383163013,23.49187362751802,20.927038270650932,-6.661193370374992
320,-0.39097665177462476,0.5988901235681807,0.973697174231159,20.627514754098478,26.578091481580834,-0.8301073310837186
330,-0.48093039513538033,0.7798850168312308,0.5576998680149438,19.597625616244,24.807531650117095,3.1927993256442404
340,-0.3908769243046342,0.7827748890734385,0.8639356976474055,-1.6195022159166625,21.395487416480602,0.6586121271975847
350,-0.3835520219964709,0.8192833731534547,0.8270245091435551,-23.21498706099803,23.45636703860265,-1.7069235586883962
360,-0.4024049977541036,0.7665159188933643,0.7709628295691361,0.19059662531985877,12.746065654114279,7.071063341692313
370,-0.47769991360177705,0.7606716595384244,0.6669290121993944,5.784266701387415,9.84408112232152,9.809644494823662
380,-0.4484121169041006,0.7203557473544184,0.7331156985295293,8.62312355568119,4.415525818194783,6.005731535409378
390,-0.4405926062600634,0.7468750171635627,0.7470566944616579,11.338916483799345,2.814378536377305,4.217848256938389
400,-0.4726531297754942,0.7234821887205385,0.7007938979893591,6.963067035675419,-1.3118462951192116,-0.8225092257950992
410,-0.436927869585752,0.761892387392519,0.7465345445198764,7.301346936875092,-0.7805196949198289,-0.9269497150224965
420,-0.4724171623816857,0.7157285617130655,0.7327637022045391,22.969864653362393,-0.29253890869113164,3.8853263587186504
430,-0.45776021032079023,0.6846803334755255,0.7826381342781408,27.203699529293402,-6.082324083815939,4.489852253624548
440,-0.4595126180954211,0.8310007054311747,0.7398994891103521,22.056916621821358,-16.433747734947616,8.231963853761748
450,-0.4284551423548129,0.7815238367910179,0.7730503968992452,11.30484745677194,-19.26148332697836,9.990312348950003
460,-0.43677578592001415,0.7593096589253648,0.7877513491542842,-3.5926068940221794,-24.523825011432848,8.176531722208548
470,-0.452762447804973,0.7548405691469372,0.8159363922132337,-7.141818482057463,-25.433176682370195,2.9597034129611193
480,-0.37338619710525806,0.8879490549766716,0.650510924803057,-28.07917782984839,-18.13585686545022,10.18484985874285
490,-0.3567534400974603,0.7766405852247267,0.7108654697879395,-22.85634029941745,-13.02088463240838,11.160609634517769
500,-0.32999304650161376,0.6976523530203712,0.7386322657788927,-11.846844922993382,-6.961118331050729,6.899913721772263
510,-0.35883410982746394,0.7214325355006304,0.6863452777677086,-24.825890291199173,-5.5267518925800125,-3.632749143800201
520,-0.4360786520195931,0.6926905902224068,0.661618945601252,-24.57767229229412,-1.0959888990594717,-7.292929237175185
530,-0.46094742879677136,0.7604567161020994,0.7951660229132983,-14.043425828833781,-6.155879828125303,-8.952353729802946
540,-0.44098316633407125,0.723140931024154,0.7759043709786684,21.427663078970113,-5.797733417973007,-2.007706172045691
550,-0.42047539178251236,0.7625968733889917,0.7059048999236451,27.665419472191882,-1.9138078926973723,2.5378766777372492
560,-0.4062626436720486,0.769622302640828,0.7246482485656419,27.02717194797348,0.4875822554136966,5.177592660201029
570,-0.4543702044429727,0.7257102429334396,0.772594838536832,25.607861243230772,1.8409824146199032,3.572818845168803
580,-0.42794524001457385,0.772450361118312,0.7938497549924033,26.742577706212128,0.2962351542280546,-1.20268082055042
590,-0.4512696759057547,0.8053685906713909,0.7221677869442815,24.309483148083707,-0.7299290074986753,-4.771169457839602
600,-0.3915578318693755,0.8048471754693147,0.771372789092897,13.274490010871553,-3.2644727772548663,-8.894827093578542
610,-0.4266115334719423,0.7881709624115648,0.7141538107749854,11.903741306961608,-6.8237443707757475,-11.22342491329547
620,-0.4210833147613604,0.8122619863516661,0.7278827889691049,8.285290698657294,-5.051034070643569,-6.97295724314326
630,-0.4301234120158936,0.7536575755181941,0.7439643978722044,0.3682789710050315,-4.291176392792036,-5.025307919362116
640,-0.450464853054501,0.7604564766056684,0.6922924031635368,10.441568657520929,-2.4419945941517205,-3.1276104366415933
650,-0.43190726420132747,0.7955612563045553,0.7360852330307982,15.510868260106308,-4.172115620423117,-7.561377470176098
660,-0.4127932607938934,0.9067188973673009,0.748789936868062,22.74449008081996,-1.6482463904810731,-7.825623943799906
670,-0.45527145546817743,0.8562272167512016,0.6882084158611663,23.281123609581424,-0.6835955645495443,-7.38206823943386
680,-0.42967123169718674,0.7495157236863733,0.7755158938811094,20.034443773166906,0.583728813125437,-7.976004084699413
690,-0.43748070352656665,0.7053323081188781,0.8128967877720571,4.464064754893721,0.7681413142120825,-9.485358746794123
700,-0.45480283726956205,0.7605164609560399,0.8081400059477265,-16.906573744326938,-0.3966291826350977,-11.338192035163912
710,-0.45627256500700547,0.6771966728221844,0.7188342680866144,19.921435985283185,0.3637892925257513,-18.982355444860023
720,-0.3958443614147747,0.9145793124450814,0.6468061499234496,43.996183977404655,1.139241808913615,-18.131509305959806
730,-0.38009669850990485,0.8493478136392731,0.7408959263478652,35.55542244924933,3.7293906395400427,-16.651539882443675
740,-0.4380118513960638,0.7392566284414298,0.7494886888717627,10.632325709391267,7.612922149311037,-6.459210344362894
750,-0.46563465184820724,0.7670342119803115,0.7415600292145731,-9.398823030811027,4.511190312914136,-3.6436724981797735
760,-0.45291690590590716,0.7689198569913506,0.7499298727571653,1.0549145784772094,9.542358971229506,-2.078624636775703
770,-0.44891447424621717,0.7871412553367632,0.7521560074403064,10.229552094227472,7.012423949676741,-0.210891805619195
780,-0.47646081325560147,0.711589287349556,0.6735523236392368,20.60421131166795,11.276124685694088,2.4461560702857454
790,-0.41959901282032064,0.7593478308758137,0.7799524077461005,13.064245361914999,5.5290243982283505,-0.04867439847991095
800,-0.4620451970152361,0.803248428394244,0.6720845117801456,1.1118309222039287,6.710018427001485,-0.8637683830301202
810,-0.45851715980050106,0.7729294245153007,0.7025454762463162,-14.996485261902468,5.775661871054035,-0.31676853784874937
820,-0.41579521465674174,0.8660175460508794,0.6886897029606596,-7.9895136299138185,12.909532597939606,4.741600984570102
830,-0.4259056911582639,0.7256740847861003,0.7489749477522256,-20.526753090067096,5.413248959604893,9.385631709854358
840,-0.4041554397340676,0.6381668436081575,0.8638959504685365,-22.680197054857967,3.2776785020879204,5.583068542742148
850,-0.463937299176285,0.6444528555427602,0.7354770381149651,-5.69803272422721,-0.5580747755300777,1.1034895705137537
860,-0.3808754538120439,0.8674141482648576,0.8017669275241457,10.087749842380068,-3.050175014657336,9.40741512406203
870,-0.427201387267057,0.8510776580759469,0.759358378498278,-6.891052434520556,-6.142198558553239,9.170741414641947
880,-0.42613697496405434,0.8929188499219669,0.7505110445873328,-0.014185953765734505,-1.8309602605410633,6.663640002561018
890,-0.4233501548374483,0.7043720215658703,0.7519019175122396,-12.04267626270815,0.7455189166947078,9.908453068787681
900,-0.45332417476138226,0.6283798020849558,0.7588455679089021,-4.710661951172503,-2.1124202563720598,0.109525955118696
910,-0.4343285844729562,0.7318372972356217,0.7658035594810181,-0.7444333264525659,-0.557156602431563,1.3791607168180864
920,-0.4242397181438955,0.7388153850701615,0.7571739832642859,-0.49190612508233256,-1.2459447870689293,1.1099662806178863
930,-0.4484982937644041,0.7261007646210375,0.7349529652459589,0.11699368638480223,-1.583657043935706,0.8725241329535138
940,-0.4370346486121492,0.7127384581803751,0.7476669755633512,6.424684125017608,0.14533262381690415,2.6384797962934976
950,-0.3760755309018265,0.7542764426739007,0.8094552048132319,11.29462789847234,-1.4268080345097685,0.2834951145220235
960,-0.43262100268334486,0.7965017978972047,0.7418762296924417,16.38951389289214,-0.8809988840466583,0.8151312169340705
970,-0.4071031841076201,0.759184250679107,0.7557297917431585,18.7916331813887,-1.244612893421746,0.760636744952587
980,-0.4346302190727672,0.8053447500544954,0.7632833635699542,22.3932585869013,-0.15118243079579718,1.0731526196648675
990,-0.44931223482155636,0.7809906677943274,0.7269256035850089,18.637046460967614,1.266324728010575,1.5751868622130387
1000,-0.4285557166168672,0.7684425441074924,0.744713981688736,8.833089140440407,-1.9787340124415687,-5.636475232488771
1010,-0.4278265196072228,0.6952640563469193,0.7612019301913129,8.601990280636224,0.7588746539004103,-11.106486839962555
1020,-0.4323651306183416,0.8258295626341371,0.7430975585248378,5.84840893555045,-0.597308900791879,-8.690111363125276
1030,-0.42677956276133716,0.8011891612268783,0.749961928523099,10.469470805166736,2.29532747589261,-4.95718360818353
1040,-0.4409204145757915,0.7260374342090286,0.7332686009249776,8.712140582573412,1.1346720830728667,-4.7039671178208
1050,-0.4606299237241014,0.7594121127992018,0.728960510175669,11.367572528637933,1.696762377273396,-1.2682892354620305
1060,-0.41824728764414487,0.7920809000001274,0.7525686751737933,16.970216550743,3.905128116132302,-2.2565446788019092
1070,-0.4098729073450624,0.7959243920856123,0.7440000892097358,8.450174535331046,4.135602119870146,-3.608969610655857
1080,-0.44685140135288565,0.7661708541860944,0.7201811472309912,-1.2670854437203023,1.8041687473658423,-5.517366794694384
1090,-0.4631425661265491,0.7234721078403215,0.7003096844041958,-5.197676062910747,1.7881236285872286,-10.482482053801125
1100,-0.45396072417247213,0.7674878061078092,0.7213569859532718,0.6946313483760549,6.365520649553725,-5.388446502842671
1110,-0.45029837245088566,0.7699646552135823,0.7263518758773343,2.5966397971966915,3.857570005593536,-4.25264558989209
1120,-0.42328712901733595,0.7989785161157745,0.7630089601307873,6.947338571390006,5.880999827271255,-4.489723219372122
1130,-0.44600592851036563,0.773170689896165,0.7573009295249147,4.098494246899229,8.840423004463222,-3.4819451802093706
1140,-0.47703462231219584,0.7797340910777709,0.7542605189005991,-0.7208788887894055,2.7669329249067736,-4.567212340051034
1150,-0.48879170518117987,0.7565570844827546,0.7642306357437324,-4.007607939585986,9.501672099628657,-1.0552356764484703
1160,-0.42580223161605124,0.7724724873035798,0.764718823683987,-5.055857279671158,7.716999105039148,-0.01602057834043924
1170,-0.39872488576104465,0.7546396852414391,0.7606472266091369,-11.92070954617601,2.552301192605111,-3.590486415038126
1180,-0.3639588760602419,0.7925446519730278,0.8771548438227438,-23.42989409995236,8.514409803946727,12.13832882976813
1190,-0.4339115212335826,0.7014575627880923,0.7962285704538677,-14.306654175676037,-3.8932868960335694,6.482346165907312
1200,-0.4195440534478551,0.839536565083488,0.751553006061488,-5.58425664661052,-2.974447428183682,7.862821546534525
1210,-0.42177818910312587,0.7682697286439663,0.7719095359486584,-24.79871692539449,-2.867088981612031,3.7052980648756626
1220,-0.46106280837937696,0.8613412542486889,0.6345051910067134,25.723588028885743,-0.3487515033459895,9.545214590311724
1230,-0.4401797718979281,0.7528157773162545,0.7697104139604214,-20.291181058203687,4.370365471282814,15.762244091720508
1240,-0.45033058122527614,0.707413975595267,0.6882539982842639,-12.697492671716224,-1.7881587902435785,6.370883155068134
1250,-0.44395485949797625,0.7839937347666548,0.730189230638034,-9.559643768009517,-1.9649491084252815,9.602046230338475
1260,-0.4531441199983115,0.7258243106454997,0.7551917891573274,-4.626256890783469,-3.961057850376376,5.729419183393275
1270,-0.446233536826852,0.7134881592907923,0.7178834166055091,-4.541255407164685,-3.9072226783071606,3.6162497643463247
1280,-0.4396650103376684,0.7150123217736061,0.7396907023247066,-0.6818359552406288,-2.358722162780002,2.041718549675855
1290,-0.4233454791098434,0.7516365875596627,0.7587409113333945,1.9909334334108575,-0.7424399411645667,5.836301430151013
1300,-0.447434144525184,0.7374340457219647,0.7335653274019733,-0.9227945598226359,-0.7005961951355846,4.853462914713308
1310,-0.41846749406035877,0.7546823880421097,0.7611672972854655,1.392792068716076,-2.03932492199038,4.676187298123106
1320,-0.42335401282729396,0.7617364410676656,0.7504046592279473,8.188975291940087,-0.09382221770778987,6.940816754312042
1330,-0.4195283696051325,0.7713383627131067,0.741559177140926,9.848129064646054,0.7957221591891828,7.261146344128484
1340,-0.46010635486658774,0.7691773225678138,0.7393712598890984,8.67600781394536,-0.8079253271306025,6.7513644257937155
1350,-0.43452197496042677,0.7857760466406172,0.7697773699148533,8.221460678613397,0.34044130287227947,8.596286525460384
1360,-0.4518298019355924,0.7513776443878136,0.7438913347360967,20.76865407261885,5.788616706081307,14.796699913336253
1370,-0.44123715778018696,0.7825095805598875,0.7149326972647863,14.900327106119466,1.7881445663206028,10.24681888876819
1380,-0.4377272580161022,0.8103485529858581,0.739592173602328,-2.3563193751978786,-3.260809854532307,4.879224580997358
1390,-0.4330336075191627,0.7606570073796899,0.7456814581346323,-9.566274240573406,-3.994145968044042,4.48449660066004
1400,-0.4215851553072184,0.7492879277186183,0.755200069137624,-2.935761072142631,-2.824796235336141,7.550640478118579
1410,-0.4617357947835587,0.7377881542735101,0.731417450421552,6.118482863325064,0.6495325279201098,11.685642323265006
1420,-0.4638869988431561,0.7639187851465533,0.7259420786681394,3.7334772040199886,-8.243693659115085,5.989606371188532
1430,-0.43109273358399425,0.768775202133878,0.7456713927203281,7.4244636652359395,-2.5431176008427414,7.149601073723904
1440,-0.41402302791522766,0.7971132554611706,0.7676537365245573,6.82621448175345,-0.05219031835169363,2.8330981835711047
1450,-0.42533650532623274,0.8028766498151905,0.7369827120963278,9.125340627271642,2.1942718418705973,3.0656008368527154
1460,-0.4436550324007871,0.7853973205348771,0.7265293044813632,-2.4963505860899824,-2.828521685232995,-1.7068961691441262
1470,-0.42557824391965043,0.793963405326819,0.7430093574137083,-4.080553671729985,-5.237510367182995,0.5139975643128876
1480,-0.4180794538395517,0.795837460248018,0.7271939933593218,-3.723634257177223,-9.426611039417596,2.8988993331007453
1490,-0.42088210490966893,0.7831401717033468,0.7453466554173402,-7.840855757631061,-13.78345122853875,0.9813274158587029
1500,-0.4233148248593881,0.7631641163602315,0.751815371724878,-2.7291722616212297,-7.722375164691571,5.785407069999239
1510,-0.4064620828925134,0.7892279427328718,0.7531498111703514,3.1683556249455482,-2.6845918980683323,8.131686134203253
1520,-0.45713635218918464,0.7665083279944347,0.7119947371952718,4.543172418455274,-2.8606338305239,5.6151717373303205
1530,-0.41447263719646704,0.8068513383846724,0.7739986714898955,1.1654848532231101,-3.2086274740417533,0.8202264501866345
1540,-0.40243383126743626,0.8053191192177576,0.7820136276117686,-2.9871387961721902,-2.07244869607631,0.4792182424067823
1550,-0.4167047205750633,0.786077159436969,0.7629097021820958,-5.368314904164558,-1.39859862190821,4.18476112909852
1560,-0.41165853703531424,0.7966887670826435,0.7459759670110939,-11.718650722904597,-5.834389763283481,4.223686978816135
1570,-0.4385929969566325,0.7673970561672545,0.7236764380985431,-8.96294734951566,-2.942136466484504,5.363786137588726
1580,-0.4132064637928164,0.7934569981422802,0.767481349586229,-10.907779165641735,-5.816318073443967,0.06070789754003897
1590,-0.41925201296533965,0.7758629883041495,0.7459051298067932,-4.380639606494479,-2.5880688300170944,1.6403122798615566
1600,-0.42337977447026065,0.782433896633363,0.7435636755021978,-9.546119057903063,-2.8147267866952257,1.1147343670831527
1610,-0.41401730243561913,0.7882723080384298,0.7644495691634487,-13.19484985137102,-3.2873566895411024,0.4174440799098675
1620,-0.42856361799397036,0.767374202505281,0.7633311355336738,-9.558785800114121,-2.3630568207596303,1.1996416538005577
1630,-0.4297635319332131,0.7576547624341632,0.7664587676054699,-4.873461833096281,-2.3861146167786136,1.541928096587271
1640,-0.3936615392955001,0.771381860155514,0.7809949069533882,4.882664739684199,-0.7572769827719272,4.1071536889852185
1650,-0.4249850807761179,0.7826756833225378,0.7669793375333871,1.1044031111008477,-0.3125265835591091,1.1130078308649325
1660,-0.4104484499032039,0.7997776917226502,0.7867168366757188,-2.074792741399478,-1.4853926681112215,-1.390930195416337
1670,-0.4285474377312684,0.7729975430649636,0.7472252572760705,0.8367537422929958,2.6004113308562617,2.3228645973802866
1680,-0.3777128996310887,0.8097832239577739,0.7940571033768155,-5.476551651677321,-2.820382143694908,-2.561697906923855
1690,-0.4009926497819594,0.762271616531205,0.7676037684054445,0.9531825176978175,-0.7485370627722392,0.3498058819595829
1700,-0.42973447219894784,0.7752197390622947,0.7282535891245316,-1.017307519593098,2.0782704039274056,2.252514240460206
1710,-0.4072449527793824,0.779354932327655,0.7716354062564275,-4.400977514338542,-1.494492959937293,0.02324076545749376
1720,-0.4236762548421019,0.7472174717387475,0.7503110157236663,2.276577062668717,0.2774140063211961,2.3654924968709476
1730,-0.4274552261741239,0.7465066629187908,0.7436739356994418,10.549355445649459,1.3027908558988033,2.235164327318756
1740,-0.4227118580065685,0.7906638486290298,0.7606732640055158,3.91345630964999,-0.2999373217267194,-1.700134070406593
1750,-0.42276725373972024,0.7861857459876539,0.7499850044924737,-4.741389825975689,-1.619940178459979,-5.450851754510128
1760,-0.42461038853878236,0.7737819955617852,0.7684779271423836,-7.713697273652205,-1.3325117335654673,-2.4448007620501175
1770,-0.4136749647439013,0.7651896729240673,0.7795087203971115,0.2230200412997803,0.15436824000496502,5.753953385032574
1780,-0.4272308250915582,0.7535402216540954,0.7657322006333316,4.990361417776594,1.8926818872709537,6.720508576066594
1790,-0.4057722925017253,0.7811519247801249,0.7797667948173789,2.4438517444052015,-3.9171860344053036,-1.5145183921129381
1800,-0.42680698970350334,0.7899821637304846,0.7482641195358343,-1.996612133471035,-1.0436920674176084,-1.7745775386833298
1810,-0.3843415245506349,0.8213771866464096,0.7820776807325539,-11.697225176073381,-1.6047534682797695,-4.647119341927209
1820,-0.3965428713436057,0.809902426493321,0.7883748492949736,-12.26078854807752,-2.4175022296459416,-4.912613743269515
1830,-0.4193390039795397,0.7637697958817584,0.7672104182267057,4.385370685345213,1.1744506413868248,0.035333470470110595
1840,-0.40274077023544774,0.7967914008156561,0.7723275367997398,-0.4790223028277413,1.031722626295454,1.2439183557420348
1850,-0.4118039170490445,0.7816805227521103,0.7673495237696792,-6.971974488122715,-0.9978852460288656,1.0132888495876882
1860,-0.4034260107828102,0.7743352152603958,0.7803546651118757,-5.00975715215152,-1.1416745188523305,2.5496265064244272
1870,-0.4212535856139825,0.7484847739990212,0.7530604677548632,-5.469463429126678,-1.4336614341187122,3.3815761358966028
1880,-0.41374059450867995,0.765412466272379,0.7607713123879978,-3.2176122984447546,-0.5316232800663074,2.9431836427426816
1890,-0.39171476124543386,0.7958461665959882,0.7896508742366729,-0.5963030199342891,0.17350781460817782,0.9020036650168974
1900,-0.4347313945450762,0.752975262830444,0.7462917804805635,-0.5331154606114477,2.060716180606014,1.9467097712486408
1910,-0.4186865797932093,0.7605437930726663,0.759284054175808,-2.0747333954748597,1.5575872890400295,0.9903529642990143
1920,-0.41571682912392893,0.7620104612367894,0.7647203193343592,-3.5222491433265644,-1.2959999417294918,-2.022296493319521
1930,-0.40067350697907095,0.7813737473917841,0.7766016022367623,-2.2162037516426736,-0.08500900994145788,-0.6983777154664605
1940,-0.42721679775653426,0.7502986177631031,0.7440038729362102,0.6448060621016478,0.14506285867155674,0.687024661627284
1950,-0.43979298327571337,0.7387133746258389,0.7406088958901189,2.863242234670336,-0.9491699717209563,0.8037940445434961
1960,-0.39518089599119244,0.7908113620933873,0.7870976323923374,2.5106323486037057,-0.17675363650290982,1.537376355611931
1970,-0.4021223953824888,0.7939014369130347,0.7762232681445167,-1.7699462329892577,-0.12257928647482988,0.869187783571124
1980,-0.4167966320201523,0.779877061592187,0.764870069473118,-5.078407825345956,-0.35851633234590013,-0.4138832966021161
1990,-0.413969501713918,0.769807057358984,0.7667702366343648,-4.600366869191528,0.12224337770489874,-0.17597373932478017
2000,-0.3936702299752136,0.7864373504449766,0.7917319396113562,-7.826209257327049,-0.6336588884419982,-2.1893422954854653
2010,-0.3974236655845816,0.7800065047259384,0.7887501203724735,-4.869301991461897,1.205334147568923,-1.1139294372383397
2020,-0.37807502481483135,0.8002329923871088,0.8062127524751672,-0.7898208035523733,1.3141788105743066,-0.014635597378425125
2030,-0.42427694679428457,0.7543129278229739,0.7585649967322087,0.06540709575172923,-0.49148258299732667,-0.8209965772647833
2040,-0.4010015980130674,0.7761229280808485,0.7831189557684897,-0.42207146768926257,0.01246825884401176,0.12255199987166865
2050,-0.4051953272522132,0.7748578905263758,0.781277917310138,0.49425342385247506,0.7012509914572445,1.080665099046636
2060,-0.3997706990886944,0.7774682437162106,0.7834137021264147,4.343929481846949,0.020145135309667994,0.10806206569468302
2070,-0.4070628407673737,0.7765334211454369,0.778627309645065,1.2141080018358759,-0.9195135188818435,-1.0402896280073055
2080,-0.41069988587854794,0.7783535759698789,0.7752681140604186,-1.169276346091034,-2.1638739158673252,-2.3939228675636053
2090,-0.4011973205623111,0.7833319310970608,0.7789848316089967,-2.6025699118503773,-0.7413104694006827,-2.0112797575959287
2100,-0.42867462527490546,0.7575648929749024,0.7549654733870368,-3.348543362441316,-0.2941304549137551,-2.410503539264801
2110,-0.4226185264765775,0.7493698406651278,0.7630731406379456,-4.8718401402115274,-0.8157181338820549,-2.963066646557542
2120,-0.4209995167853766,0.7553326597658578,0.7692512920755323,1.5464910036787425,-0.19876768432597958,0.004953748454514295
2130,-0.4094770192887337,0.7684731998711332,0.7661525141329624,3.646302248520458,0.8691160410272311,1.5345092745632736
2140,-0.3837301906733918,0.8043971529660576,0.7984968671697843,2.848043380930637,0.6602816398581369,0.9776323282183388
2150,-0.40530728366318,0.7804662303184946,0.7855637452555153,-0.22922919421247984,-0.4812099472578182,-0.39528285892480725
2160,-0.3895284376358677,0.794126294161917,0.8032713020638116,-0.7538597043717925,-0.5671848937285395,-0.7704081076919893
2170,-0.38511149219022034,0.785734654223967,0.7836651377611017,-1.5878048632589103,0.7577755579500998,0.21558974175329826
2180,-0.4077941743551106,0.7659059941599352,0.777354150114025,-3.137764526399675,-2.5849399075089243,-2.58865482370302
2190,-0.3904305073133323,0.7835559824648989,0.7823947818078454,-3.1383062568234794,-0.29069849261546366,0.08774374772646656
2200,-0.393919222668858,0.7788269387022747,0.7935916531602072,-4.719948001011076,0.6408414754989464,0.3966692370328671
2210,-0.4303664425499889,0.7488246103057771,0.7641947539661684,-2.4436526458342445,1.7085252523407137,0.8463118522955017
2220,-0.38384412317867794,0.786619589083098,0.7988539860596114,-1.871580152310783,0.30703552588730276,-0.2841086311262525
2230,-0.4089457875534937,0.7572386734415724,0.7667560920245928,-5.861164530636309,-3.587090102055606,-4.014980152561625
2240,-0.41489286304475675,0.7568787560910898,0.7716844233246444,-1.5816836688027855,-0.9985368049574349,-1.262857372343058
2250,-0.37738155558300124,0.7948802947453928,0.8047131866623414,-2.971060255539247,-1.7885173050361,-2.2174577424274498
2260,-0.3989405635985539,0.7693985638660192,0.7893666582153697,1.6139629841477576,1.094968640604437,0.34965731404980616
2270,-0.38031458284683034,0.787506491494983,0.8103326446259067,3.198204197918093,1.4318331979416437,0.687722132246103
2280,-0.4134770091841149,0.7492163720785963,0.7719218091169647,5.0303058013178745,3.3051498097166063,3.544656738256626
2290,-0.4090828653019666,0.7639149441428713,0.7788604484630384,1.6631149029332697,1.2795281753307355,0.7307960315099005
2300,-0.39621405345940486,0.7879697516449341,0.7864950310496545,-4.352231131510748,1.2418193652591445,-1.1258353713760512
2310,-0.41257099387695034,0.7607996107781768,0.7727260851423555,-4.8865508129051936,-0.8541803443111927,-3.0223655373903275
2320,-0.4322528208809931,0.7370036504515106,0.7554168828794572,-0.7730367996784535,1.4689431704704379,0.21050614946597213
2330,-0.412006657928795,0.7603469703867476,0.7791438975560601,-3.3638177916742964,-2.049802462363718,-2.385170780495629
2340,-0.4029744763612455,0.7682800279541486,0.7855145304719711,-1.512364991836603,-1.8590081767268245,-1.694249503259275
2350,-0.3959029658457071,0.7763971997989536,0.7876270336808776,2.5732436031286925,1.0930180305621475,1.1822251819266227
2360,-0.40019851510816556,0.7720965518257774,0.7827445076937695,1.9994639349431362,0.4975220271935621,0.015208557360278041
2370,-0.4019768340711231,0.7670703643199764,0.7797452349950117,3.179780186246579,2.023036321875905,1.3130061017272898
2380,-0.40546025596096374,0.7683780840447331,0.780837036446698,-0.019631289899243454,-1.0888741738848142,-1.6198899805842504
2390,-0.4061147831467196,0.7661134963779817,0.7807069086699464,1.4252428240524282,-0.5932013348991129,-0.40537801972298554
2400,-0.40124179722603787,0.7703806150095971,0.7830212645628821,2.193531513723664,1.1291118212668656,1.5977600959855138
2410,-0.41400878290789567,0.7591319425526173,0.7718975427757135,2.0403355286029283,1.4438702343694834,1.7708297052186701
2420,-0.36562483341915863,0.805528752016956,0.8171137700400607,1.4256622533782606,-0.4470100875213725,-0.5465545414104617
2430,-0.39927779008610503,0.7767161657573314,0.7894142787385682,4.7745966678815615,2.0444593960160673,2.095475506836525
2440,-0.41039528926460367,0.7688613982480662,0.7785736098058151,4.352497009582434,1.6452049362458576,2.1013865989104206
2450,-0.4008098898801428,0.777937039253081,0.7851813240417298,1.2089525080583132,0.5767896877386044,0.8175174558929652
2460,-0.42261628694338477,0.7512482012754689,0.7617695692635349,-0.7326751759305858,0.456633876719746,0.5694947123675349
2470,-0.4090552152028708,0.7616238777772143,0.7762160894304911,-0.5386162384051102,0.7109330855796014,0.3435333766071722
2480,-0.40698807512674706,0.7662226758399935,0.7770141485347075,0.47662227721013334,0.5000309677649668,-0.051036488579639466
2490,-0.40856627179949967,0.7623001708424626,0.7744919568784595,2.676398278247978,2.011940423157902,1.3809057414548522
2500,-0.3876545170030056,0.7892418754354782,0.79645840694139,-2.0786916937893145,-0.27315668194057696,-0.6235496548888975
2510,-0.423381181680996,0.7496391180652469,0.7676845995746179,-3.4553758442740525,-1.8737658554764318,-2.145530592616893
2520,-0.4093146653373588,0.7568748333305182,0.7726246649266192,-1.9783365124519725,-2.2796941440230705,-2.1197551192045503
2530,-0.39699808811799847,0.7699233712231266,0.7841536140222641,2.2642990085264336,1.8143043299416068,1.4433191603293836
2540,-0.37672297616402073,0.8015131236988885,0.8065747330821937,-0.42256035327486674,2.0054947424085316,0.6281890342663049
2550,-0.37974881741047495,0.7939801905070657,0.805115474012812,-2.8181530141538813,1.24931431288407,-0.1318468933238166
2560,-0.4476070204069397,0.7285264551729619,0.740558503112526,-2.134161896504941,0.5058604800401967,-0.6778537628391899
2570,-0.42836317935261237,0.7379670609826658,0.7596290676169213,0.11124498536523242,1.8092799166517834,1.402048220228424
2580,-0.4011165657628317,0.7566691825575904,0.7837744642388385,-1.2943477563230075,-2.1900427940529545,-1.993539141150448
2590,-0.3785193601963627,0.7954451105453608,0.7940514648200248,-5.538868672318082,-1.084774868889581,-1.2836033792975616
2600,-0.413685110354406,0.7630830862205011,0.7820794554413676,-2.5378245562223305,0.9837937305148171,0.7334684355708627
2610,-0.4080537456699724,0.7658727235939181,0.7835193925611749,-1.6941513410770013,-0.5038629096988945,-1.0507075894568545
2620,-0.38981904905001447,0.7836431231871591,0.7949295753597564,-0.41227807179867826,0.6458551790751389,-0.14694368778741929
2630,-0.41336656808729044,0.7515819865963019,0.7684364309281939,-1.5786424274851325,-0.03216193444246436,-0.9762596097301327
2640,-0.4102198090354277,0.7541451677602501,0.7789321909241746,-0.489995793133458,0.30700710879773435,-0.29608765597506825
2650,-0.39339368133992697,0.7739553638391423,0.8011968237259243,3.34957779870036,2.5607760293486312,2.9595745971533987
2660,-0.4233537820140918,0.7468136642599142,0.7595274916392301,1.146011296319213,1.2862254048176174,1.6213492788184043
2670,-0.39646824844911766,0.7643314807172615,0.7882597220084172,1.8983736434205327,2.2287456954324383,1.9055521951237213
2680,-0.4166916370357024,0.7546689292973509,0.7792486409628407,1.928297486796135,1.0969150547974764,0.9385020247531346
2690,-0.3588562516697095,0.8085919839921454,0.8274021088151566,-0.15194202096907827,-1.2582907876175784,-1.0106847980707654
2700,-0.39944852277229004,0.7695982187904077,0.7881241251685264,-0.8685252349950399,-2.1981189260883403,-1.7594947716947422
2710,-0.38910340172186836,0.7725577600148253,0.7945899322737654,1.271051241444888,1.434251863008078,1.1093024941473015
2720,-0.3928420734805008,0.77152829527469,0.7940409561120324,0.5279023218866902,1.300794722251611,1.2922308450426452
2730,-0.38899623561865915,0.7812112791826915,0.8007621208032318,-0.177873974972165,0.2564083632950689,-0.11315832355135902
2740,-0.42462226012044557,0.7434766843994032,0.7591350891471458,-0.16884925660335093,0.691991269694968,0.10300670253985172
2750,-0.4305371903196184,0.7320643640045226,0.7521462560471412,-1.5207290458236882,0.0917967283273244,-0.23436919021066116
2760,-0.3955535680517816,0.7714717810563867,0.7896334246566065,-2.015625760363128,-1.1476039734953927,-1.3467512624107298
2770,-0.40747518093369367,0.7656924474204437,0.7817529365182426,-0.5064691027089773,-0.7929101954904048,-1.2498830771385006
2780,-0.41119882703359906,0.7634222023407742,0.7812677070061157,-1.3933455523885077,-1.1987014268222362,-1.9419378105138023
2790,-0.4250895725082745,0.7406965995196885,0.7635643907694165,-0.13166765718151724,0.2786689720068587,-0.5136638612188853
2800,-0.42251280035783945,0.7379957559307195,0.7648360941926567,-2.23273420632831,-2.5999327080110457,-2.7358578536135827
2810,-0.38462706667792596,0.7772607373075769,0.7993104189259114,3.4961240884788385,2.6139208660512114,2.8379579803440556
2820,-0.39782934742914544,0.7680635766413106,0.7881536678672555,2.6574790436096722,2.6113174322949337,2.7478707380550023
2830,-0.4078511325551727,0.7630480277844277,0.7785127705764571,-2.6042370088230378,-1.0102844648361688,-1.2646232487614752
2840,-0.40990675549043,0.7615748382933936,0.7797958872107182,-2.2223784364272596,0.009295238778612602,-0.7501689950913961
2850,-0.42562228018531534,0.742073330830269,0.7645501462086846,-1.83503868862322,-0.5029095098378005,-0.9133246042004253
2860,-0.425945807326131,0.7402034928668355,0.763346692187103,0.2865772020077699,0.8620934553532994,0.973598196479833
2870,-0.4315077048042947,0.7292326144646756,0.7556359268663574,-0.994383772388778,-1.6310543382975837,-0.9274889777836975
2880,-0.4050281885965751,0.7610288603339194,0.7776824691037552,2.471494281622857,2.6645478336966515,2.7294557167606106
2890,-0.3995007048629832,0.7705755953658852,0.7929293179349671,-1.000790719369641,-0.8462324473510222,-1.5013584325460476
2900,-0.42756598912860516,0.7402337730915032,0.7630029644967586,0.9618117029065181,0.4632334048587821,0.004991514019151266
2910,-0.40217102635969515,0.7647644709277699,0.7860136684322035,0.3113776185169325,-0.016162395451881646,-0.29403137127435314
2920,-0.4121356859807996,0.7552285200169142,0.7740605640236631,-1.7121192826418372,-1.934623314279075,-1.8961945645469351
2930,-0.3890811868415312,0.7776164193167866,0.7985924223770621,-0.7374182303355125,-0.6143094631180641,-0.32056501077950184
2940,-0.41660149842926386,0.7559955164017619,0.7758242205343735,-1.8390346703665799,-0.6823094485766845,-1.385304156187667
2950,-0.41834541986070706,0.7478535446003701,0.7650199623225294,0.6988864717754635,2.147248878266881,1.6243015415524715
2960,-0.42553975080723017,0.7394664414895578,0.7662027896941572,-0.44292504196953786,0.7704508337811158,0.6740533967981177
2970,-0.40495236514483757,0.7526207015275961,0.7763914106115027,0.48963435344107253,1.0693547712889309,1.5325273910210853
2980,-0.39977252979101213,0.7670842441343012,0.7867360897653058,-0.8215489364978373,-0.5997983253375013,-0.6109400319595385
2990,-0.42199671077622797,0.7405930668607499,0.762824188803209,3.105199597460544,3.411316291311046,3.260116710050633
3000,-0.40315125546883046,0.7585581433980314,0.7826622141909553,0.7299082623961338,0.6152167795673363,0.9806290682485739
