time_ms,ax,ay,az,gx,gy,gz
0,-0.7395453666209294,1.0054898153113097,0.8159993350658147,0.8208992692539869,-0.9738614853782273,0.26528499640965375
10,-0.7472362916362782,1.0001638332400484,0.8131935676235343,3.901584608880807,2.035857978482781,3.1558498242401636
20,-0.7519500560329643,1.0014531270492548,0.8076174368918405,5.762725833487001,3.032593586689733,4.814649183619636
30,-0.7243509640908395,1.0270659071465305,0.8290254006047533,-0.3023507702832635,2.248310925478826,3.1934761974965653
40,-0.7273664717702243,1.0286322780565655,0.834606249081224,-3.247480066937235,-2.7230232759846658,-3.2836766709634064
50,-0.7274324929136519,1.0175356914337352,0.8260900079458005,-3.651616582054679,-0.441308980900433,-1.9316886894927936
60,-0.7306654849211464,1.024240653202988,0.8377822401655386,-2.038047813892755,0.5565530974294277,-0.6877171931371493
70,-0.7510642930340652,0.9865099478770284,0.8061736035364159,-3.2290396256339524,-0.5972136248867198,-1.1978218363050985
80,-0.7411766895409687,1.0008777751426918,0.8235357322231535,-4.795770436015484,-2.136280883084846,-2.032639081410964
90,-0.739904534034196,1.0125074616913707,0.8277245232273295,-2.1653955262528424,-0.6373341974553776,-0.43407631831569904
100,-0.7616139477260914,0.9924183570829501,0.8167189976775158,0.43327064733767184,0.4400973443457088,1.6366530837234414
110,-0.7764810792947342,0.9817647692184196,0.8250721155041846,5.260790948835797,-0.060162357096317565,4.5519940190552015
120,-0.798586335259358,0.9959960566961376,0.8583606822051085,17.17273961147905,0.5488667794178677,13.087772169779917
130,-0.8201713071512405,0.9882515356447112,0.8747553016942783,25.16235074580379,-2.7029042471367912,19.483810263734075
140,-0.8212553130077082,0.9036590137553908,0.9301026347105349,16.81787978050556,-12.610997596989355,16.318345600996707
150,-0.7786070848112133,0.8609317253650048,0.9464085176414323,-3.6938437171280505,-28.633588172550713,-1.8641309779491495
160,-0.5998519640135652,1.0401554901134935,0.9094590817763699,-10.168741464877401,-45.142365117518835,-22.239207238329758
170,-0.5001012585234711,1.0597916988799387,0.7850734285299508,-13.180207936565811,-44.17302678593342,-24.251075597088352
180,-0.46985639043388255,1.0913945187082663,0.7245287234466604,-11.679126896871725,-27.129385704808204,-19.61907276032104
190,-0.5038475784573334,1.107143504950063,0.7275179506132086,-12.60164195622681,-10.024191401947075,-13.207049520660831
200,-0.5713049323048718,1.1200980690029079,0.7605689109490051,-19.698117995152803,-1.9932340087895337,-9.243422945256048
210,-0.7683006266775702,1.0833158137117829,0.8491696216130662,-25.817115284284995,5.439366868046229,-4.409502869074976
220,-0.9426685754724817,0.9932295005937508,0.8501206638519234,-22.746134514629833,4.1602750081876305,-6.720525245013986
230,-0.8672484306216562,0.9372502038922937,0.76364968156895,-16.494334827450704,4.681129948266292,-4.253787748548396
240,-0.8636627114820785,1.012045960603669,0.5649735092283991,-9.445038506208087,16.27181952855439,-1.5893951990464905
250,-0.9219724216697632,1.0367887308380845,0.3421972993790711,9.831457302440175,26.613521802622667,1.9026757148562863
260,-0.8625407925589998,0.8677875266288372,0.3216885147350433,15.533307677764695,35.04919225759446,0.23509446538250267
270,-0.6964952526478322,0.8177219649529762,0.9144509262253436,16.878960609739984,40.35799132606668,-0.8448725774692345
280,-0.6032613756061463,0.9338082585771516,1.2760258538329774,13.896665564903659,31.310616494061126,0.6872388256370989
290,-0.5929712479372969,1.0371080904361751,1.0997164128717825,15.595669938337004,22.888582322549972,2.313389264636986
300,-0.7149857747488497,1.01007428834553,0.9136109243782341,8.256885643600642,12.303813136544216,-0.8383711853330151
310,-0.743435633403334,0.9688454534776794,0.9031432890402865,10.100144589151755,5.194004746492015,1.2146650072705472
320,-0.773753920883352,0.9374291186952887,0.8554236256713791,23.726729029021765,3.0657936035592765,8.08473148135664
330,-0.7727896538224218,0.9305755110650461,1.1443899436673775,35.66226719884029,-17.48474050249553,15.680083970013305
340,-0.7704218545820567,0.9382476520531632,0.998225278830232,22.535622940677495,-36.204951653274456,5.609152289520502
350,-0.7564467049508129,1.082598358664272,0.846171795991801,6.8169221258926935,-37.350433858614444,5.097614374071709
360,-0.6750849043110246,1.1324860677265025,0.8453409767617343,-0.29834791101379965,-34.018969899979346,13.351533193955124
370,-0.5949551375704033,1.0896147720282288,0.7946961611987956,-6.6947498670657835,-29.682891650554986,15.325241086342213
380,-0.5598652542220754,1.1072918750298122,0.7228271283735758,-12.371584356307098,-17.401265228300012,15.744239043889582
390,-0.6861541564150323,1.0427144478841446,0.8294560947360455,-29.137069619781172,-4.366333889274679,-0.9445902793614989
400,-0.8218929226892013,0.9643343401596088,0.7901758421086947,-34.2348028279924,-5.8697414318623204,-16.321603564022617
410,-0.8098331488288493,0.9480421511510234,0.8561764890680654,-21.19007452691409,-9.896777599303594,-13.005049764322298
420,-0.7924604955451906,0.9264338147471389,0.781805359500824,-10.375821486901025,-10.177055312891952,-6.567008195246685
430,-0.7320055923431256,0.886132867388916,0.6575907235162494,-13.693603902098822,-13.02457286374327,-9.061037943028007
440,-0.7927504992559457,0.9890370254232357,0.793332120488377,-6.563798486206782,-5.301159135408524,3.44704535592466
450,-0.7950008766691122,0.9320693490048245,0.859088014614342,3.005629582248614,-1.7598971507785504,-19.162181715710716
460,-0.7658569000519606,1.0070684055089214,0.8559897874590493,-17.53273957260008,-1.0400469316203096,-17.705644904840405
470,-0.82414945592346,0.8325425112147709,0.7737292591342403,-23.220812073065453,1.7684019576173355,-43.67899458885398
480,-0.6424533581350836,1.4533763359599856,1.0111064112902528,45.69268812564151,8.22322513712711,-3.866039604783422
490,-0.7628651319137275,1.0053648864936762,0.7041764449155181,-9.943408566055309,7.730761058341422,-14.729024350147634
500,-0.8573367056844675,0.9473740402850919,0.5822882236574944,-50.01708245576947,6.7681966024092235,-27.26541669710411
510,-0.7175337668100469,1.067787847430151,0.9351165064131853,-31.221252330246422,1.5299441260029916,-7.084182759861163
520,-0.7456110690726943,0.9321927216145788,1.026224432585678,-27.20598714302033,8.737242116221005,5.733617906413547
530,-0.7038688135095622,1.2700920005472354,0.7560360268930201,-8.555131687921033,17.155545177953883,26.51366116880982
540,-0.5180458449928826,1.7741107969240986,0.3764379987288071,37.61657828552916,23.400173893904924,65.35729044718914
550,-0.6113599265158819,1.3174682509291715,0.7347373709462148,13.378181422114794,8.153913855086657,48.75087851130404
560,-0.8155263509286916,0.86750025588135,0.7185920897112772,-12.831902263594325,5.724236047129678,19.394775289139904
570,-0.6976701522011745,0.99317806461893,0.8912461276031767,38.731575896534714,5.345997661447078,15.251079585302083
580,-0.7494914766759212,0.9310821852684605,0.8688297973686118,41.88336545905775,2.737693271450265,13.795694782801574
590,-0.7206808164613681,0.9187720854810775,0.9090876726199205,42.66524454032927,3.310488304644633,11.820866159929352
600,-0.7815568443835749,0.8595050260554615,0.8730108096087832,30.92035464492913,1.0634285063883089,2.5240124389832053
610,-0.812672029563223,0.8154298870901592,0.8734343975845391,2.060072886324756,-4.536486057974026,-11.835110410041606
620,-0.807575736604666,0.9269114546204754,0.8345657973204825,-0.4229550679248092,-2.1992171658937494,-12.4509428093391
630,-0.8408282520773979,1.1344502855776213,0.7654462122914371,34.244918838459,7.073545589459388,-13.15186809958152
640,-0.8119725436188894,1.252379036152641,0.7066221197924499,-6.684769755514042,8.993105813133566,-20.621089116252346
650,-0.7818777427267692,1.035411577582718,0.7335496764547544,-18.735398387976232,15.233065223825028,-16.49619078446698
660,-0.6378981056036568,1.0743637018766028,1.114561338060314,-1.8624694854791999,15.211678351203274,-14.855032581437936
670,-0.7805427574223192,0.9885957803758222,0.6230300111680634,-28.42639161312605,16.493338302493115,-14.98575880287856
680,-0.8108258130856391,0.9692972494658775,0.4749077977447575,-14.696521557138606,21.180988817196983,6.128838659561677
690,-0.7390429393730683,0.755120756570369,0.9904840882671839,17.77538699125095,22.957516562096146,26.744034561442497
700,-0.699592316645873,0.8497617436916601,1.0312202381783409,-2.844921908095076,12.145157087052233,20.179308002811055
710,-0.7681327374699957,0.8344138589836496,0.8949775584387268,-17.788803772747965,4.938463141663996,13.317779302910868
720,-0.7352433256693387,0.8747513527037419,0.9119528273274922,-2.7604841763624917,-5.12776933414425,6.984820466718254
730,-0.7075416744277546,1.0412958464423958,0.8539853828275658,29.244172497910398,-3.300931330448513,4.60434832907824
740,-0.7665479795879591,1.0081215403425343,0.7932644504018572,8.4732344042964,-2.413798208406241,-5.78989278552473
750,-0.7601514824650513,1.0143298903050728,0.8021924723078315,-5.0077085739736615,0.058313763145974,-1.9225254615444296
760,-0.7508469412543352,1.0249851824333727,0.8141283159887566,-10.764175292673803,-0.40291220259643423,-5.0799278387643945
770,-0.7263771005720985,1.030249488845647,0.8345690917277354,-13.65257260505886,-2.0889142589981526,-7.922104151029843
780,-0.7486854697539991,0.9985496358402988,0.8159810155538064,-7.709388393810157,1.0584954839770306,-4.112678592311283
790,-0.7567580884411481,0.9935700088887792,0.8114998257878487,-2.7599316146142048,1.5752264029092575,-1.3808930509098947
800,-0.7537890239319635,0.9955311011912783,0.8136857350178507,-5.862931550857681,1.3397308073689034,1.9422115780878428
810,-0.7289160921585197,1.0267079504631347,0.8325901246018934,-10.830907030263473,1.2450424655968022,3.733626093373129
820,-0.74531537926944,1.0160578702757395,0.8189494772945854,-6.790662376769034,4.224191918378063,7.614789901801398
830,-0.7363826743619024,1.0234379210462194,0.8258359959207064,-5.340122930127937,-0.04520250335870901,4.437516577584436
840,-0.7245534205857007,1.0381690340536072,0.8370585450479513,-6.48190063759049,-1.8242905523902715,1.444205206232248
850,-0.7498133586540747,1.0053842962726547,0.8144799451194656,-9.819916228017648,-3.0914099438665215,-2.1937238189225874
860,-0.7139015394830499,1.0277586607421987,0.8514062690246998,3.271428399750553,1.0285445450654656,5.228417006802909
870,-0.7096064507393719,1.0310074232252908,0.8404516483793484,9.402473534505631,-0.28962399715624515,6.35520322371609
880,-0.7395852863062709,1.0274621417980758,0.8208098728238881,6.5312794531946015,-0.5970252798311407,3.022112936948276
890,-0.7359061301408522,1.0485297447629227,0.8413453238255395,-2.7243231424503938,-0.32420513023035125,-2.650780683187031
900,-0.7436243902209204,1.0230928732427917,0.8300438233567552,-6.4232765234434614,-0.8539908899917328,-6.880434287833246
910,-0.708967340582776,1.0481877688527657,0.8455158525792522,-4.450362427942244,-0.6159024934476807,-8.258776595500393
920,-0.7633422054633372,0.987589781520334,0.8076974852460068,-1.201685646547712,-2.5796141310899885,-4.194912845913855
930,-0.7569058152993856,0.9853865597583572,0.8054701829034739,-2.2061476467627825,-2.384255219117271,-1.0688360344063061
940,-0.757065518763581,0.987978965154387,0.809175765267013,1.3119750263843817,-0.5127200118097204,3.34780433160398
950,-0.7379545678290519,1.007367295334549,0.8250518722785015,2.516560389456503,-1.2437769063278432,4.190437071801915
960,-0.7282211405846754,1.0321341553311785,0.8417570283151564,-1.670270111072726,-2.444800207006716,1.2704812636327183
970,-0.735443897774616,1.0344924325489127,0.8316620101101775,-1.1417746078545226,1.118221921837586,2.676323270919151
980,-0.7304178013690446,1.0093761364889553,0.832559048893838,-5.64757484984195,1.2630242983056572,1.4224076190528838
990,-0.7259737380292597,1.009340236220216,0.8344725860695507,6.868658162348523,0.8980699774971066,4.599641493021276
1000,-0.7710531937930605,0.9744863287648219,0.7964358590280448,11.041833931533722,1.3082544334220572,6.933678721466474
1010,-0.7116479745099727,1.0475356928985673,0.8565163127732653,12.367976152587289,-0.7352482247366308,6.357760524463265
1020,-0.7102228142024115,1.063846033344736,0.8471022645092575,7.496098601029429,-2.511089994452628,3.5353607874182487
1030,-0.727445418723854,1.0283190363120995,0.8337262948746132,5.927650904172212,0.273598039247774,3.4663495628968217
1040,-0.732605450012155,1.0251416543783658,0.8283203279845011,1.0970867591599738,0.33087717987128706,-2.503541681976548
1050,-0.7819539536450253,0.983279810373125,0.7764079445163726,4.248516445955261,1.1381158887934797,-0.018689151054678832
1060,-0.7092198981272995,1.0552584202208477,0.8452394876562669,-0.31398898632963235,-1.2265124145210755,-1.353915049089835
1070,-0.7305972244487361,1.038365573511962,0.831570211615826,-5.8277386393198265,-1.9977391083263534,-1.6609085865820261
1080,-0.7352988696611389,1.0222700040179118,0.8289047878341029,-6.869440435641945,-0.8670299765666825,-0.2744141858049039
1090,-0.7183726983240882,1.0301064369407034,0.8499987237898341,-4.951998672796455,-2.4679309140275794,-0.761697380247282
1100,-0.7243228908372382,1.024337718700806,0.8402524165174607,0.6633962662081425,-0.8944939467932912,2.306258344088504
1110,-0.7257561990159958,1.036230849505612,0.8390073223408686,5.382873807869383,1.9760856809722858,5.210117414032657
1120,-0.7502172449490317,1.0040917303528247,0.8145318286878707,11.91794635701713,1.9995010690860031,6.256719549385405
1130,-0.7437525300134168,1.0196001955233234,0.8117760764656471,7.980749225825104,-1.267193201775398,2.3894503101941336
1140,-0.7374930823640263,1.03397370213667,0.8171743699213906,5.798634665569079,-1.8489989434634198,-0.24601916056140327
1150,-0.7437467641371609,1.0240690596165296,0.8157005687815139,7.22039090675302,1.3339045519679358,0.8749397783330815
1160,-0.7397211387044784,1.0173775791478428,0.8208908757308117,7.781187615075428,2.0238831441474168,1.3439824911186289
1170,-0.7191936349246328,1.0411826951367509,0.8386897537195215,5.5527619901956,0.9139760440609469,2.0569530626136956
1180,-0.7331663928676393,1.0360576071036223,0.8199403898062215,4.180651250643487,0.7938316836076384,3.557185837171704
1190,-0.7385987913632446,1.0358626675983678,0.818972646347486,0.03562636228178884,0.0257344868260172,2.689386005252775
1200,-0.7401070553349333,1.0348021682404158,0.8172087858190726,-1.0084012114885719,-0.4588008547464741,1.4847897264286767
1210,-0.731960969522104,1.0411258998245165,0.8307565037335839,0.47991129849980885,2.135435051053946,1.6468807816267133
1220,-0.7200378242434368,1.0401184835030755,0.8414960014803244,-3.6707871334393776,-2.4424220187463064,-3.968406039017048
1230,-0.7180391993312367,1.0405556295906855,0.8333906936544521,-1.318325564531912,-0.6705104188531772,-1.1664823110471119
1240,-0.7120712560482368,1.052788500266308,0.8395673815488707,-3.250264522734347,-1.1840887056746607,-1.6327895713063525
1250,-0.7339122278648897,1.0342086904767358,0.8237697015714113,-3.0838898999817763,-0.37257777645431306,-0.5601818962229292
1260,-0.7109493188903674,1.054975713645867,0.8463015422820255,-2.4048720761256037,0.8572560151290777,0.3165070616539421
1270,-0.7358502670694752,1.0248927409496926,0.8195508108801148,-5.996306824459553,-1.2963639276914223,-4.960456477492408
1280,-0.7413111264952608,1.017305978397406,0.8243667908474409,-6.1467099231049485,-1.1344225248902524,-7.453299999469246
1290,-0.7165251963693805,1.0366899760039476,0.8478545271755072,-4.049535469693216,-0.959230224122918,-7.423579873149055
1300,-0.7633862221442814,0.986040405949078,0.7987781017467428,-2.836566479547583,-1.153254642467616,-6.498377676970305
1310,-0.7257985875453863,1.0264641892589363,0.8398876734627636,-2.459634269027788,-2.03044889534591,-5.337276624513171
1320,-0.7624815627607993,0.9913941212695278,0.7988439696951093,-0.9961351932545572,-1.9341863984317609,-3.1001387393858293
1330,-0.7646332635398365,0.9882302754616868,0.7946786623362514,2.5668527285337768,0.1251370138455069,1.3664453284440037
1340,-0.7272927088196558,1.032491355208307,0.8365153064473295,2.7266669588941177,0.4674602515597268,2.043429130936878
1350,-0.7651690941905217,0.9904894013005894,0.802945932707736,2.2858402219066445,0.991982100040593,1.817976172553568
1360,-0.7658146692345223,0.9922769382686163,0.8050821842317246,1.025585620167222,-0.08081992402428287,0.8444525761402083
1370,-0.727789057913205,1.0372110213533468,0.8407284419341493,0.7344729325322583,1.0218279740516625,1.6520465544335392
1380,-0.7608947500208856,0.9955529005323569,0.808547107878663,-4.5137653530349695,-2.0247878555677676,-1.9499130443238761
1390,-0.7406121028520373,1.0084069591247864,0.8205263337427067,-0.4783222776049141,-0.49827680075151015,0.061726707287552696
1400,-0.7238592349821998,1.0330947285927943,0.8418664420273718,2.852747838603965,2.2989591375559355,2.540578694324589
1410,-0.7502377859611976,1.0061508195121642,0.8103281681908581,0.3044727772932987,-1.1494071931208587,-0.23998884054267933
1420,-0.7626071180921209,0.9900985300177096,0.7897732835317983,2.2188950624525354,0.9449236292735961,2.3307608950603838
1430,-0.7365791402099274,1.0130190733167357,0.8272640305577991,0.4500516758230073,2.9835958744085094,3.3659671243787925
1440,-0.7534302648460294,1.0166292819322793,0.821320791445987,-3.367488890310333,-0.6534655907201139,-1.2496824496913372
1450,-0.7203519344824338,1.0293077472912535,0.8445954396252691,0.7959727989602192,0.19257618814761368,1.021195861447351
1460,-0.7505602767572597,1.0090019160399937,0.8244584176115946,3.441852112560342,0.30547311939713906,1.084751947020754
1470,-0.7187047209035987,1.0408910271372187,0.8374891479126017,2.309232701868423,-0.6898533729191434,-0.44913722754012153
1480,-0.7281089292632411,1.0368930914628416,0.8350644380115037,-2.141961246683925,-0.23601024528041536,-1.074202948743945
1490,-0.744401831753511,1.0206339757669787,0.8268153633888693,-4.00343846290538,-1.396901771573406,-3.1205838045861385
1500,-0.697542331312824,1.0506979374994962,0.8575524415201955,-2.525287875700245,-3.2447224793888045,-2.7879454885521695
1510,-0.7559139815556257,1.003542873273209,0.8036748394968795,-4.634751351200011,-2.704701277414543,-2.025144884024351
1520,-0.7501120150158433,1.0002873979721945,0.8090720968055631,-0.9778590019560414,0.6648037011069878,0.4275010255601593
1530,-0.7357652085648384,1.017523142981393,0.8291989658509041,1.3544790796904733,0.8051039811773196,0.16035300781936845
1540,-0.7339483301179242,1.0110920635546479,0.8232730321997757,5.167229105228989,2.8617970748710784,2.998501497002412
1550,-0.7213676709717785,1.0306747052295895,0.8392788336155078,5.812185537357292,2.4671757420866625,2.994901489084042
1560,-0.7508787328538288,1.01546333276566,0.8133295708631677,4.987199668874064,1.2326751462163896,2.690682855581021
1570,-0.6983017504954964,1.066017999236132,0.8631757599764327,-0.9501867360304942,-0.16774256987153058,-0.3730251273779128
1580,-0.7422124514498121,1.0112836100846407,0.8225832610929685,0.7380307489019435,2.3477522560644934,1.5587097610133709
1590,-0.7113218682961824,1.042310268731084,0.850390696009722,4.44974335645619,2.107491236264739,2.236989799064294
1600,-0.7374038295278216,1.0158053280577264,0.8284725564362863,1.8003413728792927,-2.0290183835525353,-0.8008034687324659
1610,-0.740650948440489,1.0270175439612108,0.8255270824658578,1.713087968562971,-1.6504968078553137,0.2117625731226611
1620,-0.740694815462201,1.026848891085087,0.8257465241716517,1.625898292001805,0.4420484911222264,1.732755976158401
1630,-0.7515185420356646,1.0062142009372665,0.8109932426839621,-1.1932855767874844,0.5909548085284471,-0.31945937810649383
1640,-0.726990319542866,1.0285707065682317,0.832007668199741,-2.9042673845930898,-0.48161251282373074,-1.5497875898307232
1650,-0.7335571050699067,1.0278862532417912,0.8257935476736447,-0.13084360773368608,2.31719090350667,1.6366657950415362
1660,-0.7478504641242296,1.0160484893824613,0.815337214436898,-0.7280805787399591,1.8466176427706231,1.6984278935071762
1670,-0.7322320526858574,1.0281316604593234,0.835873847196858,-0.5166716840842367,0.775742386420058,1.703174844182738
1680,-0.732061094889452,1.028480420698763,0.8271614587981835,-2.9103496454559092,-2.5640062027681005,-1.8694462598470265
1690,-0.7604949352158339,1.0035742806075738,0.8000348131054124,-2.6796733403780904,0.14778916467096692,-0.5066877823636421
1700,-0.7287508372675013,1.029967796118918,0.8347168767542855,-1.6825714442338162,1.3063248740399342,0.28224324666734013
1710,-0.7254563363430941,1.0282506909408222,0.8298879659593712,-1.0541847131670143,-0.039224738803744316,-0.8211817084553734
1720,-0.7279573968108443,1.0264386699054822,0.8310849639140503,0.6524962455736143,-0.28892378702420946,-0.5508605875943863
1730,-0.7201051629307818,1.0358210084837949,0.8447712024931481,4.530255096318975,2.7599646912202775,3.3540679801633253
1740,-0.7395566950171794,1.0183428118603954,0.8215664296891712,2.5907372901418673,2.7757580113437617,3.3600520736013113
1750,-0.7277954880377592,1.0288223490427677,0.8283636952178858,-0.35872449332454837,2.078244125237093,2.2477654513348666
1760,-0.7380601205399892,1.0184962546227312,0.8144143200634187,-0.5738466204535266,0.7467630992119664,1.1890798927907225
1770,-0.7108803199665654,1.04592920007151,0.8449040790531431,-1.922769825367684,-1.4788653035213561,-0.8488835475752792
1780,-0.7272904267037876,1.035843902136289,0.8392001012196577,1.3925064588537777,0.6101388954988562,1.1355382159880225
1790,-0.7596539725383017,1.0127846558167202,0.8119423272198143,0.9261006515520888,0.248118551707581,0.2674575787856567
1800,-0.7225930994334493,1.0374208761081039,0.842674885231058,0.21297117937695242,1.876971088652309,1.6231214572770807
1810,-0.7079897390872897,1.0500290884511092,0.8547995512511996,-2.486341297247172,-0.9964341642820335,-0.8075077075511963
1820,-0.7272343044182054,1.0342880173785738,0.8363528578720678,-0.048731071935082054,0.2613016655134018,0.8149117757198936
1830,-0.7401945316038804,1.0272151086111365,0.8205526568508739,-2.091094177542525,-1.3723218262353494,-1.0954122022994746
1840,-0.7398047095687089,1.030200740653907,0.8238640052074956,-0.5919288346895788,0.9459258768882297,0.6893351345960488
1850,-0.7252043936040039,1.0383710143620277,0.8364548103330016,-3.336810430050054,-1.114168745357356,-1.8961637084517893
1860,-0.7596348018151372,0.9958936990113033,0.8051159152921898,2.071709418580102,2.7329842781029816,1.7120943526000274
1870,-0.7514795643236147,1.004946602063833,0.8120378782458701,2.058406673471613,1.5996422160324042,1.4840281594082536
1880,-0.7318775060737285,1.0311116073718545,0.8315143791177436,1.0741769995215091,1.2169168252218376,1.3551732118691724
1890,-0.7373298804120606,1.0199422503049491,0.8209402540431361,-3.0559467722273883,-2.341266840077499,-2.0276051809983047
1900,-0.7206439947792002,1.0454007458682366,0.8424953606470985,-1.0614550114334262,1.3966406039208346,1.4635649398656958
1910,-0.7364851573317137,1.0267463291109376,0.827539592721838,-1.7054370673499823,1.2171001720803525,1.317074851325732
1920,-0.7106720151478915,1.0438264551140575,0.8511962212785679,-0.9585563367385929,0.3753610393900553,-0.30299790090208933
1930,-0.7584301306789121,0.998418500931911,0.8052254598211412,-1.719266411080153,-1.2811127821024508,-1.9800065289317081
1940,-0.7612083563445617,0.99666655976445,0.8127671342450509,-1.313361588152934,-1.310865982703999,-1.1574762958129268
1950,-0.7274196901150892,1.0304822698320266,0.8358886806242984,-2.1643332995533267,-1.315939865391143,-1.340148262315743
1960,-0.7520038482389073,1.0121808903250216,0.8107923057395565,-1.2206006846522204,0.8639331335585703,0.7108109822035579
1970,-0.7532943777777554,1.0134721175805987,0.821846701012318,-3.7193096210135543,-1.511681126282407,-1.3286175917903142
1980,-0.7434425419836984,1.0087556903766866,0.8163181432947821,1.6375860725234834,-0.5568982870083169,-0.6161179556910277
1990,-0.718261979802543,1.0409837030234839,0.8435892754558346,2.5077714704088727,0.4790648091764341,0.49716676819379707
