time_ms,ax,ay,az,gx,gy,gz
0,-0.5855026189307426,0.9698238411128416,0.7043265876733129,1.510709043669143,-1.8000653867978011,-0.6503909487245207
10,-0.6033058577719045,0.9518077699370879,0.6778053445114182,4.0562569733573195,1.0384911564355213,1.8057781220570313
20,-0.5897732143070046,0.9628897917347408,0.6907762144824058,6.469530373136642,3.9920263067848505,4.900585372103086
30,-0.5729194788150702,0.977849436993135,0.706534502846027,-0.9237945718089939,-2.9755831528259358,-2.2995398070129265
40,-0.6039591562753623,0.9524688558819062,0.6776925985559668,-0.9834415700643899,-2.0801983208758497,-2.39788644710186
50,-0.6098345764753541,0.9489021138947371,0.6711891783486758,1.9441911183912397,0.9432314929055728,0.5242281116357835
60,-0.5881561299287413,0.9727109911381143,0.6935456218632067,-0.35652005353467375,-1.8024718449102146,-1.7329682336821828
70,-0.635717113848717,0.9251248286520526,0.6492696760127902,3.5333487679831914,1.8618560025628756,2.1820430986588257
80,-0.5829759733946004,0.9722146838145985,0.6988686321085571,1.693160036919221,-0.4376728870720981,0.12843389913223646
90,-0.5948779387494065,0.9590878587569519,0.6779019803030747,0.990431611901156,-1.7752957142030974,-0.9118420294693041
100,-0.585769379826038,0.9706978650986001,0.6918465996094001,2.1838698639222742,0.3965057373600154,0.6869675829652645
110,-0.5844380143949394,0.9783188533273609,0.6976377892493058,3.8722767620524303,1.7514518771919354,1.6169852703419263
120,-0.5939479388205833,0.9754645215357234,0.684196926604703,3.4127384936234226,0.3219404798767357,0.509559906494124
130,-0.5812648103636069,1.0004009122072766,0.7004127542965302,2.1972426913523795,0.10407829930368123,-0.15472342719899213
140,-0.5684601769306089,1.0500467617199734,0.7487543594288996,-2.2359586431268133,-1.778501652172605,-3.3686390409820013
150,-0.6016122993706995,1.0038577873409231,0.7109901373808746,-9.085519625541956,1.3970382128213474,-3.9224496826033715
160,-0.6086614432178862,0.9855120138719932,0.7000189318684007,-25.812939515258822,1.1752576378477897,-14.545424095982947
170,-0.6520648647557062,1.0462295159354997,1.0073856262362773,-58.02236575059561,-51.213151909356085,13.299212413910638
180,-0.5769497976508056,0.9976822113653099,1.1269863305140468,-89.00846034827823,-110.94215294968956,49.5507578144551
190,-0.29868509634758544,0.8050983320295828,0.7579206305876418,-95.60547001958261,-121.38152133990619,47.990287503364776
200,-0.09415512566277445,0.5501097887868949,0.25453897429251976,-78.80309113739294,-95.99662729778879,21.22637406001314
210,0.05058818240810374,0.4113264887115647,-0.06604731608505744,-56.4922098284149,-40.595610897842,-21.02860967595593
220,0.03779365350497101,0.610050452744766,-0.0328101298569593,-38.09219373004746,27.414062446774373,-62.82394316069621
230,-0.2645630310930372,0.7485732137011346,-0.11759945432972778,-71.94882135842748,85.01520533421835,-93.36772290226216
240,-0.9977228803685682,0.9977354013525874,-0.12589805016226807,-17.93569237112798,38.68700570547141,-30.49526816218079
250,-0.6915091887539895,0.8348531617878548,0.6557268662117155,-24.81752695394448,32.73390393112675,-25.012450311972817
260,-0.8440340228331807,0.8030018323768383,0.2376778912739141,32.785600563848725,39.49351261484931,-22.957090946534244
270,-0.7230587960907564,0.8652949966706686,0.6433505270870753,118.25507491577704,68.16169668267304,-8.035623196630706
280,-0.6415153576459702,0.8347915774290983,0.22691462790464303,131.63620122520453,90.42423277683348,28.624394206917266
290,-0.5358579705876182,0.9857264672861535,-0.5810741541189566,92.2936902544148,93.94595431981341,33.608236963605826
300,-0.4771031404010906,1.063007439001967,-0.13567279512000058,35.27324738369326,53.2366326685474,16.710961797288668
310,-0.5169123874415242,0.9347142287022049,0.9575034224794303,-9.474148535865961,2.290063531607443,19.13070830236094
320,-0.4946974351129185,0.9815277461129243,0.7901642005898808,-7.547341453337891,11.748669345412583,12.35754950348983
330,-0.3053766734283261,1.107209325722874,1.0045068933588788,-11.125355684473208,-3.7576738210732703,14.977171861473346
340,0.4832233230747452,1.1820047450658357,1.899087246452177,32.092650567201694,-45.00389653807084,26.710458889888365
350,0.014169981148818208,-0.09241101966213003,1.8257620897714053,-166.92312645937764,-82.1813897439101,0.8528937902269943
360,-0.21344824966683693,0.8118986335059067,0.5317787943266337,-52.11824582285905,-83.83566638469104,34.416040724908626
370,-0.525945615460433,0.33320752578218094,0.9603403885061096,-94.12406787399311,-78.22292367739516,-30.186148963328453
380,-1.0914294551042063,0.44344473782761656,0.8436628513075908,-3.4179946406464987,-37.38785520804565,-11.18142889513466
390,-1.3472054285986976,0.9801834770949805,-0.5076416502725195,61.70201155190475,-10.618199004064424,11.70182752711045
400,-1.0171441322896795,0.20996538996313002,-0.00607321827361028,-58.636066121302456,-40.707426714326445,-61.774672567948805
410,-0.7350890076513451,-0.40977655513791705,1.0498102315020612,-98.46131291768857,-61.12585568220028,-113.09011013402237
420,-0.9052913490001948,0.05139941807225082,0.6734563085966467,36.4966898309334,-25.446189929188723,-82.975691633715
430,-0.9507110895005958,0.40590479320444406,0.4476138267636776,67.15008877274404,4.816499663621861,-73.3235474426613
440,-0.6988814042556243,1.1609877559653219,0.789951351906374,50.08500645205556,26.493544708119106,-32.30733727995874
450,-0.48653016458825155,1.9348746831557457,1.1980167251497178,132.42412874169133,41.769682689042796,-7.104388881765019
460,0.22026570125846573,1.874200039259848,1.0346657772382033,54.7818864471309,44.861324296724895,43.99423059074071
470,-0.1220291284417519,1.3882673773205623,0.4813342807898896,-39.18576192545615,24.8129382922015,71.41135369023006
480,-0.2265481149296388,0.8305978440052882,0.034861068550879996,-93.27530513254206,40.23107238479543,96.71056544466768
490,-0.6225499526526792,0.2033596994363005,0.9104042317240297,-94.96616102648197,21.211814004682303,42.83818461839931
500,-0.7246210553220702,0.41221657869941164,0.9162646134727188,-28.332416153468348,0.8177526048883974,29.22945601313149
510,-0.8718952018607481,0.6850191218160187,0.2667026844505833,41.010715216315795,-26.927823063743997,-1.6781060639797074
520,-0.9151761524014719,0.3691981760060244,0.6787561333427831,12.588446256910869,-39.79460177123978,-40.32941624084739
530,-0.7268370716501759,0.3496204386403425,0.9273620161310063,-29.387075482856524,-25.515345522157528,-56.82212835321221
540,-0.6768642121503029,0.8170430247412673,0.20685211342413823,19.047582439771592,-7.526086093488578,-60.45340244321859
550,-0.9074943245571508,0.6789845633958468,0.49159236286831426,64.07888258222273,2.478584425308791,-51.06784038932552
560,-0.5869479254954538,1.4901185805660773,0.20319132048600078,48.22398872475739,18.62549505854023,-38.76506668231946
570,-0.3001401337631027,1.7411608378176529,1.0939565870468384,22.21097754412935,66.95619645232061,11.206798397896858
580,-0.18074171240314152,1.4524533589409818,1.570116388827946,-54.088568462481916,60.47721742915904,53.28732352942447
590,-0.15606267831287116,2.044688164872248,0.35930141351585027,-3.555901225171065,58.0098298471363,68.58658977607685
600,-0.25873052265055496,2.2343569460951347,-0.20612708906319926,3.9760435653708273,50.19424913828526,68.9456617304796
610,-0.5445366510058823,1.337770904553088,0.6478423156179641,-58.545345769138805,45.919389760141314,67.40312318807878
620,-1.1790472137721837,0.30081452773403083,1.493376155563939,-93.66488786371791,41.985907941369206,55.921461936061114
630,-1.0167680589044166,0.29473902345522085,1.078571999802591,-34.87509246131529,23.497893497889034,28.71572745303008
640,-0.6333210204059675,0.7288858046607296,0.5048292105098252,41.3574976404462,15.552194022831559,24.455786912904188
650,-0.6263259292474467,0.9249773653960054,0.6673503428657573,49.22491406369326,15.938077463589897,34.06495745154869
660,-0.5664538555240073,1.0101690584551273,0.70637506001503,38.66548270388201,16.47656502807066,34.047019265551945
670,-0.5967227046086154,1.0150063045472473,0.6908006176838096,31.16103587955318,8.564578259932668,22.418811099348474
680,-0.610444892664299,1.0060777059574482,0.6698593957300888,21.864358871847546,3.5073388369962846,11.419310771536098
690,-0.5758681756083192,1.0260473329653501,0.6706477609667585,10.169750540829174,-0.35958961328902617,-0.09636539573854419
700,-0.6247594506369717,0.945026468883468,0.6419211998482413,0.9652076816187924,-1.2794131861673053,-0.6030249172282647
710,-0.5861421302831884,0.9821441656952158,0.6886636134081738,3.735558661840509,0.972044463860036,3.749526531782573
720,-0.5954094220802671,0.9698233701937552,0.6827086148726633,-0.5526274149837387,-0.3564977484112415,3.634060428659369
730,-0.6115601045872934,0.9751561754947597,0.6643888091264085,-2.653681809511426,0.9045071713317788,2.791054724685742
740,-0.5983561116883485,0.9961165636723821,0.6648294315820112,-6.634835174639273,-0.3033708506393936,-1.7459868048749745
750,-0.6180381146959607,0.9610373242567967,0.6395918488825287,-4.908311213083705,2.018683125319075,-1.2099285377633195
760,-0.6233432135833897,0.9408640904010551,0.6395899128053495,-4.435018022501353,-0.032058739511107825,-2.822032103265197
770,-0.6093724896793095,0.9525002889093193,0.6549434844297257,-6.222758487897103,-3.783546423445161,-5.07123200584268
780,-0.5843665724149578,0.9796489057994572,0.6808660125559399,-8.24632281083092,-2.730747935488323,-3.311545649510592
790,-0.6046453904941365,0.963269145393366,0.6767014561891656,-12.691534154498552,-3.22180546418553,-5.292080471068243
800,-0.5922274482456106,0.9669979750195576,0.6847393124419956,-16.640789644311436,-5.584269831062889,-8.183185053064513
810,-0.5799023346449969,0.9532817554973376,0.6961931736872529,-4.996084717702786,0.9238681411961762,0.528011956667694
820,-0.607538522564345,0.9454041426758113,0.6672193462609889,-1.6260303599125292,-0.9941577849948058,2.067045915712944
830,-0.5891419197641298,0.9709332353152512,0.6819256345058091,3.974826667726469,3.179787538943681,3.5298239996199743
840,-0.5759943094257997,0.9887853391715065,0.6927806200151228,-1.6248941444499105,-2.5480671406397697,-4.118993717282488
850,-0.6011538553598459,0.9686712653354237,0.6686114026686857,1.5137712835686938,1.0087537774646707,-2.2187182314718554
860,-0.6006005132369451,0.9653373050333938,0.6716657191815427,-1.7127489442383121,-1.2789809315757552,-5.232306686045803
870,-0.5936145074372837,0.9654712265368726,0.6805021172860598,-3.4865168085523037,-2.993402826876651,-5.789381725214197
880,-0.6010246994922518,0.9537900456718463,0.6687812290671534,-0.8254258411515992,-1.9109025433062035,-2.3081538493874576
890,-0.602125385343705,0.9499049063856335,0.6593127950988223,1.0075356741205312,-2.3087365394778114,0.170299862593287
900,-0.6084638221245232,0.9497338512031919,0.6559074866611743,3.803697846252672,-1.0393219939934966,4.209432871383244
910,-0.5965179375266777,0.9623664661423416,0.6702786462472756,3.5399142409174726,0.549991343384745,4.199595323784822
920,-0.5816232795447532,0.9868361734876102,0.6901167142643627,3.393922504223255,2.776968504620286,5.276632733921073
930,-0.6145062342061113,0.9536178089057991,0.6597631526579015,3.9019094120396938,3.783516945299228,4.529389954901784
940,-0.6011667584202657,0.9684830957463099,0.6647963973870786,4.973126469202349,6.224972207378593,5.753123664666598
950,-0.6062972121587498,0.966237938026933,0.6567393687974812,3.3843023004246104,4.264064183396434,2.8949702156585233
960,-0.5908542631612996,0.9798067245180415,0.6690357802304894,4.42928807752878,3.6906948140046296,2.8249404543082663
970,-0.6111046729417698,0.9623267182805829,0.6529864192122408,2.0144665049044104,0.26781546740388273,-0.04585479041474383
980,-0.6149336693529306,0.9647254019901912,0.6527585647993944,3.7347808389936663,2.525355169876138,2.2001474055033206
990,-0.5872731569288073,0.9941208268295713,0.6794532622919549,1.426490599827438,1.4482992737410307,0.9714750354651847
1000,-0.5947492486942216,0.9848455158783862,0.672521531722582,-2.7840218027125263,-2.159963224932075,-2.7732347400555244
1010,-0.6169314004805097,0.9619570942305433,0.6511258129406617,-1.2974761918022502,-0.6780791924908764,-1.520516459663415
1020,-0.616720484584395,0.9555203950491703,0.6482925456968437,-0.2888248537495388,0.5415766461459623,-0.12398857439027489
1030,-0.5945576676058775,0.9788147918587914,0.673014610410408,0.529813416271938,0.07645312296476359,-0.7110458261368633
1040,-0.5747130074275077,0.9973077509809049,0.6933422358710747,-1.866234654763892,-0.9148419629211573,-1.3180443021009576
1050,-0.5924406091398967,0.9719542785821053,0.6707318398024,-1.9898654272538154,-2.476322583578638,-2.87289877181549
1060,-0.5850604331461916,0.9879676798080048,0.6772915846940125,2.977025016156982,2.585427735034432,1.9230186487791123
1070,-0.5596134532867786,1.015574666588517,0.7063632709341185,0.32696290579417653,1.2785442609654536,-0.17761464375998942
1080,-0.5690278796379364,1.0049779475834264,0.6950512023668822,1.2149184186866218,3.155050429535656,0.7088783918716783
1090,-0.5726800142710126,0.9974614512768488,0.6891042244493395,0.08022694870921038,0.21197454978977903,-0.9641569261389095
1100,-0.6307014948245621,0.9421446560742236,0.6323041720582536,3.9847939687806573,1.5049185701957384,2.353810617685617
1110,-0.5949158573331585,0.9823404689581816,0.6714183037438297,5.175704506269474,1.493735562577866,2.9865203949419357
1120,-0.5840991064670682,0.9866337468128693,0.6831409052322016,0.7003501543725976,-2.582367264792575,-1.1397663288195037
1130,-0.568636757974268,1.000550493193341,0.6926983648975704,-1.328420071706331,-1.4189217846908633,-0.7688831001817683
1140,-0.6125545229532731,0.9611635083820789,0.6510085724626679,-4.673959291591592,-2.387560162815028,-3.8850094604660788
1150,-0.5850902901762455,0.9838385246105381,0.678612047435336,-2.5419720563899815,1.118270279310098,-1.5666707364725476
1160,-0.5892708411590027,0.9844968376395465,0.6805469136493691,3.491506043396277,2.9917921623761914,3.5745378833253767
1170,-0.584276998590237,0.9897523349898556,0.6804641993580107,3.276155621108169,1.8438958236263714,2.45584723935295
1180,-0.5966920521222794,0.9761189877149765,0.6711533059312342,1.3307750725678877,0.7218847539226781,0.5588881551289263
1190,-0.602111489374721,0.9714876829854623,0.6655483676980005,0.28041644959605394,-0.041516677219001485,-0.8477314836291723
1200,-0.6028003442471548,0.9731246500193576,0.6627191600876176,-0.24004006975236108,-0.15235474125761972,-1.3271462661947613
1210,-0.5707613591456375,1.004242704613768,0.6944326658356124,-1.1278626963847929,-0.6725395787339551,-1.5998389309769263
1220,-0.5981452217874459,0.9746282241652829,0.6663765872018826,0.8106157145687132,1.1055930593258412,0.4478834089543189
1230,-0.6240785710287393,0.9459717410931682,0.6361620743633124,-0.6274417794879092,-0.6581514688227638,-1.541623774258761
1240,-0.598244682560119,0.9675216673335032,0.6607235168599281,0.4956528865567872,0.3791084437255149,-0.5663220708224077
1250,-0.5913482562630972,0.9836983686807796,0.6791263890976317,0.4839926017696012,0.2686062482269006,-0.6667471396582219
1260,-0.5911670459453546,0.9829462832978934,0.6673459841079044,1.8655614215973435,2.07338511539713,1.8388892688371343
1270,-0.5911575837692786,0.9775572886733029,0.6735882168206093,-0.07729713026635147,-0.3917150057656414,-0.12871617710294433
1280,-0.5867373522629217,0.9852388849358213,0.6762149456550738,-0.6027129890022661,-1.2696903065494456,-0.9358687908564729
1290,-0.6192889962659885,0.9575372645196927,0.6454308568580168,1.5058738284589555,2.219948401477646,1.6722128805505327
1300,-0.5822266741896244,0.985673881574407,0.6796325051751061,-0.9177333851723923,-0.68466892579372,-1.164760291164153
1310,-0.5877230363716691,0.9811266314049932,0.6756832977392221,-2.108584078421926,-1.7929874507752765,-2.5427556679775334
1320,-0.5871228780250753,0.980629442356562,0.6760728335609704,-2.212839634901676,-1.720516913928543,-2.555772130435402
1330,-0.5949402483627713,0.970127731783545,0.6662643145161947,-1.1021302080986688,-1.0810215186606826,-1.5359616702252814
1340,-0.6057756611489397,0.9618629687296413,0.6576078855063796,-0.6187172208807813,-1.1030083243286917,-0.8763933159339685
1350,-0.5907601193074089,0.9808807842649444,0.6698469254045866,-0.15126961006227,-0.21675006635041583,0.4833879630434683
1360,-0.5947268087042531,0.9825413328090584,0.6512103220090444,-1.2649474648200527,-0.11913806679424788,-0.42660523716698373
1370,-0.603820422430057,0.9626852172089192,0.6644917781645234,0.30414387139854693,0.4703455414660889,-0.8993680240304291
1380,-0.5988571927646512,0.9721980946125791,0.6664215700681528,1.0765100031084138,0.2757342939851553,-0.3387454381013423
