time_ms,ax,ay,az,gx,gy,gz
0,-0.7626237395111266,0.25425287287342013,0.3676834389068305,-0.013398673370211167,1.5678816372267073,-1.319827208881998
10,-0.7465877758873322,0.26941986350174246,0.3870404622551428,1.6555781955614304,0.19299932272932918,3.005013721734967
20,-0.7631237830328484,0.2515623580972646,0.36494241588746773,3.470841482458347,0.8906693012848463,5.083274873707513
30,-0.7406532443611694,0.2753512366862403,0.38664402394911623,3.5638236983753933,0.07086079305027715,4.653171234161406
40,-0.7214931054757191,0.2979711945211833,0.4072312463580105,2.7275398214719493,-0.7339168064352346,3.0627112429486765
50,-0.7243898277035116,0.30061145940583706,0.40722324283205036,1.1850331717550193,-0.6129177835724042,0.5443015893365385
60,-0.7418204201331746,0.28760430340582144,0.3933211743000745,0.2520552889886799,1.3250567491155114,-1.466563240257873
70,-0.7471274596766774,0.27172175840463525,0.3757423675594447,-4.436501497802384,-0.6857303049477579,-6.437170312221608
80,-0.7445017586242295,0.2716896139039482,0.3816304699237091,-1.820996005581527,-0.9732522051687924,-2.686614797307402
90,-0.7976839918829242,0.21685052008347033,0.3318817670798584,-0.760544343798793,-1.3710455128259376,-1.0583498116417132
100,-0.7537641768326837,0.26224193383028027,0.3741274243344472,2.367639773765304,1.0481319531209903,2.1052772256922787
110,-0.7442313858630198,0.275592485153254,0.3847371947890348,-1.4137568620719367,-1.6100235781406984,-1.4827906430618705
120,-0.7491970464517984,0.27176960037828307,0.3834169451328115,-2.4245821222360955,-0.27097577491796015,-2.1343083260991342
130,-0.7635204615816868,0.2522347912607418,0.3695974009278506,-2.8198404411994633,0.8391018678329414,-2.463501684411533
140,-0.7477470081548386,0.2619006418023627,0.3848140318108202,-0.6918427493299708,2.1112586099408386,-0.516862231080307
150,-0.7470998032493141,0.26447463131810656,0.38733828868112374,-0.0843200457111315,-2.145572597447656,0.26547625869595937
160,-0.7622289306456663,0.2538605717141714,0.3655087657085782,2.5822837759315274,0.15093134835493227,2.3534473256961133
170,-0.7550574767392028,0.2569343595752469,0.3684648017890825,1.5706450521775892,-2.632333663462118,0.4408228244313457
180,-0.7469114323649756,0.26589739364605763,0.37710813605800186,3.1276355253822254,-4.314727331227891,0.9327442683702731
190,-0.7391733530170155,0.27713245509490475,0.3852761306358214,10.583745619097296,-0.09182482377322643,7.236306643968366
200,-0.7586608528461878,0.2692916590113336,0.35897668119951565,10.032569490832426,-3.154734088412111,5.006705424858181
210,-0.7900484751357145,0.28403854049323524,0.35777530440427036,13.61589235510429,0.7940498364781852,7.803369014711693
220,-0.7489642633330822,0.2493804882945026,1.012994993989279,-4.126942486603071,23.964593047722605,19.504500662188963
230,-0.7601419895326844,0.34017838501721487,0.47302433719342896,13.188237810646372,16.73660906704142,18.59520859501079
240,-0.7552774599542007,0.30235631108533073,0.3392960660780783,12.9536363769564,15.40490347209265,21.001420311521105
250,-0.7264802561749056,0.26201607595919363,0.48405800516596564,-1.3560533834882817,19.53789246087458,20.01999658884607
260,-0.6859844266822568,0.2681659365183756,0.6220790218034857,-9.23391400514778,14.35857164199826,11.166740102811625
270,-0.7529880864897802,0.22047109815124655,0.5000058242160096,0.25335403524642885,3.687285797774562,3.564933620070386
280,-0.7646150268999857,0.3053316613856336,0.33119668792950496,-0.3321692383142355,4.14012656804472,0.9822895797213689
290,-0.7639098791821538,0.27129778597982024,0.37059536152628764,-0.3248837565628808,3.9434273285570693,-0.11641311541898969
300,-0.7391230537682514,0.3157016382187607,0.39040895671675674,0.3053051513938676,4.167230058547374,0.1641886403510489
310,-0.744220372643061,0.3186445654823172,0.3852196629597697,3.632306982134947,5.15963826711044,3.814809860251815
320,-0.7747275828142794,0.28190610561924523,0.3539589108070149,5.45016764109212,0.705937471654813,6.035214879082041
330,-0.7408768746713608,0.3026286469801107,0.3906345407184808,9.62867120234357,-2.2981169304699005,11.71755029923363
340,-0.776028528510676,0.2643515599006472,0.3710411856376364,9.764914663391275,-6.656355522239515,14.656234487967295
350,-0.7294020770660559,0.26816561650485704,0.473653873791252,3.9559263508983866,-16.326081548929327,10.610656715798662
360,-0.395120251705603,0.09430792261486862,1.0411159015452631,-15.54765304023324,-55.84811328951645,-12.213623039702947
370,-0.42520879553112284,0.13382102203043936,0.758323507565768,-39.26260116054619,-58.95480123959741,-25.655029952449357
380,-0.6251735318835975,-0.09835434481221256,0.4239929486268185,-34.50746938133,-47.728056226550606,-34.04465996078007
390,-0.8807647982158046,0.17190090756573118,0.35383109925732825,-14.565120460078427,-39.47706778181733,-28.062403828118907
400,-0.9868062053883011,0.5258158645652926,0.37393429528857053,-9.36909002911236,-38.25743901858898,-22.298799685825394
410,-1.1363001442654865,0.6970885109397439,0.4074666740850173,2.780845167604359,-35.022173926279955,-18.36763219786103
420,-1.572963021783324,0.9156462929154195,0.5852736858140745,43.086697848982055,-40.06812383612427,-23.77373277133509
430,-0.9223997267731847,0.3280610939971933,0.5324001510075232,30.94584732576394,-24.652537732927602,-24.89595943399943
440,-0.776882615139455,0.2544489086327264,0.5346119664937706,20.650433698572222,-13.157133263034856,-19.550686234994984
450,-0.6267818385582105,0.2987555819741565,0.34249153072474814,-2.212635189083951,12.087796979137282,-17.88726821535865
460,-0.5588661291772757,0.10133302068268349,0.3421984991211272,12.283959267847925,18.360003995248462,-18.87159730376698
470,-0.7364243052259061,0.35074385059624485,0.5626241349452527,39.58354848721293,11.262947191623502,-5.468062889457474
480,-0.8992248685398565,0.7615837484833622,0.5535049609355714,47.77757181256,9.908593923162881,11.358830948971756
490,-0.7157454322435274,0.38127212084782164,0.07062241403297102,26.142923422485776,20.776791694153815,-0.5703801904551218
500,-0.7430664389918249,0.32778576568099105,0.5789314707732551,-10.761400369880398,33.82305585608641,-19.297190577950285
510,-0.7216048730658691,0.15981506066788984,0.4086008690157099,-7.025789165874145,39.436238375022505,-13.368272709478443
520,-0.8581055486424392,0.5409423239408708,0.18649874609512462,6.213452728684217,42.90898356601037,0.019352264750500225
530,-0.718785831787904,0.1660903728602319,0.37484054053320315,3.866402798077385,23.807607480217065,8.011883737097618
540,-0.5911696859777666,-0.09813952988235292,0.5010850634711046,-3.0391007837202078,13.971562649780827,13.25231098367267
550,-0.6375422381645256,0.05258913944489391,0.43668589078576886,-10.640425132266245,13.840109270294485,17.249271044946283
560,-0.6701478289899815,0.1291424873986778,0.4964130980262206,-20.16311482476966,5.482132072595757,20.25801682381336
570,-0.6294632551819259,-0.07399004536129859,0.5312130348687303,-38.61054947722847,-9.866912521180476,1.522799328827962
580,-0.6447287910356273,0.10971899822965271,0.4886750340581399,5.8708186685520545,-12.005765815727719,10.450480053805586
590,-0.7280156751296503,0.08047073161850711,0.2643476314188286,-12.659736350074548,-18.292347693568995,9.022434862057882
600,-0.7419942678908987,0.11101991576982453,0.3127231032758542,-8.135349154445018,-14.29518966126725,6.424793193910196
610,-0.7016797044921719,0.221617706813157,0.4401969119579396,0.015166051694044157,-12.700078736653925,7.311514102208671
620,-0.743787847776662,0.24664117007085162,0.40581836046848185,-2.089379172429548,-14.874077188299909,8.226175974543475
630,-0.7650309620240708,0.19474718910727656,0.3248936718807429,1.4405445337334972,-6.6660697061905365,5.027679555370843
640,-0.7240681286100213,0.016697858791402228,0.2618817443174814,16.22820556734597,3.431480219387963,-19.624328539172602
650,-0.7473645220168135,0.3245670434699445,0.7309967679185884,49.62776437788014,7.746958737702403,-19.404640906282303
660,-0.9351664157523815,0.29003569684312724,0.5372674994231561,40.36666177028728,16.88869807072338,-24.036790783824785
670,-0.9464913486077258,0.3617872618536432,0.334162275327443,34.23521665083214,22.825564034300033,-12.75887566802254
680,-0.8482491024352815,0.24528355176881722,0.11583513151722746,39.6728020643671,34.106612290250425,-4.562377836313169
690,-0.8192172670818441,0.29632836681636704,0.3255169181429139,52.65946600133159,34.25692986447214,-9.74732982996104
700,-0.9774953389338963,0.5326913746193382,0.7903192523028627,62.05966880402819,27.38973982586551,-7.27089207450554
710,-0.7964840974581757,0.3570670883212729,0.5598201300736864,17.58324686576469,28.169210756784302,1.5872909730424856
720,-0.7613248067386174,0.31001682296686434,0.288030168658512,14.801892535825019,56.147883054096816,-20.90243936623513
730,-0.7964348547109876,0.39342115023334845,0.9235791109706253,1.6292153533813933,46.90870562652489,-24.33506580566563
740,-0.6873871860358187,0.3292893905455739,0.6763029797114058,14.854459142084485,40.15804485337683,-14.634701416515771
750,-0.7311512894923488,0.32258491240429565,0.5201220701715328,15.988322422090032,37.657068463553514,0.06289703127226254
760,-0.7743741266076104,0.4151398005398289,0.6151054370957226,-1.7971292798051908,34.124754032365566,4.81315183044243
770,-0.7242986179832278,0.40430836112021684,0.561350547559249,-19.87552903005389,33.38888438321123,5.397219012516386
780,-0.7305545013568879,0.278979687809572,0.34930182403750765,-44.97736234283509,16.782143897885508,3.5464745531385597
790,-0.865759484819797,0.8382976630960358,0.4488604185483468,-4.926396418002213,-2.3840228296639427,31.966865875433715
800,-0.7446947505074007,-0.10534891739273904,0.11949279083545994,-23.79526679684332,-11.71692545768658,20.71711165451073
810,-0.6555204043168475,-0.4634691954595681,0.2880785672285401,-59.39058764147519,-4.970731760817482,-0.8677029385167525
820,-0.6647883749559622,-0.24661265169445154,0.3299367866949689,-28.966596978210735,-15.404289335805252,1.131158621309405
830,-0.7077487461153352,0.10448281627071067,0.5017754061909683,-4.131002842496231,-33.29048531002665,22.160847844312833
840,-0.693420236365412,0.22529257882958142,0.7081101402782443,-22.282784942809545,-35.49255501064774,22.82024367393126
850,-0.7100635823213287,0.03626780723449984,0.20234235589428526,-3.904327332717509,-7.322468032756044,-14.077303373645663
860,-0.7284623393005591,0.2442832019621164,0.3870893146722353,-11.771883434355612,-4.97311835339667,-6.307372706012337
870,-0.7530359671789564,0.2542675254172104,0.34950667113981837,-10.463299685031723,-1.9165345843265384,-7.953933152241729
880,-0.7714896557526771,0.25629475071402497,0.3506613808405512,-7.9953457949091575,-7.54714895592056,-0.6071266376143969
890,-0.8021673015995942,0.26361531843209873,0.2905160519682527,-6.16610818672105,-7.236511858579189,1.2668781817453743
900,-0.7603665852688616,0.2883201804536605,0.34958748496348224,-9.482922556200755,-9.364481613417816,-2.86457032445312
910,-0.7360673163921048,0.2714692906571763,0.42576042376711726,-9.800898462262138,-9.770852145350592,-5.30021845082399
920,-0.7544010863784463,0.2981990109556958,0.3660897359517232,0.4907598227516774,2.025767320204885,-4.01540484298552
930,-0.7612358042132925,0.2993141945575396,0.3438090482428778,-2.1691456802746343,-0.11366305333702376,-5.998506978646477
940,-0.7625306457622232,0.2848764932782945,0.31888024800335196,-3.262064115307903,1.077101992941422,-5.788891797338092
950,-0.7851242405507225,0.25127850142895375,0.3111270174353119,-0.18063607455399922,4.084611815289351,-1.8511870303243159
960,-0.7471531306141582,0.28790540953244387,0.35827355701945374,-0.05258858370144681,1.6284258631500528,-1.7871781629875299
970,-0.7723910151620479,0.2724510759660842,0.333137633796124,0.40263607892698283,1.0970053975189904,-1.4487568870478156
980,-0.7668417983058259,0.2816201370662928,0.3364443982287628,-0.06337330555205356,1.5330156304069302,-1.0294486984607436
990,-0.7661153047298188,0.26791002511218687,0.33581313633788307,0.902034642140712,2.5192935696414267,1.8306487589209435
1000,-0.7491567008286079,0.29236827606913873,0.35297497220606633,-0.6098278482745528,1.7668271067474501,1.1628621741451743
1010,-0.7712823784550505,0.2570751607261412,0.32807857864388307,-1.942325292984758,-0.36336005850021047,-0.45191304202442906
1020,-0.74812496657897,0.2868734514875634,0.3554767774447721,2.3357298231620907,2.0510840259482634,3.21759143154133
1030,-0.7655101279025671,0.2783328571071729,0.33967140988036204,-0.9298751717443887,-0.8041064945286778,-1.3990629141822577
1040,-0.751645279058931,0.2946996957280292,0.3533917917552776,-2.0549149659300996,1.230359871624869,-3.2910162259444746
1050,-0.7445679471817023,0.29557958683315877,0.3572979355239599,-1.2176142005537673,3.4792509813391854,-3.0170224235764014
1060,-0.7613180767487618,0.26790749936904157,0.33388134955286136,4.6101114633674465,5.503136299181126,1.6762690186688984
1070,-0.7940474149575225,0.22955419635955987,0.2999899868591969,0.5637413696171394,-1.751687060197116,-2.115828751093805
1080,-0.7358473574753878,0.29371892732821986,0.3631069325854235,3.405108852281609,-0.534478341467198,2.60658351147073
1090,-0.7600297054807873,0.2782181838290971,0.3414850706592712,1.053432583224882,0.38400026343946037,1.7261004570426102
1100,-0.7551118904810594,0.2809367217697961,0.3468660227793947,-4.0081559813841166,-2.3529405121812186,-2.82158412537785
1110,-0.7760839120452172,0.2574468415301454,0.3248141113768092,-1.78946204232321,-0.36935537119504946,-0.39000484702855
1120,-0.7139485815272815,0.3209157894836093,0.3877975648102555,1.2511064463141932,1.566234000543616,3.724527900983224
1130,-0.7709598551501285,0.2657244267312467,0.33361062599503294,-1.665971483424299,-1.4750913093791145,2.269098651252677
1140,-0.7534288147662911,0.28347773300640033,0.3479372289182335,-0.7805700954931422,-0.664793751024741,1.8208278091975452
1150,-0.7380026268554951,0.3069450141459509,0.3618314042085728,-1.098925796196065,-0.13997262794953955,-0.4722135162037498
1160,-0.7441058646708842,0.29565845204520513,0.361181207948146,-2.7605064774230885,-0.9926294378903895,-4.10943757344572
1170,-0.7795183530805364,0.25614543902046627,0.3256276780253567,-0.7474664407766113,0.7852751955547451,-2.7879839730498817
1180,-0.7799814386951299,0.25443672974161297,0.3224267832878104,-2.5801445572910056,-2.304024659967307,-4.723285800690828
1190,-0.7321050787577409,0.30331280148295364,0.3695844573532799,-1.2848240889387184,-1.835058963925983,-1.6263930700717468
1200,-0.7441758735702048,0.29261116244321567,0.3588303358448058,-0.34745937953876227,-0.6356340391320168,2.3332854785885537
1210,-0.7742380775772467,0.2625403344287411,0.3269814915606969,-2.060628463207399,-2.3867357370641624,0.23602009820395597
1220,-0.7369605117113458,0.3051291449581145,0.3643729186860574,-2.8593293349277076,-2.5223243993984714,-1.1941954518994853
1230,-0.7513013857347447,0.2895577963472302,0.3475192518869029,-1.964850475087839,-0.9664714413484069,-1.4751924123215807
1240,-0.714484713738331,0.3217548562600495,0.38277115062889855,-2.628849695349108,-0.7361347423965967,-2.4391544870114314
1250,-0.7521382183323427,0.27693946461615104,0.34711243491716626,-2.162165796829896,-0.17071983327313628,-1.4708587287975399
1260,-0.7471428377425328,0.2839255672994672,0.3564596076768417,0.4317648706390689,-0.3526857691200468,0.8474092319787352
1270,-0.7534092535987488,0.28778300176113875,0.35225401870666445,5.827224281816009,0.8975541367863175,4.81295691871849
1280,-0.7612427506561792,0.279031969848548,0.3399232829817373,4.947884609432879,-0.504164317883073,3.17614441680667
1290,-0.7869564349501577,0.25068279841331254,0.3101501513180573,6.0548697732531025,-0.17532805424283784,4.574413753403541
1300,-0.7754640944814447,0.26361373738522936,0.32721077848918084,2.7002231534947496,-2.903112663409217,2.696815018588622
1310,-0.7507175326004888,0.2986211736954301,0.35293209806993014,5.8926958073775815,-0.24097953229463687,4.952602131455926
1320,-0.7898268752306147,0.26302854246787677,0.3123004386003897,5.690896091197882,1.8896537538154823,3.8613387981092515
1330,-0.7489274418574677,0.29469493156717413,0.35196620970771586,-0.8228947831126923,-0.1748812507137763,-2.300782111276158
1340,-0.7669793365845415,0.26588673594168005,0.3345075770250047,0.06288003106290208,3.2639361758170184,-0.350850906929999
1350,-0.774148003569018,0.2621394926451621,0.32931772705980034,0.28190982949862586,1.316525013860725,0.4663179210465103
1360,-0.7716659910444743,0.261506106627131,0.3326641088322863,1.6371950633687178,1.7646862786550748,2.8097269873585464
1370,-0.7829799174348053,0.26242643680015126,0.32067780262761575,-0.4261470327058119,0.015109204765593853,0.59026028821422
1380,-0.7614020408115686,0.28611783923486955,0.3433586641151151,-1.5891380047141814,1.432703252228519,-1.1266082303271456
1390,-0.7352814129115135,0.3114208809170226,0.36888279404158986,-4.123266513667972,0.6928191478302985,-4.863017566487826
1400,-0.7521378992742226,0.28703206850609336,0.3503398955553812,-2.4486013252789443,1.0043174111946467,-3.889534943520754
1410,-0.7637835899425175,0.26722315784454465,0.3360436477822978,0.09893408166314799,0.5399011587695435,-1.0355514389422364
1420,-0.7463660169278477,0.2880134448443793,0.350875183851255,1.846548553964547,1.2569277547211903,1.2366054573384575
1430,-0.7656648375833672,0.27358887655686875,0.33786608483043185,-2.2919953736930156,-2.5487019390943915,-3.362425435390663
1440,-0.7432760223871837,0.2940972014639958,0.3609191223165182,-6.984251450588501,-4.919635995864589,-8.455375923534449
1450,-0.7480872309366832,0.2849789597331182,0.3544771308324791,-0.7472752317382408,1.5965052590850446,-2.243965356237208
1460,-0.755061747206698,0.27636308255073544,0.34748439556654515,1.0974350542260423,3.1040797212110567,-0.22570002294557234
1470,-0.7576045758591268,0.27454312912182066,0.34043492605379944,-0.406974792478061,0.3730954777708573,-2.7327262623540527
1480,-0.7707446994941392,0.26216920716581826,0.32215078834298994,0.9860966777971294,0.45838399879890246,-2.688894955276574
1490,-0.7595336820335926,0.27194188300358685,0.3344718147883042,1.491694168405271,0.5327481437920182,-2.0140925401837984
1500,-0.7327043760945161,0.29470578915559087,0.35787159303060573,-0.7325789607108595,-2.889745071552315,-3.3924012651462574
1510,-0.7483079626955697,0.28528174122183747,0.3481872451759837,1.0827021113820698,-0.32084488636698616,0.16663320487603794
1520,-0.7645069573216612,0.26807823957919796,0.33526425491979667,0.7177423752252684,-0.3680857191909215,1.2119059341391365
1530,-0.7547115950149897,0.27757430720908727,0.3439826880483058,-1.4296934444526899,-2.233137200471736,-0.4738829414077532
1540,-0.7392052960563416,0.29375830972947026,0.3560251579863276,0.9838368897268958,0.5979357464828994,1.322942803999957
1550,-0.7662341570998571,0.26741948076973354,0.3267812314783822,0.3922853062719154,0.37110998936291506,-0.24033055404897996
1560,-0.7519723181280765,0.2807721561712234,0.34073161997994234,-0.5970958234095257,-0.5585644147386664,-1.606219216878856
1570,-0.7603806741989613,0.2678390401651019,0.3287399658775422,0.5505402717672381,0.47621364726145105,-0.011561046030985705
1580,-0.7760322973068505,0.2584637497856526,0.31636284718310254,1.464775915306254,1.8303040877064916,1.7194381482868466
1590,-0.7450154304319201,0.2879514191206602,0.3490067714831432,-1.5984678219455253,0.3728516291793529,-1.882257012805093
1600,-0.767808711987958,0.2621270025939248,0.3292377640000985,-3.936076109125157,-1.4009341009563736,-4.306823621197434
1610,-0.7377800511537566,0.2905825179535617,0.3585071908048394,-2.1983911460829173,-0.47636510061221266,-1.6621211379636927
1620,-0.7907734244189351,0.24117979381699234,0.30416835183644686,-0.13596208202393234,0.15929383710482387,0.8805470725908117
1630,-0.7626068124253632,0.2746775802929992,0.33359006384186585,2.3557662815819596,1.9742620559744855,2.7236460554359194
1640,-0.7705372397428224,0.2610656508902897,0.3236565210032474,1.7665263353338254,2.479042313180405,2.359530392139685
1650,-0.7716328062925201,0.25962127754511677,0.3222297201313332,0.161682997774949,1.2425882513815245,0.7143600349555211
1660,-0.7861717995915841,0.24060901823098574,0.30736906575700373,0.29792509318229315,0.21493387127892222,0.6841040269225612
1670,-0.7527603654324182,0.27800330344716606,0.3428669442924618,3.1818046869894037,1.6336965257516713,2.7449972642073615
1680,-0.7507000769799599,0.2811029415981591,0.3495439350352847,-0.594241036938405,-1.9658360859096033,-0.15096953496095766
1690,-0.7535325303649618,0.27909988708650174,0.3501322817348783,3.413246677343662,2.2551891706956217,4.894274696717373
1700,-0.7577618531658616,0.2788098308771439,0.34602144179736605,1.2126014244213907,-0.649420542513856,2.2638853521696274
1710,-0.7311132279632798,0.3059895070458571,0.3717054294837107,0.5553520359406106,-0.5433748065495052,1.018130783715683
1720,-0.7875067079839269,0.25423077258044086,0.31076597420370217,0.40337585635303774,1.4674379067293546,-0.18611080511625722
1730,-0.7631281026025653,0.2701453686694206,0.3380591891689695,1.7132796999279019,2.6689778925847896,0.4941251935331592
1740,-0.7574274343903371,0.27212204234354304,0.3417223167715259,1.1657930128956178,1.5484405646238384,-0.4187458202358243
1750,-0.7571438889783518,0.2759259904027165,0.33950298368536364,-0.6762886945939701,-0.42903635821206054,-1.1357983568536967
1760,-0.7698827608490155,0.26449253318990684,0.3242433598772273,1.1437258308346927,1.4584261879480382,1.4753252874918754
1770,-0.7514127635534372,0.279993425680268,0.3418533289343743,-0.07529714126694786,0.140114345012477,-0.515193408954318
1780,-0.7700718794985504,0.2635402895949409,0.32740781276372577,-1.7177652681073636,-1.6014913966079236,-3.166851561465649
1790,-0.7392233722614069,0.2949604372946595,0.3597141500243796,-0.7338142778749308,-0.2421851833825236,-2.03658276063226
1800,-0.7405601459589767,0.28645828062039924,0.35689488297305516,1.4639039526645479,0.2904822616957475,0.232153247470675
1810,-0.75021358412177,0.28096937732992844,0.34896645249910574,2.822184135796827,0.7568896051869742,2.313219716052052
1820,-0.7612358966124945,0.2720790010320168,0.3405265507650617,2.2491257746466764,1.0717557252331886,2.3946669363183317
1830,-0.7419258976889843,0.2915805181050611,0.3596627569618338,-3.4080583576015986,-3.3512278555825397,-2.9603109824466993
1840,-0.7690248724300693,0.2638448498348624,0.32760582101860003,-1.1726597714998916,-1.4040023791114702,-1.0253782305867536
1850,-0.759564939038057,0.27144349455736727,0.33203037791511264,0.6696896975024917,-1.5380868182215277,-0.16383904528777693
1860,-0.7721463341923054,0.2661554368681269,0.3336044847970978,1.3983514711219076,-0.9246307741871147,-0.10793008239710322
