time_ms,ax,ay,az,gx,gy,gz
0,-0.5046974698721721,0.4866683776330386,0.886585570723094,0.8732469883867792,0.6679136253921553,0.6174495264156415
10,-0.4924875971273531,0.49705520175778084,0.8811411858533538,1.1480015131636996,-0.6888324623640576,-0.3599676184926238
20,-0.46491597487414077,0.5182030243452562,0.8725480702549147,0.994740425572794,0.6832290785187041,1.0661737448890953
30,-0.45598653859952765,0.5321878997547176,0.899321203566879,-4.028297149637419,-0.8070622324718005,-2.3989131739717706
40,-0.48053161954950113,0.5177911355936388,0.8878856433301479,-3.7968369660479344,-0.4017364130524271,-2.063388911847345
50,-0.46893984045854636,0.5182142690838063,0.9148539212255616,-0.3881019217206063,0.9271508745906634,0.2404149937486323
60,-0.47616738714575846,0.4986513250197236,0.9012601615037075,0.2456448314553238,-0.09656270472548656,0.19894225068494614
70,-0.5009046347143781,0.5019759402102806,0.870261469104373,4.037495425169016,2.940937654287127,3.472803429200808
80,-0.4587475746957934,0.5381153843851572,0.9202155789908172,0.5064795204545505,1.5260208207600479,0.9315586609906438
90,-0.48417752985216705,0.5053380000705547,0.8832528874380093,-0.5921556851182035,0.5255804821345597,-0.3156767455868407
100,-0.47507641276169926,0.5151945330705401,0.9011341097254987,-1.3151542262259535,-1.5084876199557482,-1.746788498781601
110,-0.48622305000729477,0.5022279882093018,0.8967093434341339,1.6714660139697455,-0.0906379141127599,0.5981787285594374
120,-0.4853736571699883,0.4918852395791261,0.8990581437693002,0.5336301576675266,-3.18245140395048,-1.386779359188039
130,-0.5059191159452349,0.4789067851387394,0.8722779274626952,3.794586353920701,-2.00350547624371,0.9801547249755009
140,-0.48072037689280916,0.5008916473796837,0.8952461356288216,1.342448797558969,-6.263069467902006,-2.356063984786143
150,-0.4303996849004618,0.5470101283241304,0.9348250647365416,-0.040283194287373814,-9.973743189525033,-5.892004739033881
160,-0.44731009997685145,0.505015470013069,0.9350048675802937,5.5538580793184975,-5.827824181589069,-1.1913034619506966
170,-0.43734818094926114,0.5277134194783266,0.937871651571059,6.102495122129149,-9.764523262135425,-4.488992177513374
180,-0.4422837378476216,0.5219508770107066,0.9156759346568157,7.480764660857442,-11.464928624123527,-2.085409154285632
190,-0.398220574916805,0.5326993760410982,0.955820139457473,7.106532785592685,-12.692628358537377,-2.4033357614223996
200,-0.40686931182277913,0.5061145825462481,0.9087664418126915,-7.405188865409085,-16.746296983889078,-4.1110055767059706
210,-0.4203504297551445,0.5009690249592872,0.8686887181379805,-17.254158266017306,-19.105954318986228,-10.21156532103599
220,-0.4224722169147212,0.536953026428597,0.8518933392349289,-17.312412388231003,-10.096911394137802,-8.23012429234845
230,-0.4555396214172695,0.5284240451151734,0.8866381707755147,-15.703578685592738,-6.73463758251738,-9.326560507371958
240,-0.44515040122854566,0.5297379682240134,0.9433900408923739,-21.017517843473655,-4.230736506707721,-6.535641882145348
250,-0.5375539980593238,0.4391342117781969,1.0448048147803684,-22.636050481075035,-16.371956820830505,-18.59563394453031
260,-0.5486894569918136,0.5025584752496879,0.8844560829182647,-24.11232032979917,-7.283681940074636,-9.887485110623826
270,-0.5862445706555036,0.4856814669487389,0.7832281517308686,-35.840213809990004,-3.7314446603322446,-5.497099255475875
280,-0.5823230880015162,0.4979180461978144,0.8875282905594455,-5.586450773626662,12.169105302166722,-2.993262007215757
290,-0.5276615013563238,0.3563545587837625,0.9157367607544464,-0.5505497019234049,24.18606857600976,-3.489469456561331
300,-0.531911476824381,0.45904861465007424,0.6214063573956041,-9.825413720173348,27.475918997318526,-4.969928622231054
310,-0.3850313358856986,0.4256763227625763,0.9636013845016944,2.6265771362874024,24.135999897411924,0.8340415764815937
320,-0.3944559457023142,0.2799649219900735,0.7127839005509391,1.5944865223935851,35.67328884349205,-1.7869074679208898
330,-0.5536428036647237,0.31600447036593027,0.6532436679399021,-6.314144141168987,19.440696035817638,0.5913091148288491
340,-0.526481228901887,0.43108475806703184,0.74110986819942,-6.90440008171234,9.659262507710947,2.62100910423053
350,-0.40441385597147234,0.4246812859970091,0.9352081043534187,-1.9360273223006086,8.035836616965698,3.9674489315474917
360,-0.44247000666292,0.42160565784519294,0.9295123299106683,3.7663394592007235,3.227120683941975,4.669680148280973
370,-0.48335428863744195,0.4354835929769536,0.8929297352799432,15.571160364547422,6.2073017667851165,9.83662487500553
380,-0.4570009703711893,0.5021249311286047,0.9990039141205367,18.805963776716464,-14.779104199305177,0.7388314868198798
390,-0.4366673668309913,0.5346382174254475,1.0278911583079102,29.087372361244345,-24.725975874798728,3.173620614795717
400,-0.46305640654184305,0.4872808126614116,0.9035695706779374,35.8064826590495,-27.109325189419962,5.0072884015415715
410,-0.40276985939884374,0.5563134946456721,0.9009034879581419,32.42153528005001,-25.191825267931613,3.417232764206648
420,-0.3985790689257622,0.5732333405438845,0.8737502762493276,27.14185409971191,-20.163168666804513,3.3391422475116403
430,-0.41854533990674536,0.5678337468973815,0.8443229878180669,17.4923553955241,-15.33532481125368,2.925539474044765
440,-0.43918951535469525,0.5256688266948807,0.8667887050546129,-2.5110763875372557,-8.467833642101716,-0.5478866349482601
450,-0.44444759699511555,0.49785205593300463,0.8652482578068355,-11.560615115370716,-3.2982721401647073,-3.924563634754855
460,-0.4388501163029162,0.5136814789791909,0.9006416323879346,-16.128207050074767,-1.2432079369898485,-8.358832903502577
470,-0.47931493078453946,0.5138041526918746,1.0250658841920188,-19.06608567752748,-2.5213224511179044,-7.841802161397993
480,-0.5482332946581194,0.3763305088436072,0.9117628434546442,-16.772292410762592,-9.765538201842658,-9.980506343185054
490,-0.4782101292414073,0.37256981988690857,0.9074316751432266,-8.177972368863859,-11.37618612292767,-5.652070881981782
500,-0.36566064434186907,0.513995319968338,0.9467042683130948,-4.65820218285794,-10.26608474439369,0.45834924751321604
510,-0.3664923598323205,0.40449535371550155,0.8768977630224144,-0.7921574558291706,-7.613523215595053,-4.144701945766753
520,-0.44198389642287395,0.42287036401288075,0.8373489332663077,-0.7331948641646342,-7.221176613103969,-18.065932808593715
530,-0.4966718499025788,0.5230565526619191,0.849495737215832,-4.750786418123703,-4.968339585064177,-6.696865626184122
540,-0.4798628267065772,0.464605609123142,0.856322963747834,-4.271726982510005,-0.9810915650589469,-6.769059599392284
550,-0.5200041864383668,0.4155146095154459,0.803620678215121,-8.252262481338295,-1.8073813934314744,-13.323365508808907
560,-0.5576919490461193,0.4881086155662038,0.739437457272866,-11.795958874998966,7.296964170664206,-7.626737607865658
570,-0.5980500113214838,0.44541535057359305,0.6611102168436043,-14.816823038567922,16.047277654766187,-2.7185797429770924
580,-0.44843432472969813,0.5667290401486054,0.8924225070636228,-8.24379994431946,12.354823168104668,0.7712586709828779
590,-0.3705729535758437,0.6418214295239457,1.0154765066838767,8.5207325811172,13.003936309335153,3.1129457956725837
600,-0.46983422187000823,0.5302331288978087,0.8984021261023175,-0.8838918241295458,6.869807198404709,-0.7105214295595901
610,-0.39746386843501147,0.4654693516091153,0.9610582187767263,-4.136869566447596,12.097247687256397,4.541639397599209
620,-0.3258920548641932,0.5663705857366174,1.0227238825302747,9.073772253545904,9.513458158203909,7.007626611766664
630,-0.4341096304656971,0.5404283969102435,0.9150388429417404,19.993037197609937,8.205741712249484,9.245603170378317
640,-0.4165426082733525,0.4785771277278555,0.9386162636496616,9.976730398202925,0.690787149438961,-1.3194360006417734
650,-0.38743415244804696,0.494204911293854,0.9659700524633902,9.660705753180961,-1.420708690090901,8.378379097180847
660,-0.39734068392664046,0.5010473466728328,0.9543938408437964,8.177136560399505,-0.1370876476450077,14.709202571011156
670,-0.45287710691016475,0.46495229845615427,0.9221875402981271,5.587023792887668,0.41533817634632697,3.050657108375143
680,-0.4620865309225546,0.47936886909313237,0.9165134419449135,9.133170849517642,1.2171173935032362,0.4655618956141565
690,-0.47661623251165197,0.46482750215197915,0.8892554821625727,10.31144536073258,0.23177030711262758,3.1631163459997635
700,-0.4282627604934208,0.5031779028308699,0.940030219772248,10.60836766338359,0.11717284404088152,2.585934166790947
710,-0.46033004001470135,0.46096834373805595,0.9072204139960788,7.192632852933789,-1.1200408801651491,-1.5453686337060615
720,-0.4910423779550733,0.5223558851208648,0.8921350516823576,1.9948190672460724,-3.7754041746330427,-8.527034711651822
730,-0.4754398790723191,0.4932543511650622,0.9003612426489389,0.0781618082307955,-1.157537447169371,-11.702910291545296
740,-0.45749083011995795,0.48708279130885246,0.9621482406419183,5.831870532366478,3.771915573087297,-10.239830403198123
750,-0.46502711199944974,0.7292838012858511,1.0427251918723315,5.380539266101838,2.5981306263661765,-5.5325456042583
760,-0.47288705416221405,0.8194467342940484,1.0733863606681604,2.0726624313711834,6.421218022320014,-0.13962769905787464
770,-0.38752972080611886,0.7994511475852164,1.1427936368989091,2.78433678190582,6.346395539647382,-7.8326647057909655
780,-0.4308053426401415,0.5715441357916492,0.9757404167117486,-6.63284618112257,7.395298373134231,-9.855797409337823
790,-0.5483570250406288,0.5353724354238388,0.8388127990348239,-14.740110681796226,8.830466983034027,-8.211813991514004
800,-0.5871540905532578,0.5255063975210159,0.7700029679935843,-12.494550909898644,9.640900933697965,-3.748923244899186
810,-0.5246574655115991,0.5751191948511982,0.810730087996139,-3.62961320103449,11.266647518820479,2.394300250433642
820,-0.44733871986225193,0.5203110655860772,0.9166595533111213,-7.627320747818419,6.421265192392021,3.845265268305525
830,-0.40421732182329223,0.46376590982503857,1.0178238577419667,-9.789847243941148,5.732570790498091,8.688503208456913
840,-0.43689730527263665,0.4443855101639159,0.9522482532368128,-6.235633732023066,7.404061214180439,13.080193499933133
850,-0.3447144296346221,0.5191473449381242,0.9827413138691975,-5.452273344818298,4.550233913456381,13.928910967788097
860,-0.4467459393233659,0.5533210543895443,0.8527346911888504,4.677670133737827,4.139289219381567,17.84192578658849
870,-0.3949842514331174,0.5135931027310067,0.9483967538194926,2.585938209621159,0.7902684882246307,7.708334896295195
880,-0.43563415413699114,0.426288797951605,0.9185593662604997,4.720721728543024,-0.9069535960163091,7.8085768682976315
890,-0.44247063157353517,0.5525141123963402,0.941653019113536,13.42903737192315,1.7685342382359672,7.565123055364558
900,-0.49939656110275027,0.4596523683101874,0.8786577301033652,3.5570724865559473,1.217751445790402,-1.0138982150563876
910,-0.45946315015409167,0.500449563524818,0.9090757562440246,8.945496645458546,4.131644385006078,4.317761209460415
920,-0.4492308083615153,0.5083531215858375,0.9148762766735699,3.5479315889282406,-1.3592024009274395,-1.1051206298269274
930,-0.49038756045877774,0.46708529541957244,0.8707823943976604,4.2968254744884575,1.7531499865559714,-0.014308044906279793
940,-0.46200193223404024,0.49450426784278645,0.895694132535065,1.1397864320519717,-0.0686893812168171,-0.9550833004102588
950,-0.48908786943947,0.46873846789042034,0.8750133695611679,4.292071760565612,2.7840686906959795,2.8575441269705393
960,-0.46444056350217033,0.4926090565875273,0.900512316341507,2.403541702163357,0.20759771730757182,2.3465634151738786
970,-0.4895821121681842,0.4797724856856956,0.879781817810597,1.2848827236656204,-0.8199559692283953,2.447380351093375
980,-0.4811998927717999,0.49195972325158127,0.8875656332810741,-1.4680328817671169,-1.7107168254599514,0.1677869016283614
990,-0.4587888901563745,0.49852391189305567,0.901400765356246,-4.68962205506992,-1.8638698714992366,-3.402999080157482
1000,-0.4974315932182825,0.45570488505474116,0.8659999900512766,-2.775675573546879,-0.8511320536395675,-1.8834124228699967
1010,-0.4981171052530461,0.4559863654834497,0.867205571241747,-5.444584922278944,-4.061729386320006,-3.939893514292035
1020,-0.48413086171605574,0.47852880878107096,0.8888660626669965,-2.4966741572149465,-2.529870041332402,-1.18502865790199
1030,-0.4876721396620201,0.4826074914097078,0.882599764866562,2.7780439801211427,2.769044740886514,4.157149069426949
1040,-0.4536490940347162,0.5101592204455397,0.9078037412213071,-1.5877418354030524,-0.4478104155784422,-0.0525586930605101
1050,-0.4419277399677129,0.49368125771082544,0.9198627141737293,-1.288799073495261,2.117891307705572,0.3519135078294082
1060,-0.48970653809745496,0.45155724653890006,0.8687455277648437,-3.107903433489705,-0.5735681008550436,-1.5134170335169785
1070,-0.4708190731919089,0.47716477829877774,0.8908144925991339,-1.6365552439026732,0.13380615775108273,-1.0515362291645294
1080,-0.4657344985084708,0.4883976618048706,0.9008618644338985,-0.7011805961812752,0.5223429687342944,-0.7843829233987973
1090,-0.481860121748486,0.47191735425419973,0.8795531066850711,0.974699108953647,2.315513892297906,1.0178390184612427
1100,-0.4823089971656998,0.4679035988907917,0.8778925192441576,1.3789773346392353,3.014894288162699,2.2693957228257204
1110,-0.4966837403049886,0.45600513036056584,0.866413877393543,1.6642120553926838,2.0373850564774476,2.223209704268321
1120,-0.44530396934695265,0.509538319570698,0.9185856869003091,1.8157018115899337,1.0779582994873458,2.015828211620236
1130,-0.46942482286512666,0.48803623710846195,0.8908385912409141,-1.1819854747983047,-1.7708662977537144,-1.3491522548812995
1140,-0.46244745574582347,0.4975463104969974,0.9004940105982098,1.2745858032543351,0.7433619349552865,0.9933234671001958
1150,-0.48662303223833125,0.47570383394110677,0.8741310169496385,1.1819280729903072,-0.07501779807764519,0.16131630106084816
1160,-0.4620545202953897,0.49893859701686966,0.8942173139494184,1.7945604919106877,0.10847102943950443,0.07098083060128546
1170,-0.48954163316722044,0.4711347618846071,0.877582863747758,0.850134564965138,0.08244161752999057,-0.5117934051618721
1180,-0.4643809503815659,0.5009273679117131,0.9039503714700651,-0.20360866725384968,0.4596120468127354,-0.7763344484607835
1190,-0.4697560861744335,0.488523421567064,0.8944523048773791,-0.495310294046913,0.5437833483497687,-0.6224414973599288
1200,-0.48354083751688554,0.474577927832937,0.8800323146899569,2.3164667490955306,2.264322491691539,1.2983061892960448
1210,-0.5065711922345802,0.4583804331837427,0.8563012056562446,-0.11217068335890734,0.5482733467882682,0.20410297079227166
1220,-0.4784559313814683,0.48727536352306167,0.8876935784293369,-3.7870287512710465,-2.232979245267311,-2.407005279543114
1230,-0.4610234753063057,0.4959628732600958,0.9029738647170051,0.26655279441680685,-0.13885433141991033,0.20403689767748118
1240,-0.4606127183236211,0.4933289971542413,0.9028826156195184,1.5191864599583558,1.9204027650321507,2.3644199961852905
1250,-0.4763118185351314,0.4767802153001602,0.8829752870432084,-0.06934406414591568,0.5441876044538096,0.2204184602904093
1260,-0.465094662516504,0.49420483125092296,0.900500951966845,-0.9284535779993984,-0.43230020015676374,-0.2288131864730445
1270,-0.48208410986154787,0.48339212577841606,0.886802308896023,-2.1688010400191193,-1.8185671604234588,-1.9668703948290083
1280,-0.5055751230232048,0.4600191981449613,0.8641400855967063,0.15949828929443277,-0.10305543876185053,-0.5830482083806217
1290,-0.4814882821867808,0.4827040705654334,0.8864245271092571,-0.1308006992862374,-0.5118590648364632,-0.6680889538812894
1300,-0.4763246389037649,0.48408057833109935,0.8822079350610564,2.6867044126411344,2.2150707292007894,2.479907459440332
1310,-0.46020465205609745,0.49868160639734105,0.9032119991885268,0.5284787785234675,0.06480720821907882,0.3956390678627829
1320,-0.4570845015760295,0.5090264942224736,0.9108438112418125,0.1755128794594086,0.5443423569939624,0.6162494022540481
