time_ms,ax,ay,az,gx,gy,gz
0,-0.6483328215014547,0.9479959673190866,0.7706933178811827,-2.091321476316386,-0.29193271392506404,-0.33121975564651335
10,-0.6408614051439958,0.9508406997184118,0.7816257909963487,1.1074920116668812,1.8878842317563722,1.432506840060686
20,-0.6401676089737351,0.9478611136309109,0.7742981713518795,-3.163244920654161,-2.6527427366222125,-3.2034055089610316
30,-0.6547761970289273,0.9337943414932954,0.7578501330726389,-1.1597512082514423,-0.586785838971863,-1.424636247172222
40,-0.6668521028458845,0.9220307202574752,0.7504974706878599,-1.3847540678598296,-1.4000949413283241,-1.5967433249945795
50,-0.6428396040928871,0.9469389946221487,0.7796742887302925,4.193528946989976,2.8802002452840423,4.156635676787497
60,-0.6639479668843468,0.9364601720675299,0.759997434680697,3.332671522964485,1.445541946670498,2.650845909764557
70,-0.6637937616442161,0.9318305025000632,0.7611549569220862,0.9396069929663196,-0.5131096214851583,0.17136505604499697
80,-0.6191863606980494,0.9728075471258272,0.801326489566919,1.7766374954738668,0.9180282080134305,1.1438749874512704
90,-0.6232337244667204,0.9658090508356263,0.7949751849423973,0.4990852141798227,0.058048505635849665,0.02652029338974762
100,-0.6463429945602802,0.9398512761357413,0.7698425123428233,-0.5863491951140591,-1.1484951639607635,-1.0479924158230396
110,-0.6507646453560899,0.9358855287456589,0.7618870064944429,2.2637451976748553,1.3799939998469184,1.8412905154279706
120,-0.6405518132330754,0.9526357215488205,0.7684523051158134,-3.8593634322199684,-4.349681767596506,-3.794586704537051
130,-0.6265385337325596,0.9685166813291256,0.785878368420677,-0.5955030339064992,0.8391750876418935,0.616307739541087
140,-0.6596322390666507,0.9394883475627883,0.7629220299804423,-4.465841341063052,-2.0150278178613723,-2.250006691188018
150,-0.659087205950072,0.9364001342283458,0.7661267092314166,-3.2170742497434786,-1.3749460821327864,-1.4208472851233303
160,-0.6342660940484925,0.9570081682407015,0.7908818349113824,-1.2753759937950258,-1.3032231245260406,-0.5245667159445685
170,-0.6716731158712487,0.9237579764523197,0.7644489247586457,2.7792056415585713,-0.6153659540585854,1.4073216832759234
180,-0.6746694864010183,0.9599378297797411,0.8168451396144619,4.250387646161347,-2.4009418119207644,1.3899302744428073
190,-0.7067107587338821,1.0463776048731892,0.9320571181714536,-6.53250366437411,-11.189319241544261,-3.5213505781902814
200,-0.7009091188881013,0.9633673471345842,0.9031105495879378,-16.27919015255057,-20.007827682259013,0.3857353835380175
210,-0.6864415127144906,0.9278880866135456,0.9736369768718796,-11.313731618895629,-30.227984363914956,3.9876282867152777
220,-0.5728467328176785,0.8863489963615031,1.0209795475391579,-16.36824967031847,-41.8249400459248,0.9730239504455147
230,-0.5312114946267327,0.899607876328211,0.9559505268180359,-22.362661513274407,-45.91615609686303,0.4549444808712938
240,-0.5021970044047565,1.03221832360514,0.886254837643126,-31.58568233880538,-48.05480773612545,-1.3130893890654907
250,-0.4438035259541443,1.026622177434329,0.7903109555657324,-42.3187981605886,-41.730503581242736,0.289897133535909
260,-0.40977204447388105,0.9688406095889701,0.6972943332793757,-63.6558730104732,-9.91059809647103,0.05532368383047537
270,-0.5176239439821838,0.9107260457172186,0.7757815991277984,-75.92018246729458,-14.113334378334565,-14.51642608683371
280,-0.5799964792904285,0.8315866285401345,0.7853027623355543,-66.66583299842966,-6.73412173351872,-12.240671836793265
290,-0.6067171710857417,0.8199821468468639,0.8211484016721248,-56.80867496700408,-1.5588246683567646,-9.709258957489547
300,-0.656873319978581,0.7950785614267261,0.8069943863127892,-53.63619821667374,-0.08103023283802724,-12.108289055208092
310,-0.6478830402920427,0.7800844028743307,0.7553945705012931,-50.85760749744185,5.84512447433383,-13.21347465839363
320,-0.7300087367714897,0.7524025532361924,0.6435340722528189,-44.18712365755877,10.288121538654455,-12.59565444483203
330,-0.8464479034451609,0.7570941212517297,0.6671063481095898,-7.615031370372841,9.117663239391902,4.506426008965564
340,-0.8433586665933606,0.8515899301223917,0.5804482416771501,21.203149215189868,15.734956239124845,11.607869256368552
350,-0.7737625787185293,0.9556410831491764,0.6899437934261309,73.80499558426934,36.18028477788041,29.51259631255715
360,-0.7502299900113414,1.0554485971654306,0.5974368874308883,114.4937507671652,51.37242427776505,42.48721702045868
370,-0.6877507217084421,1.2124279661068245,0.6203406422844381,131.471217135467,65.90056093601378,52.837004332948425
380,-0.6742649952252526,1.0748100459711276,1.7507437600384637,119.18441722910772,67.88889431168026,45.79164851909185
390,-0.5345554542936642,0.647517692450507,2.1684585612624847,45.90556927739904,70.90409309244593,33.004398905316236
400,-0.5658766470410622,0.8746726639341729,1.3902666574806726,51.7765948600281,39.44706363010039,20.13387840840533
410,-0.5590655024963483,0.8114328955261791,1.3374370529801873,23.048672518146137,15.451993473648459,2.5654829596971065
420,-0.5557711283388014,0.7819713160298611,1.3707236918790175,-4.807403488570397,2.0785335532236737,-2.790808507109243
430,-0.5615873586384726,0.9145610480480527,1.120775225132418,-5.082647557774095,-3.9179122835990987,1.9383140692219394
440,-0.6455315671576648,0.8822697359286508,0.8030619878671846,13.485862760182794,-2.6800119573092998,3.195515211128111
450,-0.6221632846677766,0.9745801057872561,0.9259089705750652,27.592771599369527,-0.8564834943372848,10.407597009757954
460,-0.6260296017899116,0.9814606759190134,0.7808046406287136,10.480635831732815,-25.669802182530887,5.024223895277013
470,-0.6839715503597537,1.041322497170137,0.804868922534338,-41.03259521776732,-45.003505299999674,-3.6761741423506753
480,-0.6715380935674401,1.0964675301630764,0.8257460013898252,-70.89825953555675,-48.39338480026803,-5.614552909857135
490,-0.64083423505061,1.0361834691182186,0.7213683944257456,-74.15949059092819,-47.61293944608449,-6.573181317644652
500,-0.49442411633231453,1.0046261867241675,0.6938377457613364,-56.885018491342265,-38.78471774721357,0.03642501031004919
510,-0.40542149316785214,0.9167235788050575,0.7013563996626561,-47.26603042075031,-27.89694823769229,-0.4418009596449486
520,-0.38690408019831507,0.8667786043685416,0.6944348878474479,-47.86517799986436,-22.837280143427012,-13.840342863023983
530,-0.40233758671458025,0.8655136835553107,0.67243360755699,-54.75223197701156,-15.319690475433973,-26.86144495432611
540,-0.6611569984693922,0.5654583611973728,0.7682291326849237,-32.196710181720924,-10.328237968435266,-35.178906456557485
550,-0.7483283083619561,0.41967504585348264,0.8407686771348791,-17.027862939437977,-12.757540074704682,-42.788229696576366
560,-0.6233806684598938,0.6079135374021324,0.7857763709047039,2.0802395246202288,-7.407044450478416,-38.60451978334105
570,-0.7307391184286992,0.802057369546629,0.640392582471794,48.18344344654858,-3.9990566941555086,-38.0075267963753
580,-0.6001533696146101,1.148208233256928,0.22621219334483833,16.393870369310456,-1.6776727532834639,-39.01572061746242
590,-0.6768492065237534,1.5375492774650847,0.5303510582620597,84.0855662156855,1.9192337447727716,-13.656653656381835
600,-0.7439929549593994,1.2857078069258423,0.6557108007504954,83.41733845086888,0.04440271103934523,-19.2616841499529
610,-0.6245696099512278,1.3496986383749088,0.9654621096252335,84.98358285438844,8.809733359544607,-8.158456417808528
620,-0.5192831489102187,1.5410813084208326,1.0480521562957228,85.60165478608815,18.608111373356515,9.165461892452214
630,-0.6231019175836805,1.259897838697263,0.5544480449168789,55.321101553381055,23.181426306108023,9.779112071402723
640,-0.5255064817346403,1.3341428393668249,0.9563259258066545,41.05922414924578,26.83097668737488,23.1944080315221
650,-0.6069249031993311,1.4861494170565883,0.892596895548416,6.828068940195362,23.537823620032018,28.9231750715084
660,-0.6035255012951096,1.298612067289858,0.8116443799775446,-15.707173078901516,11.93412848182052,25.80202469076471
670,-0.657428982939674,0.8991844215779923,0.8776017411406365,-21.498042446122728,9.67777019092901,25.444127131839455
680,-0.6979743564067004,0.7006796972177762,0.8647902844213582,-21.300868449134054,3.314040396903902,21.135049475568028
690,-0.6632001271048865,0.7614114181902422,0.7083815041540281,-9.622268138316372,-6.179461318705345,16.36452750043261
700,-0.6079603504851895,0.5639476856593818,0.8132237300528206,22.434860215271723,-3.844747534464709,15.060835705265772
710,-0.6467269084283815,0.6038492743992478,0.7734724454475658,24.678046189797364,-1.2687090015348623,8.105614893724876
720,-0.6378511207920385,0.7565161052777588,0.8013563849538056,22.659401641770774,-0.6015101311207116,8.019561607694145
730,-0.637449692062876,0.7417825373702907,0.8128832252968687,38.5614388329363,0.6871336797207976,3.2344327067533114
740,-0.729280358035191,0.7392248856265407,0.6275606036637684,65.1228545741051,-2.979067781955405,-10.571233896363822
750,-0.7611000590104078,0.8897372606420216,0.5326095646876219,76.22201284617165,7.13122830975229,-8.9079608499386
760,-0.525173511256662,1.157794738453838,0.9618342049946218,21.532004744373967,13.166512816063117,-4.745048814206742
770,-0.6446781539942777,1.169531854515346,0.9779827682822188,66.5585590186866,22.95795726753423,7.105981431767115
780,-0.6934116111096619,0.9929873211116396,0.5591009737506035,64.20485277356296,20.281916691328092,2.094294349500242
790,-0.6707592101152821,0.9533960621940027,0.2570471047847614,33.90575311505778,25.732220695424935,-8.609320337971944
800,-0.6187132275167165,1.031253080507957,0.36650559388355175,27.08979293209726,26.6168527030662,-6.1246735552461855
810,-0.6545893152402945,1.1328580427325672,0.3315547877651597,28.981465742188814,23.715769208582373,5.356409187097969
820,-0.6492017388255774,1.2659770698583097,0.0020882147232997948,19.78742137652401,25.411027324506836,22.76623497687825
830,-0.18915027966279577,1.4516011280393186,0.6819466129487775,19.09654184189347,9.787996162066051,43.03485821679569
840,-0.5927719606078322,1.0193923419450102,1.0541937310581233,-39.87704027798061,-0.8644102973017551,11.747681199774545
850,-0.5328221608726856,1.2249776778626447,1.042994425921692,-45.57935638122539,-3.523329806850874,22.532560496126084
860,-0.6253783297892717,0.766776697858557,0.965155143140287,-58.83054114957413,-6.604141699644181,10.293649539305434
870,-0.7718257234097388,0.38160995219578403,0.8424283643498285,-63.206504817460775,-9.570253730393654,-9.419161327355184
880,-0.7099867728275078,0.6232908525478594,0.7918479048106555,-39.49845759028589,-8.89847947749122,-12.217722342463492
890,-0.6878491753420222,0.7124525933819342,0.7140971227229526,-3.4200370246484417,-6.058142237465562,-1.5047288720142666
900,-0.6604004393894506,0.8778278867377466,0.7521228566831747,8.838797679448799,-0.3198102396591965,10.6028579604423
910,-0.6715741074530545,0.9188944369556892,0.7583357157104081,8.792910152923328,1.4763394955271403,11.777460419343825
920,-0.667786933092071,0.9331983862114793,0.7631810988077509,5.505462893099934,0.3910439017380789,6.18861202020301
930,-0.649668958512579,0.9503659109065358,0.7774908981770476,-0.14105358981913163,-3.455427510979725,-3.074113990915996
940,-0.6178298917433116,0.9750236086169624,0.8092313887328385,0.5660515892694968,-0.9310128294974219,-4.737005690696233
950,-0.6470843127700805,0.9279652812572916,0.7833326719945577,-0.9121079854850547,-1.1401902649036966,-7.067458628829198
960,-0.6265764917920658,0.9411507928536358,0.8023951893907361,5.822506035467056,2.326525671136555,-4.302778992301553
970,-0.6677815929378984,0.9015923971916577,0.7584153838841778,-3.1249996359226095,1.038609104047224,-5.197240000361295
980,-0.6262838526058981,0.9187065203302419,0.7968096940097101,-4.037475194389,-1.209401125821981,-4.4968454905954385
990,-0.6552128179919302,0.8750718653644101,0.7709205558832906,-0.20170595624178222,-3.9544634747781733,-3.359317678394477
1000,-0.6130753836930125,0.9351584484131453,0.8114050454781881,12.434692090154897,1.6662757607963066,5.598071609827199
1010,-0.6247026619575656,0.9596758895196194,0.7936487371701065,19.296948256713783,5.092015736842129,10.381356596379339
1020,-0.6261273716009785,0.9590460091174626,0.806315302962281,15.382755271489245,3.0635230902336987,6.558053046633989
1030,-0.6526164488390805,0.9396358840899309,0.7823240898433838,12.166768330888283,3.308000913310793,4.071488099992597
1040,-0.6346692973284069,0.9445476313122368,0.7860855119554744,10.690594228793262,1.38238903419973,1.8310455933684344
1050,-0.6340558323141531,0.9517590016673775,0.7836597543208355,7.049836920988707,0.05005067009858011,0.10908877120316096
1060,-0.6358178195679961,0.9564011038880557,0.7823370527210448,2.694502918210637,-0.9770705184433426,-1.8111218559309095
1070,-0.640166514820999,0.9492455570301112,0.7802825337607149,2.760127373380806,1.4910762690869348,-0.8439510315221623
1080,-0.6472398629359868,0.9407192782481503,0.7824496365290323,1.311114208493561,1.1949754073040177,-3.0634733186926564
1090,-0.6385135734700147,0.9438342939993352,0.7842619610701937,3.2189572476234884,2.5379200658460563,-2.2468242997422037
1100,-0.6646116510944029,0.9095328023595454,0.7572480260058878,2.388073222625369,1.2106621031688343,-3.2583967262364153
1110,-0.6319049961370533,0.9389756425345817,0.786576648697555,-2.149410683356666,-1.9742684940241886,-3.041545646170399
1120,-0.6482718262712425,0.9215383472771781,0.7701200163627219,1.7973407809658775,-0.032209868333177294,2.156047618315157
1130,-0.6436657575243457,0.9322693214619134,0.7809910242536073,4.818634688250946,0.014652470619256786,3.67443525782194
1140,-0.6483730548047045,0.9423203776913468,0.7845961031806062,2.2182564594968723,-2.194012601553967,1.2116873427327075
1150,-0.6633909355607478,0.9347223522226169,0.7659585145393195,4.192348315135359,1.716388806163684,4.11245024459748
1160,-0.6438206454124615,0.9451236085085846,0.7780571570114557,2.5590418918845472,-0.013136479383363153,1.459553909275596
1170,-0.6491514130592914,0.942857532280931,0.7702978249389595,2.0301081175644597,0.31937678455498186,0.8473067807447833
1180,-0.6192614897695594,0.9742629493540368,0.7982291940930102,-1.487197633577262,-1.5321086226665543,-1.3514899197603711
1190,-0.6515957347134154,0.9435120326240202,0.7670935643925214,-4.797776807873167,-2.702411620226645,-2.8584514537030583
1200,-0.6565625903902428,0.9385217712152664,0.7673000202252099,-1.654901676799648,1.993692065991195,1.242692056664726
1210,-0.6601635847499523,0.9255625307679199,0.7689036334540498,-3.5659795481758296,-0.2698742126910059,-1.2710737889152806
1220,-0.6618477421787307,0.9263238375907359,0.7719654562446203,-1.8551850785183992,1.33785197724379,0.9245795949567276
1230,-0.6359717877302763,0.9395817402181923,0.7830500244784359,0.7602835025944966,0.9207122088957583,1.159639811678745
1240,-0.6232842511984796,0.9638631602478,0.7975125836544942,3.05558156941896,1.439177447738762,1.758580547214708
1250,-0.6562897399357356,0.9337828770630014,0.7703638226041463,0.531177121093708,0.18977760135187444,0.24808267287125663
1260,-0.6469015816928849,0.9342387402842839,0.7817380190176051,-1.9185940297351676,-1.1852854540290918,-1.0985952376997603
1270,-0.6376125603975578,0.9421515590245901,0.7888676463926414,3.3664509302155596,1.2820315726933802,1.8400366365321568
1280,-0.6177579166829341,0.9622910789884459,0.7980729573030471,1.7247036207073188,-1.5459622895695642,-1.8854994103605631
1290,-0.669796626615023,0.914762419301247,0.7573507747445134,5.23714169053302,3.1789260942027653,2.731658480897632
1300,-0.6388704192498562,0.9444351153395585,0.7893337798926756,0.6859152712774308,-0.9793319968835046,-1.153887395670898
1310,-0.6440937891099439,0.9385796252096785,0.7817131546750004,3.528487999669273,1.3979471579285616,2.104263715346129
1320,-0.6317392431237434,0.9504350755696549,0.7881228621622736,3.1571070829018293,1.419398749837531,1.861640695440808
1330,-0.6584694600877274,0.9233516091255203,0.7565320381321864,-2.6877261242427934,-2.6816614969820276,-4.013836974027684
1340,-0.6705076765357368,0.9156729437710327,0.755367083857621,-0.8178179851603918,-0.3254893111082588,-1.871510097547826
1350,-0.657964346547954,0.918835792405522,0.7678949112507026,0.2161579719335618,-1.654123634166821,-1.815227064691264
1360,-0.6590686620341977,0.9174107617304066,0.7644058526966322,5.015826850779309,1.6728048505672324,2.6492279719155727
1370,-0.6228009904464801,0.9590404095699325,0.799436480435936,3.030331078918377,-0.34047712850606865,1.3806356163718163
1380,-0.6513874743834535,0.93565810885489,0.7727477737107332,1.263731681240606,-1.2705203738431134,1.0394361555772655
1390,-0.647801775145219,0.9410731132764582,0.7768650645050056,1.814767934876314,0.17152806376125732,2.650835321267796
1400,-0.6330508957078458,0.954505963245917,0.7849328441933601,1.29882204695504,0.23881363547122136,1.8523695644112528
1410,-0.6662804561166654,0.9167436059986636,0.7523548353560074,0.5301598135520382,1.0190975327644936,1.0615112143137542
1420,-0.6352953063379619,0.9537380652982586,0.7914419911127772,-3.2326023296403865,-3.054534546358595,-3.6179717322613496
1430,-0.6421071977876756,0.9454914171274723,0.7861760916764398,3.2440096331924835,2.7800832019032304,2.308709856926195
1440,-0.6371966095333095,0.9499330578571029,0.784742388143712,3.153792155225199,2.537496737195096,2.6591750295279764
1450,-0.6586253566636453,0.9294188122500687,0.7591862154040591,0.31501318463174466,0.015827061248633867,0.6932329232221446
1460,-0.6501613631603601,0.9351192156300325,0.7697976745286172,-0.8137502967074424,-1.6468881796745423,-0.7212117854472379
1470,-0.6543414320540609,0.9217463088406719,0.7529197991276477,3.8238670252235885,-1.0709986151620559,0.4522771545478035
1480,-0.6667718692391212,0.9175407678789108,0.7508598240384283,-1.7189645755532907,-2.1424186041575823,-2.6408172821558407
1490,-0.6594392474087389,0.9233357352249927,0.7653235658791703,-0.22661410769585327,0.5664820265697844,-1.2040383834826678
1500,-0.6471241968953054,0.9366722583978406,0.7818178902654332,0.16151371385071672,0.856303636322429,-0.9453790519175551
1510,-0.6476142051533805,0.9380721038668298,0.778763953145746,0.8450820077651766,0.877060024532657,-0.35138428150966927
1520,-0.6478305831317266,0.9377990820400177,0.7712348743607952,4.714486765417979,4.068220516098375,3.4252552451334073
1530,-0.6466839056164638,0.9390796597711762,0.7704223135973902,1.1618680523624014,0.3206001664929391,0.20178549779699387
1540,-0.6435613020561762,0.946011899908146,0.7815478606478565,3.1507775828125535,1.0522089633498901,0.7899404835539237
1550,-0.6824850932183194,0.9063115180106315,0.735046783297098,1.5950927323354909,0.8252111866868611,0.35584863636475833
1560,-0.6661235542348192,0.9263665688287014,0.7533247729248983,-3.082298574202215,-3.1057909369210868,-3.7112935593522067
1570,-0.6672868771638485,0.925352596225429,0.7557406671647926,-0.6638898092645585,0.016704468949468504,-0.7298813720344656
1580,-0.656422126320508,0.9327155299887663,0.7655547853659145,-4.484966187139769,-2.774479963434989,-3.6264292782986662
1590,-0.6371643449927891,0.9509198032217192,0.7805466393941252,-1.9830386076247477,0.7634467571934873,-0.08897754870029773
1600,-0.6322489876452333,0.9566794799659998,0.7867314176086214,-3.8716436796438876,-0.7566532120338287,-1.705427847535849
1610,-0.6588967955649423,0.9226927689031489,0.7622491244082781,-1.527391653819334,1.6992603517455016,1.0826158728949964
1620,-0.6243705608821868,0.9587761990876691,0.7990704982397591,0.7796122496536384,1.9213659099216758,1.47691408651394
1630,-0.6496243217157512,0.9368711262450816,0.7747215792709178,2.1199062631202494,1.9976042870882391,1.7452063348296007
1640,-0.6673969856056458,0.91870408132762,0.7545740550495879,1.1166477965342454,0.3386181343425215,0.01207510132352882
1650,-0.6399394464382677,0.9425404441031372,0.7793876193283519,2.212862579546377,0.8555400208826166,0.0999755587186949
1660,-0.6440441716317117,0.9393936293854697,0.7818054297325797,1.9582603484871108,1.4547127981921484,0.5418610480298233
1670,-0.6530906087829842,0.9336725357787096,0.7725065674756556,1.6392440468828489,0.3330697909797265,0.37261976592317225
1680,-0.6616544194093483,0.9237083659414052,0.7601256220165659,2.062238593162195,1.1278893643909198,1.5177592577143915
1690,-0.6544316608135559,0.9318655533349659,0.772058667610586,1.0315239146907447,0.10699404326756567,0.3498470389132571
1700,-0.6198110177924118,0.9694270144366133,0.8058346167375243,3.1015468809696936,2.4671299643721785,2.3772396857203923
1710,-0.6533494340096794,0.9370986620840188,0.7658644734217263,0.8341862321681918,1.1759864654150283,0.7864227082611899
1720,-0.641592140415196,0.9446323883354073,0.7798266330415158,-0.8132622268577762,0.6604655012026368,0.0977316200790656
1730,-0.6271258616539724,0.9528075394337502,0.788667518008912,-0.5281202524313688,0.9565984858080542,0.6505593909408977
1740,-0.6411997898564182,0.9403272574319318,0.7840981286008454,-2.761591274064025,-1.7893057277838067,-1.8327776677536005
1750,-0.6745004368017703,0.9080389528438191,0.7409288460455272,2.600419320746613,1.088073352376068,1.756234289706177
1760,-0.6456603795394215,0.9372354943685255,0.7672407906226503,5.513649739953603,3.0458064955885793,3.8531201584372967
1770,-0.6356648902467531,0.9502181432656233,0.7836770278499222,4.865208151034954,3.580270914074065,4.099636858386517
1780,-0.6528825170466556,0.9386169685430561,0.7703677865255746,-0.8508691180202015,-0.5148742329683136,-0.09281630575168265
1790,-0.6456109970667571,0.9434616051849498,0.7816018605835616,-0.9470179731240465,-0.49241815009881273,-0.14757000837736606
1800,-0.6715668808119601,0.9074905650855478,0.7457876602925034,-0.13834592027317638,-0.6767552284812933,0.46156334821614364
1810,-0.6455870827811588,0.9342309204302333,0.7662071596841575,3.072544641649162,1.697116873974539,3.629495559027614
1820,-0.6396232223662858,0.949737149274927,0.7774041910071356,-0.6216387005818057,-0.3584386026207755,-0.33129193348172736
1830,-0.6477659035544686,0.9425873182792313,0.7759267082930003,-2.011409745890389,0.09462809715091591,-1.8145257126009113
1840,-0.6597521327630489,0.9179485169520677,0.7631738693928454,-3.278956650728317,-0.941696912484316,-2.8938710061157766
1850,-0.6622332766087938,0.9069490002644311,0.7541942300668871,-2.126711038090766,-0.2639618673970079,-1.8275645658962139
1860,-0.6598018615151382,0.9206399076394584,0.7627322379803686,-1.1160930326425327,-0.48021053833547456,-1.1406637954076544
1870,-0.6340326145591028,0.9536632931333061,0.7894098063475672,2.4441272758920105,0.670210461485194,0.8738076774782475
1880,-0.6578600132152653,0.9184518170372983,0.7574010366602468,2.7419451583832553,-0.1539399605303945,0.4816147218885176
1890,-0.6551031734297742,0.9233610518952603,0.7651046809349652,1.1342935827619325,-0.18265961150093668,0.0873817624074521
1900,-0.643757313190113,0.9479037367637284,0.78382671116682,-0.008063008291219892,0.1305215763993768,-0.007878546582227391
1910,-0.6504812483832482,0.9399790924124334,0.764798835721251,0.2591615552162605,-1.623199025450992,-1.326435242606741
1920,-0.6601847087152102,0.9269247377709678,0.7612930426118216,0.2977863733113093,-1.7276783246528427,-1.6871309930180975
1930,-0.6650188299061565,0.9260728830750092,0.756706205429906,1.203863294972463,-1.4036373842634,-0.497173997490181
1940,-0.6499253132830225,0.9434409635495773,0.7751589236815091,3.637227256545394,1.927726757002325,2.7899154818268275
1950,-0.6699994239348818,0.9179148937539686,0.7502355035136542,3.1584973998830517,1.7747138901596857,2.5509745691636136
1960,-0.6370948527821532,0.9476958992307216,0.7786239650684796,3.8291849491046297,2.204276620787587,3.1004771291260096
1970,-0.6380378364369106,0.9518928693278668,0.779382469346749,1.5511602561466478,-0.029367343922081155,0.9311559114399552
1980,-0.6343355188456059,0.9556779493757526,0.7770123759868665,-1.3410336252344515,-2.267639521013927,-1.7437334712808612
1990,-0.6315484392125567,0.9614271605779429,0.7866979179500253,-1.2074962622787861,-1.5329653679301405,-1.5735492543563676
2000,-0.6649091380225349,0.9325876479556338,0.7565763903689605,-0.6186692907877137,-0.12161678295911704,-0.7242288093753654
2010,-0.6389423016409854,0.9598802383051587,0.7825019783320069,1.3707884614443384,2.2961307512296067,1.422715023648944
2020,-0.6391211746537102,0.9527559409698061,0.779163886241944,-1.1245897818932529,1.3234353597522732,0.22217040542132127
2030,-0.6420924640780769,0.9447928419438927,0.7748569640928321,-6.390489887710311,-2.633767730645401,-3.7251762999245286
2040,-0.652449985810184,0.9472133454488739,0.7708606519018735,-0.9951878172876418,0.7499089054935149,0.3149030699735029
2050,-0.629203606542877,0.9671257301566973,0.7951130839224453,-0.579703461887368,0.7230638398604315,0.08655776902901613
2060,-0.6453350840966134,0.9460693189345792,0.7772694443910806,-1.7542776819616723,-0.45868382059646146,-1.243237172369931
2070,-0.6436941540727819,0.9468837804420627,0.7834164683919708,-1.7733409590846807,-0.9301352437730306,-1.7533615060284435
2080,-0.6596275890152384,0.9299804909164974,0.7620667324624564,-0.02854268309886296,0.6940986655202721,-0.3808269937337472
2090,-0.633536883434466,0.9548812085761202,0.7804356740163956,-0.28287004936199805,0.8022852950577457,-0.5163085279561566
2100,-0.6460425614600988,0.9428780210884564,0.7723681593697409,-3.7713253856174314,-2.2305850414538737,-3.2669581465076765
2110,-0.6150214496123261,0.9748453434861202,0.8107367388022029,-2.0021280461606237,-0.3473506179273126,-0.2818590402806256
2120,-0.6392426797351543,0.9538651876191276,0.7842946914338764,-0.5396455533373472,-0.3419500595445964,-0.2758685038464156
2130,-0.6575119977825928,0.9304783387275946,0.7673089390164771,4.330675241330802,2.384040997911539,3.079537787014724
2140,-0.6166019086279559,0.972477759649365,0.8073801209010091,2.7948589797271026,-0.2435336461308505,0.6064085360232119
2150,-0.6338358674441532,0.9575677721180136,0.7848265421677363,4.620136651064282,1.292381158252418,2.1337573136939416
2160,-0.6347903742782398,0.9555612095987088,0.7790839869286974,3.93414886110224,0.6977805468430083,1.714265902747682
2170,-0.6442837539334748,0.946568307168037,0.7745874354778135,1.7708484147825825,-0.5281932092417715,0.4934053068084078
2180,-0.5943561253708426,0.9952415883391348,0.8169386045361433,-0.9383398735537465,-0.011999783041936107,0.2734428502554037
2190,-0.6326958883454009,0.9575048592206806,0.7878905367635177,0.044085394406005785,1.9810237368292927,1.7738103515817598
2200,-0.6433240675562684,0.9519541897125573,0.7833582346749537,-0.9741401114579926,1.489172625902914,0.9989819826201484
2210,-0.6394198783678336,0.9601501537073674,0.7828332802416814,-4.816224349990005,-2.3315216555557683,-3.1129537672071783
2220,-0.6594368540618587,0.9384640224274582,0.7564816356816709,-3.033085188442021,-1.0318672405877405,-2.104127911911953
2230,-0.6506884193896205,0.9395418852298858,0.7680236753708902,0.4384616400376009,1.7371444883971219,0.5419419588300955
2240,-0.6501749349013367,0.9386478899662357,0.7609096916495061,0.4021780485037827,1.2110871630291813,0.023073004095771177
2250,-0.6688053857762103,0.9188909185388278,0.7479281080951963,2.7532680382306784,0.8894619877603012,2.4497416201658697
2260,-0.6531456349652126,0.9346161510838703,0.7654433050572204,2.9779805049257706,0.9659310268931411,3.5402985354151983
2270,-0.6177407773652297,0.9733069380048628,0.7994143070251604,6.791364174495774,4.8871789958816185,7.494717506743638
2280,-0.6303772697525174,0.9655230770696991,0.7863972187206193,2.0012396433851114,0.29272504985588627,2.172710624752634
2290,-0.6388606004047153,0.9599139665225409,0.7799059240858357,1.9256352148392906,1.1400279943467975,1.4861111661584112
2300,-0.6613416028386214,0.9354127213074288,0.7556231986724627,-1.8865785547974736,-1.1792428105845363,-2.91724393939861
2310,-0.64017488948474,0.9548853085042187,0.7763816663871748,-3.9785751535052167,-1.9106795304558255,-4.1041480023375625
2320,-0.6435119786710399,0.9507803654671942,0.777070710709079,1.2209501582513984,1.393326157347231,1.1981681033285645
2330,-0.6630070171995432,0.9275781607410089,0.7583645933620344,-0.11224606432921802,-0.7164981012259367,-0.03475818818180909
2340,-0.6670264063769661,0.924253946417392,0.7552334631166423,0.9842685683359198,0.7204728866997268,1.3737656619608982
2350,-0.643731703842156,0.9516308083413472,0.7800182673324874,-0.0008078042924922202,-0.010683020928974163,0.5909956622428559
2360,-0.6410711984000457,0.9524192608057002,0.7804115141311146,-1.0580462829779838,-1.6819766604184432,-0.8374482254310385
2370,-0.6556849991453002,0.9405566880420099,0.762077848101154,0.3651760638165804,-0.22587485427310627,0.5292047017142725
2380,-0.6511955402350109,0.9445566610307948,0.775154050240816,1.2463336644901828,0.08819367936316297,0.8644058825297142
2390,-0.6221629872403495,0.9670914604368664,0.7932709333687814,0.7737251166118367,0.3075598563573029,0.9406650888582268
2400,-0.6450867685180594,0.9458751241297423,0.7687955485415917,0.0052853588890196534,0.2968759988497748,0.3139327145211883
2410,-0.6321753536045042,0.9635349414233367,0.7873356629493153,-0.7551086056423058,0.025069109874006137,-0.824447082526204
2420,-0.6268683290131831,0.9658234293145982,0.7897634337376132,1.0451712436832306,2.210342247062162,0.8410269827822758
2430,-0.6279742203038436,0.9636876220496199,0.789514743253358,-0.0707679170997918,0.8382596688866201,-0.0997551451785359
2440,-0.6555023139901913,0.9334151605012385,0.7629790235602447,-2.197296338804643,-1.3108809975825375,-1.970305205398389
2450,-0.6245845697537485,0.9662783663925926,0.798566269207406,-4.158231249660472,-3.0405388371092172,-3.621913510520503
2460,-0.6558594745202818,0.935406944153351,0.7653089105430193,3.1530950844681405,4.136856061119152,3.6584728926044714
2470,-0.6658946858439716,0.9265585062562527,0.7545081223100805,-0.9676649821686761,-0.6354642629215569,-0.9525401356302594
2480,-0.6378616740950079,0.9572443374799028,0.7857473438402813,1.9518866698366397,1.8534173568081607,1.5769391677086113
2490,-0.6382590071565108,0.955678257440672,0.781506664416937,-0.792921764965418,0.1638103219027818,-0.4360961225685347
2500,-0.6393895767259005,0.9523764907156315,0.7873182705443396,-1.9298849745539,-0.8536489415116295,-1.3328278081277702
2510,-0.668385945092209,0.9241629606225579,0.7537767815343381,-1.350751771326821,-1.2931039845167807,-1.457195147184315
2520,-0.6346390321640644,0.9585608531962477,0.7827282053540814,-0.030556384037620732,-0.6100526642309234,-0.5108550124777824
2530,-0.6322431333216323,0.9605914551165295,0.7810405244956914,0.20740110717223892,-0.5859357170534598,-0.37030119428392144
2540,-0.6455429079175588,0.9472879325004921,0.7699073784958185,-1.704020646933752,-1.996147640253271,-2.081088580055262
2550,-0.6457256503152957,0.949048693656966,0.7817618668177541,-1.3990316178327786,-0.6268701886272913,-1.4109053604795252
2560,-0.6397239087830213,0.9556414175629786,0.7883522962907705,1.39617394442253,0.5777109799966325,0.3067774522747746
2570,-0.6539614073866316,0.9356035455775567,0.7653258732525662,2.8829516219415527,1.3418383383888592,1.8362789309742278
2580,-0.6306944220162217,0.9573529550087088,0.7853984619316351,1.8027295146888513,0.057367956224497675,0.9827708391864218
2590,-0.6296978596916121,0.9603696917327983,0.7854036403779455,2.833767894181923,1.5712362059177047,2.2245633401438747
2600,-0.6506059750780209,0.9409165895007844,0.7621864046285434,2.345562032262932,1.5221305745942955,1.5841997294717534
2610,-0.6374287600684267,0.951635864269089,0.7724698044904557,0.017538254797791808,-0.7463268111123299,-1.0543997254503759
2620,-0.6531028840544483,0.9309570632767673,0.7604788518071812,-2.427113790282299,-2.388712414593252,-2.7552409012007137
2630,-0.6449047070928896,0.9457844191917945,0.7776377520588238,1.5052824677728553,1.5752084214349227,1.5084372320649493
2640,-0.6590465162097265,0.9310209645105839,0.7598510584870045,0.5777972097247948,0.9051807028239507,1.3569853258500206
2650,-0.6607300412391512,0.9287127055084887,0.7566296439963512,-1.5159564053690517,-1.149452220148877,-0.4461465629260709
2660,-0.6661667300740546,0.9242651637060776,0.751589684604855,-0.5773907618781392,-0.4127488336905225,0.37868666179226473
2670,-0.6215072159631669,0.9709209387712145,0.797570993017418,0.9928089292827091,1.3953112009201476,1.8198125737968431
2680,-0.6720573383629184,0.9219955857361833,0.7507945548376446,-4.338342434330406,-2.5826084162827416,-3.416608995853551
2690,-0.651338103196465,0.9425375556720802,0.7736416503468039,-1.9801073929108095,-0.5351841716158267,-1.4155191967359004
2700,-0.6817294057353945,0.9046035342408799,0.7315999842326526,0.43558606607862216,0.8356798526517185,0.5740716184009288
2710,-0.6420490831580186,0.9432922189760843,0.773582953874256,3.0488792023260287,2.2725599985465252,2.2769026068570857
2720,-0.6650097356995535,0.9252608537990347,0.7542615530331171,2.2979074741247034,0.9244785373959012,1.491065546363731
2730,-0.6520447035419926,0.9443838179319188,0.7671163261338577,2.44026644030435,1.0362774639374261,1.974160940572023
2740,-0.6394704047813814,0.9587609926049562,0.778302485898419,1.7988966300680675,0.7384770865372308,1.0215688947503558
2750,-0.6158118206354687,0.9763631040053149,0.799634529053346,-2.1731337807792257,-1.868776233633889,-2.7178834313682305
