time_ms,ax,ay,az,gx,gy,gz
0,-0.3682998404236343,0.39532050464140644,0.7690652398613478,2.2638897977350583,0.9198244885939428,1.289218512881928
10,-0.3912422436403809,0.371172188625952,0.7544749566162976,2.231971979215298,0.6585840319028632,1.5104990993963763
20,-0.4348702780787408,0.33144152772660934,0.7063537341347192,0.9695899900844316,0.08531567742703505,0.9511552060728443
30,-0.39540874887707106,0.37683337765635255,0.7515639128878122,-1.6398089740722708,-1.2815392802732957,-0.7924544643590794
40,-0.3868223053278759,0.3701967843859977,0.7529054567417174,1.4026702911922788,1.5057526236069179,0.8821102908168756
50,-0.3828228571814087,0.380339274350979,0.7601772702539834,-0.2801699231244872,-0.7168069724486354,-0.6490862464851577
60,-0.3923647019860042,0.37309704572183694,0.7500283597968007,1.037279856656804,0.29301183228899796,0.9249414862673743
70,-0.3940040025842321,0.37182769609339406,0.7477656933749925,-0.4631127185239598,-0.31516327594104515,-0.009671177316428248
80,-0.3886609707919572,0.3790666887187677,0.7555625811860389,-1.7999296824772535,-0.8111373208456423,-0.7801612933137891
90,-0.4106485753180096,0.3568624690915139,0.7310736820700257,-1.213096999499793,-0.7912491624899681,0.31565152415584385
100,-0.4198533156137229,0.3468749092807126,0.7236296028391569,-0.4014353503682754,-0.7528475517626397,0.19999936661489892
110,-0.37213297962333186,0.3930699415070504,0.7718633645136873,-1.2310577416670387,-1.1768169920435787,-1.2355054517593207
120,-0.38978589302668104,0.37663105733805413,0.7551971314475019,-1.8113226963291447,-0.2976030641656693,-1.6101283921371299
130,-0.3821400068383198,0.382060205421915,0.761909194612867,-2.013310461071401,0.04494685853897762,-1.6988597030889157
140,-0.397156013431191,0.37182568519460113,0.7484281602983353,-0.4795455621982505,-0.5378491105771581,-1.6778729577456852
150,-0.40271080420308814,0.36151799142546726,0.7393341340879277,-0.04145737126398985,0.0921440491798613,-0.05505277302908712
160,-0.39017506104338195,0.37136260794240683,0.7549182426848008,-1.017498707904867,-1.2381240072364532,-0.6375005044744277
170,-0.40605176693525463,0.3629590349331111,0.7492781205172825,-0.7900226055193595,-0.39421172612357225,0.3254229044307726
180,-0.4161384206775888,0.3524879373188115,0.7419469959356441,1.4712615031816734,1.6334228588175201,4.1442340499093335
190,-0.3795660737700351,0.3914068168381285,0.7721487838381169,2.439684165469608,1.6910296370721805,6.2894847981823885
200,-0.4155378481287954,0.3638390135922353,0.7276979672948946,2.912980734159216,-4.581356378044635,3.427878960378142
210,-0.3695950822969845,0.42881696667126756,0.8673838870294761,5.7896669741140325,-18.332502379586202,2.5237846237055677
220,-0.37799200128130767,0.378321503156072,0.8830797719990437,17.24761933660743,-36.96149675113821,0.7238739939024328
230,-0.3349418214413181,0.3615556939964961,0.8197756162905707,28.872390721853193,-43.296344493835775,-1.6403597919167616
240,-0.2686549045380466,0.3923093040568141,0.7907461782126388,21.766109835918044,-46.32076465542415,-4.314955280920799
250,-0.3150623687573186,0.3684789223266469,0.7146826655458284,0.03000010660689384,-45.135904424555456,-6.554024413161334
260,-0.3264276558768745,0.4340632973467413,0.7083322560322245,-39.10300231370263,-18.58273358835723,-12.676862029845823
270,-0.3625104050345487,0.3373195370279225,0.683955017196944,-54.52000158437644,-5.166844190768925,-14.458999138167576
280,-0.41344262559790945,0.3072933047655264,0.6530840504495271,-53.8260947148409,3.6147678055124217,-21.96911956778559
290,-0.5048070409448825,0.4401873980665776,0.7747738103576366,-46.58819944901853,4.069696505551866,-19.238198356862753
300,-0.634905449628094,0.3740782179888896,0.8132400607954867,-49.36222882545664,-3.3529210970214356,-14.675503954389713
310,-0.47291239325807116,0.2518322423722391,0.6816757892850335,-23.651244725881487,18.305421298665213,-3.8780126187784534
320,-0.34347285220837553,0.1824115491948007,1.02266755675831,31.665595119906477,43.99450716288342,3.6821998436988643
330,-0.2843057128126006,0.2946986166625643,1.3969884915350947,24.71021741551069,41.541207391478196,22.881331799061766
340,-0.3815118126677792,0.34578995414886143,0.7717989807280249,27.26876647485487,41.055418859542286,34.20048923627336
350,-0.33810420780225187,0.3004984369359549,0.6454304868263028,13.75358850197095,49.30760557461125,38.16185120775357
360,-0.3353016763174208,0.13646265964572307,1.0006877177026334,-15.129260313799351,33.27989336858288,30.044629998715525
370,-0.3377046652384142,0.24281761928126272,0.9024235559816994,7.792437388244525,0.15470399326661177,9.20790870724033
380,-0.3112068966376235,0.3273237385978097,0.828515719547822,24.342207202538756,-16.583362187158325,-1.124847593327203
390,-0.274901390159839,0.32391112848009207,0.8167224894538238,30.930668614494458,-24.7534703530094,-8.616922333683872
400,-0.26692868499232697,0.3731901273129346,0.8178034882978975,34.99861756231017,-30.748480748574583,-10.688468981451175
410,-0.3315267581060995,0.37014721308707665,0.7306911350558464,41.990657742893404,-34.1930645082479,-16.76064380703075
420,-0.38092697075121973,0.42137087488809927,0.7132488018463456,23.480437170654284,-26.958375605415696,-11.936888008068571
430,-0.35527961264988833,0.42719325110201595,0.7367150346788022,3.592881115375002,-20.489348329671312,-20.298158672180183
440,-0.3667604994049223,0.44120726594504084,0.7527726153573276,-8.19471786561367,-14.229986426301608,-15.610032393256782
450,-0.42276021376900486,0.3701650201813225,0.7667310693029235,-20.954642197085043,-15.777967382970854,-16.79621558723112
460,-0.39917823346041165,0.3057625847301523,0.8059610165050264,-22.971338715314985,-16.60898957663927,-16.480362168502015
470,-0.3449555643675595,0.291087128559847,0.7815340959917982,-31.126725587534647,-21.40220602058498,-22.19805935264194
480,-0.32909587188650424,0.2986754898701164,0.8293400982272172,-25.31444563174681,-13.0112501481734,-10.732297354672763
490,-0.4176566473677081,0.26422798435955797,0.7211210101345635,-2.2736969677751198,-1.1016559790686349,-10.006975690386502
500,-0.41737197029659034,0.32373144392131176,0.6486624320634465,-8.666683384158476,-3.6440619362466076,-15.228868822045998
510,-0.3980135258847811,0.464476943880291,0.7252975268613575,-9.555255503333303,3.3296255629999436,-6.26783892245359
520,-0.4241573572189452,0.3009921453537633,0.6330423661434779,-10.387738014221453,8.091398768656486,-17.224050189362266
530,-0.4425922761393588,0.3366306329488369,0.5946017175640221,-27.134597689639506,8.996977220783458,0.11207734377406098
540,-0.41244506834308237,0.43811242697610653,0.7210052841338492,16.991177923526163,17.481564077429365,2.6548397154646124
550,-0.4905564864420686,0.43571124441540676,0.5745485091291463,19.353952386982915,16.616910691017107,-1.849865946116517
560,-0.3326820162044447,0.38500681652303165,0.9513385615958896,18.195516701076443,10.432057689597064,7.853245440997705
570,-0.3042699875554593,0.3701288843751913,0.8004803206994549,25.304427609397177,12.686547167417258,19.4407620761513
580,-0.2849429200707929,0.4880220186888382,0.747460511614483,42.370801318743005,12.45873887062238,24.628644915395988
590,-0.29745806942611736,0.33922419298508094,0.8233870106958554,20.63464394696598,2.5774751990190046,10.301896121930898
600,-0.3092840922995588,0.2921736552503198,0.7975553474373667,2.2252498699740304,-3.9467601459001136,0.8841725444522948
610,-0.3354656540168688,0.4587757287879285,0.8090243949668731,17.858754184817755,-0.10343332765088542,11.207168796016589
620,-0.37521378314536524,0.3507688778516375,0.7528922365135253,15.520347852424655,-0.30807155759166815,2.6315389449627857
630,-0.37948735816446183,0.28752865570151265,0.748932001038674,12.53900551923945,3.6837739160354572,4.11017050659933
640,-0.34498586881725574,0.34766602958701026,0.7847162251662481,15.908976718814385,2.7460469135443,6.9638978670949
650,-0.32625375110639415,0.34386961324314885,0.8189535600911256,4.488609261364778,-1.8806521852694738,-8.370902061081996
660,-0.45546173309952137,0.4270507345999078,0.7373632277462813,6.747590275273446,-0.5107312191240395,-15.02385945826943
670,-0.4402616540438737,0.6106715559438449,0.8766258953155491,35.130244049969534,7.347013334614359,-27.61814990417242
680,-0.3831502069816683,0.3996114467272314,0.8287317524757821,11.776862514479534,3.4835326096022317,-6.931507914590625
690,-0.43047592150044617,0.3099543681418183,0.6747579959678864,-3.017542985163833,5.837908710214742,-22.229723465700292
700,-0.3646691317106551,0.4213473276549151,0.8230777967866187,3.3451102288896584,7.729976895535156,-5.520047869080331
710,-0.44630326844794316,0.27149420748579883,0.6689558095687318,-24.63393114245205,13.314964321464554,-6.234579555658658
720,-0.3972243967680456,0.376690730136758,0.7572461247390767,-21.10221263486554,10.161765794466028,-5.535606462518135
730,-0.4183288641555902,0.4813296504215558,0.7253238665465729,-14.639178799318541,18.84338865484895,3.0330138124043344
740,-0.4311476496203245,0.4142231312198949,0.6841604115869717,-7.820262908028919,29.65365058128767,3.987527310338419
750,-0.47700789143727435,0.4392944152991807,0.49966483998184075,-11.240935788146833,24.25014545797203,-3.8971215037619773
760,-0.38216271340066327,0.4774565962805877,0.6346252244970475,0.0460681843685653,14.651376601515999,17.313876346063985
770,-0.3000689751234911,0.4899535063792703,0.8553611632340817,3.073128548152384,1.9232137915563898,26.063187375666654
780,-0.310526426690073,0.5557292973478198,0.8784086614567052,8.338395291414287,4.141357339940652,14.648072315146171
790,-0.3654852628812656,0.31561103956183745,0.7116696895000701,0.36568907512543974,-1.2709342515975548,13.188342267708368
800,-0.2912361936116782,0.18512047641971546,0.8242386591671768,-0.7714517690754757,-0.0462026756251831,6.660043278590171
810,-0.3470633398081429,0.441077037461319,0.8104197384833317,22.55257308147027,-1.2277778686974261,12.389568808684038
820,-0.3360719714981409,0.39905788341423376,0.7929733114572161,11.261457908349183,0.9986756687938712,2.5880410769597404
830,-0.4086398895694467,0.34064067651075014,0.7295316166636255,7.513996395806292,1.384319707850175,3.044950769260988
840,-0.37737648472706503,0.38263822268915315,0.7720333702177957,4.307108662982824,1.9024346256608542,0.8814495844867505
850,-0.3824958282523183,0.3711235640978177,0.7598842833510251,2.2109469753700406,1.606444427107633,-1.0008346088357765
860,-0.39297310833641785,0.34700403190978907,0.7425606972795841,4.218225621627471,2.950662367597092,0.5774211316962776
870,-0.3641277734773398,0.38006475355819636,0.7718480517724587,1.1059563671359305,-0.2725781860172478,-0.7010892276644862
880,-0.39258716879428696,0.3623276529003327,0.7464656304841734,3.6956387022510393,2.6928829573704114,3.724004668608201
890,-0.37971808479762903,0.3710515753759598,0.7572361069087042,-0.46340830576506753,-0.944203959608415,-0.7086966270571975
900,-0.3989726674084939,0.35268358808613687,0.7399915511424991,0.902390972225863,0.973493584043352,1.4925496227749264
910,-0.3975163293430763,0.3520121611789605,0.7412569085137841,-3.378508354891287,-2.916640110602003,-2.3335667096316755
920,-0.37636453661684993,0.37157495087773157,0.7595912327485327,-0.08653896415973503,0.07367915740238601,0.6784447404913072
930,-0.3861511369166494,0.36388636728772694,0.7491440430294817,1.2754090853821212,1.602631327752281,2.482859030807852
940,-0.3768982146788861,0.37903004221805425,0.7696011530507175,-0.5347355449290294,1.3944938160891325,2.269621447874033
950,-0.4165754650228212,0.32879652238995,0.7270102330310764,-2.1122459425558118,0.8749432925309408,0.23546353109833962
960,-0.4034825934669699,0.34268376239328785,0.7415466673523965,-1.8658368678336652,-0.05743442458433834,-1.4562155443237088
970,-0.3919016900721075,0.3563138334206691,0.748102711181832,-0.7910501213799552,0.8504209728493815,-0.3658086533640914
980,-0.3993352791691259,0.34420101949115384,0.7369417909595288,0.5869181733618412,1.478819717205856,0.6467455076679645
990,-0.3982007036234332,0.3486458433671251,0.7361617461152337,-1.2233842137355784,-0.2964532336093719,-0.34928437987056576
1000,-0.38034963898753865,0.3705569875240066,0.7605738281025389,-0.28487861250699165,-0.15743195435213464,0.6286466199932335
1010,-0.38849917279152674,0.3663922887956976,0.7548448861826093,-2.2910243697786257,-1.9343487230668654,-1.2108826269940012
1020,-0.38501261494044425,0.3662954502708477,0.7557671169168585,3.4453815042419844,3.030772435230532,3.340752431510843
1030,-0.3710565306520346,0.3791655287867141,0.7681439322963948,-0.6520796109941009,-1.3295316555776777,-1.4112031737938575
1040,-0.4045261428458984,0.34918530066283765,0.7352296166980573,1.0609426888002789,1.6148221442747697,1.047666560968641
1050,-0.4275709807082617,0.3285057285479795,0.7104247666225308,-2.9535264804342956,-1.2939990782711879,-2.119557241046092
1060,-0.3957440473055431,0.3579078223160883,0.7404675887632186,-0.6790777969342996,1.6930154530014052,0.7491036442713745
1070,-0.3686449897181043,0.38412862964213446,0.7658234913505106,-1.0347762710656803,-0.23011126293228262,-1.0283758422472955
1080,-0.38352086400168384,0.36821356022764035,0.756096988067021,-1.2090911953967254,-0.1477636650528854,-1.49868906735948
1090,-0.38620521452613193,0.3636932624346648,0.7523094596681237,-1.054668911855333,-0.5746404249710207,-0.9825322550033675
1100,-0.3930573026518785,0.36829212895157204,0.7463318413934781,-3.58848799126688,-2.8543831204272556,-2.545789574098345
1110,-0.39612375495900914,0.35961464087483064,0.745164788824778,-3.8198326345031113,-2.3007661586246204,-2.5678198053407773
1120,-0.41188767219636035,0.34482062234405714,0.7334783101149149,-3.365478238569421,-1.6125960297894948,-1.7034660482613018
1130,-0.4003161411567521,0.3525264644053517,0.7400457140563023,0.06397062195534853,0.4700497669936392,0.12030495040161071
1140,-0.3793276166140318,0.3720800244047035,0.7605010097831406,-1.1887551564757872,-0.6860075232136151,-0.617682747815496
1150,-0.41719597964333255,0.339917364762863,0.7239238632051402,0.27128277671903067,0.6583626529160443,0.3515995582385725
1160,-0.39893943307567664,0.35984143548146325,0.7439164279146141,-1.815100933142618,-1.3738514877620052,-2.0546348185774614
1170,-0.3819361783068378,0.374908182777792,0.7628276389262714,-1.2680619342294461,-0.20408898929541353,-0.803182132738929
1180,-0.41698982150804165,0.33465748058950057,0.723558708984612,-1.7191072639133882,-1.7974391224085302,-1.9208049958028797
1190,-0.41990665796192217,0.3276596851467374,0.7178375574588399,-0.5738525805430413,-0.9319880691267819,-0.8452678079114321
1200,-0.40236525965914005,0.3473778143601502,0.7371857936584189,-3.7256621370775487,-4.313334048491773,-3.8792449252297936
1210,-0.4009460876784752,0.3551502047847762,0.7431513106032992,3.0859408912344652,2.8564433783898586,1.6055740521621842
