time_ms,ax,ay,az,gx,gy,gz
0,-0.5372050744260517,0.8919568305063362,0.7214305056133551,1.2811673248014843,0.8347998157504803,1.2779046139638992
10,-0.5205980940943534,0.9082220778136935,0.7421867856589375,1.1852833820001811,0.7406830289803218,1.0483283748954233
20,-0.519477176122222,0.9109933066642499,0.7458937182062945,0.039991908191464504,-0.16592193135332103,-0.4627180579292042
30,-0.5379077596564894,0.8897824832656088,0.7277046198991957,2.3420755503624218,2.006832952200164,2.110364984704149
40,-0.5344545776573781,0.8923755622602937,0.7287237894695121,0.7144849802887349,0.5004430702746774,1.0453737770430176
50,-0.5450845255441019,0.8834871090393426,0.718016035713778,-0.19740779357518953,-0.2976169100570072,-0.22737399982906714
60,-0.5266815960094814,0.902931003465243,0.737282522659284,0.5056914105815958,0.396566911103977,-0.10913687146272999
70,-0.545746992957239,0.8848913754797119,0.7191245741519878,0.44518227173381586,0.2338428606668572,-0.6903819740029855
80,-0.5207454124165537,0.9067945370375038,0.7464826169161373,2.369532643865172,0.2568262301223088,0.21572189911931786
90,-0.5210138908382311,0.9052810892435437,0.7398053864434123,4.641218777617482,0.9345656118167518,1.1125805419694974
100,-0.5072243281760666,0.9192925066461856,0.7540918642515742,0.7634410181102673,-1.8520541819838472,-2.1308203035403706
110,-0.5285230042063281,0.911937506085737,0.7420059672833771,-2.998397648536545,-2.9846816509503236,-4.3260637086025175
120,-0.5351674142434326,0.913525170792224,0.7382576756635932,-1.002250482478519,0.11013858913117502,-4.343268600003991
130,-0.5455961061290102,0.9814909996080017,0.7258826406157178,-0.41247653140099216,1.7535211714724648,-8.609021388894114
140,-0.48944050808602263,0.9634417198468577,0.9518259082612848,-22.94472174879576,-9.124310694996707,-6.2800737059010965
150,-0.5337278283232336,0.9979483003315999,0.8141998332739584,-37.98345875770386,-34.19677508386546,7.46553884934815
160,-0.42847205799020927,0.9039516282636907,0.8622494293664629,-75.4766833863736,-41.39943600603157,19.521223005452974
170,-0.367756048673239,0.6623511168542303,0.627808301056055,-121.01856171186725,-39.132932482492706,8.380668237160126
180,-0.4231363867019837,0.6963196768978457,0.6239160382283501,-80.62614080168693,-12.415447262394686,-16.696537191694645
190,-0.5955131418348922,0.8994343206593001,0.7362768100521401,-40.56988337413399,-0.0464880737853679,-13.675722292349995
200,-0.82758360943758,0.9141393133509111,0.8239743803477473,9.54177660528876,5.527038287939975,-4.4630304014661
210,-0.551119765969015,0.7351788323322134,0.7276993300302145,-1.4441795751010156,-5.651091116839282,-2.5726957419395777
220,-0.5914316471979513,0.8661232178734551,0.6876714252024035,59.17865524814047,25.42149582122939,11.781120314597803
230,-0.5339160725430286,0.7484168015554262,0.8804202785473488,112.71804423799895,30.725394548455803,-1.3449220895729201
240,-0.656774034469821,0.5810124531787698,0.4416088268007251,94.72265516201573,54.43958461669522,2.0585475802883852
250,-0.7333315449535018,1.0361007225211696,-0.07713458424850239,132.85728581989304,58.181540287813434,-8.88115615110896
260,-0.42578574766361976,0.8178196485662285,1.1823257922772787,39.49119499080462,25.48930203300852,-9.335793467417718
270,-0.48557117439132363,0.909727119647574,0.8022725712098397,-3.1667540882042005,2.603893562623835,11.058675060130318
280,-0.48891914311595175,0.8906217473028413,0.755463211366349,17.33962062327528,5.788781288176024,11.430094170298238
290,-0.4252850377513438,0.9063778628178932,0.8728922911836436,24.35522010558421,6.552101427977976,11.227904447063374
300,-0.31060456775201395,0.7915680029785556,1.1256830734985193,30.86164477142943,-12.307219063315427,20.347975834753044
310,-0.3987621651658132,0.7917403138460889,1.1846512425423397,35.824434794459904,-36.36884371842353,20.628389822674624
320,-1.245248576249717,1.2364313194570922,-0.31483177462625345,37.48933646848498,-19.921623978069494,14.304445314163619
330,-0.941251867050339,0.9555975464651266,0.06159767034765734,18.686788909564665,-16.4716798969993,0.02330642068195543
340,-0.8201245948935287,0.8718842042951231,0.2648423934693013,21.368555725374488,-3.605880316582201,5.182914932183918
350,-0.5747347461792891,0.9191251729458801,0.6771675056808663,20.674126380202893,-15.032540725072478,-11.039798231471657
360,-0.5766819444170637,0.7149154874116331,0.721320760794182,5.585433005029612,-21.78306678067938,-44.108349336207844
370,-0.2857119782212469,1.4263760853059237,0.7833395192826044,56.239446986874846,4.915112183052975,-41.51410147471166
380,-0.24898079091249076,1.3589032563180394,1.1008516768662546,12.295428944754473,21.11624950385413,-22.154035457959093
390,-0.5548496190054558,1.0960810898136177,0.5184451017048135,-30.651625236665573,17.63686982092357,-3.1844843884765135
400,-0.5236762581654466,0.8187795301437553,1.2969420012884105,-34.16497224020126,52.08744412901867,22.972579257442657
410,-0.4317297576509047,1.0526943884460713,0.8148107731301034,-50.07381232325267,32.56966026925279,52.655943581894675
420,-0.4291215331785256,0.9923875625939587,0.752851323579521,-18.48866177097524,33.626744060639226,45.951982217521845
430,-0.49411526320344523,0.8770722460598358,0.7982937507615916,37.12032188312525,7.956793510921928,9.422580174901398
440,-0.5094915612304911,0.8281719820035759,0.7508567025753257,46.82631249143359,-9.931070257215282,11.619640751600388
450,-0.4082885265830546,0.7065990209364917,1.1531216727361024,19.296797733226413,-33.369831669334616,-13.462028486919383
460,-0.605363307657825,0.5622484989039181,1.1681162518585688,-0.32423817409365485,-18.720435436298573,-18.882574949324045
470,-0.6649322112861896,0.6606024053433462,0.7539143405441516,-1.072294098186103,-15.78288926507748,-35.455586832376234
480,-0.6973864669277363,0.9260237609683049,0.4158733102722767,3.796577462902764,12.582017568309892,-34.661955288469684
490,-0.5446920865503424,0.918408436865105,0.5671606743196073,-14.891599777716928,15.828583490974859,-21.652810651046558
500,-0.3570046379074533,1.1225557516809233,0.7067919795544787,-15.014157833932789,33.75714649738549,-13.26593085899639
510,-0.35199155831030193,1.127234268174397,0.9597649055148324,-33.610942092625606,31.970858608261107,3.8459866287471955
520,-0.4285056899051696,1.2878512974993297,0.317890952699374,2.130564862783673,23.65241226922758,7.539816114070248
530,-0.4224601844096611,1.1822943999515085,0.414702077348905,-19.515714397910966,24.262114589710006,39.58059264005374
540,-0.5494065728732414,0.710924201075297,0.8637960265092549,-11.963949833128401,10.364547902432484,13.66670410931925
550,-0.5590665578138557,0.8942217822793581,0.7203374990572599,7.369211895751698,6.648217240765101,12.074146299410968
560,-0.5839376104441332,0.9594949115685955,0.5792390896084806,3.9754709689333043,-2.0252136813544994,18.752228397810764
570,-0.6059192251323596,0.8728585890472228,0.6290699301256671,30.99766617392375,2.4938233084181394,-2.22541714606761
580,-0.552196607543045,0.9318633424784462,0.6935840479865236,5.956490263339632,0.661365675134697,5.228420111001255
590,-0.5253594388732459,0.9552026196333756,0.7135333042811913,-2.359025209782274,-2.452552194321222,-0.1303171029382315
600,-0.5589740637418468,0.9177596923651872,0.6877705057524981,-8.268642239203608,-6.161806009256741,-6.38977147633434
610,-0.5427111036024812,0.9077626255200856,0.7029809400679805,-6.183990193605022,-6.362586179155373,-6.870910725296945
620,-0.5249169805157972,0.9240292557930538,0.7191298571952767,-2.3568551012594705,-3.4168318276787115,-2.6092467196281106
630,-0.525717733017102,0.9261746254015041,0.7182360043064334,12.058137795086836,3.831674682638023,2.9076225125822095
640,-0.5411196515009519,0.9168204877101371,0.7086538945672218,2.2788367610490776,-0.7003088872761876,0.41399956166972873
650,-0.5378644166340277,0.922037877960071,0.7057166429907891,4.616122971154688,2.5624321617391157,4.277518335934461
660,-0.5113497921406465,0.9515380387490152,0.7269038296936705,1.1115104712719566,-0.5788615240382353,0.8977561843001856
670,-0.532176771034497,0.9387669289671459,0.7128678876537301,-1.4138106395228598,-2.1244898201490705,-0.49612321569233064
680,-0.5177612836299407,0.9471967122822592,0.7284915966045183,-0.6980449224393714,-0.44364305156284267,0.3035929437958538
690,-0.5199982156363896,0.9383221328069625,0.7240920128627505,-1.373412460541318,-0.7685189558320373,-1.295845277133299
700,-0.5312049313992564,0.9247550913866018,0.7145903824210458,1.2392905650169044,1.232843479173034,0.026595085515428885
710,-0.529842313789934,0.9263792623692341,0.715195414605029,3.8629616397114175,3.6401145253045337,2.6337163462717568
720,-0.5330456208646267,0.9256135392857971,0.7126785831079294,4.861965654631215,3.75804829941492,2.479618996964126
730,-0.5134109418620337,0.951449499408262,0.7284150226501156,4.79017098851405,3.557086315020357,1.708163716318031
740,-0.5050952986321269,0.9675570332253073,0.7351664794135708,-1.1446449736593896,-0.35546268131181114,-3.2477511719596652
750,-0.4770127267073301,0.9930971045554445,0.7637531340116176,2.6425486325053673,3.784127806145124,1.4302285570512834
760,-0.5452990227611566,0.922389857657892,0.694407476591663,0.12190246690726392,1.3116238608640043,-0.5107508339242233
770,-0.49183263241071756,0.9735774239050636,0.7470601705667619,-0.6348828130486484,-0.7629640519495767,-1.7170752310026158
780,-0.5030844378292881,0.9592259145305015,0.7330863252552763,2.526677483777249,2.1236262829816783,0.812279962055342
790,-0.5286387383264383,0.9464698164794211,0.7148926555710309,3.850982800622954,2.1678090871547786,0.4270004715743471
800,-0.5426413862671834,0.9193677132633189,0.6977899046701568,3.973719763890464,1.9695751539859425,0.838698940087426
810,-0.514240278815146,0.9529958739497068,0.7215434339543438,-0.31042883461965587,-0.5518392814459882,-0.8582417597035576
820,-0.5027263614447742,0.9690656538096729,0.730814078750209,-3.086239868031886,-2.97407344532904,-2.784842179473303
830,-0.5421762393015468,0.9327072095904422,0.6976125563115267,0.6878755058685087,0.20830631089863422,0.8024818606281962
840,-0.5231522758280154,0.9395719491567674,0.7086594254981831,2.761081824246383,-0.009105469516044296,0.9695697879788358
850,-0.49268742187552317,0.9790563788559098,0.7467340930688695,0.19743925628123105,-1.813664685094548,-1.0917990682162513
860,-0.5191108370113291,0.9522840227467698,0.7214034360028498,2.797975649295225,1.9011692491256842,2.812863683465726
870,-0.5343224364868966,0.936208686163897,0.7013451170923828,0.5079156418658344,-1.11500743070342,-0.15602464790428727
880,-0.5695995470738004,0.9058981574010506,0.6631039728156995,3.328578986537256,0.9306847687058085,1.488375794809792
890,-0.5508731866799056,0.9170470129667796,0.6739438912038404,10.40392596049066,3.5895275459547547,3.812910321367531
900,-0.5352833159920513,0.9461144565101859,0.6972521697569919,1.2632901398447247,-2.3083313913409027,-1.6952741496593873
910,-0.5240573468221731,0.955233924700899,0.7137586546709829,3.204008643926362,-0.6120442555030361,-0.4605857423899396
920,-0.5242238909326336,0.9458119041340864,0.7053921420548553,7.45072283271958,1.5789637507637668,2.0910285187846
930,-0.5285177335400753,0.94239894041854,0.6929982851371635,14.417561156246238,-0.029053977841791867,-1.7843492690111553
940,-0.5327646220413342,0.9473379272375293,0.6998005710785854,-0.9683454283302888,-2.55200952216432,-3.025705892933498
950,-0.5180802568253364,0.9558469345277402,0.7147429941633092,1.8769742258577582,1.4783704167664304,1.2830692528393484
960,-0.5441421465590357,0.935954586863498,0.6874573223520866,1.3343828132577553,0.4584283190951106,1.1451457696784997
970,-0.5093565637019294,0.9731357408835191,0.7202719276808522,4.41529067885462,3.7351989507992918,4.131062205018907
980,-0.5361405130470601,0.9489782407016736,0.6889378916184115,0.20367930131352963,-0.6192896908995151,-0.8195779840372001
990,-0.5280565843952768,0.9533432402389788,0.7027419507696276,0.9327707042357977,0.27443018670479724,0.7728040559783749
1000,-0.5401557538234504,0.9385427296848162,0.6916583851795451,3.8960987793620725,4.0509045859041555,3.7822004209221394
1010,-0.5437890957441699,0.9378594657315458,0.6858847958879466,0.08048703940071138,0.17360053659791055,0.00028861065092208177
1020,-0.5412997129234169,0.9431378894681002,0.6825233800972587,2.5107857077337297,2.7940672826691686,2.1882406464996857
1030,-0.5225117401079081,0.9600159209743389,0.7114842313096832,0.8606186028151003,0.9340100256827477,0.6816658188555601
1040,-0.5210800437518359,0.9545484885809891,0.7043722149030299,-0.13439368284996525,-0.046249698632898545,-0.5393440048502147
1050,-0.5143160260847083,0.9688800889226774,0.7116216348891621,-1.1409960698443913,-0.7133782489658951,-1.4397236879052295
1060,-0.5482197074003481,0.9343047689437778,0.6808947497322317,-1.4748058038559484,-0.8351958609416573,-1.6684291104988476
1070,-0.5228022369990087,0.9563873162029748,0.7047714057775293,0.1620039539862022,0.2862627773617214,-0.02447202301790219
1080,-0.5057214167402996,0.9757071031603679,0.7226596332454738,-2.1506512058445937,-2.3579926598792538,-2.1448025910131214
1090,-0.5437757863555707,0.9350800257607527,0.6862728103740529,3.264940599388848,3.0187061726738076,2.869634906343042
1100,-0.5151477073742864,0.9708896187628087,0.7138804946058548,2.0313137180364107,1.989163744017904,1.3878453399614168
1110,-0.5295177277383243,0.953338017390211,0.6938567407644293,1.7028413298527973,2.106822064443107,1.5329482910894134
1120,-0.5183763951233324,0.965560774841231,0.7093107373733925,-0.5328195600755402,-0.2235756242063572,-0.2400511033598328
1130,-0.5612899495620143,0.9203149150652513,0.6643363970192802,0.6294775116296076,0.7941137064246332,0.8155141410628839
1140,-0.5293104300904625,0.9501893238590169,0.6968224004334002,-0.5225673017454775,-0.27739293435465956,-0.25359495417165256
1150,-0.5515272130632279,0.9292936513704091,0.6836581514898725,-0.8836781713831674,-0.35962888642547713,-0.6314372319288256
1160,-0.5206047895505389,0.9567136493850855,0.7087292666237988,1.2976107433798214,1.2372451213126878,1.4632412819474265
1170,-0.5441681674588148,0.9398691229399739,0.6880073642970973,2.4265611412466486,2.362615688618798,2.192313248635015
1180,-0.5086234835101493,0.9718022469181278,0.7147561506440376,0.1357476189686217,0.19209518323281555,-0.39331633935338006
1190,-0.5152002635460082,0.9690626581621541,0.7153953776493842,-0.45177079075417814,-0.3406102617846192,-1.037975292899559
1200,-0.5231674145952099,0.9556176660256125,0.70273743707611,0.43797854716731055,0.5305198867771457,0.47300047727962446
1210,-0.5375818990724689,0.9398998162015029,0.6945844255947312,2.3715064472446095,2.1145197804429765,2.9485957512919003
1220,-0.5400100550260224,0.938696321080186,0.6896101797819514,0.8787034060406187,0.5580050559774934,1.682444850122773
1230,-0.5410538841466742,0.9351231876454059,0.6904409297016765,-0.8678823334724431,-1.0252747663361914,-0.2926875531581937
1240,-0.5169517707208483,0.9658990898522373,0.7082240445025852,1.7025599635327002,1.90462119940303,2.2332834328387308
1250,-0.5296855301742813,0.9545255237163621,0.7002254253577536,0.8952084180960608,0.22694429939626815,0.4925230635993706
1260,-0.5207806538553695,0.9581708692045068,0.7039345127733402,3.0309943297779247,-0.2012459162730853,-0.847790698078456
1270,-0.5487024336041038,0.9269868017648984,0.6752082899963974,0.5967241778827006,-3.609681465541617,-4.09064890968937
1280,-0.5389567490290822,0.9407759186074011,0.6863690089909338,-0.3189455558140164,-3.5872433013640475,-2.970535994071924
1290,-0.5463217438391987,0.9334258414113119,0.678805775312412,0.266765671624447,-1.8449472459331653,-0.850500566087074
1300,-0.5129775285708116,0.9714625514191708,0.7153187168941482,0.2384729394014784,-0.8300333384486426,-0.6793914261620801
1310,-0.525889002981758,0.9544878618609749,0.7056710536608,1.8441283703929243,1.3390952332377446,-0.18569910384164268
1320,-0.5573968277484501,0.9250584837997057,0.6732707211748937,1.2142516592636667,1.1574125612220036,-0.03906905128797314
1330,-0.5258391356306307,0.9594871727525165,0.7062061820366318,2.2062805152314775,2.327323196463638,1.3982404369850217
1340,-0.5362454396567667,0.9442820788182654,0.691021609095092,0.5670990531400537,1.0737584847413686,0.3091545656219029
1350,-0.5350779347230638,0.9418532032028748,0.6952057540875962,-0.7236396323843014,-1.0628842323039422,-1.4020217731283369
1360,-0.5105296159688807,0.9711674216820232,0.7158401900171398,1.7147366762859197,0.9447406657421663,1.2938534295360162
1370,-0.5105014351794394,0.9725714512661489,0.7154510864896252,1.9976553852832675,1.3108701819368744,1.6723767513258787
1380,-0.5443270326524104,0.9391601499411865,0.6819568739128432,-1.1435936765943575,-1.933320422894575,-1.9902481914423973
1390,-0.5214394873757238,0.9578754336487325,0.7100595545155638,2.865251430495882,1.9117318909964878,1.9086022464653214
1400,-0.529868026465534,0.9527577543335393,0.7023746418953273,-1.1104459829419147,-1.6989886590758143,-2.23182501962909
1410,-0.530493994762298,0.9523422208841837,0.6999613186542206,1.4304037621763221,1.49673666028691,0.9450712712999896
1420,-0.5144488690493667,0.9706911309608348,0.7132597537023866,-2.4744838950152808,-1.4444423331087874,-2.333692489766622
1430,-0.5639470062654138,0.918157121387124,0.6698482296504588,-3.2374032545166536,-2.4483100799332815,-2.877861439686374
1440,-0.4828443283683602,0.9959449482048411,0.7475630930275927,-2.213192683609064,-1.9864033944461084,-1.4815246213675723
1450,-0.5247424048532755,0.9572435207441293,0.7076645083337758,-0.7559849605862405,-0.6230052394272823,-0.7235372843566403
1460,-0.5350323291031931,0.9472378360961072,0.6971973025321894,2.0666415266182097,2.4088687081897433,1.792745832792952
1470,-0.49086304553498283,0.9872964588648305,0.7382846540180262,1.3195691922277941,1.9565103241699398,1.4916984681821175
1480,-0.5365151599623608,0.9413883465026157,0.69486509870384,0.6648160729913329,0.9582516320125635,0.8708784367759593
1490,-0.544191563854863,0.9345537565389401,0.6819609760001791,-1.0783053402344358,-0.7860551784260057,-1.566217660652325
1500,-0.5440882803959701,0.9333462434362061,0.6850545057091537,-0.739905464775964,-1.3255027058591238,-0.30875008210875166
1510,-0.5238794872840179,0.9599697234415899,0.717667534399751,0.566146960769626,-0.1352749206706587,0.4262386148835253
1520,-0.5620168914657706,0.9175510009995278,0.6703182897547453,0.40132683692023907,-0.1770254259324097,-0.22456694931009707
1530,-0.5220512281899027,0.958369042127309,0.7062616898175634,-0.7248384500644395,-1.171183610759826,-1.0077302961852141
1540,-0.5206567997811714,0.9635692547732377,0.706200836594303,-1.0802720594565516,-1.168490201849451,-1.1106627743527633
1550,-0.524716297121733,0.9565265127149689,0.7041688136444816,-2.737891801117678,-2.6475844625252782,-2.547338401712757
1560,-0.5399527752159393,0.9417918760200163,0.6909214319260899,-1.1631062444176168,-1.074759622375402,-1.2001994055830858
1570,-0.5288263691476925,0.9524410912771304,0.7034607203771349,0.7668252792749,0.9054375907938634,0.4560971593146743
1580,-0.5672761272630377,0.9229290570976845,0.6676726133567085,1.5448470505387302,1.8345250875154202,1.0680991343881032
1590,-0.5540540021240394,0.9234992740868564,0.6730946065168433,0.4389124631858978,-0.29893974120659417,-0.6990243257468404
1600,-0.5580013917375405,0.9194691721505307,0.6668365755563068,3.5103826430173193,2.0069711164311212,1.7591372362720197
1610,-0.5298979090759823,0.9472420643590715,0.6960281681127789,-0.5590760884918129,-1.4266044520298098,-1.8798770742234803
1620,-0.5190433660018052,0.9583485711268886,0.7126753167392128,-1.141322992835108,-1.6468780626039319,-1.4519745683094778
