time_ms,ax,ay,az,gx,gy,gz
0,-0.6794778073676677,0.8338521433760174,0.6623782914355678,-0.9298103274041865,-1.4663822037734302,-0.8572988028313088
10,-0.6384143667640063,0.8625245827951477,0.6943113066707294,0.8727375742169119,0.5140549755018532,1.3302680035245285
20,-0.606939625049234,0.9073314629374526,0.7225283482175864,-2.802503819430163,-1.6764730873226001,-2.451629475490653
30,-0.6659226920683146,0.8446011176285743,0.6647203863990678,-3.2209697481363344,-0.1502108956273634,-2.5440094647858427
40,-0.6656345399232122,0.8504978977291453,0.6818248126516717,-0.10861068138744256,1.1544597790675835,-0.429606693467637
50,-0.6901574539014448,0.8215066237298365,0.647445110292473,1.9188234900954326,1.9460456105339368,1.2453810009221904
60,-0.6557549567327413,0.849017092727564,0.6742350024242196,1.8254863501014682,1.9411097348064688,2.237564365140033
70,-0.6430427713967444,0.8553503352136663,0.6940389711063806,2.661901589879432,0.9302376524293706,2.291512316406937
80,-0.6224226127779431,0.8844683314676687,0.7094337028382803,2.9447082575863446,-0.4956545977728849,1.2313985605003437
90,-0.6521943892954041,0.8597737597821256,0.6794873123590506,2.1092102200261817,1.9861010453421608,2.342329087813068
100,-0.6390164465897462,0.8737947363742454,0.6994150150757096,-1.5413305186924569,0.2002333435945284,-0.6459371860670061
110,-0.6549732831360496,0.8488830886919922,0.6769848751434276,-5.211521278406305,-2.3094948651455685,-3.4049524051174416
120,-0.6640244790042575,0.8575188860021937,0.6808254165234536,-3.8069399517115676,-1.250381876231896,-2.139655778682185
130,-0.6771642505366755,0.8389417696182857,0.664726487616796,-1.9975381823048717,-0.668385282979132,-0.36077252395272885
140,-0.7361411144363852,0.8810431138318202,0.737666175136065,13.980056108009917,-1.5627740186482153,13.91684446107008
150,-0.7398506649060931,0.6970732466313138,0.8620175463798725,-7.049298352999925,-18.304274796958364,-3.429607102851885
160,-0.772480045071995,0.7579072818375129,0.812681125131431,-4.539596864953618,-24.795409388790002,-11.179846836941717
170,-0.800876328331104,0.7533480059364375,0.902933499380152,-1.8440291434485057,-38.81282871233128,-23.996906161733857
180,-0.720792441084954,0.7554571736814709,0.8655141383963852,-27.83039930507389,-50.768394543315935,-29.593270030991818
190,-0.5902971559587256,0.6983748354881965,0.88985316347001,-15.709098023389103,-57.79640896559787,-26.24137907827857
200,-0.4593483478950433,0.7961023522298228,0.6565961292785167,22.552155459842442,-50.492291390025926,-28.496523042875584
210,-0.467434635994454,0.8955351662919302,0.6436582761753779,0.08928655259636997,-42.66048062860101,-31.69111898598677
220,-0.45201303265505816,0.9352021803110621,0.5016057772488672,-12.763070503689509,-23.596880597169545,-28.37531347995279
230,-0.5080614969503868,0.927446252781809,0.604173484053695,-21.97689611001445,-10.376924018633348,-25.174038816551914
240,-0.5189044961793056,1.097595732448126,0.6078400290726415,-34.51403265063236,0.11450203878358334,-22.07318789965183
250,-0.5495470583715871,1.108360376259648,0.5446123158057731,-71.05253295964334,2.6595150054165972,-25.568126651909004
260,-0.9423540977948939,0.4284781373350241,0.7565240545499287,-29.645610646331082,3.787621200448335,-16.45663126630317
270,-0.7909829101326612,0.7598499370158234,0.661982164594342,0.019407740147264763,8.496478391865722,-12.392066499504462
280,-0.7252543614396896,0.7609779987140212,0.49005532915686456,5.529161793458899,15.78533210309487,-12.985594058850392
290,-0.8366030061639812,0.49300760123062154,0.41478030189534043,35.09184190100789,32.79754567567101,0.776050909962847
300,-0.821022377775089,0.8753451685289702,-0.08249305351562557,114.61276572148117,43.333710700255146,31.31598356137011
310,-0.9586214521260931,0.8654707164518035,0.59373473503975,91.96599641414564,50.10966826901777,38.1689652461333
320,-0.40191325760089064,1.0896278159717423,1.6013841911099524,19.569593239534434,55.2691413706297,37.059606552362176
330,-0.5378300989727519,0.4941924721507132,1.7523720028041807,-1.587639251553505,22.29009498105132,-3.725335080020492
340,-0.6848366778332852,0.5278084752778526,0.6333071188396465,1.64403374155928,15.4075776253049,-19.550624722200087
350,-0.4733215349598853,1.0616316576679685,1.112427456795454,30.536816546880726,18.82848283711944,-5.770682011959934
360,-0.583143026793526,0.8079983572798506,0.9461345559720171,1.3503612091728818,10.437551981794,-13.485412229150912
370,-0.6625587821951568,0.7611037581762783,0.7635045392105668,10.201943890079022,1.642370155609208,-14.164154587115767
380,-0.7412445253746272,0.7509635196590092,0.9364493711110214,62.881834240968175,-11.983951389525012,26.425445667662338
390,-0.7628749724371537,0.918369196583685,0.9731226410862733,15.42329330932017,-41.07930263476711,20.247124324234893
400,-0.7497477307597802,0.7251849562396427,0.8682992086993618,-22.231859220517464,-53.9768918995164,-0.5272048914019454
410,-0.8165075116638947,0.8741660558128114,0.8430524158732661,-56.12030396081588,-67.25552431573064,-15.245827253438136
420,-0.6555644263513387,0.9188568620145146,0.7592653915338026,-56.21771240715913,-74.31793908039694,-13.178057387047394
430,-0.496939484310438,0.832354832566707,0.5318830046159876,-37.174697720108156,-62.79430898025511,-15.410897749036979
440,-0.41835806334010295,1.0014147455195543,0.5985236922653214,-53.18635718199532,-13.846336844883808,-21.55909470141901
450,-0.5428591904362966,0.9026946448404373,0.6175685681605155,-53.0655120935815,7.834844435534177,-6.956661426672551
460,-0.6666838277065112,0.7840286188232375,0.6590700598313479,-74.3904450411426,12.758550782191975,-7.695871057715362
470,-0.7869371226494268,0.5947278230586674,0.7693328528917482,-81.51558617477039,7.7486288742768,-17.402611283278276
480,-0.8214559995419327,0.5082885848055461,0.820827742109683,-59.32139341798192,2.1195368757376345,-16.967216007281422
490,-0.7973536431686433,0.5900255612256947,0.6722014953861251,-26.21442278449812,-12.725878351005017,-10.631868964566626
500,-0.66433789473189,0.7235147469959706,0.8454645544838907,-1.7589558260047338,-10.264336923325299,-0.46256950282028353
510,-0.7700072744948775,0.6174623801489506,0.8309548642348864,2.1593142681167032,-4.016926136604651,1.9551203088857498
520,-0.6842289617295859,0.7847318888642146,0.8920234374445479,-27.645512241666,-10.839050785515381,-16.4847936436064
530,-0.77255529286201,1.4063842400151598,0.8366211596704985,100.45047947225899,1.3700127671026752,10.951622688949445
540,-0.6297342305164817,1.231431936048572,0.543874646681838,86.62397569363229,8.761584224108391,9.354354779297456
550,-0.6819943469258826,0.33960904965792166,0.8009308820713926,-14.352886800596613,4.8576447660055955,-30.551199935038305
560,-0.7353726015217242,0.812664865983356,0.6017295569282219,54.110880185130874,24.41917530874177,0.8808929089841895
570,-0.6081095585325484,0.9006835076824814,0.5581890020317748,28.574402278787467,29.89361064593615,1.437216949003315
580,-0.654302173263789,0.8513447014899099,0.8174679587348235,-3.061234845336805,34.17273447626413,0.6334901582960741
590,-0.7116596513640072,1.028349301799122,0.8049957841176641,-12.39312927217089,30.819917729012836,8.380360403640523
600,-0.6316287285791078,0.9758761378446464,0.6438374189904185,-2.85447353333867,24.603764387136863,13.33676058315228
610,-0.6378405824790441,0.5490368264209061,0.9898602863061899,-36.771212303797654,7.265774250297033,-4.16227105484301
620,-0.6876556265582198,0.6440457134211669,0.6495230487995263,-2.763370898881494,1.141852195696849,15.547462750798648
630,-0.70890207754004,0.5337165057230076,0.6862492417179809,0.8859918852193593,-2.257022452994224,7.934103810420286
640,-0.6594902799735155,0.6121602606694626,0.6896952350568101,9.302103930583531,-0.07435211844118395,13.791373179954093
650,-0.6607083838957083,0.7039695153364983,0.7004206988767977,30.590089648874017,-0.9700341607722505,19.363913597079925
660,-0.6496632027005094,0.7301094520898056,0.7977596626434111,31.81460307495487,-4.4897060165737575,22.64767307523405
670,-0.6816909962976396,0.6951485315610497,0.6161377006209059,28.865204437611187,-0.9776620222835102,19.388469804649592
680,-0.6959073974946886,0.5051993519673327,0.7305004950371815,1.2103722676942574,-10.639959898322147,-49.85569784615632
690,-0.5544820059541876,1.7001639206464,1.3578625100612112,81.88399517266944,11.837124247498114,17.032525582853847
700,-0.5440789102367855,0.9331379230447491,0.35607182038888946,31.635290534389334,10.081805382814528,-19.35498505234515
710,-0.8276448685641753,0.8052765255616754,0.6160427873677546,18.21483781484976,11.965116464689055,-17.478319759466878
720,-0.6680423405645874,0.906750781826493,0.6820529926312248,2.4986857539979823,13.6870120009763,-10.478809564823937
730,-0.725911165510483,0.9236389137869598,0.38205192438452334,25.696940943907997,25.1097392545343,-12.846179189014032
740,-0.6339575861162938,0.9904595881921459,0.6064049130349751,18.28509444040717,22.64914531507899,6.505016522438989
750,-0.6431260496163429,1.051020925077933,0.436433478786513,-15.123501362548836,14.047256101457936,7.3419210616813455
760,-0.6560519591317749,0.9644075748392364,0.5538812612332591,11.359415368005212,16.68007744989938,22.960235134689732
770,-0.7166550894918231,0.9978323298418574,1.0963566266471576,-1.4084416333259244,15.443942030246308,25.77332367589056
780,-0.5809738075363882,1.1113416266447658,0.44444653558653224,-15.544604980975587,9.695388555608634,37.725574361951175
790,-0.7056065649912981,0.3117042773973278,0.5530016166864963,-29.19747303895956,-0.8803600781782632,15.04320429221721
800,-0.6994851139762024,0.7502937032404147,0.6565173307591885,19.99522881125559,3.5007984968769885,10.047025093642684
810,-0.6968251209032497,0.7464501542060585,0.64042355856974,25.289431567422923,4.251098215233556,21.974718074136554
820,-0.6594792092736442,0.8052122660547842,0.6666124835865629,34.31503003670371,9.312889767408095,34.12145325362162
830,-0.6896799000347198,0.8485574303190616,0.6371793079807456,30.225903112087035,9.54006857014322,32.01865216986428
840,-0.6708952416369875,0.8528878577543707,0.6439792464935054,17.471730486319043,6.3488339700541445,18.224468711882622
850,-0.6688337868909411,0.8866209759715504,0.6693212181494921,7.709138026185364,6.002587070078464,6.835507953458877
860,-0.6591827637592836,0.8526207465796666,0.6797511454186432,-39.5848262880705,-0.17701791095239416,-28.944680471090987
870,-0.6749867487686867,0.7938325443167219,0.650468562356543,-33.5731525520339,3.5185875112754115,-21.428381920622574
880,-0.6931306008853416,0.7817962598020517,0.6587564278570988,-24.89421912509322,3.032974682833274,-10.369394207179695
890,-0.6485264574814471,0.8188286696157427,0.6817341373037977,-11.2386758118711,4.444370602484866,1.9122072520340696
900,-0.6579966711029098,0.810608524742411,0.6576632339576334,-8.2894225389728,1.4327041152930593,4.569877665847491
910,-0.6642644588283046,0.8433800497627342,0.6696377033986287,-11.207026325055196,1.638547804968138,3.6084050111961554
920,-0.6754136291568482,0.8111404859708846,0.6741510963498595,-10.522367783204366,4.762116468364972,2.0175213484744137
930,-0.6764335111038646,0.8043899976598905,0.6642958392299754,-6.3689062789589155,2.0424464074691233,2.1728102745826474
940,-0.6507180831848367,0.8173208330887667,0.6724400310678265,0.4794484054838372,-0.00503466477527531,4.576013484663143
950,-0.629281326496428,0.8358663963493922,0.6933422486845118,9.593904884989772,1.4455149046079687,9.513844933615642
960,-0.6477615112837879,0.8373715247536601,0.6813049123267555,8.690779083432092,-0.49600209800761186,7.9315133789738965
970,-0.6812954761326806,0.810754438670769,0.6634704785065686,5.644341075377712,-2.980412602571296,5.834528534348784
980,-0.6592265042823857,0.8408220688724054,0.6708785425152297,3.623276381746972,-1.9249441988345342,3.653429928308776
990,-0.6645177154738773,0.8498921628801118,0.6727804849296266,1.4877513342875712,0.06921923505755334,2.291749728442464
1000,-0.685513738334919,0.8184726005257428,0.6548842858501753,-2.4503652329796184,-0.7562581388708125,-0.7764024145629038
1010,-0.6340529175585069,0.8580415568171874,0.6959907469228291,-5.832238903650834,-1.794071115027696,-2.8723448314137325
1020,-0.6901839303720859,0.7980406882119442,0.6494656446318896,-0.696510650977421,-0.980150075698148,-0.40452589089713586
1030,-0.6530475286947022,0.8334706288772363,0.6750428182443963,4.686092347272734,-0.04648956135104032,3.4264533346453323
1040,-0.6533979933637216,0.834614059369625,0.6789851843323211,-1.1958235673046405,-0.05794260417636243,0.824223781403931
1050,-0.6883799463907997,0.8137164864272773,0.6440890281888707,-0.7168311836180911,-2.1570031879905125,-1.3756459230660658
1060,-0.6774176418172145,0.813793073297261,0.6577191519313947,-3.9342055369461413,-4.836555618085983,-5.358409661874887
1070,-0.666650844337191,0.8202850872044151,0.6714564957678935,-2.963378377334561,-5.324605628955995,-4.8449877897539055
1080,-0.6814041818158181,0.8037236340440206,0.6609322783312358,-0.3682793575175116,-2.8408476343295948,-0.3045565785461001
1090,-0.6387487523835098,0.8433550854201887,0.7054289578596405,1.2013078239975856,-1.5596996341504967,2.3671152087128133
1100,-0.6469628321219705,0.8519141964050365,0.6832673077068995,2.4621422850753287,-1.5410802002494333,2.9132708281739994
1110,-0.7112505369722834,0.7919440870753891,0.6290026364115994,-0.9889395197959965,0.4216305659817846,0.45156281722314406
1120,-0.6403595357541667,0.8604831571839718,0.7034505723871245,-1.5995431191524707,-0.9529773736613021,-1.735418582148713
1130,-0.6679375812655668,0.8328139924490604,0.6683826864713263,-0.5797842413657546,0.736566617304174,0.08488607106512513
1140,-0.6793851807200161,0.8227249950696033,0.6644916583307634,0.2479530150221203,1.6439884323774951,0.48338252799205783
1150,-0.6907858602128727,0.8080511525917651,0.6520958361923223,-1.5545045129499722,0.7566747150071802,-1.05760008739437
1160,-0.6356046339413237,0.8368344596773254,0.6987532556697919,0.17146093466802778,1.0657283066013206,1.6404045188952106
1170,-0.6930600050111121,0.8122697977132366,0.6552259166366143,1.5724367942678426,-0.12198615933772539,1.7647177685500408
1180,-0.6570005055941215,0.8392732254306973,0.678921705084538,5.48920827922995,2.5753896886649,4.840579446670864
1190,-0.6557137414509587,0.8375566258749473,0.6826265747376606,4.242301074874348,1.529779066513931,4.112654086740738
1200,-0.6706176198707491,0.8269297473420925,0.6714416918554644,4.787763758639571,0.12933047877369636,2.4800079830172628
1210,-0.6729123772451788,0.8161396182062262,0.6628249946888244,0.4529259480321528,-0.9491759948598912,-0.6330756779123133
1220,-0.6774104564755681,0.824330244223343,0.6686556963954975,-5.814067493603917,0.9445617122560672,-3.890440172308292
1230,-0.6651468146873121,0.8233705969197609,0.6790434487374213,-7.6941455830712195,-2.966995052657327,-5.53028267127217
1240,-0.6824696321069331,0.8067910184260048,0.6574545435268996,-2.018797962874535,0.31557280643518626,0.09617838236767595
1250,-0.6648333295630193,0.8181524532281419,0.6779511809763127,-0.9882472843666311,0.3950241490009212,1.3190187023403972
1260,-0.6631930151884865,0.8260441700668336,0.6749619898519467,-0.7443579741136451,1.5754692928469445,1.7296767576396663
1270,-0.6606279384162792,0.8244766795822096,0.675713723693449,-3.195833080240801,0.8393787152717276,-0.05174852771838212
1280,-0.662437571146569,0.832450490231453,0.6678599913876071,-2.69918779323986,2.428004717353318,0.9663558906356613
1290,-0.6735992520954707,0.8228068283929137,0.670619610290472,-3.4552126036744872,1.40295570837164,-0.11964555526692458
1300,-0.6769876696747243,0.8123514679399936,0.6538551291175928,-3.3755138323226634,1.7402730519865635,-0.6047482293231208
1310,-0.6888790985311478,0.8027762432151831,0.651170861929757,-4.075014142264697,-0.9554033410026519,-2.966742898646884
1320,-0.643589263839833,0.844425117292209,0.6963951299109314,-0.8745139060475348,1.592572985131401,-1.2381284074752603
1330,-0.7035031809285607,0.7835897364247326,0.631107442536047,1.206861715279104,2.59853252405023,0.5666484054245813
1340,-0.656239440907661,0.8404258343828351,0.6746403256335873,2.985082644169163,-0.9809673349045933,2.360993814041547
1350,-0.653577561715925,0.8451902132467646,0.6884519868497316,5.539129055918049,3.7675132280336956,5.900856607143073
1360,-0.6641884131983463,0.838579964604235,0.6840975084493801,0.3489474373317313,0.007265634401179777,0.04229530913559937
1370,-0.6467895386578169,0.8522738098850856,0.6943592631070921,-2.748124237089159,-1.9695324348548253,-3.8542582629141386
1380,-0.6571570211022035,0.8392567355151992,0.6803013840863205,-0.27305406559916645,1.051292448374154,-0.9523846394830742
1390,-0.6769772131685852,0.8051147376587366,0.6463906267996125,-2.03334650065402,-0.6057706872211915,-2.6241827969581704
1400,-0.690659907718359,0.8054851705653135,0.6532348331072122,3.121757333388742,1.4522149434653273,3.954593552153327
1410,-0.6739472683556167,0.8216947887126665,0.6643930478330027,2.6610601180830122,-0.6349877363664067,2.4447661841817676
1420,-0.6873799992096554,0.8071355838768287,0.6483580645201656,-1.8614561214818834,-1.8311930935539578,-0.4650327290101983
1430,-0.6692139103944343,0.8270166485638603,0.6706930552604243,1.2777381162097732,1.3706256026685804,2.256470607590812
1440,-0.6923564854636888,0.7962144621936366,0.6484198380096822,-0.9966226165528598,-0.3290324089463368,-1.5808070640312033
1450,-0.6712303102036576,0.8279138368260367,0.6707885411755814,-3.6346454752221473,-0.8264342797765682,-3.2745484629984003
1460,-0.6887900697734806,0.798327501784504,0.6480384664726224,0.3545238750076056,-1.5476088099780063,0.8046952156850358
1470,-0.6777050796823281,0.8164922955429836,0.6575163467505611,1.008936188634552,-1.0738940385717002,1.726644275015705
1480,-0.6627636600151318,0.8295586305071808,0.6751267497860439,0.39003573795024643,-0.31102512512852437,1.7672571364011336
1490,-0.663766043771072,0.8367020913738179,0.676354831993182,-0.5103737027684376,-0.5694160557898893,-0.04947585714231356
1500,-0.6639563674507906,0.8404843536724557,0.683724099821863,-5.925988327607848,-3.7183650260330827,-4.64941770571777
1510,-0.7028453139962685,0.7935481274792286,0.6421654781122808,0.24415123744957468,1.8730091322974949,0.20496878192680734
1520,-0.6530758498830924,0.832577203964701,0.6878262584173508,2.7894139058262843,1.5967164192505765,2.5445554644369563
1530,-0.6534017907121865,0.8299491126388132,0.679426417181621,-0.901054360063235,-2.4000970824290895,-0.09461861838847074
1540,-0.6680704914790246,0.8224466788283084,0.6717995064269028,0.08228157485868343,0.029475523662104486,1.9622374147891795
1550,-0.667848745605076,0.8280260386497574,0.6749959830511876,1.964862383718493,0.8379989471146808,3.0509910330169543
1560,-0.6712009331516013,0.8249082820045086,0.6711897047233576,1.5024526247612005,1.0640052605473946,2.2181067981779026
1570,-0.6701155057749864,0.8352181311468505,0.6752910149931013,-1.696334810453099,-0.5257887488591269,-1.0956187731705076
1580,-0.6718836957725204,0.8141576100473265,0.6741108499993782,-1.7657485009245724,0.5497288797767731,-0.5730742207528972
1590,-0.6838071725571788,0.8012630186122058,0.6502975107969144,-5.620944267912947,-3.4740014553797054,-3.8933303053334627
1600,-0.6945527371063379,0.7876343650579167,0.6389476560720304,-3.1722079066560602,-2.9394892034965276,-2.2470032991577487
1610,-0.6512483542286195,0.8381283680849567,0.690151325394616,1.9167173853905572,-0.19458416745997872,1.5256222812328075
1620,-0.6657170978856095,0.8240010486697723,0.6794969071459177,4.41715730532446,2.8163326935337314,4.723976396282342
1630,-0.6932205353204298,0.8095093263501323,0.65789108188256,-0.830489647003092,-1.87995230903776,-0.7732121357051591
1640,-0.6295411326712381,0.8508679075902,0.7053554804054618,2.432108627014851,0.6588865513324975,1.2024976820711566
