time_ms,ax,ay,az,gx,gy,gz
0,-0.5287238951451171,0.36976121787953237,0.6533004469217283,-2.9089988890869583,-0.9526581269649989,-2.08384579115923
10,-0.5491234271029152,0.3452015069843909,0.6298919122257237,1.0478631279469963,1.707387714787179,0.8739991468609735
20,-0.5466985189205634,0.35469296333056743,0.6345458112584932,2.600781490776442,1.9735754349910044,2.9929339709028557
30,-0.522009566004553,0.38229716021761506,0.6589809429367465,4.2487533611962025,3.379570625003074,4.743759103530308
40,-0.5105866669287515,0.39229056782806704,0.6670765921853675,-0.2762249398444676,-0.5470880204512739,0.1234022702158506
50,-0.5259715275032124,0.3757160559111898,0.6499087444706962,0.2245761674096553,0.712192728686786,0.8413696705079814
60,-0.5329383432851548,0.36789160914155655,0.6500490805845576,3.0346569055620924,3.978639238801091,3.189069328873706
70,-0.5391038438335273,0.36465409386609193,0.6437995197901374,0.32406951031211184,0.8045906778934364,0.5944663522839861
80,-0.5342186504515354,0.36998720634837745,0.6473448545069359,1.023186385291996,1.370707635931452,1.029087728063898
90,-0.5207727129220574,0.38349032822249013,0.6599337070470539,-1.946908214590223,-1.1294109397267866,-1.7425166113603625
100,-0.5150217952181361,0.38755082446488914,0.6637620377898779,1.1615243015788541,2.433907436985594,1.5537445168652133
110,-0.5285864385669308,0.3712628779372253,0.648957793749328,-0.834732783530787,0.6286610808893084,-0.33275106603331495
120,-0.5356678684174804,0.3661568812560653,0.6491533811346787,-3.371501273061894,-1.1947526645480309,-1.6009447990431616
130,-0.541470354613315,0.3627371417883793,0.6387068745387563,1.605849921217818,2.4207675774253534,2.6472967902261195
140,-0.5348410295653747,0.37169230954605015,0.6460649804142238,-1.9378718643642605,-2.065428072138007,-1.4420458251581827
150,-0.5207210193473728,0.3860860011931115,0.6605268009888564,-2.128381624942488,-1.9545056939468917,-1.7769754808249154
160,-0.54495401861676,0.35881694740601217,0.6356507745731296,-1.083463231354079,-0.370619508487808,-0.7737336266490272
170,-0.536729161178992,0.3622607750542073,0.6429456116740339,-4.2905134526171995,-3.475664631207359,-4.18273165916623
180,-0.5227094163438089,0.37454188246582537,0.656023297428902,-0.9892449175366903,0.040017551830613785,-1.2488221786347835
190,-0.4954508371872033,0.403307443682239,0.684306855925122,2.0021744013483813,1.5171411033805724,0.33421144476397324
200,-0.5570867080168755,0.34855251195590875,0.6220777986970153,1.1562172454672783,0.9673986303509906,-0.44556846848207277
210,-0.5295837556713354,0.3737231690414329,0.6491288085641559,0.9913308318300096,0.630318588449174,-0.7501354467579129
220,-0.5236859719105713,0.376408464995573,0.6581450079606432,-0.2611951335219844,-1.501065737275216,-1.7188817796149127
230,-0.5468316339127752,0.35537141435365693,0.6404069040718324,0.3468245576092279,-2.695990801601009,-0.9184499120177942
240,-0.5141260582358979,0.3907288043582278,0.6738390639518401,6.256130595895731,0.34092436492020517,2.8860001594357727
250,-0.5263434604149413,0.37589376825319637,0.6578874898348712,2.673927127995417,0.06113778438063566,-2.548690748799161
260,-0.5554721687714594,0.34936077501605867,0.637096298284656,6.945286290926557,3.0655318506592493,-0.8331810201684049
270,-0.6096718118220245,0.4150896393426732,0.5444594358133514,10.040108210396987,8.679069175679928,-0.12159345082704509
280,-0.7339798137913419,0.355575208572986,0.6819707673363498,19.696902288046438,3.4539480555596347,-4.2181261514622115
290,-0.8247653455737253,0.18901129924255838,0.9048455279748732,29.45064292021588,-24.0542324694644,-20.201395832531553
300,-0.7010857320697288,0.1819959043655349,0.6064530388762576,53.411399726502914,-33.793127679838335,-19.798370809127377
310,-0.4278581904993876,0.32630259585417776,0.484101086898266,60.66283869961089,12.616977941479963,-23.24934371616015
320,-0.36630645107582793,0.34250464949174003,0.4989037768344069,43.779193698494204,18.535700518208873,-32.669229900565114
330,-0.4104949496840938,0.3414621929387034,0.5290384363575884,39.765418166358664,30.574338953732212,-33.19279440157141
340,-0.43427830639918125,0.3848435534123835,0.5827328541436563,28.765675860445253,35.43468564802152,-40.8147385525046
350,-0.4697027276145149,0.40620752014784156,0.601640283311511,21.676711010513753,41.126595351668485,-42.91045999720027
360,-0.48946149949663487,0.44190866725589945,0.6465805533670629,22.415081367134153,43.512936250702495,-38.7037503778492
370,-0.4935581316685146,0.4858596991825224,0.6362760571569096,24.503176729906347,49.55865057127062,-27.608363191506484
380,-0.5935579774406217,0.4522320148555376,0.6724823885009695,28.349847682594703,40.27858032095893,-1.7338576202969616
390,-0.5888104502652609,0.48805398702459935,0.7130177878203535,21.375296526620705,29.04952188452168,4.894794216970534
400,-0.5276897914203691,0.5381652882285051,0.6775961375367935,18.8789408585187,33.43506376454323,14.20997035951503
410,-0.48386318831841246,0.5516908961740046,0.5933449329077998,0.05722370773373031,29.995041467906006,7.935043603779272
420,-0.4921621951083625,0.5283390016581737,0.5739440522574712,-13.381456143277582,35.00506404022089,3.932049110190666
430,-0.5032245238114272,0.5191791998404898,0.6454421850084121,-21.66172641673995,36.21019219426972,1.1831238773314043
440,-0.743604512559904,0.37409499127991136,0.37723701368632656,-38.58710766592952,8.40249444489326,-7.508283689597724
450,-0.6516099814487133,0.3920106003006251,0.5075111864698705,-27.948874795892415,-3.8091004901234586,2.2175667056041415
460,-0.5676327562803533,0.38739599437501276,0.6103825915339847,-8.237036540892326,-5.2521889111228575,14.329006580804931
470,-0.5984366823414142,0.3151287506212174,0.5775602307710785,5.430645887024216,-6.106012736906553,21.82899955706996
480,-0.5370211907839272,0.3385721939595857,0.6774730809622564,9.788258699043752,-11.986911891404745,28.32764896233723
490,-0.4570419944940781,0.35801133967728677,0.810728870405877,3.7728989372206403,-24.353767454337994,24.495805425297156
500,-0.34692067157315803,0.2746549119545329,0.9498089344143442,1.677000246210492,-39.206563576050975,18.839633333316932
510,-0.5749316008414108,0.4331918070295658,0.6644576192210266,-4.213051679575674,-39.48682261483887,13.78318961532557
520,-1.0264964450179153,0.5795663105062954,0.3535039047029455,-0.3566004027245136,-49.27190711600202,2.757587660617798
530,-0.9986649836563228,0.5261009410476957,0.46998310779291236,5.756298911925317,-70.13370067199608,-15.979813411840869
540,-0.031661555534304914,0.34705477188508466,1.0774920814966222,6.35693611760767,-79.07364570119796,-25.86944667482086
550,0.2502367013339939,0.4251618388166688,0.8632432726812048,1.5332382012181958,-70.32556597813812,-3.5498366196466162
560,-0.5241079630892739,0.6375883300802271,0.5932872485908345,8.053549942092163,-70.02926953257587,-9.017850521048302
570,-0.9115586392397594,0.5118604405554037,0.6388406225103266,11.707962237024875,-54.71592706254425,-15.422052992272505
580,-0.729480122044895,0.4669102776422312,0.8693754405110277,16.999280806716154,-46.04692547745213,-14.134587441282006
590,-0.4872389727313668,0.5090311629503143,0.9867625378035367,21.223523267644364,-36.06228999061148,-17.028807898693888
600,-0.5567396580300852,0.4903343098963135,0.9130803430817974,19.936752358966185,-12.194257183952075,-35.05243648734182
610,-0.2514354022308024,0.32113164759577423,1.0753715543017297,18.32069713206562,2.3124172136097902,-44.830421917940676
620,-0.5074031517965873,0.20529660043647158,0.697795653519877,28.624170334036677,12.115660410467347,-29.724088371832003
630,-0.4861679243618649,0.14119691829228506,0.5323202665019169,23.25325907376483,10.060758329255972,-15.80589484739124
640,-0.5783583614853192,0.3338997950161437,0.4740309017335491,10.66884712439389,7.53016839922836,-7.0245066500547075
650,-0.639197896743065,0.5962102769772879,0.5008785039517666,-2.910582051472212,14.891377876601144,-8.088629441765722
660,-0.5690133694528859,0.5621469625653484,0.5487087381448442,-20.71744579450672,29.718657827269695,-19.627509389520306
670,-0.4295623322313301,0.522818279237392,0.9264058396862014,-32.33910388063603,54.47882007742576,-2.5576707116413493
680,-0.45504531237878326,0.15857605316858733,0.7084357300127705,-26.031076542255786,44.58816157767306,5.336568863143124
690,-0.3975734954202458,-0.16417745705336875,1.0264399686273,-22.876031557082023,40.83531551348562,10.91214276211217
700,-0.6359295804269665,0.010036789873359937,0.7188264680362828,-19.29032967979133,33.248017204809585,28.43550365526423
710,-0.7360158662565593,0.11434271753330477,0.4362235617938995,-11.911941325792627,22.8727416821236,36.901542817493855
720,-0.3687765780174666,-0.008180932488618484,0.8305395242487084,-1.6105533536470262,16.63638444352716,31.71708279917265
730,-0.3838022759048898,0.7437408564589504,0.7113653669360975,-11.7629002800707,6.972565872045566,50.3213496893878
740,-0.36897217309203845,0.06770152057948778,0.8432524341604046,-27.28215996439733,2.8149058677932843,2.982443922690063
750,-0.4845300017469604,0.18688666007923319,0.7911396177345648,-34.762060746983565,-0.9265404411255,12.896846072149703
760,-0.5828170665867048,0.6671000841824399,0.686010299554984,-14.26655974975015,-1.6852081870601023,18.06730404674146
770,-0.5887927797000123,0.6844429373783436,0.6015024293300791,-2.6000562975146386,-2.041902268599274,5.7070820264980044
780,-0.4910406643493237,0.18381054284674087,0.6165090042003047,-15.425106812399447,-2.221330230912284,-8.70893908961283
790,-0.5116947195305742,0.3285854861611848,0.6579891425478713,-9.481698167490787,-4.532014314074177,-6.5923559978982595
800,-0.5306070334752657,0.3278275169812047,0.6417043696916794,4.105815275135611,-0.18480570084756653,4.996472182748002
810,-0.5124351077907388,0.35566442163524103,0.6671922072058363,19.08327395138539,-3.654518814851031,15.90795981317051
820,-0.4873797554740837,0.260878058250423,0.6894910517213163,22.786014259856422,-9.172383742230487,13.662820864425697
830,-0.5518874707816215,0.12322865597762248,0.5630574446281181,17.95625194805884,-14.312373695706032,-7.871357426569367
840,-0.6610293176023231,0.2057769636038942,0.4899428966474409,13.200564083710715,-11.917670622286204,-34.699924724590474
850,-0.6549711864833908,0.7172695286865681,0.9891717346864862,12.726450270325508,5.719811197408763,-37.00826907233123
860,-0.6520462744971282,0.4705627812483872,0.8818704708441866,17.012886319709192,10.701114222149611,-45.14047670926073
870,-0.8681468139514907,0.30119807303687596,1.3437993410696099,39.14187271443247,26.70289117067832,-56.2689566371629
880,-0.698965824380038,0.30979844954543895,1.3518683871691615,33.050680149832566,30.35143745416071,-44.31224083933131
890,-0.42611428277800556,0.480361750616466,1.1349142356947153,8.310708543833632,26.442902924747568,-21.931930958640176
900,-0.36748231214484384,0.6056265479923633,0.920429252320923,-18.237002438897292,22.39150381086863,-16.199690665043438
910,-0.5628727469797732,0.36197731133905425,0.5026166207136767,-18.537991360808213,40.293661002488776,-27.657015028647336
920,-0.7818452823930503,0.3936213055962765,-0.022539836948095655,-4.217690824590202,54.60471456588851,-23.180827282902307
930,-0.539956500370747,0.24678648675963002,0.7597433665717984,-11.445009821318928,38.68366698547652,-25.21449522563259
940,-0.695022199923533,0.41477935763245166,0.4961648559226354,-18.708018254718457,30.972068322278922,-17.881031644500545
950,-0.8051347390775379,0.5993600867596051,0.20732455143659007,-9.812445339493316,30.125217507325573,2.361748008166222
960,-0.60280404253009,0.749842431707181,0.5140624244814956,-5.609120005883657,22.76452324499842,13.638025686536052
970,-0.7058911924643823,0.821957717051785,0.42177325377356994,-14.399767978228457,28.901038507571993,16.281458064238755
980,-0.49208714413854376,1.1674198857517242,0.5362626889572423,13.597409901868733,10.872870140503116,26.077456251256738
990,-0.5962014263022084,-0.2620721093012651,0.8156718207980588,-68.16861749610479,2.716586560071788,13.794864519727827
1000,-0.4825967923251439,0.18714835369734284,0.9518936364349766,-53.743016552991286,-11.756384601741221,33.11289291010014
1010,-0.5247774611330203,0.34665890614466005,0.8153781261160555,-28.951543375374495,-21.624166860468645,42.18381380386546
1020,-0.7077608050994647,-0.23442031067358404,0.5496048824251215,-33.0761352553736,-22.810849375370804,17.764050487223486
1030,-0.4623646721422496,0.35415457095550146,0.6070102015900779,-6.352917412512706,-9.891109235706294,-2.6261013104378454
1040,-0.13069066581309652,0.8138417479378369,0.9078494493944576,-16.898535255936036,-28.780745433465786,35.557226420974146
1050,-0.5631561004622799,0.4301909057946612,0.48913930405107403,-4.562986244613077,-15.809937165594349,4.080338872145358
1060,-0.8324418789315298,0.28597681652604134,0.20148499775263531,-5.1429917726423895,-19.38611272557953,2.176730159336964
1070,-0.7918080617338474,0.1759376712578593,0.1997761986270673,-7.781591315662604,-15.68635419611635,0.14812810278812735
1080,-0.5920089178779286,0.14996023891287114,0.41386951790390253,-5.68886181088644,-4.549014131114184,-8.874336254731894
1090,-0.5799184565340009,0.35688462060630893,0.5619976994261598,2.69761937764192,-3.175421027813531,0.214285631527524
1100,-0.5512558229672659,0.3782442176184194,0.612937047719889,12.671986135122664,0.6515869445006506,9.72193858308259
1110,-0.5860303079862974,0.3492200731657907,0.5847877421559844,10.31409802449633,-3.171098191863045,7.409961871763346
1120,-0.5706906221981118,0.37568194443020997,0.6025081219708806,5.692256044452205,-3.153853376991628,4.117815229613815
1130,-0.5432434574994944,0.40939849127182576,0.6300492736304653,0.8927213028887855,-0.9856322826347301,1.2066617750138011
1140,-0.5396366211573496,0.41088542522859395,0.6335747250797465,-7.405966552516743,-3.1501455548649746,-5.4766977589560835
1150,-0.5743331691197651,0.3678535935871875,0.5994713893605473,-8.633136601146267,-0.7623006377744744,-5.783262931757925
1160,-0.5780168392103799,0.3512421200590627,0.5905860479781622,-7.499444262837309,0.9131041986683714,-3.6594775316205457
1170,-0.5683810698061307,0.34840422964079143,0.5988097557008253,-6.808980768742059,-1.2369670472397334,-0.10412337069946276
1180,-0.5425451751450002,0.3748991320274196,0.6273649288976179,-4.739696308330124,-1.567289725335395,0.7954526382279957
1190,-0.5539230793842072,0.3679554811501234,0.6169817514473236,-4.632918131194797,-1.9509171914579495,-0.620980133874828
1200,-0.5691910489493986,0.3544751576729801,0.6021114072453179,-3.1476658569412677,-0.3565341781187865,-0.12644953301725453
1210,-0.5587698270760523,0.3626468579001453,0.6141955852516049,-2.181092068297873,-0.568576969603684,-0.6411734619827413
1220,-0.5646181772963734,0.3538431639841139,0.5992601919067858,1.5217047659152363,2.47009946144493,1.7963613568411905
1230,-0.5626472412020314,0.36137324429767254,0.6069779255124716,-1.494023231468967,0.9746282147204179,-0.24425454648716838
1240,-0.5546684060754284,0.3603111298281565,0.614061148836839,-1.7541742344686893,-1.0622559404559064,0.29442058715548736
1250,-0.5694146256959003,0.3409293153050367,0.5965815647051443,3.1616461465371835,0.18726135750591588,4.163859420514136
1260,-0.5525312438442478,0.37044876799341164,0.618772340245735,3.905704852061846,-1.5637257941676317,3.6441945690197466
1270,-0.5554142537047773,0.3892315270691537,0.6292171877291232,1.9441073515420113,-2.515003771372276,2.286502711621757
1280,-0.5669371259768944,0.35975431420160886,0.6082054578946268,-1.2101994700932581,-2.5069416454242965,-0.1657644173438761
1290,-0.5640421338142242,0.3579278732661416,0.6080951386503479,-3.3221568723850883,-0.7228137805444091,-0.6628232006796407
1300,-0.5786476355470567,0.33809279851088475,0.5928772419175123,-4.1765383682575274,-0.6405879127620451,-1.2777947998399275
1310,-0.5642470449752685,0.35149068186929855,0.6064710151948355,-5.731682576484118,-1.800177527971518,-2.300371562262041
1320,-0.539020757541738,0.3761286208480823,0.6319223583151254,-3.3732709604899727,0.7056577118493369,0.6746805232181592
1330,-0.5604623560959998,0.3511456005767136,0.6121867695175901,-4.903641816316318,-1.744117974840941,-1.1358953319073566
1340,-0.5669088342187745,0.3459825662176591,0.6033901607487459,-2.830075767636056,-2.197000701776319,-0.5782397379709578
1350,-0.5545861905243432,0.36125062238498873,0.6186570762688651,-0.5852508402494734,-2.2923617619151,0.1738625611610023
1360,-0.5649743603324198,0.3485048220097293,0.6024089629073682,2.9090519070780747,0.6158305844639331,2.749220267409985
1370,-0.5547995390712781,0.3607534436486804,0.6135721098440167,2.8701796963502892,1.905703342387037,3.4737946673026485
1380,-0.5694902326186604,0.3509866560618222,0.6022972821178015,0.6330001479418534,0.8348695273056852,2.091942878924538
1390,-0.5666496231792297,0.3548694233677016,0.6044435526318043,-0.5030893350857927,-0.781214775023613,0.5392400149461052
1400,-0.577310672171674,0.33583646857872107,0.5959271214752713,0.6146415291944198,-0.2646036884659884,1.3486990735713569
1410,-0.5563926444051668,0.3657254606344399,0.6213246622541249,1.9662953580018354,0.6145299984697958,2.7183018924176032
1420,-0.556384210893437,0.365747494631843,0.6151591697478653,-0.5931002506220244,-1.1376095286510024,0.6052498706306478
1430,-0.5533925043509952,0.3677394767098147,0.6105267638032068,-3.4904998921479127,-2.77857247230098,-2.2387789527675044
1440,-0.554878410707836,0.36590974891880773,0.6080415468033944,-0.8623511811085269,0.679063129286464,-0.25687428457161654
1450,-0.5304804706177351,0.3882717667864827,0.6381601435789555,-0.8814932930192374,0.31617024238564884,-0.8888582765439184
1460,-0.5495326701534438,0.3614240729387201,0.620170342791667,-2.784684410527263,-3.4891151203175124,-1.5517810480879524
1470,-0.5446078797466277,0.36553988666422327,0.6272442661688757,4.463083550813373,1.5055297996689214,5.40929664290125
1480,-0.5785488465392506,0.3430271054635102,0.5879104068082952,2.9164261291516835,0.08119223468121828,3.754020869428734
1490,-0.5477886033008457,0.3793014997689124,0.6195399694155435,-2.747983343223084,-2.5620526928868537,-1.7230406946762398
1500,-0.5708306970246495,0.3542153065459828,0.5957934710895731,-1.9402556564921534,1.1711537778550214,-1.1420711284016625
1510,-0.5308721830217726,0.38750222602792295,0.6320898904543077,-6.171244242072971,-2.1965931597727537,-6.031334499962412
1520,-0.5302568673067721,0.3792972616492152,0.6412614617289737,-3.0222964271703456,0.7452553002825589,-2.6938039775356977
1530,-0.5397860187109206,0.37300068882079135,0.6281082114347667,-0.04824536599306989,-1.6192074493311654,1.5242448250871905
1540,-0.5499070224606599,0.3667397140336982,0.6203316694565676,-0.6845873474391106,-2.103631396982742,1.2920017826683756
1550,-0.5688908049974938,0.3480202429980813,0.602664126243381,2.268732440366722,1.1738300203308634,3.461578674621425
1560,-0.5575927399280043,0.3582439282244244,0.6143764510422302,0.7136812209245489,-0.06004511493483178,0.9490519284124095
1570,-0.5539661389728298,0.36115996837156483,0.6176334739302244,-0.3902200664862572,-0.4510438594646368,-0.5617497661176747
1580,-0.5503714860749783,0.3634099339516301,0.6183619323594858,-0.9125941574635578,-0.535600555012304,-1.1882339751108968
1590,-0.533212185302405,0.38107301346954386,0.633662215912977,0.48804677338242564,-0.6742134243494087,-0.5805627880028127
1600,-0.5858844235704297,0.33315758026991815,0.5824459909189452,-1.78798406342852,-0.9120280498206335,-0.43765694284414225
1610,-0.548898592180738,0.36747349995037654,0.6183666063835509,-1.2754153389726468,1.0308094414451352,1.3843463894371653
1620,-0.5752730221576914,0.33736094722078025,0.5932295158620012,-4.281120969454407,-1.1952187854561886,-1.1569850566403612
1630,-0.5644227573239652,0.34746744800047913,0.6068526290623483,-6.066099837351618,-2.9071484759847346,-2.88393145288572
1640,-0.5577507286650455,0.3538509939529323,0.6104246151152267,-1.4997851595738692,0.34562479622865866,1.0051380805102677
1650,-0.5618465162925205,0.3527316998019549,0.6060879073332572,-2.5756814603268374,-1.469249742078123,-0.6841636334620459
1660,-0.5508002536388391,0.3643097599792297,0.6189057206138736,-2.124189113503233,-1.163041468411768,-0.6448247597990765
1670,-0.5659158708701844,0.3470550242431271,0.6067541202742792,-1.0886060171699978,0.9368879875777261,0.181676846707282
1680,-0.5670751174795564,0.3430066115074528,0.6040460238932804,-3.132374584562019,-0.805783485666746,-1.5387109123654839
1690,-0.5580769204369689,0.3502939202892669,0.6097777947471876,-0.3352185662465189,0.9912114078127369,1.8652054799477327
1700,-0.5862318035755739,0.32277468658898456,0.5848541615332997,-0.944019182567146,-0.8941045020842009,1.3307403609168698
1710,-0.5738885186816383,0.33825599328731776,0.5932118768486987,0.5570209897283496,-2.173625184897795,1.7401032379776868
1720,-0.5544984045906297,0.3659804724362793,0.6156632421466784,-0.4350530200073357,-2.948806661528486,0.48368268509035683
1730,-0.539042556057367,0.3862369231967338,0.6320062208153076,-0.5103297027179908,-1.0162084302127783,0.02906820194368198
1740,-0.5446478905524876,0.370302245037753,0.624406514521036,-4.180733952401116,-2.365960422071473,-3.480916800433369
1750,-0.5603577764957935,0.34050076633963045,0.6068207469735947,-2.222017097603332,0.11097968789840718,-0.8693736489429134
1760,-0.553943597378837,0.3511265292069785,0.6144552805672924,4.349228884052794,3.920208282890063,5.948017175090916
1770,-0.5796480579022828,0.3274379698713615,0.5860156146437162,3.343988635184345,-0.1087454231655939,3.571019969316406
1780,-0.5407537332795331,0.37242250202175853,0.6288617582916203,0.7514808992883402,-1.1433455288714989,1.9352105222346576
1790,-0.5443941744138944,0.37238955288471626,0.6232570990062419,-1.3679548608731136,-1.5276396271288348,-0.6559682730724414
1800,-0.5548107487541177,0.3637533113476204,0.6125327078040403,-1.9829849408794855,-0.3420187565542098,-2.1416438072236494
1810,-0.5578496384599906,0.35512601757037965,0.6114840791878771,-3.187815171325673,-1.8274479429164339,-4.056935103439432
1820,-0.5418617069253223,0.3562681566152608,0.6264746613315054,2.2614045305679085,-0.9926248971883253,0.6098778108528542
1830,-0.5631555885339641,0.3425385723813721,0.6000028934101496,4.968909761736158,-3.272106647422057,2.1478443887368925
1840,-0.5481328627273334,0.36977169417433076,0.6226852295510698,6.5896393575456695,-1.4256329637979293,5.35284570174737
1850,-0.5375957637615537,0.38476833716463826,0.6325104067207912,5.485601785306584,-2.3845331731842356,4.2356946919429355
1860,-0.5377445458787977,0.3830119590647336,0.6296028741656184,3.015906728861863,-2.764540707390404,1.1652911715675862
1870,-0.5367897138095066,0.3813155916351928,0.6311173013946272,-3.401615314535934,-4.444108762834411,-5.388025716149089
1880,-0.5328985662088973,0.3834053644614689,0.6386902661313744,-3.411996470772423,0.7204264915735719,-4.682821304343482
1890,-0.530237904629516,0.37276968480144845,0.6376189835955933,-2.2277005545115793,0.15805968142047144,-2.731095817344859
1900,-0.5445190023802104,0.365644458949603,0.6214170300246205,2.2840320017557114,2.382334035733686,1.4613115338711293
1910,-0.561744922589033,0.3469056255932169,0.6027011202155176,-0.13100015607368787,0.8048417479140267,0.17631270164596413
1920,-0.5491661492244596,0.3563458369824589,0.6171730698852185,-0.9565463943245177,0.006038075136982901,0.11189020994852389
1930,-0.5396216809449595,0.36431155321776176,0.6297489034481147,-0.7774716691486875,-1.0710313881707805,0.21102829521843747
1940,-0.5274253717709813,0.3774751781612912,0.6422488660696896,0.2905896722303164,-0.624714099848519,1.1586182654887844
1950,-0.5270761360512197,0.38558399042504393,0.6404489688190589,-1.2023929553566184,-0.11504764186809575,1.096109846533473
1960,-0.5477872052373779,0.3658042307682883,0.6214786222468824,-1.1239826249312592,1.3450492522678565,0.3711111150067625
1970,-0.5192889432097973,0.39165068652154933,0.6500861013053626,-5.31683888661158,-1.084003862998305,-3.5801918546468907
1980,-0.5309721631164442,0.3726156289101744,0.6354126473465802,-2.8274241171820105,1.5097857120540343,-1.0651122717139343
1990,-0.5429785931689647,0.35399912538083295,0.6217655827239152,-2.856787144526226,0.4858777694720562,-1.1447181963227728
2000,-0.5581114565836929,0.3382675875124062,0.6090823733823629,-1.4846986454786344,0.7826671576490243,0.5061788570033934
2010,-0.5910316872966284,0.30809745011260437,0.5752002686036272,-1.935075023137267,-1.9106390132560958,-0.09526830788738261
2020,-0.5776069963432657,0.323666045872471,0.5880995836648297,1.081984825629462,1.1206185431332027,3.0791752195422637
2030,-0.5448421394132045,0.36181663389677005,0.6227339814516007,-0.06403210054925451,-0.8818466709825854,0.25630334314453385
2040,-0.5416450218562038,0.36492090837629415,0.6273069490645649,-1.9589088783605375,-1.8612672778499812,-1.8455493824712403
2050,-0.5544507346409688,0.35047359572347897,0.6151088710349475,-2.2167462092888557,-0.608509366860278,-1.2595467787183425
2060,-0.5413594179687421,0.3646173215714153,0.6287819159935258,-3.006428217933509,-0.8326873505477794,-1.4482330338379736
2070,-0.5570634772193468,0.34662127302872403,0.6138653967162393,-0.9567790424770295,1.9194218543672148,1.2966741907108803
2080,-0.537620856409945,0.3625009868493338,0.6303955994288897,-2.0667743638365312,0.2490380501780846,-0.052956848234979856
2090,-0.5745318413710502,0.3268666238406311,0.5917743283179898,-1.0986659040692335,0.653256424736095,0.41962341722349167
2100,-0.5435581262839636,0.3564356882326637,0.6231214967169998,-3.0204027272208185,-3.0033217289149268,-2.3170854172897473
2110,-0.5552445500180808,0.3460170182037355,0.6126495833941425,2.8721607405196687,1.4694547035123793,2.851098421233111
2120,-0.5648168096407182,0.3438725479375915,0.6037723262162316,-1.8414668638422753,-2.4186986051841752,-1.8617450404237856
2130,-0.5615634958278114,0.35264713467423064,0.6069588120873493,-5.02306329275165,-1.9432075132799878,-3.7762286633858393
2140,-0.5250816647808721,0.37799050056700056,0.6391470137525032,-2.73154475919178,1.0611203211907487,-1.1533959657814552
2150,-0.5614767194019692,0.33458774056430624,0.6025397443925142,-3.3819525241354533,0.7204895917044494,-1.2366167231268794
2160,-0.5383996228479951,0.3517156672310906,0.6231188224179415,-3.3519455268159195,-1.3378411279167075,-1.5229653885519054
2170,-0.5583625264450859,0.3384110483584046,0.6058670607640795,-1.454979015365937,-1.144371429691318,-0.561117046368008
2180,-0.5560594651522843,0.3569910483648136,0.6169872213047708,-2.136547271089482,-0.7514359047590895,-1.791234852087414
2190,-0.5837117201685615,0.3276470422862494,0.5900524783632419,-7.067777556993573,-2.601029932618001,-5.7645492555189914
2200,-0.5354965546557019,0.3657287156299928,0.6266151414822728,-6.069382183636225,-0.26390676510819633,-4.438997024618147
2210,-0.539898510698159,0.35729860672667807,0.6227519976798881,-3.7790120173491397,-0.2013161780308822,-3.3391108751856002
2220,-0.5444296739207883,0.3505888331018799,0.6201296311812401,0.2905003808930833,1.3280016221229154,-0.17141335223666865
2230,-0.5675048211593741,0.32872461932289876,0.5993871973094861,0.2933803538036388,-0.7044961364797974,-0.587226931481938
2240,-0.5391250825898366,0.3625789174558335,0.6301842780779059,-1.3728416939120174,-2.247062160617818,-1.9881000982955477
2250,-0.5585099509615488,0.350134243637969,0.6110285405658198,-4.560111801319911,-0.9545605732400302,-3.8770964027112464
2260,-0.5578450238516333,0.34674639469074997,0.6117849944876045,-3.316636411710525,-0.5592881401857953,-3.808727973165106
2270,-0.5773533736334343,0.3217336460835101,0.5898766035307574,-0.5804044116403312,0.9425262228920017,-1.3093936892523725
2280,-0.5749344969292852,0.3199394952578273,0.5890301787570116,-1.409354803540735,-1.254757773267497,-2.401083886509429
2290,-0.5428643591793889,0.35328428530025974,0.6196563225005461,1.0445227430948203,0.04980749214411884,0.14175418073694346
2300,-0.5661064988511917,0.33570633503678404,0.5985721329408819,1.114901239747702,-0.40813187817880286,0.6859437612894439
2310,-0.5506640218820581,0.3538727490303126,0.6184946057126558,2.085276698973418,1.1946788922850495,1.9846976139009338
2320,-0.5127245469931286,0.38346958607278364,0.6492407384319283,-1.985289841655126,0.7812027681111708,-1.3477835923230899
2330,-0.5578414619820038,0.33683170302466187,0.6093698216307734,-4.887996846101436,-3.0313001995529523,-4.329294538586005
2340,-0.5461643400812837,0.34677124505467544,0.6197459268473237,-0.5577803615905452,-0.8074695054068963,-0.038690566255621395
2350,-0.5369270997115393,0.3576418220637373,0.627661629014967,-0.025364161913984384,-1.739239108352657,0.4124996015000153
2360,-0.5495571704569359,0.3495787378403634,0.6167636250411074,-0.4240499235808912,-2.246892976378228,-0.20268665422812138
2370,-0.5676222519683524,0.3343467945520628,0.5992996374248214,0.4018854722812781,-0.41566655631142324,0.38555495698780345
2380,-0.5442285534171557,0.36311117276988153,0.6220973882442226,-2.81502267123631,-1.5683163059116805,-2.5985654092417105
2390,-0.537526316588709,0.3603243242081671,0.625238058301628,0.9995186826216502,0.9070431481363137,0.5908917340064475
2400,-0.5644323930845675,0.3344831668835731,0.5997360059358415,1.5712189618916643,0.48496611129129036,1.3891950422537274
2410,-0.5226807455576175,0.3774857174089475,0.6412586429661907,-0.8133181479277846,-1.524992009565385,-0.31165851517886756
2420,-0.5377863270826689,0.36218990677796487,0.623788034123144,0.1787644344364706,0.6690994234526367,1.1908017476947896
2430,-0.5246603827118376,0.37982718283967043,0.6376437464547806,0.5612237720458157,1.97858838151599,1.6698389391705541
2440,-0.5405423865415767,0.35912198699211534,0.6243243718875497,-2.5561853136185184,0.7252198093823451,-0.5478025912628065
2450,-0.5565250132014201,0.3372387045377344,0.6094621310543755,-3.7365676410421567,-1.0985903382933502,-2.6510970059323777
2460,-0.566987326430281,0.33001624489358206,0.5996390719063941,-1.0331967428845796,-0.23145064744078486,-0.4355403424058573
2470,-0.5508488630478313,0.34881826031349017,0.613129906136715,0.06278095018155308,-0.06949914650378991,0.24318417193256311
2480,-0.5371595928489505,0.36337694074028143,0.6246982368690156,2.125258164386449,2.899708668770856,2.360402496931168
2490,-0.5421804738605106,0.3606112493639781,0.6231036485366692,-2.0083742763748202,0.919570348918558,-0.6280485389843294
2500,-0.5386620268071283,0.35565652603743436,0.6252652714681328,-3.75010368052772,0.14459694844851045,-1.6136691168708972
2510,-0.5537933313488488,0.3426611055950568,0.6106794984941682,1.728739166783532,5.395190286152927,4.308641941319355
2520,-0.5625336736764802,0.33100054674269364,0.6044440242159363,-0.7456637075164174,2.217213592012065,1.4006544120727127
2530,-0.5181950985970248,0.37674866054741735,0.6466358588621297,1.3515604349803882,3.639748129865211,2.921725868105229
2540,-0.5302626667122928,0.36837377270419996,0.6317266209727763,-1.2553687825295958,1.0612110509264858,0.06404581412231769
2550,-0.53937676837313,0.35769306641907445,0.6253333267989588,-2.02856321221838,1.1015229175130874,-0.5636062317598367
2560,-0.558694462426235,0.3349980132762386,0.6043761594384462,-4.619766324677411,-1.93597526887015,-2.907779205252351
2570,-0.5550906347214195,0.3378440482290053,0.6055815533770611,-1.0042990571860884,-0.021908736904188042,0.008570226517987556
2580,-0.549887443673026,0.34457018949811313,0.6126151960677789,1.1293020740130686,1.0533583908791808,1.5680758527912262
2590,-0.5466033940034298,0.3479504916817549,0.6162461528752323,-0.49582760764094697,-0.6543318372507176,0.04590934696937876
2600,-0.5201137858895469,0.3731655357664173,0.640854690070147,1.4273532970716432,1.6139388863850335,2.1582258317417478
2610,-0.5442376446576197,0.3488140413548514,0.6156324476240789,1.9802603820854094,2.1664765591517487,2.2472197742494293
2620,-0.5306685063943911,0.3654813748549414,0.6328541063154214,0.7853540429876871,0.5154347462024702,0.5385562186325556
2630,-0.5271921355372572,0.36732156788791964,0.6364810393928404,-0.29157115953597956,-0.5565329950677735,-0.3354859641391573
2640,-0.5693906305056458,0.32389036340404387,0.5971877968629433,-0.71828441728465,-1.0853001122777204,-0.4006049586400504
2650,-0.5664886032390848,0.32834615109432075,0.6021611646818396,-1.411442941016383,-1.7642591043651825,-0.43308978742784443
2660,-0.5264765237153565,0.3703343268172237,0.6426014265343165,0.3144080441373478,0.9975813087338944,2.420571617508254
2670,-0.5535851194028552,0.3424810305037178,0.6141802915769615,-1.642676545268134,0.7222790874082061,1.0837858107540137
2680,-0.5616957347137417,0.33151519461293294,0.6009629639770554,0.3255250001074438,1.2050098033418823,-0.21447538758862827
