time_ms,ax,ay,az,gx,gy,gz
0,-0.6302476783102917,0.877872321179971,0.7445147771680294,-2.9442848919984645,-2.4968936884621358,-2.930142953001252
10,-0.633749554872006,0.8811435904445958,0.7556864514065761,1.7858652031946587,1.0594080984460696,0.8976908823576711
20,-0.6356375010784803,0.8813436046432434,0.746376292542252,0.8541905029571726,0.5646069438920032,0.8821437274874782
30,-0.6260982881632359,0.8918786911788882,0.7515230477770163,-1.3660365368290321,0.2902659917122662,0.1174018515236583
40,-0.6340837514615871,0.8789685545071697,0.7494861015187887,-2.1399248295305004,-0.8659675064769633,-1.4033061441916317
50,-0.6383010031378793,0.8797084399860905,0.747620830324003,-1.2845984488627753,-0.53595749295472,-1.0256953862384315
60,-0.6377987219447976,0.8774456731567846,0.7383066564268466,-2.3244841440857957,0.054130278136873544,-0.5062330820166177
70,-0.6390812018015759,0.8651830647030636,0.7375133436698683,2.0705260375121566,-0.5016542299721508,0.998903975075052
80,-0.6428489030043683,0.8619229357206576,0.7411592255361803,1.2604044693279521,-0.9411336508487415,1.5660214721591486
90,-0.6291983249950063,0.8717784780823921,0.7525666597559102,-0.9839017612819938,-2.765502874004464,0.992940486104644
100,-0.6517088236792357,0.8714883386932667,0.7467352824415447,1.5728787220313443,-0.9993823755361961,5.071448376167719
110,-0.6717599120235725,0.8764207084602101,0.7593315556414418,13.534439337074879,-0.9835489011349716,10.672462392568512
120,-0.6712051762212459,0.7430985181647319,0.9071706052685363,16.428009572816205,-22.94759400873161,-14.773047170372609
130,-0.6952793745450475,0.7812402066676596,0.9956911713536567,17.850690179441948,-38.8450458097207,-22.499492873863122
140,-0.6515457485918152,0.8048634575914231,0.8609691605178602,25.849002546706856,-55.934997166795455,-25.7361783803848
150,-0.5543073622901021,0.950843601098227,0.7399537400533033,4.322607300718063,-49.11586443309006,-14.845068480369113
160,-0.4222478256610073,0.9442142266505668,0.7593805230459367,-20.92388540842542,-43.432232966571,-6.804296633461872
170,-0.41147441379836347,1.038476879561921,0.660703327365675,-53.113946031088155,-19.81589476893423,-12.614053087414218
180,-0.41111312401756833,1.059995101349079,0.6499578564380254,-68.511499952311,4.076429601349639,-12.796798876382464
190,-0.4564881852967306,0.8687918616693678,0.6690675003405443,-84.46803379217926,16.79885240973936,-17.681722258209923
200,-1.0020010416517224,0.7771425754271404,0.8050208334136325,-77.70002587621761,12.731518778146413,-20.465749617031214
210,-0.8488489122755657,0.7831515213134621,0.7531684379687984,-19.444681002017994,10.924777080180567,-9.431003641734591
220,-0.8406444619662689,0.9892268582116599,0.2827669473762305,63.35845226299239,35.272272036685905,4.9252955952078725
230,-0.78015377247144,0.8754964670777873,0.4041654599440448,56.51412305823215,64.05870784299269,14.825061246406095
240,-0.4647753980043173,0.9811594492837208,1.1551588583976318,18.753625690198366,65.77724848963794,12.331105252195345
250,-0.73727539554867,1.0063441342084303,0.16029508353164001,21.359649864563995,46.756533381155904,2.135429041168924
260,-0.5015537264830175,0.76008003372292,1.1037445834737039,2.65573143607548,31.525071046194675,13.050328732514915
270,-0.6736911154540752,0.9185081454498573,0.6749670579636993,32.80352905972304,20.784914940365553,13.106991924835038
280,-0.5817082802436999,0.8532819936311651,0.9509278943391446,61.79386262398384,2.6961430905336687,28.228838276293377
290,-0.6338229677531313,0.8199447212222749,1.0400739633294078,66.39320184860718,-25.79235800081714,25.866926540645977
300,-0.7151962466807696,0.8192013059052594,0.8946636892634602,28.309098856881814,-61.69302762724815,7.840138046880749
310,-0.7180957041042895,1.1644778758639285,0.6940170513028703,-65.6715067080226,-68.58157065518695,-3.5689659756729415
320,-0.47161975357902264,1.0469827112329995,0.6451543459936302,-76.82154205970176,-59.00258758331092,7.262264022058987
330,-0.46948057180583336,0.9053547063428595,0.7082435148654777,-79.4391633926079,3.028287331103065,-15.42647514488656
340,-0.8618906651956028,0.7141787103427525,0.8667854142783679,-75.17001776334692,5.6687744597380725,-22.848217025464244
350,-0.8387083600398416,0.7057422790665775,0.8575824316928131,-27.439592123726122,-2.9441919100442,-19.635336209437554
360,-0.6971955122519299,0.6551239564840946,0.7693495376637988,8.480807216079269,-2.583082363337448,-13.78696004706967
370,-0.6679289171396505,0.5793011455790145,0.5583965234776453,20.308348670954068,-9.050395762007984,-20.971156089886282
380,-0.6339385178217707,0.6919218439029927,0.7788461069498069,0.18601493641655598,3.8109500694471734,-12.185526080402504
390,-0.4896505052657094,0.9003703620815025,0.35634524068755796,4.4480600070059175,11.461189656212927,-34.96279911478901
400,-0.7010597555542704,0.9668394213527937,0.6560860100240649,39.95772353254529,15.062945075386054,-9.705655931132455
410,-0.59580839895671,0.9556422767571018,0.870658695381017,18.631665502172336,10.659245091749922,-13.353088313836887
420,-0.662026126785372,0.8360635531935227,0.8741886907742085,-16.251148376122078,19.929476285852616,-8.135210913982899
430,-0.49419935323791425,1.0559208732960033,1.0301491992947265,-13.538589030259221,11.165527466160281,27.427290526192536
440,-0.4195311121012201,1.1858335915731018,0.6092784250259373,-17.105777203996613,3.3910946378866074,42.137400947130146
450,-0.6020924687955823,0.7287651406842752,0.7080069044458609,-1.2655062880045511,-2.015642881098669,28.268436003599902
460,-0.6999038941507827,0.5902584125150622,0.7105768492547274,37.44654895392726,4.327130925263366,9.837208501907533
470,-0.6428757753762817,0.7885351446988162,0.76322455939358,31.383575860485834,-0.08319901212560055,10.027976928790547
480,-0.7065784224577292,1.17318027468088,0.7485389704615563,44.34060969046077,0.7791821361571474,-5.242653758824002
490,-0.6501940773252435,1.2689746868526506,0.42643015727137684,34.47877490880898,16.46235043861399,-16.011555732597273
500,-0.7535706899044494,1.0183908531114505,0.5967749710331581,48.083789805863745,24.144807443995614,-12.223234217949212
510,-0.708418835846421,1.036515883394364,0.7020600901423649,43.928765094718976,30.359733490325283,-4.095081756043701
520,-0.669610906897251,1.0597371131430178,0.7580221539267566,49.980201771697054,11.798280371071062,-10.576810859249598
530,-0.6639822464260996,1.0112961893831682,0.6073973634863369,-0.9838319704256517,7.763896929255981,-6.194373080817462
540,-0.7145400328948213,0.655852375042568,0.8594371260281887,-28.873006845283363,12.476739019792408,16.038027778997282
550,-0.866712186493037,0.31329758019274,0.8883927415468937,-83.4082828158559,3.0982409684512664,-0.511608944431752
560,-0.7310022852244289,0.5521874561127497,0.7290123642688233,-53.24791562783189,-8.608048039546945,-11.548534932629009
570,-0.6521565114297095,0.7775663879905972,0.6507947329235998,-21.696731992844537,-9.763101435043897,1.0008741610558034
580,-0.656960313019145,0.7283734070105793,0.705443185862869,-9.851405478036634,-7.212430643200273,2.213266715511672
590,-0.6326741961700277,0.8741167057749396,0.7572262781249018,3.5504040411321367,0.737506326358216,11.755827530191215
600,-0.6097125847346022,0.8984334585635363,0.7782762957817916,-3.2245124938355505,2.137705825946516,7.227805721662934
610,-0.6056386744134842,0.9088220332076581,0.775068728479789,-6.605382520676988,2.7092442368923284,1.651644294682373
620,-0.6721901668396086,0.8529205763613241,0.718003985900147,-11.673085595538865,1.2303952036794794,-2.4213299667991772
630,-0.6413569931347197,0.8688546151080919,0.7454036790110317,-23.1374621024222,0.92624889537796,-5.680844290273624
640,-0.6250306884162183,0.8485094850460502,0.7646152520637679,-26.957752576879468,5.414166505161258,5.032197570287604
650,-0.6431341461374084,0.8376008523481068,0.7506128166841972,-34.215952135015684,1.037948516707562,5.009491397618633
660,-0.618269840043804,0.8543834565303079,0.7829588098958651,-30.047538660251746,-0.5641014116336716,9.6727187847978
670,-0.648910040700264,0.8124431698854013,0.740604011566787,-15.774742843781768,-2.087374277118652,14.734351483495
680,-0.6107496248161772,0.8529809508200548,0.7754314285941213,-3.84550324488137,-2.6390409354957716,17.887242146704622
690,-0.6615815173979301,0.835844971937563,0.7384318706105051,3.9693332192753976,-0.07914143675689966,8.570146734528482
700,-0.6540146223600035,0.8531895679204096,0.7383806341242024,4.616982132473869,0.42605734162686026,0.9098622075325098
710,-0.6337031309465955,0.8769032665946204,0.7560229892422513,5.742278136559129,0.6975648989882808,-1.9414618146867877
720,-0.6519341691552899,0.8434407878992403,0.7322338274122592,5.666380645060977,-2.1634388670507056,-3.0007854899687
730,-0.6148684734402486,0.8776801960858898,0.7637408750806212,1.1881691666376968,-5.664894217572334,-0.9769671453868707
740,-0.6302142088175082,0.8644516219330203,0.7565157442779721,7.112821897451491,-4.832645436835218,7.3342659865697755
750,-0.6140167070016429,0.898167174445712,0.7780350513528014,15.612469986241345,0.6607554873119554,13.736264725022727
760,-0.6195297933380324,0.9055946166743652,0.7683832495224944,13.713335626285824,-0.46912773159800114,9.22887032970542
770,-0.6271602398994336,0.889079446639326,0.7587280743557521,8.81381323812595,0.270079027963102,5.636004558879323
780,-0.6386815318425323,0.8824397187223112,0.7426060221943934,6.802479721132705,1.0907431671125745,3.980402463953692
790,-0.6305753730540553,0.889604135619451,0.7540460202676975,4.60873490914237,0.08210587750967963,0.6717539725426913
800,-0.6267987597484626,0.8941790876488025,0.7535939264464876,3.4304745571410686,-0.16554584746270629,-0.5733370266956854
810,-0.6213185718142125,0.8927961743700225,0.7497118659207413,-1.2766946657918856,-2.2588131270130374,-4.304145727671982
820,-0.6235898765545198,0.8805721569014271,0.7547634563223893,-3.7107105921038603,-2.12938015163664,-4.4811136012722095
830,-0.6136787601865642,0.8886186771203548,0.776137520603466,0.33596554191163297,-1.9046502314335063,-1.8805767072630453
840,-0.6211231429623805,0.8922213380519024,0.7668855384200466,6.023710301776044,0.9138448888549955,3.697056720790725
850,-0.6416105640363492,0.8870411911067394,0.7440456862907259,3.431206659647942,1.0773646339779535,2.449000470313108
860,-0.6337409663549922,0.8939668526002451,0.7489268682484557,-1.2359662332198569,0.0767839922001774,-1.8217867931701
870,-0.6336479718604341,0.8869361066575043,0.7419244623293781,-1.6118815296697164,0.16676084715773154,-2.9359272596091692
880,-0.6232182613023979,0.8922260687890416,0.7630003390032297,-2.4788713462231526,-1.6181394896328243,-3.995689509209526
890,-0.6022500698332364,0.9162332195808077,0.779413536295806,-0.24442634153394416,-0.6883490938477279,-1.2228918121851347
900,-0.6163356629728625,0.8997635098080543,0.7700790172598688,7.643817507189365,1.3911282456613723,4.13474381434616
910,-0.6261123487325492,0.890891640882919,0.7548607898802348,4.889808210768675,0.8278622245332211,3.518007920416029
920,-0.6472469603777209,0.8753612806513372,0.737105571009543,7.38903911053422,4.497745442748722,7.828768309289002
930,-0.6142429368240189,0.9158697063281251,0.7674133938451958,3.473979687503698,3.175485329447155,5.151338044120738
940,-0.6304684849976322,0.9030356058222457,0.763794782846909,1.765014901271639,1.0454567453972807,1.6189731402717076
950,-0.6341705314944904,0.8880000168311503,0.7536872450814696,0.8434626994785002,-2.2864876737469784,-2.35346693750945
960,-0.6248258172689655,0.8998801923945724,0.7509434039587479,6.122699408708414,0.5174491749606999,0.9215750919032997
970,-0.6306911928412731,0.8973606424949312,0.7527128383567179,4.133588532990384,-0.711999437329582,-0.63670991932762
980,-0.6163440404914836,0.9100559035879923,0.7607516786945132,2.1735511551682563,-0.6262303721026178,-1.3423807017794303
990,-0.6618117162069407,0.8641877700082166,0.7189384560604392,-0.5251821376871968,-0.01537100466799296,-0.5797555178211713
1000,-0.6294566668585535,0.8984081363507865,0.7570132042273684,2.079910309353286,0.9921371720836308,0.6992467870325276
1010,-0.6390681820530473,0.8863587168270769,0.7416484337099067,5.276078454200637,4.348138790152722,3.6662290361393053
1020,-0.6093259145516022,0.9208173501869624,0.7621904701969119,-1.8748271132278482,-1.9398617968314458,-3.1721926649534677
1030,-0.6314613442394956,0.9005030285329191,0.7526166537488712,1.2642926774856598,0.5626185050584195,0.7472663501749415
1040,-0.6472826408750589,0.8821323956655515,0.7354589867371146,-1.1006834691358234,-2.0634058795983274,-0.646288225189293
1050,-0.6320682751370784,0.8953593224493991,0.7515537157813517,-5.527835656341805,-4.6769445645281,-4.163957299271098
1060,-0.6131831138544639,0.9136080969768816,0.7698928343260975,1.9136253599836894,0.5694233858765505,2.0146775428729597
1070,-0.6252049568868536,0.8949031886334001,0.7545521876404315,4.850834546823094,1.051187602784661,4.51802657649932
1080,-0.6089610086558097,0.9167715461530237,0.7804798310581108,3.673482553463752,-1.0507891662614544,2.7309149974736746
1090,-0.6229844842955281,0.9071535190755805,0.7474918867623611,-0.6835699682678629,-1.6806620725992256,0.09024842192539806
1100,-0.614773893773662,0.9088366393261853,0.7637746692318462,-0.6852923330264575,-0.3710367734565859,-0.49959109586519435
1110,-0.6381655373895304,0.8903767386728716,0.7408506864766958,0.9947238807512273,0.04974986506585999,-0.7539319074646055
1120,-0.6231931865608678,0.903908673625116,0.7535861907414038,-0.5900212239658248,-0.20637158778282827,-0.39717019901372175
1130,-0.6235762726108898,0.8984595642858639,0.7554212377248045,0.7902753562010917,1.355953454999425,1.5471861931719042
1140,-0.6321644034681224,0.887870651527574,0.7432556008034565,0.8136324724599142,-0.34568751416487764,0.6975652473568752
1150,-0.6334833802402244,0.8949771409164625,0.7453825218914907,2.8370711254659424,0.9747592605730617,2.3042666054860583
1160,-0.6120911239853926,0.9172708404256287,0.7666257048164122,-1.2282646626957998,-2.456341544796399,-2.052452034729657
1170,-0.6275961236000388,0.9062240652547909,0.7524802949138132,-1.0797651601116882,-1.231664233803376,-0.831505867484537
1180,-0.6046406941838748,0.9265593536548292,0.775883769751799,1.1763753751547177,1.3892137495437256,2.429409237726578
1190,-0.6314025563738576,0.8945820653685714,0.7445785748746069,-0.7305963519209457,0.1822960016710543,1.5771890195872258
1200,-0.6263605956952171,0.9129911962524712,0.7619030687720059,-1.9418024824323552,-0.6361280974039463,0.0517377655831508
1210,-0.6437137060542463,0.8847285783582067,0.7376829774810906,-3.058366771553132,-1.039135697532804,-3.2596219140672567
1220,-0.6194628294076189,0.9060081756183945,0.7669846819794587,-3.050560818447795,0.14252151015735304,-0.7294712678635814
1230,-0.6145561251308682,0.9066659837092267,0.768738951597273,1.2517800458137556,1.5960437828270808,2.3598896882353078
1240,-0.6059468562135545,0.9151999657559118,0.7748471790243003,3.3269973623496654,-0.774527596133613,0.8859132328803396
1250,-0.6246299337991179,0.8976199656134166,0.7546871504849565,4.67520523202446,-0.0017894503675840445,1.1987521303533142
1260,-0.6337358770738727,0.891446645390285,0.7441714501467257,2.2099069279264514,1.109048101717652,0.862643324796208
1270,-0.6309350034893635,0.9019546990543652,0.7518596214304024,3.4497904207968806,2.66398612380023,2.462656396034074
1280,-0.5993540097541605,0.9333987501280686,0.7829416038677934,0.35571073158376676,1.303923588748386,1.1958998496523672
1290,-0.6406091729769889,0.886674794574577,0.7455339058175757,-2.0968528762471794,0.21233718639440685,-0.4240244792860029
1300,-0.6140565030070617,0.9192598212419199,0.7726859223566188,-0.18059889704843962,0.8290794169745511,0.6184636935560219
1310,-0.6269539920111304,0.906502848212979,0.7505673544686245,-1.6194660708097577,-0.6181902200259022,-0.03390859903173582
1320,-0.6098668420235491,0.9178748059680031,0.7712400704532537,-1.0385014538773447,-0.06024222804443791,0.5676480385578546
1330,-0.6311659951681333,0.8992657738634271,0.7442879729574602,0.7909811076615725,1.3742431374790542,1.6767035178611307
1340,-0.6427270723031469,0.882437137513864,0.7339171747994103,3.194155508352354,0.11920624617534659,0.7093688463713953
1350,-0.6318919083499611,0.9016881731361166,0.7500791637935723,4.936036312126284,2.6991218209911834,3.142602810935009
1360,-0.6243156632436819,0.916164852126408,0.7548426143441489,3.6536787997218023,1.931800221590545,1.5259074844706602
1370,-0.643722407822905,0.8894688126076412,0.740131169742864,0.18924268703309358,0.22365239162316874,-0.849630608695561
1380,-0.6196350083146227,0.9135329757675956,0.7600170467992577,-0.6649645827609145,-1.0851297106945454,-2.185360853770504
1390,-0.6417076167181212,0.8847604028730948,0.7349622157449569,-2.9279590176068893,-1.2146121273231971,-2.7527831870672133
1400,-0.6129392733309303,0.9162189623190605,0.7698632377303313,-1.8072209009716809,0.3598596737859972,-1.1368851933300546
1410,-0.606419506824598,0.916137133763683,0.7705205041868024,-0.4877141618560874,-0.17416139355795496,-0.4500759782267298
1420,-0.6544618016029928,0.8731274929349229,0.7324794860730098,2.6289129190271927,-0.6452002768622918,0.1887383698643219
1430,-0.6211030057083309,0.909728329704205,0.7579754578674348,6.293765638700479,2.8280970757663657,3.028961560071221
1440,-0.6177307303825708,0.9181383147081775,0.7623334509926969,5.243394957471118,2.1797171516886236,1.3919594538672697
1450,-0.6368762179295208,0.8973208893529389,0.7407014210494789,1.8422037862286729,0.04639746412078166,-1.0381444851398631
1460,-0.6263948411043567,0.8940938862913559,0.742804724205816,-0.8302756368696347,0.39032985446793383,-0.4877822425938819
1470,-0.6167553628419723,0.9145366716271299,0.7565493604295467,-2.051663619249665,0.07345762757792287,1.0021213110520684
1480,-0.6168577989634105,0.9135216390129899,0.7625842152550963,-0.7176526258183233,1.1588926194444407,1.0851435539917267
1490,-0.6331237570180871,0.8948300220803047,0.7446269668067514,0.6115010945409591,0.2656126347526494,0.09038659436765817
1500,-0.6264900261792227,0.9074208333248677,0.7571638776099703,-0.8720604951006014,-0.342536391685237,-0.8734237019195221
1510,-0.6374441662792634,0.891892183134556,0.7420497284543114,-3.637049030887036,-1.5041192979429248,-2.045593262268178
1520,-0.6056044074598063,0.9156689097132046,0.7740442792210718,-0.5748375218727187,-0.24836327719350668,-0.5948929142247507
1530,-0.6137871730237238,0.9118479223827719,0.7689099656477254,2.678121635345314,1.253245181464525,0.6079281211629618
1540,-0.6117531831850301,0.9222297270546562,0.7734271650505904,1.2329748018382332,0.04336938354851516,0.3839034498408759
1550,-0.6079789750438737,0.9199999639291819,0.7697645853815643,3.708781992799144,3.6074605475211414,3.894744670606444
1560,-0.6261357330332356,0.9106182484300155,0.7542278211715747,1.1231922311366456,-0.23029305454622906,-0.07814426303702926
1570,-0.6177262105303698,0.912209609873936,0.7589099004388293,1.57987913617172,1.1794412762916358,1.250175158998732
1580,-0.6348756289745769,0.8884147088188424,0.7419895107119353,-1.8390265098067908,-0.8817391259657832,-0.01181646925419394
1590,-0.6443097705413988,0.881632136554725,0.7339554090753632,-0.15968613697505374,-2.0218077682724034,-0.8914874732394653
