time_ms,ax,ay,az,gx,gy,gz
0,-0.5730213374052788,0.9424432196485142,0.8235598478786167,0.5691807114920668,0.5288545690517304,0.005103658578587966
10,-0.5952354554185001,0.9183168130884724,0.8044501041090376,-0.9361173373884015,1.6161659847911403,0.7388008785492934
20,-0.5880826785115594,0.9282254009821663,0.8213135479414394,0.059523882443873855,1.061569227095462,0.4921245367527955
30,-0.6012007348445999,0.9123049370529166,0.8005009828127839,-0.2815507480347488,1.2608597106366009,0.656548048251978
40,-0.5817711922660224,0.9329625685080911,0.8216962472928903,0.2877939006560817,2.134583321562839,1.4007428381312597
50,-0.5871400617986429,0.9265328162035699,0.8185853260693455,-0.7754178527653328,0.31617391420534563,-0.20613192073066539
60,-0.5831383753628212,0.928237957831738,0.8203834061325144,-0.10861768212724998,0.4195381049989648,0.10495637357971421
70,-0.6098080267228032,0.9030320166319042,0.7949298141598767,1.8858256112716194,2.4299415538248006,2.22681655009836
80,-0.6251118108150443,0.8893491898116046,0.7835056994617731,-4.206638249684089,-3.8799097611081175,-3.7534727517187894
90,-0.6140927040333599,0.8983224995203796,0.7906914313348412,-1.1354109293409285,-1.481684546749623,-1.2089300719122547
100,-0.5908682578492869,0.9284998032808122,0.8160522233439678,1.1863354938420145,-1.3964960999238338,-1.2133664376850335
110,-0.5816068715779135,0.9326054999620499,0.8164128507699874,0.7529193743266804,0.3614172255307835,0.0505860396961032
120,-0.5935625510832205,0.9155794408799447,0.8013408985408211,-4.772785454341858,-0.16547825507588615,-1.8204088933634863
130,-0.6036203643465834,0.910771820272798,0.8075130016976855,-0.6007663806712273,0.9512040517943972,0.07163481983537606
140,-0.5912473060693836,0.9359034469732361,0.8274865866048766,1.1535950633850316,1.2181243356748968,1.391808414313171
150,-0.6022177131257442,0.9327523688098218,0.8288088847800048,3.958034207074789,2.0308466862622097,3.574784522298116
160,-0.6494808071386216,0.7709825646677719,0.8752931374999986,-0.28111564266202294,-2.3681079337431243,-1.5169397887948777
170,-0.6598326185929346,0.7117984740876743,0.93166449789927,-5.093813789255599,-12.534155899276373,-14.149247883018848
180,-0.6382070053981375,0.8708122393122498,0.97531306140808,0.4081685651356477,-19.40914796866065,-17.940015676571953
190,-0.6787125741215347,0.8937571852839509,1.0098855810594356,-0.48411956351883356,-30.608867564624173,-17.226862492434933
200,-0.6044483565077872,0.8992220086723162,0.9018404787675568,8.294619433757735,-36.708869564021086,-17.87267973480871
210,-0.5187932518789667,0.7782728927249893,0.8889726479863875,0.2169409542949135,-39.92687894965232,-20.273651286759158
220,-0.48428363739429137,0.8293246600545534,0.8507277247520577,-3.585818000520928,-40.46607564885054,-27.24155827072148
230,-0.40442057882099447,1.0657177868593488,0.8081799342469226,-21.106205193077983,-19.636160687790507,-7.003180030352893
240,-0.41754382146309504,1.0418743211775918,0.732327955409652,-36.49134475991616,-13.544752570825882,-3.3475831009788664
250,-0.44953759129589854,0.99060870141102,0.7229164540081822,-45.81644555951311,-4.622280991350581,1.4052752504211448
260,-0.5057527903603409,0.895694006873179,0.7284311709187645,-50.808320811430704,4.282188366476415,2.7211096506245287
270,-0.5358845474170387,0.836000737237675,0.8090706002951267,-57.73146799824102,7.24601534253776,-5.117598666092855
280,-0.6401628013202225,0.7737700789403877,0.8771851095407862,-57.01880501417514,8.791343809551758,-11.857150628666638
290,-0.7145696467843291,0.7499830222677117,0.8492542890762664,-48.747740595598096,7.767554524372378,-14.018259225991361
300,-0.5987532459246063,0.8068845899873995,0.7313300766383283,-44.44486577182552,3.122273366488608,-18.442481394120968
310,-0.700338235391245,0.7390959061219922,0.7445064965813261,-7.934687631509675,13.993650408242964,-14.768261883329222
320,-0.797377054123901,0.8190200074801596,0.8078848652168207,19.69174267335806,8.870297023637036,-13.643087455968265
330,-0.7220007516289544,0.8244851927600254,0.6581174786492044,68.20766712457217,30.631450213304753,-3.2804512606307887
340,-0.6087739505578338,0.8253851546827018,0.5814336378474014,55.043498392017,38.37215080883077,-4.192326314924394
350,-0.6246520467158713,0.8485003615678426,0.9003901814001427,64.04842465056615,42.76641734990417,8.85512582654038
360,-0.5913947397522131,0.8340835171337715,0.9326236343001567,37.47713010436673,30.445118861055246,12.603798541119243
370,-0.4870760518350181,0.9020555765141417,1.0694273959491245,18.402286747730297,17.04946331613026,6.089503617486777
380,-0.48962897040489545,0.9013906983968524,1.0768682067978264,16.955380301227134,14.531113571566225,4.53886473274787
390,-0.5379870178141359,0.8699803833736723,0.896372289979039,6.594961446148945,8.12180779868505,2.8765042400795195
400,-0.6056516609494942,0.8647486855646817,0.8589120186533871,8.937967314128887,2.801944590768945,3.590862867859993
410,-0.6452424825834183,0.8452138851774588,0.8098236736384486,21.14467374996783,1.436069568442643,4.305568506061248
420,-0.6103374629609835,0.8677702763685388,0.8667152623582458,33.123337212075484,-1.4512306418588512,8.152883397411543
430,-0.621784070369494,0.9764237189447036,0.8698576119850525,-8.751839202482167,-34.6554941246785,6.075842989347194
440,-0.5835629520159618,0.9460014733661639,0.8313232924376769,-13.670989557525013,-32.73595805025752,10.343502891226972
450,-0.5525897095410062,0.9434711119061856,0.7709176882945903,-16.10924098442276,-31.066682728117435,10.482881806676668
460,-0.4749921313302111,1.0066685117009364,0.7247679891663056,-21.877730182056084,-26.302047223458537,10.606625417658243
470,-0.41662828303571864,1.0380575388955966,0.6789977150232072,-25.283141334635364,-15.496265216504122,12.290175049497343
480,-0.4497407713898285,1.0108292104016496,0.6717146702938458,-27.841787128998956,-3.361805434234483,13.084384668811483
490,-0.5320071945087831,0.9281230650376413,0.7761863291550063,-35.13249095726975,-4.686984623771802,1.682539763742698
500,-0.6512699742383147,0.7811861089749387,0.8443113979463903,-33.84523628242806,-12.26619135548347,-11.866788294202454
510,-0.6207854716591257,0.7959617519074441,0.8605697284052318,-24.672163821393553,-10.42611312414187,-12.107070355776345
520,-0.5671017173228414,0.7031389543240701,0.8006386968825302,-43.236604538084244,-9.994722908197431,-15.31951580696406
530,-0.6411527404046519,0.7341203703783278,0.7262276471148025,-27.179279658556325,-9.49255699526305,-14.269767522103667
540,-0.6581359915248196,0.6477366500600031,0.8759546948708085,-5.363685339246661,-3.914755361543701,-15.101151698847373
550,-0.6316847915493864,0.6403992844355666,0.8908746204535563,-0.7012732373274319,-2.27594844254221,-14.472767034678032
560,-0.6558942329421855,0.6145791262963243,0.7076259733331808,-24.64756281265882,3.238911553484047,-19.828083271945072
570,-0.4602987691471612,1.0180505286327162,1.0711108581161837,6.794616341481107,5.763812678819805,-17.688376728745308
580,-0.4387374114851406,1.0773356864156252,1.1557430332772605,4.704034171895995,7.3103094243263325,-12.120481993113287
590,-0.5688012651863912,1.0277465001577704,0.9424086950494089,-16.084382684255882,9.162422287992083,-8.078177840301448
600,-0.6157221810204122,1.1324021799153023,0.8338720992158765,-14.133881595922173,6.89855068229898,-8.193729843416346
610,-0.6215769361872143,1.0616168930872638,0.7632822634487073,-0.8876544044045462,12.3560777005465,-0.2472024656976386
620,-0.6180470373304318,0.9920071360251811,0.716497800694602,2.4474918987329124,18.99324240587011,10.149099546000116
630,-0.5448943018222133,0.9208383571293364,0.8265193216206477,-3.99775273433184,8.409913855182362,22.178048331154084
640,-0.5605201658766665,0.8800052240001388,0.964292097514498,-23.247486970887795,-4.615487197831655,11.492080949068221
650,-0.6118017276472965,0.8224723662329498,0.8484689952110781,-17.18273835124869,9.2922924492905,19.957945702271434
660,-0.6257786475151432,0.6615119057668758,0.914299620329305,-33.02242912076763,2.637470720859773,13.031242229120855
670,-0.6655205315639124,0.5724472910941699,0.8128570208704077,-12.178158153603544,2.8963745948048127,13.107003712776518
680,-0.6408898043145161,0.7043950049423656,0.8215699607168186,7.86678866774841,-0.45229690629145036,6.959830574519846
690,-0.632255952908269,0.8325476822924868,0.8467467879010995,33.044898028194645,0.19009100076454893,3.3890585494839973
700,-0.6763135575991545,0.7329597000127307,0.7972829045916369,37.73441065147969,-2.553628530445592,-11.352338138242299
710,-0.6566345018958373,0.6389022898509671,0.7248701555179435,13.690810859853602,1.675892130493029,-22.27419088802051
720,-0.6473605275606257,0.8039749394502207,0.6318121516006152,1.8936075201564226,1.8295839050487792,-19.56629104472991
730,-0.6944087178493723,1.0922355667705417,0.8085277959318073,73.6276608804949,-3.8248771520377014,-5.805669040271279
740,-0.4030467225590999,1.3374091709812836,1.056241006593419,28.06894990342018,2.412390466725578,-5.549911225419918
750,-0.5335834486435785,0.7507404337564996,0.7177842516286884,3.30027846726664,4.048708181487964,-15.898778334633757
760,-0.6613336849648674,0.86956317617176,0.7419259989403123,6.179858096953366,12.118313013872179,-10.59060793271701
770,-0.6264903777590078,0.8287271700402098,0.7179714244147103,11.51268546872813,17.54486313408606,-5.870597448837474
780,-0.5687404338023995,0.8970770496631186,0.7723139468331676,4.807771481369057,15.259218527816419,-2.0549022452955037
790,-0.5737628219799357,1.0206573237728493,0.8378439210643761,2.2955872559385395,15.53604834457818,8.009504360619898
800,-0.5574903851906589,0.921782684054298,0.8544105904489954,-8.184598358369168,11.778420922893012,12.68940649993919
810,-0.4785763712406944,0.847701233458545,0.8282824262350142,-5.190358242308155,12.675192848933657,24.278675597957726
820,-0.42819425337768147,1.0103373245504128,0.8245977932357715,5.311379396282748,9.682609324033693,29.090677306082124
830,-0.5599660859263396,0.8624249309717369,0.8074027134776602,-7.046852634783992,-2.0487191971884164,5.357618734679804
840,-0.6349634343501318,0.5985745442397017,0.8131400188375483,2.438983074107347,-4.346810031146814,-11.464985768096572
850,-0.635569908258236,0.8470626367228574,0.8005701775071934,11.912055892277923,0.3615954814798178,-5.918942631325559
860,-0.6121849916000591,0.8459317589583076,0.7920739246269183,14.531518684080762,4.22782476418504,5.2076983563758406
870,-0.5876792689930336,0.8947114303266722,0.818343362772526,13.514162148816537,-1.394210005355722,5.0659762321009785
880,-0.6077530860928236,0.8993298327359661,0.8042330895831635,17.649673272229258,1.7628856767777823,9.471707175581844
890,-0.6035832803965283,0.9054575559952962,0.8115878492952134,-3.6834455429122848,-1.6581083644286827,-0.7557894595152512
900,-0.6172875981159228,0.8872995838782155,0.8021120815749383,-15.126784505742345,-2.0921436530251296,-6.200080159763074
910,-0.6049020547819279,0.8862706255411252,0.815061255568871,-12.423223756893302,1.6354993439496548,-3.422715825709901
920,-0.5807895857725675,0.8993440398508896,0.8377055630827781,-16.79622252892126,-3.1373230410409727,-7.876235847775402
930,-0.5566324950273476,0.9262844244004576,0.862759553980112,-10.467837940300775,-0.3143182582114032,-3.4878050423112406
940,-0.5861062593645969,0.8816079706579408,0.8284677275110727,-5.051446524717923,0.51650810880366,-0.15058348303147362
950,-0.6162567573342109,0.8616015219628917,0.8065272287943152,-0.38676481992138745,0.5769463485542037,2.6723158245257377
960,-0.5945305699945023,0.9102718654350898,0.8228537151775275,-3.721627247765559,1.5019760467693777,2.8769338280096735
970,-0.5772446574447453,0.9180986458398853,0.8354784733732118,-7.425804472179476,1.4303788216275213,0.3394897924561713
980,-0.6187810090218484,0.8637577135107876,0.7921746444898712,-10.883397536967598,0.1428587800886042,-1.3437789669563727
990,-0.6101280984202877,0.8713397248407326,0.8017279179820279,-6.935694664313624,2.5227835131022065,2.0791011852128087
1000,-0.6095416966168329,0.869019416999022,0.8048837510930478,-7.118289219944872,0.42178485831612816,2.377583956093826
1010,-0.616186921536812,0.8622626376982911,0.8024003564841128,-2.9922138079686067,2.689904219275495,7.5415213175661435
1020,-0.5864983496422729,0.8983757262800994,0.831812898994905,0.2625536495180023,-0.5288481363765987,5.54026275435766
1030,-0.6010309742008665,0.8914061661562368,0.8155331799561374,8.243125845976753,-0.11708504841177803,4.770629640886077
1040,-0.5958652659999972,0.9001108928413802,0.8212441054107467,9.250899327096604,2.0836040606624433,5.060469644759932
1050,-0.5872291633002963,0.9074177201343979,0.809938840413328,5.048925486794771,1.1680870809547088,2.093520540681367
1060,-0.5948819733004153,0.9045207948398759,0.8010402283384604,-0.6020353340584774,-1.1639872911699045,-2.4972105505421958
1070,-0.5937854414456833,0.9148058612612004,0.8239239451179239,-4.040950374833213,0.8050676972731219,-3.4907404009163803
1080,-0.6220592837232488,0.8835552196358185,0.8066768965088367,-7.407181216402691,-2.0390496869245096,-7.465970579500645
1090,-0.5914507987692562,0.8889646088904248,0.8216935362626274,-1.5009810197454678,-0.2918495238264375,-2.5945637521779665
1100,-0.6181370041130274,0.8598186211316006,0.7961503693002009,-2.292730312134355,-1.3442815334140166,-2.184246544103034
1110,-0.6272031200697766,0.8609790578327953,0.7954090469390346,-2.6520449199685534,-0.4678493853202096,-1.2558077559638012
1120,-0.5766802726863944,0.9107310519180767,0.8475487862276987,-2.764631663564071,-1.0738046578508753,-1.9353988320744255
1130,-0.5767765538802411,0.9043919727534501,0.8447923847798589,-1.7782285895444487,-1.9049193309640542,-2.755537353606166
1140,-0.6071584313976063,0.8764005498731828,0.8114199555692526,-0.7927619538122275,-2.0423129333696126,-2.7774203890328497
1150,-0.615777147864586,0.8677094290715991,0.7954848250642453,3.6028998935355805,2.459973806444875,2.555939488602675
1160,-0.6149889003189024,0.8620599497405822,0.7915909499394389,-2.945510516185828,-4.1010759053033565,-2.1339320878823367
1170,-0.5961509990880154,0.8803310176365591,0.8109853667110097,-0.13711088479977668,-1.7491592841148358,0.18957198721054985
1180,-0.6116846995768677,0.867546646123654,0.8115368972756597,-0.19445578260186513,0.06821678816492,0.9096700464254035
1190,-0.5768087436297912,0.9121633953543102,0.8473304764274743,-3.6864235496790396,-1.326038330088185,-1.158643458348716
1200,-0.6150126951087764,0.8678470637500031,0.8065377165105989,-1.7728871078833686,0.4458496689128196,0.7459900643198745
1210,-0.603826386248054,0.8779567386217209,0.8137636411179323,-3.5523696971009575,-0.6061940475480164,0.012882519701224338
1220,-0.5987368375634589,0.874042615668069,0.8138920615752177,-3.3921089632543167,1.536000339606678,1.591860553348964
1230,-0.5870029322840712,0.8843414843228675,0.8264090249881257,-5.456825450198072,-1.8654446352842915,-2.6969928504745067
1240,-0.6207847021742604,0.8605640731331606,0.7976862714846569,0.7229147271628795,0.019822577077233977,-0.8635801647371412
1250,-0.5955501919955783,0.8850966530347673,0.8252384394327662,0.02109024630497247,-2.6215925360517147,-2.8238171714473683
1260,-0.5744391988388532,0.9061216193587082,0.8510886187034353,2.018789543104325,-0.5412478847927656,-0.4333207443050689
1270,-0.5914325620453259,0.8813994601312317,0.8298510094837718,-3.1600963253416134,-1.3140222651301317,-1.3405527503682648
1280,-0.5869005052316569,0.8908603157266183,0.8278289160933776,-0.14850937764988292,-1.228737238454722,-0.6817811869270856
1290,-0.5810863598067679,0.8988619280446146,0.8364586748961211,1.4358394902413851,-1.7359691946676166,-1.041963999781021
1300,-0.5934986882877019,0.8801706157635589,0.8184512416747569,5.973689094066648,0.15125181036431956,1.3256921187326975
1310,-0.5973234335066201,0.8781305321180867,0.8116363049816435,2.9448104746892714,-2.547187533999552,-0.8837111458661548
1320,-0.5900402775422741,0.8936975470807992,0.8281920863318403,6.052789821881701,1.0462658020015068,3.153922390422242
1330,-0.579821241312638,0.9043507977450584,0.83687416216854,0.7775080265047389,-3.2092554819406542,-1.014706671837983
1340,-0.6064413056186945,0.8717418537221073,0.8033973512075392,-1.6976821347931765,-2.8638316825169463,-1.0727649506588737
1350,-0.6197300761270558,0.8557159872893008,0.7910892708107821,0.5849451956938045,0.7226968554575308,1.457050650963897
1360,-0.5791931728891423,0.8953339609277134,0.8283580529051023,1.2343763176223905,-1.514497546063776,-2.341250563948421
1370,-0.5895015407818784,0.8863622909555109,0.8260485322902614,1.402056890306655,-0.19543266638449264,-1.4832022601724526
1380,-0.617931477029205,0.8765774085869733,0.8114150938504693,1.0436673497698623,-0.5356607543741236,-1.3451947720105213
1390,-0.5781115334492355,0.9085463757126354,0.8388753416817858,1.5448066881852673,1.6472566011117813,1.0293454989887625
1400,-0.5982860433258372,0.8850189118685619,0.8080364289403209,-2.9565759087823107,-1.9599230817440396,-2.7601175270608276
1410,-0.5834799714544233,0.9001820957342188,0.8270356612951343,2.986356765243955,2.800832362936212,2.475082357451715
1420,-0.5893105302772497,0.8949890332936061,0.8296036834635373,1.5754012401632833,1.0012680107499181,1.1465579729538173
1430,-0.606586629505621,0.8835820007665787,0.8169304498776249,-1.9595074845989569,-2.5426981310227594,-2.1417833716390136
1440,-0.6288548293981254,0.8584910077524919,0.790857660139106,-2.1319480134735533,-3.355336027120619,-2.429189089238868
1450,-0.6128636515711233,0.8684654198283448,0.8003600253789526,0.3206119737752805,-0.7216938842267311,0.4240370355785821
1460,-0.6029226409380553,0.8849029947611081,0.811246198211178,-0.9085835075472255,-0.3129644873622432,0.27150844176319444
1470,-0.6052896677965596,0.8860556169408454,0.8154716160008189,1.7763067512520982,2.5260025682268363,3.060094075105889
1480,-0.5988140304848164,0.8932951567924242,0.8227049422367934,-2.490215831298786,-0.5873750500311425,-0.40385477579322293
1490,-0.6021680863278858,0.90121285641148,0.8212260939168449,-19.69116913804242,-3.4643646350005093,-5.4403137035760265
1500,-0.5962302817781674,0.897872264439049,0.8186677339134655,-19.215262518497283,0.03587996721321607,-2.9698242058136395
1510,-0.6067629938436998,0.8668170670448732,0.8104547135255814,-17.544356408567513,-1.058363818895708,-3.576228707753436
1520,-0.6115519713861116,0.8475893895433599,0.8081276320145905,-11.593277726417448,-2.9297266867444263,-4.01491006379525
1530,-0.6085308510878126,0.8464193170984174,0.8107920275425254,-4.294237718668929,-1.535481968426354,-1.923430465135736
1540,-0.6131923798717196,0.8472643033323012,0.8051814777141001,1.391512757135517,0.545539986435827,0.0867338362470279
1550,-0.5727960101303458,0.90143823958072,0.8469019105346834,4.059570302115078,-0.2469562672690493,-0.4019650354384169
1560,-0.6252795757221824,0.8581833091541755,0.7950450904611726,7.458498636238984,1.7681916124056634,2.567512432285079
1570,-0.5832058660166353,0.8942435921045845,0.833121418915733,1.6950487335938877,-1.474880004706216,-0.09656273264338866
1580,-0.5980265559912471,0.8783409886474974,0.8161756473713014,2.484301481326019,-0.07172172782490945,1.0785852426119498
1590,-0.5979424061932238,0.8914966425042605,0.8190068363944907,1.2967171036528513,-0.5452653527334245,0.5314727641482362
1600,-0.6080074304837937,0.8804798192080789,0.8108073254968418,1.0670005028352973,0.6340765214579835,1.4556749664809896
1610,-0.6031321585080563,0.870426433867227,0.8145495674733786,-1.0139992398668278,0.21486520487381072,0.08954953738186415
1620,-0.6068746782821323,0.8675421870097464,0.8084268673248596,-0.27655554305936453,0.1282164279783543,-0.06589925755777291
1630,-0.6181330673451769,0.859123455879406,0.7952539002700093,-0.4897911812147633,-1.5399696803945355,-1.8728322069658128
1640,-0.6121775582204492,0.8674341040154459,0.8057159466736195,0.3704142750103039,-1.3256964740901027,-1.8801462012453578
1650,-0.6009077214788183,0.8807949548771218,0.8212280949738994,1.3643717024815492,-0.31042057676912804,-0.970637949701573
1660,-0.595440870192162,0.8874823710139533,0.8255958218718122,-1.2087321364059074,-2.529244857975299,-3.2047434112363473
1670,-0.600707142999418,0.8799524153519046,0.8175617877226007,1.2328814919399311,0.28718516311318,-0.15495571787637116
1680,-0.6028435403478835,0.8726610742663169,0.8141262457027832,3.2442018791349265,2.412620961486251,2.461776751961393
1690,-0.5784003974609113,0.9009709454619164,0.8359040625106336,0.9864942968882734,1.0711022520588929,0.576105426926661
1700,-0.5995641502506335,0.8837656295873103,0.815822117780235,-3.129632420032455,-1.998288147377182,-2.9044401423733692
1710,-0.5789510471596487,0.9041643418038698,0.8456315051436335,1.1447239226859205,1.6690744563191797,1.3354664557750888
1720,-0.609160941007393,0.8680323715583458,0.8127949287587032,0.32583767301935374,0.2582083873711833,0.8882491587039136
1730,-0.6054300043064389,0.8751710600016761,0.8141581899774422,2.441585308350384,1.6318153663479857,2.4837426341057123
1740,-0.5972867079469052,0.8861096792515032,0.8248272971216284,3.710347635572717,2.4793641023751074,3.2476610882900303
1750,-0.6153642350903771,0.8694408069757787,0.8112197018665245,1.1158733815292479,0.3510903134473134,0.007812634876578073
1760,-0.6110055127251695,0.8734577534159903,0.8124228471248514,0.42405791636647105,0.17550284517062642,-0.9552771937436284
1770,-0.6158225270533781,0.8648854272625567,0.7989496686782502,0.485535716274928,0.9444066713519317,0.25272531956877087
1780,-0.5876939259238189,0.8892776994003808,0.8264228634472035,-0.6466281301409685,0.7502282478150836,0.7154736181822726
1790,-0.6124464583274319,0.8675071217813239,0.8099594719710081,2.0270513546574134,2.5102046112501535,2.8626290479352328
1800,-0.6274518661981762,0.8556721398981947,0.7946294855557039,-2.7329225004228936,-2.441551410624138,-1.7487064275313156
1810,-0.586521954628945,0.8982350845122423,0.8282363815496018,-0.10366705022639439,-0.44817230524485185,0.23706965653209444
1820,-0.6187248847018775,0.8656284636910914,0.7958131433241024,1.1914345728788756,1.3504192554281826,1.3086775926759584
1830,-0.6384137254900479,0.8471858720629583,0.7819888737848274,1.7038072656475527,3.0442273950679914,2.4602728750725693
1840,-0.6019549210581043,0.8768822696740193,0.8168373885147094,-1.5135520068035022,-1.3401385642671877,-1.6530743496088918
1850,-0.5854984286193647,0.8929790065611837,0.8301328093170244,-1.315180876366964,-2.7034336118958273,-2.7656368061172047
1860,-0.6005116283684284,0.8786750063724901,0.8173294154155587,2.9316899082208345,0.05983825463899112,0.09036698808957544
1870,-0.5865654004235721,0.893038008854556,0.8332831821922353,3.810547452872312,0.0792367903725189,0.13376537734101823
1880,-0.6103903191536166,0.8734134557690779,0.8073231896599485,2.4777008542767707,0.37979745433703527,0.38246671893467826
1890,-0.584337952602776,0.9007266217035843,0.8335727832062586,-1.0231652293888542,0.8924902301524562,0.7511470986900483
1900,-0.6112949977062669,0.8641968779062069,0.8094895583439636,-1.7478096766013116,1.4291521278491781,0.9699334106902772
1910,-0.6068111041358916,0.8746302995364414,0.8151433922975915,2.3673272911375594,2.6922424903704973,2.035069952382331
1920,-0.5938202450339432,0.888988343245458,0.824731176896117,2.961363688106048,2.623173816490148,2.541394959863128
1930,-0.6210638533113132,0.8589087440149694,0.7990980041264807,-0.6842109004309378,-0.45719718645814683,-0.8511064623264789
1940,-0.5605426057914951,0.9230566305821519,0.8532397507988337,0.8385488894296881,1.0303503864894163,1.0038308258894746
1950,-0.612919388619207,0.8705894474325024,0.8039013458717094,2.2471961267926255,2.788816716672355,2.680940271008452
1960,-0.6014931570764028,0.8794329259869886,0.8171068559927446,0.5213961356324043,0.7874591297384665,0.8348572963148868
1970,-0.6007168019838256,0.8838024371482172,0.818620250730341,-1.4472654628187764,-1.3457318900377506,-1.1288624340592257
1980,-0.612039413278991,0.8750656280524394,0.806492738266176,2.689592032403424,1.6994851027995725,2.0332810607232576
1990,-0.6614389463362894,0.8222625700150047,0.7537138451583636,5.9496365596930705,3.3208383494166216,3.838950701358389
2000,-0.5997642549718457,0.8875607243772468,0.8181301231944825,1.7780801280710072,0.6857518522533688,0.9958293997298879
2010,-0.6006433776024462,0.8848434431889819,0.8216754150860133,1.2529059022740754,1.0753498320270298,1.4265645964927933
2020,-0.605316924239596,0.8865027057543755,0.8186011084373618,-4.954747304679454,-1.1310535878739643,-0.5881944309071871
