time_ms,ax,ay,az,gx,gy,gz
0,-0.7522705658234422,0.29484319499914013,0.45227256355602014,2.410357209707582,1.1051479796408366,1.7125028314905006
10,-0.786638449530048,0.2583194201835367,0.41482147542086784,1.1050395251933027,-1.1155780357967768,-0.1910091984486254
20,-0.7582670652451586,0.28543428698252243,0.4457186804002718,3.5471563959776073,3.5037403545105006,2.4201448515422026
30,-0.7833118476382841,0.2625700524335398,0.42469578856143375,0.30241677200321515,3.407933140053866,0.6738472314930295
40,-0.7689091425594669,0.27418635257278007,0.4357691282893813,-1.3033462090300847,1.371372376490731,-0.13504842335306844
50,-0.7576334381759564,0.28419536597429157,0.4455128864977806,-2.1672934356684244,-0.5481017410193177,-0.9213498352438648
60,-0.7638861764406486,0.27265780142642326,0.43398870173869913,-2.5638564753530217,-2.1468907182567674,-1.8537115931115058
70,-0.7556832854151002,0.2844029635013982,0.4469965366907711,-3.6520443596611694,-3.6960105946171495,-3.058996889054158
80,-0.7644599551223513,0.2796622133180997,0.43787625297343846,-0.9369778617270095,-0.653468868420393,-0.6444655768420159
90,-0.7585994663517791,0.2860282973191078,0.44309703055566546,-0.24754411789309338,0.33157766963750473,-0.8869809952874304
100,-0.7688914580229868,0.27479473570153634,0.43607000588111394,0.7736032771467096,1.074621273685874,0.054011743725742245
110,-0.7809126894613191,0.26565464151761786,0.4276348195306844,1.28620891198184,1.223057925696191,0.4619456263899524
120,-0.7453748751339077,0.3002970986154948,0.45767079732645033,1.480017287969977,1.2628847512104846,0.8288955984623889
130,-0.7730646666960137,0.271611281837971,0.43320301276614326,1.8122019611788418,2.090161052181662,1.2969677599064808
140,-0.7351796117255346,0.2831133741258457,0.49142483819951593,1.2998485315173975,-2.08321768474039,2.529872182991422
150,-0.7616944620153783,0.24351880613646704,0.4838279212632761,-2.5606243457619975,-9.758114230750024,0.04147830507861894
160,-0.7749862227551019,0.2563683211714841,0.45731634328599297,-13.00127396915902,-15.945403901921974,-11.42853435605397
170,-0.7798284324141174,0.37779184877286875,0.4399564664520843,-14.712119245669278,-3.7601434095833364,-7.926229866600305
180,-0.8713401227364304,0.29919809879260195,0.12256202518611134,6.078750780321816,-29.200010761255406,-6.905236757704989
190,-0.7231347923206053,0.22770556715107743,0.6069178918699834,-19.776326758571674,-14.00091321820097,-7.968437034838683
200,-0.8924942020725525,0.3976416659645566,-0.16459353578273633,-8.289215232883713,-29.839026408398848,1.3299127448873724
210,-0.6038889715226905,0.035601404866791676,0.4374004456610808,-43.613041175429245,-45.71654754616688,3.03972700542079
220,-0.481732162202272,0.1534188189785462,0.9645320965147186,-1.4266762409938258,-61.57382737723228,-6.82989457262973
230,-0.45331133607453916,0.2303057448286575,0.9380995250889971,-17.147127491239694,-39.8958394513337,-44.49379898099561
240,-1.1938011116986378,0.3127208577539602,0.020898149246377815,-7.2293409578742915,-41.59561646803549,-16.930981748888243
250,-0.9803441038567269,0.12941916823223348,0.0464178832532756,22.339030240529965,-25.50244957728229,-14.156982782312891
260,-0.9690163195493123,0.2797835476756887,0.22234798555716798,3.5191086694544156,-23.905639033089926,-15.117020971253798
270,-0.6794031442531464,0.08193696790508771,0.6126108593561025,15.751947639304074,-20.130845728731593,-2.272210973235296
280,-0.5805075474471143,0.018149228966576718,0.6941323542651129,10.331681620802957,-21.470183649457677,0.31815496034792146
290,-0.6439440877330305,0.2472788240706874,0.6281896358740431,8.855154990227888,-15.324910564185004,-0.6893735669420478
300,-0.8395279932066325,0.4943663088405423,0.7942510122999589,40.965474922534696,-6.522272904526641,-6.103042514307594
310,-0.975970246031404,0.4506652771762139,0.594118934117031,42.581246133921304,1.3351383027026107,0.6422436616006602
320,-0.6180048116157973,-0.22921138253261425,-0.3176977019036825,25.970428884708454,37.37582781377544,-23.679705253077202
330,-0.6716466988115467,-0.1942622042122925,-0.05335586886286027,54.63575666352032,27.798675591476602,0.19286889763025356
340,-0.831141287665529,0.4392550073311217,0.3911826638291037,23.75491785283934,24.157562472047225,3.4357776126972226
350,-0.693386056228961,0.3416663950652431,0.3493097862496589,-4.8277638780806,22.755738495116024,-9.321570774647101
360,-0.7355059960099417,0.3567034081594791,0.27184306406523107,3.5934503679042944,28.719232164961273,-13.472434155302677
370,-0.7025073658878762,0.32945054114838945,0.6150033098977831,5.55857193970769,30.167185918757056,9.554273890452446
380,-0.7557837015194778,0.09347712486787699,0.4134868485097612,17.746605864909704,22.881680935222583,-6.5525853734712625
390,-0.756729672254614,0.2585793796720728,0.46229829021188296,0.7370562858099825,17.717962039200888,0.3923466343244659
400,-0.7140595330189471,0.311375789525542,0.6160447627274442,-12.7187349480432,23.9485467436443,8.938447031938484
410,-0.8682175260035446,0.41255064333207725,0.49999311604873864,-18.72354537965416,17.47944302024475,19.776868327954027
420,-0.7746887813381427,0.36645399880021184,0.5272953672219328,-1.5510816469825641,4.764075864614025,14.997214792331222
430,-0.6005559454126617,-0.18788176863833767,0.6689113098223693,27.224152430450793,-0.5567461958780864,-4.22601636701949
440,-0.6724516154673325,-0.3304140812168932,0.24419791585055947,-59.84390053439472,-9.337970425918439,2.267999098986283
450,-0.7137434356579371,-0.3417934761114112,0.2947436824614493,-42.27472419873775,-18.528351737483074,10.307650659516037
460,-0.7605305731716508,0.23062971916238695,0.4566224610476477,-23.809076568190523,-9.249867327389014,3.062548828382797
470,-0.7860570361338333,0.3733718526606551,0.49852766912279106,-14.652533691131254,-8.829303188061134,1.3781454167606433
480,-0.647671530821416,-0.10410684934586739,0.43333716309944575,-9.041302260013724,-2.515368413298336,-2.363305167762951
490,-0.6417300759001218,-0.02728561870548169,0.44713266436770344,6.500865537754207,1.793303520350728,5.208796035550472
500,-0.7370600037354298,0.28042067777925694,0.5055616998885046,9.912866310761563,0.36790951810242833,7.616247041919852
510,-0.7388100818028055,0.2557289000550273,0.49588765210241836,13.522363716649863,-0.27777780138735336,12.466220459585195
520,-0.6846883982937718,0.1655441680261926,0.5779070335926134,14.621172507702745,-9.54848160013951,11.325246598898971
530,-0.712304245451012,0.22236129965583926,0.5774510884306816,17.098072772199362,-15.602859283343673,6.605200258458246
540,-0.5834200846975345,-0.26295442797849744,0.20818579656245143,15.737034695073696,16.306125777958112,-28.21172598397531
550,-0.7997067572970855,0.00628117763466007,0.018333007807257964,64.20425681982489,14.791100305060953,-22.450301214965492
560,-1.0993507541433991,0.8078306572203543,0.6601697680167861,57.64700269599214,4.885798472777858,-2.900253613705887
570,-0.745665968271684,0.054933991491992455,0.3989848961010267,11.835008175630279,1.4361561163275154,19.30342605494015
580,-0.7672635876591319,0.27604456114163867,0.48518733134846764,11.754774683442776,20.27220011949386,-12.298912728637761
590,-1.1287297697708891,1.0606328454580725,1.1728931537448983,46.46874130351062,11.868975584088098,-29.14755011662804
600,-0.7659580801046997,0.24705868537474923,0.3323726952315473,10.569317002780798,35.00554789815586,-12.090384136292464
610,-0.7245982293241195,0.31861133140929976,0.2220505351566111,8.610658300152982,45.55069329634083,-3.749538033699354
620,-0.7043899917831555,0.32258863672225374,0.75226069499889,-11.013573415609207,26.83408249703689,-6.668367292267959
630,-0.7499608246468211,0.36198413067610513,0.618580910319047,-12.259328526125657,22.190946300260734,1.2602287420662122
640,-0.7664315220563871,0.2819911146697517,0.45552543091007164,1.9679843796426055,19.344234664813868,7.384844419801815
650,-0.7518060151253733,0.3134093251329708,0.39636900140203113,3.7576276620511955,20.613429583802784,15.958954232923878
660,-0.7883378722934639,0.3693365546066057,0.36570016306610326,-22.41311866107788,7.38773592429672,13.286518330017891
670,-0.7246962737852926,0.09066424286995611,0.42840931937773424,-16.843602315276875,-7.254267761707488,18.925048871732233
680,-0.6256894171701687,0.16497156091793247,0.6233523495664715,-32.02841845034021,-16.20622097250471,24.7745297831207
690,-0.7679102835970634,0.33434764401061606,0.4966147409083278,-58.88624276727801,-9.02064520081584,33.75974355454818
700,-0.7672564431668488,-0.0858617339440029,0.2514704356169674,-29.203195931078444,-16.811942116634015,26.125116014976065
710,-0.8381967930442636,-0.2647032906923875,-0.07216761942571956,-69.50757921156354,-31.491860492932222,8.602557000212034
720,-0.773995895059267,-0.04196095169123519,0.20155072047029682,-53.19143615089378,-19.589370691290615,2.795925089918726
730,-0.7446205947983833,0.39448684477224827,0.6433525200286598,-13.577381792423045,-18.36683302431973,10.533072158060298
740,-0.7528108207010857,0.19119464546555898,0.3228447914056932,-6.2027366069567424,-10.610964198820241,2.8117266971679133
750,-0.7546380626595892,0.23724324417149292,0.30177813488848987,-10.523652302199876,-11.962811270394935,7.757114729813701
760,-0.7574072614285929,0.1723399182130167,0.29853821040491174,-6.562398087188531,-5.686816301000874,3.4350293327359047
770,-0.7695043615442911,0.3210734963128928,0.4394347739794916,-3.0727363625191804,-1.8611312711840404,-0.445158641558269
780,-0.7787269833908397,0.2900635135136104,0.4352851186041528,-0.07001819769760786,1.4137812653191832,-0.031912571364347886
790,-0.7537466077994657,0.3157893024562313,0.4619140553556207,1.405923389949719,-0.22985253425250113,0.9919407108301184
800,-0.7535438853696145,0.32118457169586656,0.4626858021033481,6.347566424220308,4.765294494672712,6.122024260078002
810,-0.7505575167199744,0.3189356664261398,0.4715876262790971,-0.970220910225891,-2.454678116607143,-0.9138149731102663
820,-0.7546460707404135,0.3115588242012246,0.4616091624091125,0.9982628097084223,-0.12445589144435673,0.43220444612603
830,-0.7784746794222838,0.29312406200918617,0.4396252025515157,1.768168260302012,0.07648906678179743,2.346399798601395
840,-0.7571367203026177,0.31789079443391766,0.46582425815819856,1.9968855608675669,-0.3019856830602503,2.4490663711811775
850,-0.7983311639459935,0.2770972624874446,0.4220109765679907,2.4533853620829285,0.03310188383048207,1.8510772929788686
860,-0.7755318134635082,0.3037817701689086,0.4436748003547219,-1.0147969379112691,-2.076136560926172,-2.2153380061299472
870,-0.7745029820827473,0.2999920630927325,0.44166934686194487,-1.497581904750563,-0.43386774202330436,-3.3804233239353243
880,-0.7870445786597844,0.27846599183650744,0.4312431953009781,-6.019122176418964,-3.1111645301368327,-5.217882881665094
890,-0.7532109751776356,0.31145879876809646,0.46557383139011815,-3.8796142429313876,-1.8041326768593096,-1.5245226854161924
900,-0.7591143383630716,0.3082592707341616,0.45832901926635883,3.047648245962036,4.218735351223919,4.34968670320695
910,-0.7522301202202435,0.3216984053282539,0.46811457062554906,1.7788293445580186,3.522141033552151,2.6623403306081816
920,-0.7851249102482735,0.2887176083081352,0.42766969212278094,0.8515712626876432,2.196234844662648,0.8515212301775137
930,-0.7610618538243382,0.3108012763885523,0.4600596374209903,-1.790845418405889,0.2790592552480715,-1.9210632998463555
940,-0.7840875162158385,0.2815484890165827,0.4284490843177624,3.176949585299773,-0.07878735515759738,0.9326472757176338
950,-0.7781659391208335,0.29933771878521637,0.4444632334558971,-2.0576440392162825,-2.8297184993147946,-3.1824984850602656
960,-0.771557953635342,0.30106118187855685,0.44870612914535135,-2.3862670654116047,2.1076144689256364,-2.04459547534273
970,-0.7587995552561718,0.3088425891427853,0.4576175794855122,-4.821503216899358,0.5292193904334901,-4.910149564641015
980,-0.7437400000158709,0.32161559067898476,0.4740098904988007,-4.902626750892716,0.10860617623497681,-4.890596247320423
990,-0.7850974972933165,0.2715062439724527,0.43067385053354507,-3.541694206251315,-0.13852585061885614,-3.1770356040491228
1000,-0.7678488221182735,0.29365974852331367,0.4523046981841224,-2.400599266285361,1.4627870101613702,-0.37931813173035056
1010,-0.7583867605564609,0.30467534170314137,0.4598743643768838,-1.1923272409976944,1.4024643030845438,-0.9338968003595003
1020,-0.7661702241323173,0.29349285227080313,0.4449207045736037,1.127859500788479,1.0660068822883095,0.26697887077936533
1030,-0.7754007033161924,0.2881862382471794,0.43749665313752395,1.788848658419066,1.245698904338632,1.422027172395028
1040,-0.7519958536858601,0.31115007565285857,0.46277364616877315,0.28898453783479217,-0.013998222793554338,0.8286635299746756
1050,-0.7596613268220436,0.3024183216186623,0.4512900478998901,0.3518815451434438,-0.7738145982639033,0.6520570824962253
1060,-0.7558242863759504,0.305366489061242,0.45302024739404645,0.9195878841103039,-0.7570657708534712,0.2875903878148416
1070,-0.7603069691766391,0.305114716465797,0.454367337061822,2.9503066029408767,1.7728300741613574,2.4955714450353725
1080,-0.7770128114634011,0.288229066968562,0.43625820990231845,0.7192472272470938,0.46397564558917553,0.28405736829328404
1090,-0.742013038302964,0.32104685565343916,0.46624821901887686,1.8033647748090202,1.543848747959829,1.4881455632954022
1100,-0.7641325433303922,0.30990735256330537,0.45251350280305247,-5.305957525291191,-3.5193857607017494,-4.232865621733131
1110,-0.7560602819273585,0.30769241974584605,0.4606536538728288,-1.2987008110479747,-0.807447199643768,-1.8477236375506898
1120,-0.7886196572192314,0.26972566109123325,0.42708221365131627,1.2728538393510185,-1.2341111283264725,-0.352277197994864
1130,-0.7745342205704222,0.28587164138898,0.4396321091046514,4.377902487428456,-0.1779094049931877,2.997907627868323
1140,-0.7649612480694964,0.2570851670506349,0.42276981918586876,1.438628343208953,-0.9728454398649578,1.2553821041202011
1150,-0.7434670865113685,0.3387766328509419,0.46640053686848204,-1.177621538905694,-0.41629412535502736,-1.6954693546071906
1160,-0.768664423052367,0.2996532128089068,0.45095102681996063,-6.059367584584372,-1.1543025011353598,-6.237252125296223
1170,-0.7694378049910275,0.2841224621322002,0.44711785607031806,-1.5138659736832487,-0.5599880127047657,-0.493280433304109
1180,-0.7669107071818959,0.289886944452811,0.4487761173849724,5.175092473487252,2.9317544792488532,4.907053580816825
1190,-0.7618417351439731,0.3040692764056016,0.45753248450989986,0.08837290524494978,-2.007741190967496,-0.39540831566578305
1200,-0.7431306450868501,0.3233031580748684,0.4751616403958817,-7.592690016130871,-7.028503687441222,-7.376496933814029
1210,-0.7725594815796621,0.29090092743191215,0.4399825408493155,-2.4815529578170437,-0.46301392313046685,-2.188266874916862
1220,-0.758895845627564,0.30273575280886533,0.45523930879044433,0.3615472828169851,1.1204516000082623,0.2941838214612953
1230,-0.7780413238634944,0.28152699298338935,0.43426372084172893,0.2926515081454335,-1.7649226706632892,-0.5105530870597421
1240,-0.7799698322916524,0.2824298736633252,0.4318224663581733,2.674079171414503,0.9481794245661463,1.7969840109649484
1250,-0.7683062637925647,0.2956182738894843,0.4451777355749856,-1.5552747466043122,-1.343618210383107,-1.8093770323249534
1260,-0.7927233384132997,0.2668454319425903,0.42054291114385955,0.15206585252543947,1.6134598059171479,0.5183373042089695
1270,-0.8009913526739895,0.2561128035635744,0.41323975667709134,-2.1952276595394,-0.9931170288365723,-1.636292193614813
1280,-0.7721336639055768,0.28717964262163076,0.44223697869466083,2.3445387604677355,1.445783854406433,2.118974281955748
1290,-0.7988429112536101,0.2576563092087266,0.40962179393497905,2.8846498662287456,0.5344813234336556,1.6421110853119147
1300,-0.7499613436576863,0.3124752220844857,0.46047480930634177,0.638170806770314,-0.9804186861071106,-1.1413303950433904
1310,-0.7345571839507253,0.3267925979976704,0.4756022328715915,-1.2299966311566668,-0.719745680120203,-2.8407697684117514
1320,-0.7652415051110416,0.2929062241937664,0.44759325289939844,-4.154210539043105,-3.8328748847831617,-6.67167860998385
1330,-0.7656734351952053,0.29358837612433936,0.4505234482614608,-2.0460586683098745,-1.5524706113431834,-3.9358007981941783
1340,-0.7830941717062944,0.27787746570821764,0.4289358354105551,-2.32278599045242,-3.1029624430962297,-2.1127757927969957
1350,-0.7633423083218172,0.3013357246862533,0.4512706214418277,-2.119327466995546,-1.5293625624488951,-1.366178986409619
1360,-0.7807345747981979,0.2806607967452388,0.4280704778983439,-2.685029142713011,-1.8446208603978884,-2.860247059910164
1370,-0.7895258747344462,0.27714406481224807,0.42912930265350513,-2.6469576478871466,-2.7651990327475047,-3.951693455084795
1380,-0.7460295848264694,0.30937310727828016,0.467010486876749,-0.7636659220775442,-1.7805746322304523,-1.753052960875754
1390,-0.7590464691377979,0.3008450858791013,0.4570556679395822,2.9896847009014618,0.9387649207480466,2.2074053194573646
1400,-0.7774552228756914,0.2908779966103162,0.43732401013236627,-0.6026713951431277,0.5089367866615582,-1.233237773892289
1410,-0.7622038267150495,0.2996587491424072,0.4495388435969685,-0.27363938557829615,2.8643929105579797,-1.491974864496405
1420,-0.7570142994245137,0.2955174323923224,0.45460074344502405,-0.6589188232548354,1.6631803315222395,-2.184396605951305
1430,-0.7830798863806075,0.2729683035565368,0.4325783352551568,0.2763441141729538,0.3890470951277767,-0.706383321322148
1440,-0.7690596110079038,0.29069518184737225,0.4433839770748915,2.0226973692120107,-0.1354273146312996,1.342910568140253
1450,-0.7676101170546425,0.2936451957620452,0.44257277401385664,1.1120043312415269,-0.6358487849515967,0.17223238822405906
1460,-0.7771038036914645,0.2845548970256267,0.4418140644368622,-0.9137722828503305,-0.5804836753111239,-1.949187246922885
1470,-0.7464217309621508,0.3110771002946183,0.47215881766581985,0.6312688797668922,1.4257167996727287,-0.10853082608776521
1480,-0.7491670520147221,0.3053052856163263,0.46389852369330525,1.1189421226813367,0.5477612496245159,0.089569102868952
1490,-0.7188845737537958,0.33925981269873146,0.4945342524606024,-0.12340821585867268,-1.6545257425418056,-0.6153062561981034
1500,-0.7585115235008746,0.30490312876789344,0.4546364235150416,1.5588565873197195,-0.04551140830031275,1.537934811184424
1510,-0.7546046963048962,0.2984427039648754,0.4618438031291099,-0.26971366528936414,0.8902098335851485,-0.008486499309759532
1520,-0.7639148458162658,0.28885134036852045,0.4503745472452176,1.3571859901164436,3.1094749507909496,1.7407883484277749
1530,-0.766123901409151,0.2905702577994863,0.4504123032515113,0.7285573176510687,2.623232171946718,1.5616276191501757
1540,-0.782149878973719,0.26688760114383603,0.4280734329233166,-1.332317098843522,-1.4789921436566358,-0.9983038867148953
