time_ms,ax,ay,az,gx,gy,gz
0,-0.6116874763729323,0.9008686823624692,0.5509329597105475,0.2051489780202993,-1.6221692220454038,2.8166858249914015
10,-0.5942329928631692,0.9243121771622237,0.5622485710027132,0.6914354981001722,-0.24497431643915468,1.571995299200404
20,-0.6140696945437346,0.9024992895441527,0.5445335343316519,1.3584976101570496,1.1869755376775222,0.8433782510278829
30,-0.6128764486160523,0.9033299480240272,0.5517517069744835,-1.0999928585389,-0.5750184490536485,-1.7823148685328158
40,-0.6075093567540956,0.9095665559270855,0.5589720920438744,-2.585245348757448,-2.379264278417207,-3.0937791392939955
50,-0.6025322231986955,0.9124242548935453,0.5596282157796064,1.2531511026309907,0.8561147168435095,1.3684447703226335
60,-0.5911840636803809,0.9224179435156865,0.5670932351325446,-1.9585440234439941,-2.3373490305954636,-0.7537428171678591
70,-0.590812557170347,0.9315240427132182,0.5716520471587886,-1.0636834477150536,-1.336591834848066,0.3841239835365968
80,-0.6125513134715658,0.9098455214148585,0.5513133477359273,1.6966864508922883,1.67404856282726,1.9653691047746873
90,-0.58673698205483,0.9271294561023115,0.573531868347523,-0.7911050599156229,-0.674354041814486,-0.8556214048443445
100,-0.6205011976456279,0.8988523257053215,0.5407269351590386,1.4246351584218448,1.3685407305631339,0.7353071912394916
110,-0.6353997104923482,0.8847915904304983,0.5285560282626919,0.8612674658369601,0.40284660000753647,0.9896850731089564
120,-0.6142720053813235,0.9054485825172126,0.5454100421087341,-0.24143653928578268,-0.7305083203466878,0.2067219077107143
130,-0.5945930210030018,0.9239474944212578,0.56046602537008,2.972219115428864,2.7881563162148235,2.951724010528916
140,-0.5931811638241773,0.9232372570063122,0.5640222103350939,1.0656006259327238,1.0927101923332379,0.6156347016087302
150,-0.5893936500624135,0.9277633197995966,0.5696517600140804,-0.6359778164127527,-0.7304546904340176,-1.4106809683933903
160,-0.623035788796292,0.8955318286928655,0.5310112482847977,0.44017939615748836,-0.08357222417811694,-0.9383234050915831
170,-0.6090650727853831,0.9076718660530311,0.5525579508128584,1.1273823676984214,-0.13248001559835376,-1.5051983022185804
180,-0.6087610187368255,0.9165368502624319,0.5503320552260884,-1.5840871974792767,1.15635270448883,-13.007205207415062
190,-0.6174051387745421,0.9669166630517503,0.6339068150137122,-9.825230162665349,3.892313170160211,-19.412540772795357
200,-0.7525945994259005,1.181407074280181,1.0013861828957848,-21.3424588846913,-23.49229705339004,-3.3714324894827774
210,-0.8233384224765934,1.2733120828793136,1.1127869720440342,-28.03118619109488,-60.56502053217962,36.402805352444446
220,-0.6902285790514027,1.1021326617175937,0.8281314583406373,-33.423464504801025,-86.7766919757333,75.22496549657434
230,-0.5228001471832815,0.9551609094081328,0.8231159195359139,-40.67832076293488,-105.55254035650971,90.97731245448365
240,-0.3404566062855084,0.7711784913153165,0.6691870894713053,-53.633370762146725,-107.67669888229538,74.10388472934964
250,-0.23975194005615252,0.7561947311908787,0.2578859196596818,-69.49094584905622,-38.26256298655802,-21.619123936863836
260,-0.2700059480744186,0.7408939138369197,0.06163736319637107,-81.12742418370614,14.026828675588767,-51.1654751747234
270,-0.31004713028914277,0.7450159438020363,0.10357304106827776,-84.41666335384652,62.051386375838185,-69.32179317278207
280,-0.5014909014862727,0.6887639366106797,0.21873518378975582,-80.05609131480037,104.92684495628261,-79.2821619243392
290,-1.037543272114839,0.6832208744424109,0.11154006076029205,-151.09376003596245,35.25434649455186,-85.22867400995038
300,-1.4954833218281578,0.6924172223013477,-0.20703354121647463,-173.0546849889427,-60.66119658641394,-58.61620973532928
310,-1.0612956550139927,0.6404699937101944,0.015670841895732337,56.66973752156324,39.206084528597216,7.094901989555762
320,-0.9797579961388568,0.6238701944067204,1.4334330967336606,77.36961143062166,70.82293844908953,11.002885556209062
330,-0.8633972637506971,0.8478687566624752,-0.15893866131663212,13.94094502399552,90.69247323494167,-32.987354511505465
340,-0.6830614135994649,1.0771954493952496,1.0938335221693216,108.70725309091884,81.34534632050868,-4.300436511063554
350,-0.5150538771008208,1.108806146202314,0.8062153128408499,70.5268243519577,72.24612323749045,3.9379896730703514
360,-0.4793992714184959,0.9018725425745593,0.5086930297768688,37.41391545682909,54.61972212720708,-11.873087814516797
370,-0.4900645579867785,1.1475435797635283,0.6151133821452333,49.34343573846879,18.686374085234334,-16.569472207203074
380,-0.5654414591943929,1.4356951679339198,0.601212150960692,44.99294036306495,-7.8978515672948575,-0.9013553447786948
390,-0.5622713743796323,0.8438134369569256,0.6683048980334603,-6.1409795295199805,10.993343130923893,4.204601914489014
400,-0.5664330618973229,0.849989251409278,0.6475142401424109,-21.0132400228005,20.438390451247564,2.5692702921294597
410,-0.4425967050523568,0.8512422452039909,0.9063679632399972,-12.723889466781696,12.54540728750704,12.987505055954395
420,-0.23585668602949564,0.9855519920843067,1.1455754981544286,-53.28470196281406,-15.344835252853436,25.332327535476637
430,-0.2606108658471118,1.1981255958797268,0.7438231359252473,-77.10172975201304,-37.041656156615666,27.201747220863222
440,-0.6183858992284235,0.9804295845400307,0.7929211994465111,-87.07253186735899,-57.16325885729824,18.136711934256773
450,-1.1872349416796657,0.5540213329023567,0.9054961984071671,-77.97580859749584,-69.16702905343348,9.963391201049873
460,-1.4471593716974278,0.394259432908663,0.6488975430669572,-40.87578256546892,-73.51918458399541,1.8951352032470972
470,-0.9532704165576117,0.46613151787204815,0.5667880321595663,20.25720693323779,-76.25767664680069,-14.577257608261231
480,-0.2467196567775541,0.25278113094025134,1.0988287659921248,62.271824944733304,-71.34270635323003,-31.88566385828109
490,-0.5999162703152525,0.9948562146069237,0.4437328805939424,62.38255694144348,-43.45275720794134,-1.317195994558734
500,-0.9169729905297306,0.17470830931971804,0.585842777294476,-22.09212620414751,-31.444052597139244,-35.378529484753
510,-1.0893448908062575,0.4183853826360958,0.5906600727053931,30.105860183747303,-31.320823218740752,-39.617272952695586
520,-0.7232219994038238,0.8998773270687329,0.8750287348234234,40.84668707043562,5.498401708333407,-49.01274580815721
530,-0.39924910596311225,1.1435488224276213,0.8226910420003983,23.837851220511443,26.259830593983423,-56.378189412666636
540,-0.3608719736961008,1.3044565343585284,0.5094230234244524,22.811021579377563,22.450459157720868,-36.73027141315737
550,-0.4262313640573491,1.3166344220322082,0.7142496066452322,-11.394518961409863,46.68350478956824,-3.7923409326773667
560,-0.31378362900908546,1.5012931632486155,1.4441427673199427,-21.86401586606341,58.22642349762789,17.001696846596726
570,-0.16902365906332084,1.0848817210106874,-0.6406212251980666,77.85424347932425,50.2218514445799,34.37469630835245
580,-0.2664359790006495,1.119479754468649,0.1262703546393505,19.054130669780083,81.39596845713572,62.484391994697226
590,-0.6902554930085507,0.6149256082240435,0.7334496792009518,-32.637062967840635,42.02368733860403,36.318302188080224
600,-0.7813800536755537,0.5973889618194416,0.7834988689054724,-23.88051294858789,14.926584285554936,-2.2390683620578122
610,-0.6379389919116217,0.7863319171248965,0.673556566120704,4.899571727215261,11.149497420730427,-7.532171297903228
620,-0.6161090397743949,0.7081185554417524,0.6148478317491007,35.97632534445303,15.126715100848184,25.350606244925586
630,-0.6459739245092293,0.6009196571451209,0.6973455105547709,69.59513966373825,9.208736732066352,45.329869056578524
640,-0.7621228582348125,0.2117022104008707,1.0451513573480948,50.02934781912578,-14.133638853456894,32.9565123139242
650,-1.0203970950665548,0.14431225837929873,0.6837875027540873,-58.48565623779731,13.095919771383995,26.471333982018812
660,-0.8680894903382804,0.6457830301981189,0.4470741987552033,17.40698832995751,-17.021569247634005,-60.78312564412035
670,-0.5223352522092847,1.1485090698700537,0.3302154192845363,-9.748341892635047,-7.29326096614633,-52.8751320994198
680,-0.42083138378352253,1.1433930025572028,0.4842346712047353,-11.238685169320911,-1.4372546199752727,-40.75001365172081
690,-0.37720359252946706,1.257958382449144,0.7788668651580134,-13.900964019147162,5.561827473520466,-27.807392177919077
700,-0.3929305643937479,1.4618338865094107,0.8160353632205357,-21.506780868954465,14.155218744094139,-15.378212588801228
710,-0.50576723915644,1.2551882698274281,0.6739846799965262,28.129485645310734,16.85412488494897,-24.746216177423307
720,-0.6365302676277528,0.9507429922890905,0.8305422991883799,25.319517556118655,43.74023250198551,-16.24828057968061
730,-0.8294074358260332,0.11924507861002279,1.4171622576746796,-94.2536703574053,29.189508774723652,0.9185117870430324
740,-0.7862950634681728,0.7319278207816812,1.2307822569901243,-53.79791917074254,26.626870987753588,26.00285773424429
750,-0.6179156525307612,0.6433254323343007,0.6548818374214003,-12.976445641996511,13.467945141154656,6.958984185584907
760,-0.5346117047700472,0.40727732883135864,0.4433463133527887,-1.9974036858111106,23.342883439357678,11.024644213916256
770,-0.549002580376622,0.4330224793767514,0.5384931001160775,-8.529416241722984,30.636467932776263,25.504529108866077
780,-0.7012339391589698,0.5014648992412257,0.6894249952848956,-26.977790637143222,16.689501543505006,19.93631822209973
790,-0.8328726458246851,0.4884700006498942,0.8401929204797886,-28.501170515669855,13.997264911645416,17.294098565636084
800,-0.5978720660278857,0.9185462408574263,0.5693616914481063,18.70670864214148,5.297762301961934,20.993990505427245
810,-0.6254638402355714,0.9024989650512386,0.5387134541841151,14.049297689054091,2.738241339320495,16.76249504542771
820,-0.6042654128218803,0.9115920127581802,0.5634554669242411,8.769406925365134,-0.49612707816198665,11.279538208917428
830,-0.6052336209891026,0.9094474026218862,0.5654090159036683,2.4174191480155,-4.106460064501824,4.589724726210493
840,-0.6192794500853721,0.8996395942127247,0.5541755683495669,1.3991260962984184,-1.4212118702194216,3.7010722759129777
850,-0.6340579619201588,0.8774390693486935,0.538218970259785,-3.0830241695798577,-3.7129450444800387,-1.3697304561636308
860,-0.6292735391584142,0.8697187830656353,0.5405509813931089,2.678292149422041,0.8071617696672514,3.478698878046747
870,-0.6109546980231192,0.8922373739304224,0.5620072245872211,7.6601798632944105,3.0372214704760743,8.57294864311472
880,-0.5931702753669047,0.9252456852816112,0.5845450900761504,7.276296026687435,4.076279957143643,7.763671984418535
890,-0.614614217956372,0.9024796730307765,0.5571987070956033,5.827425707093131,4.15850710983579,4.632958610501049
900,-0.5904412400238795,0.9154510337202497,0.5734570950684273,5.356282871832697,3.825352452439987,1.7583475132780952
910,-0.591308340080048,0.930161183849877,0.5812218608154536,-1.1835432512914896,2.290305336629708,0.10006772025262277
920,-0.6214329647904993,0.8906987774927932,0.5474731229261989,6.056493103021326,-2.1421045546653428,-4.3581407865811865
930,-0.6225561775623071,0.8886081101353794,0.5430911718917163,9.293042776704599,-2.0368401484868546,-2.862061570282629
940,-0.6284282311471205,0.8931381678745067,0.537832761526525,3.5893120154436247,1.4495506361975874,2.600710526573436
950,-0.6104773900835306,0.9021613746716225,0.5506491699210186,3.0443939441739536,1.6124321542178206,3.045127082347389
960,-0.5961851001374916,0.9175390598254338,0.5686532630893533,1.2731259173171325,0.9089247161406157,2.864285992140554
970,-0.6299282235370911,0.8857651328120058,0.534701772626107,1.2996589629193958,1.1098556318807935,3.323006111581393
980,-0.5855812630764774,0.925392604411002,0.5785586970527626,1.5903281901025825,1.4009675417512455,3.2090194801285423
990,-0.607696152376256,0.9044787364071912,0.5548099405464055,0.1981212862506453,0.19330599577825025,1.5728047669837304
1000,-0.6089754790996968,0.9035487067580837,0.5524444219132957,1.577368403775426,1.6687984683745642,2.6240186603844067
1010,-0.6159259092223375,0.8946759728404508,0.5468292485376429,0.1332789107439204,0.4175739675364479,0.819368733689445
1020,-0.5777954741277072,0.9310525140078194,0.587117441968488,-2.5876876681591336,-2.302254459015671,-1.9986989320931614
1030,-0.6050878171558343,0.9049037556604155,0.5620504881058297,0.18896489975968933,0.025565808167904186,0.7168074032487344
1040,-0.6197630183607735,0.8939924105792345,0.5538270796748411,-1.0439438848832319,-1.200997972604032,-1.5451718590459513
1050,-0.6143812287526152,0.8955842840302186,0.5496901625899087,0.880256498150523,1.1260102536656704,0.8719650815968545
1060,-0.5976815666508201,0.9191111599037791,0.5652580000432552,1.9054181974704825,2.5049939358926503,1.7279799914545515
1070,-0.6276750438840961,0.8882896502763351,0.5371537421012158,-5.910690007711964,-4.093272065941147,-6.686913551918153
1080,-0.6115992831715839,0.9097901012190219,0.5581196074686294,-7.738595414951721,-2.2089867757715895,-5.449089730185285
1090,-0.6090377743927123,0.9069238503437377,0.5595831756355961,-9.399223949289484,-2.8097109483381506,-5.921460371784179
1100,-0.6487104461023935,0.8561450552337461,0.5178002326043794,-5.57874108314007,-1.1313345679314653,-3.3863104567636437
1110,-0.5901728248855101,0.9137042112135815,0.5783477170122079,-6.063151808772084,-3.1508673476445423,-3.6348394378136675
1120,-0.6158201569006269,0.8812773344267176,0.5424727540284876,-4.593138381554926,-2.2514858059484215,-1.7574024830001
1130,-0.6125563066174798,0.89745241945965,0.5594233982835132,-7.305321559008558,-3.273945698477361,-3.270811857561917
1140,-0.6171227839477829,0.8855932456591502,0.5590743502100006,-7.212904174706373,-2.7858711145283066,-4.582863847526619
1150,-0.5944474140074736,0.9079799121846699,0.5814578000989369,-3.090265188638317,-0.10505084710336066,-1.8966112237753148
1160,-0.6039544503435222,0.8964516333266069,0.5694025796139647,-4.476111162270677,-0.6723207452577504,-1.9105180591882929
1170,-0.6178631947059705,0.8773569452937595,0.5513153667375433,-3.382633197971183,0.6689849705123546,-0.3418978504393464
1180,-0.6110478895509477,0.8816725306966282,0.5590252319914428,0.5431940879188359,3.147725440692397,2.1870023205844964
1190,-0.6315539880211388,0.8647473825793351,0.5443493066794999,-0.9441571955431944,0.1643464757884303,-0.35568749566551877
1200,-0.5916545736070333,0.9073271089846401,0.5784166210165029,-1.5814408513304885,-1.6948570193737416,-1.5182695440450389
1210,-0.584774391991717,0.9126186297174224,0.5922320964231031,2.3122283131370014,2.2167194618259654,1.816372248618763
1220,-0.6163093236181987,0.8858348137279394,0.5626817586854939,1.282510308416986,0.853957663827891,0.6937387666610673
1230,-0.6118771565696564,0.891566549189514,0.5653081716557854,-0.9820910408878397,-1.0132246419306974,-1.654451282910847
1240,-0.5975881025904807,0.9034715442581207,0.5764789991166527,-1.705673246834216,-1.5432543388260345,-2.631075163565712
1250,-0.6096576643817317,0.8892543407267114,0.560245833175239,0.3236382467385126,0.31297886737803304,-0.14903442672748635
1260,-0.6256237525165326,0.8724867567277024,0.5451905339542026,-1.5474265179293307,-1.8174655526533356,-0.6145906937752456
1270,-0.6168079268700469,0.8803645432717028,0.5610221595518382,-0.8282263323878042,-1.2743810362612276,1.2365600319632601
1280,-0.6120224788031546,0.8847315033434882,0.5650751595376706,2.7878126078431325,2.0813958915110606,4.007186926288875
1290,-0.6120779489975448,0.8909271459025344,0.5636556687564247,-1.9626059117330295,-2.6718977753386612,-1.0534234589533138
1300,-0.6107361529463622,0.8861731348772216,0.5669778125440331,0.2537368511020096,-0.10430202187306958,0.3139693018433479
1310,-0.6079111813895075,0.8908327243293985,0.5702635581638065,0.0504315303785442,0.06220797506767062,-0.1721553466347573
1320,-0.6404992610358973,0.8562833518842772,0.5368373143375087,-0.18351174675225734,-0.19907556744824084,-0.39164869195920404
1330,-0.5951215510302018,0.9015599917937207,0.5801371451510096,1.8913450975204773,1.5543197932854236,2.132361086284631
1340,-0.6284728102430222,0.8709028795576359,0.5469402008658364,2.6518153967621987,2.2310239862607504,3.384405596777169
1350,-0.6100859708863144,0.8885244660695517,0.5665399657725587,-1.042054445367371,-1.072997483753407,-0.4019547077386937
1360,-0.5995898419869575,0.8942690756318623,0.5706584592253632,-1.4147417828207989,-1.1842757717159837,-1.4318750237463682
1370,-0.5869614447787779,0.9191203104353458,0.5873974415345602,-1.0748608230950458,-1.2054609660155238,-1.5020823350968182
1380,-0.6099517232985612,0.8958565506871137,0.5722077795363075,2.1874769043846505,2.7257502215108906,1.2598945404769601
1390,-0.6105886792618881,0.8912366978653989,0.5669600147411832,2.1027329399988344,2.4507123798244983,1.488513792490084
1400,-0.6422008237454911,0.8614054726026985,0.5335137751294572,0.6687865506303926,0.8760771787099034,-0.04278471820556684
1410,-0.6008404246495617,0.9032019724744555,0.5748002537152912,0.9929444284169294,0.8549700186773576,0.8209392883581866
1420,-0.6168466735266097,0.8834169903062706,0.558826406279555,2.3525273545579344,1.9618505975883231,2.8732406509610584
1430,-0.6093672052352552,0.8874602818503988,0.5661161415846283,2.52255903473199,2.272265982673718,3.1190610983788236
1440,-0.6154702999510168,0.8831596294704244,0.5571173237601528,2.432087605854727,2.1731858168495384,3.6280018134452923
1450,-0.623534650641418,0.8838603898787186,0.5458705915834552,-1.8385309343991798,-1.4917889647744031,0.03416763913292997
1460,-0.607269662705554,0.9020190148985525,0.5627220442421778,-0.84717464340244,0.7458496762136374,0.2975005440596234
1470,-0.6026340019934897,0.905966135388221,0.5708339330404258,-1.34743529199773,0.7636387799122666,-2.1417480985772017
1480,-0.6099679028105839,0.8891507542579247,0.5602296081658101,-1.7610183073764363,1.5307667353439522,-1.5546848544630278
1490,-0.5976653191835283,0.893611478926383,0.5744556790229693,-1.4050831344013368,1.1225410529899191,-0.429314523010341
1500,-0.6019658770351924,0.8918676697601557,0.575561041039327,0.4652802106553815,0.8739964845572818,1.3457209665837415
1510,-0.6172765850851504,0.8854830164655193,0.5600477001759092,-0.08342702451609618,-0.5919211202700088,0.9570844080278442
1520,-0.6064040435163075,0.898441217703168,0.5674876847706235,-1.018372814342218,-0.8714991426813893,-0.5649445996842272
1530,-0.609272217574589,0.8946811474169649,0.5642727519907617,-0.8702099477742692,0.06334147259533593,-1.4839853476786864
1540,-0.6141424195859364,0.8868989038901944,0.5616547550082307,-1.4850999880257232,-0.5244607228032746,-2.193414858759964
1550,-0.6120325993677683,0.8898487621265093,0.5664376227088727,1.1675810734021614,0.7613388614262455,0.8316553879216063
1560,-0.608999913401906,0.8900201861452364,0.5651707925709596,3.384754506729073,2.383370328745681,3.7415270208066955
1570,-0.6248692073954136,0.8740401188568238,0.5473702913444327,2.566979892759166,1.5440828675331408,2.9736340607363565
1580,-0.6301769572755129,0.8703558779017662,0.5450748203042797,-0.13465045197474268,-0.9527526618507233,-0.11329877748161321
1590,-0.6128162001601222,0.8860712592622229,0.565128531687508,2.535604532218124,1.9617224158639786,2.2647942962780663
1600,-0.6205577690871387,0.8762419314512762,0.5554616303019627,2.9802518991126083,2.504553651036032,2.3429997377730727
1610,-0.6288383352462644,0.8775352531715093,0.541493040927911,-1.2500905913186775,-0.9243340446273949,-1.4463803771733383
