time_ms,ax,ay,az,gx,gy,gz
0,-0.6241426411494229,0.7822149495427746,0.5936634031820074,-1.614843807408727,-2.516696476191815,-2.5725595519923496
10,-0.6212302965097455,0.7763580986344555,0.5908553696305306,1.7734478923602004,1.199757647648269,0.4561290275627564
20,-0.6259814044062211,0.767967896002189,0.5819737057968142,-1.7314004058944934,-2.1997436316828805,-2.6240595131545907
30,-0.6187593601082578,0.7814558812116874,0.6023385156671303,5.874548784324407,4.693469369385611,5.484832638387269
40,-0.6225657967280013,0.7795264874853972,0.59984636909412,0.6358151388288791,-0.7865319469002233,0.15820636503626462
50,-0.6289378316793908,0.7686671559828555,0.5853160988705508,-0.5147953666091816,-0.22181559524628253,-0.897067801429663
60,-0.6303248600947969,0.7613515185581756,0.5793351700752793,-2.4625330745156453,-0.06502135570113987,-2.6095318821510918
70,-0.6108759154311717,0.7803345788823288,0.5994222525716378,-3.2909585596877164,0.20816937576410255,-3.1160799796262886
80,-0.6524777939634807,0.7428519558222723,0.563692815919626,-2.383667439902844,0.6098364610315234,-2.331701314375193
90,-0.6438722551815803,0.7501918002015769,0.5736186088862032,-1.282847073820641,0.02162857220399051,-0.9819199435548058
100,-0.6379402565341481,0.752074934187379,0.5730224431436078,-2.996505466434663,-2.306664548701784,-1.5311376728735617
110,-0.6612604082768603,0.7378490472542051,0.5586537841296397,-1.0778580983564792,0.9259670401485957,-0.5691029438206211
120,-0.6326228343901623,0.7677241182816111,0.5869937678584107,-0.5321515367696161,0.527408043375696,-1.5403009591032457
130,-0.6390181232787322,0.7582109365704721,0.5769230230222822,0.47622619955475165,2.663664684609991,0.35425820582750633
140,-0.6286669173777467,0.762069071258785,0.5865440034987206,0.5110096900895842,2.6913816360926073,0.7404683768773452
150,-0.6485298743940635,0.7584089037169831,0.5886330114492004,1.1479289945524929,1.9922968650248567,2.312847182118993
160,-0.6772524696321032,0.7897027335703151,0.7478256416985349,12.202379599651708,-4.809230512956532,24.91916538099127
170,-0.6365702256669706,0.6958575742314786,0.7765503037214493,-6.548263568764005,-14.811535817553706,18.472121699941923
180,-0.5774274323626114,0.7468033659491167,0.7560988174769766,-11.226829988471565,-24.239855934512697,-0.6191948270725325
190,-0.5764110555714335,0.8454569371871947,0.7702250639562643,-7.108900653579722,-26.613600822732984,-4.3323603211130814
200,-0.6133414180813048,0.8835854565473448,0.7342269046570981,-6.710755787981764,-27.88806630585082,3.144574194053247
210,-0.5955018227780705,0.9199834151424124,0.7374635107324697,-5.83920929252881,-23.677625784914994,18.40444976453152
220,-0.5704155422980187,0.8492021448720715,0.6761411438107631,-15.233607477796896,-24.0740270874409,14.828384486835548
230,-0.5166250476792984,0.7663580645567059,0.5567405251419019,-19.904515168944286,-21.71571195449578,1.6452908273504923
240,-0.4562750961752807,0.8056004787766392,0.535839875356601,-13.495961247426242,-13.01999336492827,1.8024841289462379
250,-0.44117262204675556,0.7830274035103656,0.5469288031504986,-18.775947959482522,-6.354137899086496,-2.306363958885688
260,-0.534371268032733,0.7912106779839602,0.49647635163053117,-17.32176479696037,-1.1477317161379355,-2.0723543983657238
270,-0.527088061095728,0.8112588384952205,0.5428097414838641,-22.539966959175107,1.572544967661165,0.16500982887645477
280,-0.5860396704893115,0.7553351628456173,0.5871936113798213,-28.740688905158628,6.684839953024111,1.566339876616544
290,-0.8231133321939608,0.7009743037325415,0.44741502273430883,-12.741266129629341,1.8814491473073107,-10.118537952889117
300,-0.7290964841051887,0.6735305424248585,0.3798182901039189,-15.068813242284994,4.389160111342578,-19.2773642020047
310,-0.7180535530828637,0.7510926040628424,0.44263977859830317,-14.407748579394342,7.728048994992335,-13.612650725221206
320,-0.7014559471983143,0.8040188993039183,0.43812624511328335,-28.98675167663691,5.809649772997989,-16.079432251260503
330,-0.7336625027504514,0.8725811366152166,0.33212431934903625,-25.70012032549279,9.348626910604866,-15.023567780130987
340,-0.6979534257872418,0.8309238529174666,0.36585903847757967,-14.507546411129617,14.417825747348461,-18.39016665619493
350,-0.737464786809284,0.7474378764659687,0.6279082840985319,3.2404481269644605,19.18939927843257,-16.931164939428598
360,-0.5887477709909389,0.8325364707847186,1.3147198607772879,30.32682042517142,29.437559430966637,-4.839171722670605
370,-0.4859304885129622,0.6341301638168155,1.6834041892298017,36.673526494067794,26.153287617111246,-5.270125991435544
380,-0.5291913703418925,0.6145589022015292,1.257052213094423,21.798252007010753,17.769656887193612,-5.119419662790154
390,-0.5987101459534974,1.0349333127433615,0.5229299285353588,-3.110938647600184,32.15445898615432,-1.1159629155537165
400,-0.6844879003766576,0.9979155352590545,0.4882922148375456,-4.601719751227193,36.534321705282025,5.200011606751739
410,-0.6246329294371263,1.0963735241458985,0.5860244187280057,2.4294777618002676,33.55471769826376,6.965913437613999
420,-0.664187696657752,0.7165982553678301,0.17634734049468387,-15.83956406381685,11.42024050067729,-0.6523719180705405
430,-0.6568411632100191,0.7345331419201193,0.27354726370759186,-4.545577909349783,9.575310858032125,-0.17142733768136598
440,-0.6611585882715756,0.5779840806640304,0.2523133229770784,-10.657109216777291,-4.898281353068089,-14.972633910934547
450,-0.6174103870623785,0.5055847674265114,0.7976978397844516,0.051420709753954075,-3.9590089513532547,-19.425545921583318
460,-0.5241431568349263,0.6788394097185871,1.0444029944085762,4.082497962993285,1.2858931704558958,-10.350364950981659
470,-0.535736755281214,0.7358936972830123,0.930332335166176,2.6692832612893143,8.489783352204421,1.7294627655119617
480,-0.6087180831457373,0.7407380115836382,0.6817938964831912,-2.8950392499818083,0.953754578906877,13.383430684073405
490,-0.6561881710633315,0.7448634935523609,0.7091775335609316,14.162972827872501,-13.473722932361973,31.217681255653627
500,-0.6052032974146736,0.6961772336827898,0.9041046877657497,31.26810346802188,-28.578000964559482,41.98616158583516
510,-0.5636036908638876,0.5993080788385265,0.8023661896215527,26.141835979381383,-32.610949042180415,45.251056614523755
520,-0.6170721749495123,0.6091608568842515,0.7295165573360252,16.030558693627537,-39.00858627412561,29.172175769820168
530,-0.7143707256862227,0.7059689157016725,0.687287043537684,16.603609224988737,-44.070245862439656,14.80323555829191
540,-0.6906597596503956,0.8270701756415947,0.6476416288061025,0.3135322369675393,-49.03137590174317,1.232903255289096
550,-0.5565012000385839,0.8402753064306364,0.580374755428542,-29.61714871086701,-23.629892572701262,5.272601869029555
560,-0.5011046733967115,0.8421859306622796,0.5622985540338366,-28.580536873578406,-19.403149215464396,1.640972109695352
570,-0.4415267509713279,0.824164926083974,0.549356149169423,-33.08727440282085,-13.440522479038538,-1.3466545147636384
580,-0.4107809861924087,0.7965354228680899,0.5196764400726522,-33.91406115110092,-1.500260436049543,0.44819353971301323
590,-0.4332158299235771,0.7321136263954685,0.4747560947660391,-38.038111319824424,7.904885821878349,-3.7233190935844447
600,-0.4951646147402464,0.7466147968778744,0.48940642456949074,-31.91729513375345,19.818524834126993,-3.326031185352862
610,-0.6265226720535281,0.7274727285834609,0.5017652736593085,-14.431322050726594,7.885810410589723,-3.6237726355271205
620,-0.6965326150907833,0.6851847496668475,0.5645973212579114,3.514454162994226,-2.630941904278573,-3.6648598258545726
630,-0.6914896977152563,0.695141143348462,0.5322151158755388,12.82611797385422,-5.216590742060907,-7.930897059424868
640,-0.6681337792835872,0.6486572210345892,0.4544984472084361,13.512830628046137,-8.066681124262095,-15.484804391830469
650,-0.6944138144150469,0.47567361323856294,0.40350442865634706,6.767885492456397,-13.068913863993732,-25.02660621350154
660,-0.5951755292165153,0.6503408770189262,0.47342234864740473,20.198570103277653,-13.998822613660609,-21.2804247412232
670,-0.7170457804415946,0.5712772541157217,0.8221756335428972,28.958145881289653,-14.223786866421705,-22.48374841736768
680,-0.8326615727101286,0.7252636704618445,0.7112782983743962,45.898095577547,0.5319007132781279,-31.655098808962734
690,-0.7387893835494748,0.7765256091155757,0.731409134504625,44.54004882236449,3.136959978364643,-29.871747301334278
700,-0.7441930498869535,0.8005182287485365,0.7174852279818057,62.282396408212634,12.99206244650409,-28.179946090180376
710,-0.6686261154808717,1.2251062842779246,0.5801092684706245,9.67818660849775,13.566504418550679,-21.377067433165173
720,-0.6582698596517911,1.0482031550675883,0.625601404032542,8.766575627474833,12.547216483253782,-18.390046004672687
730,-0.7268343948839204,0.5641830474813825,0.12499879932132352,3.4494734823179036,21.676937681866495,-18.77269255761227
740,-0.6613894108165019,0.649043877379395,0.25872213300990965,0.8529706429481818,15.509298380078206,-18.138748934264946
750,-0.5376422761835428,0.9753368875076758,0.6980208283202244,17.516428708698722,20.067084376075993,2.210724650810796
760,-0.5653835213451698,0.9683311715105576,0.4490928680091264,19.27639374259205,18.396603088044966,12.987815846330575
770,-0.6023730515129802,0.9206081643940103,0.18305459055061932,18.746956637442324,19.082278491377167,22.080301135355704
780,-0.5285767043868113,1.2439440750720867,0.3601980590783512,15.514792813303622,25.317138200655236,38.364763672272744
790,-0.5715186443473879,1.332275349815163,0.46775090824609367,-25.23431179043834,17.383808390297638,39.46041507624891
800,-0.7822120281149574,0.5945355014219567,0.9501538867729323,-71.16335686018716,6.117718550196756,20.60526188142774
810,-0.782917511255274,0.4517655186315782,0.5134383224918766,-68.40236306976331,-9.119518406260983,-7.686515143392453
820,-0.5958920362411465,0.276678579399258,0.6878424166837969,-50.70360562313799,-3.6870813123713058,-4.414520138500318
830,-0.593618118438737,0.7635972120785957,0.641393576164414,-6.611243310932889,-12.460977547708495,15.179334131223552
840,-0.5227855808158893,0.6922034531307947,0.5753038935663998,-26.6527508532035,-6.392985075128139,1.3169084426960191
850,-0.6072267031164656,0.43270971431341826,0.6470975668460361,-6.658803565358011,-9.469613872557977,-18.89765902730079
860,-0.6148317034155255,0.5103048892795489,0.6733127024397888,-22.64559499566961,-2.834542678099063,-6.8113279641916575
870,-0.578454960702915,0.6669776582824223,0.6798041304982531,8.345250904657446,-0.6667093433202386,25.708474583901445
880,-0.6114416903825177,0.5695721868083724,0.5421833398920125,31.965400346216843,-4.385651368927471,22.16619769590575
890,-0.6791445219526667,0.5204529273510254,0.5323520618777658,43.94851604277908,-0.5752949563515986,8.06169849877596
900,-0.6973381927765937,0.5656809056416872,0.520955278066988,18.00053830806248,-1.4055371026864925,-14.51054426202759
910,-0.7015077824918922,0.7874161666158184,0.6383861000040123,19.703639805204162,2.9767185711738997,-19.461076037749482
920,-0.7550414663072378,0.8650310442710125,0.8210527505797057,59.48545995982205,2.3467615844812064,-19.801120119527173
930,-0.7916984957919675,0.4588234195444982,0.5393476807038523,63.181101483397086,4.745124275171159,-28.020019830466882
940,-0.7270498704685573,0.6771827355034196,0.3804377129619567,55.015970152080726,9.93532724256573,-14.734463094299437
950,-0.6823081346475183,0.9965152592848555,0.5458438318020585,41.30572773845961,10.87758911369377,-14.831976971511065
960,-0.6426478253724172,1.4078836357377564,0.6316648211051906,63.85566604566615,17.13418923910416,10.877365923449332
970,-0.6725256013876232,1.0331137108348134,0.5956341603747305,12.930440704474943,8.950456974513527,-3.888993706648466
980,-0.6106025197926602,0.9578693962135088,0.4346985533143258,9.521255969187933,12.114951059805506,-14.28654599090118
990,-0.624034797107774,0.9153146502578358,0.6500695369547754,28.7713906273421,6.684167529620991,-13.195834545362448
1000,-0.5934932436260154,0.9920378507448305,0.31605367387972516,-0.6796786969993415,16.99726618265985,-8.887970260020916
1010,-0.6286553141017449,0.6323788020279565,0.46859992784610516,-8.987599618812242,18.57157171593387,-9.39764452577087
1020,-0.545686379341785,0.7616390641143034,0.6392970308660059,-27.971705951683553,18.091699415328495,-5.907360227653873
1030,-0.5994972610994213,0.8354099108012085,0.5015789654166478,-17.407198939121955,20.51963500868639,6.54644179589593
1040,-0.6285908814554868,0.7227194654602341,0.6066377816116515,-13.224998003361417,9.748065902399038,1.8974003395736037
1050,-0.5118524242010666,0.850258113822304,0.7122074731590846,-16.811096059700745,-0.1627009006339457,-3.055120526323047
1060,-0.5713742270962273,0.8086935492472068,0.4971772651054672,-8.389467189981836,4.7210528988503615,10.21995421516634
1070,-0.7150298149186276,0.4194567447805089,0.7265560438997588,-37.132281325238196,-9.99492483329524,0.5980336804454782
1080,-0.6032466828093149,0.7228442983151945,0.8339430506230581,1.7919787230935185,-8.7872080407564,19.59074473395584
1090,-0.6906040358247489,0.639216459005424,0.5768398017702244,-12.568666329971482,-9.270576141930402,24.058859624960075
1100,-0.5780335398498653,0.15622004886697408,0.7518987786379221,-7.715868885955188,-18.928897210970632,3.3399881799645703
1110,-0.6650994833315964,0.550327333078678,0.5157340244299549,-16.49589277944272,-11.902467545776407,11.5359861049222
1120,-0.5226585296815165,0.8699532923834186,0.4377161132206486,-15.19898385001164,-14.074087647429952,10.824970763444098
1130,-0.6521375402414291,0.5730544343762819,0.538427578087787,-1.736716456540031,-1.1663785488802194,-8.955699874691906
1140,-0.6614299360874194,0.6283423204520726,0.5550121869756646,0.04358596773078399,1.5380725422148473,-4.229529277604178
1150,-0.6698853779568174,0.6822377529936505,0.536530087899691,6.166115155971644,-0.26151338197604374,6.409636465379513
1160,-0.643094796219543,0.717017323844575,0.557580958507318,12.758474907989358,-5.084159363087811,13.543672290011221
1170,-0.6200206924008412,0.7439627062426153,0.5835105788654817,18.242926913744206,-3.6773812996376165,20.053835347607226
1180,-0.6056564740599704,0.775047242493042,0.608441319313526,12.834792532060105,-5.800809759208551,15.284390635177042
1190,-0.6171403659614283,0.7726697852196478,0.6034615555632199,4.0824222456727925,-4.520577348868085,3.739613427343479
1200,-0.6017554007020298,0.7732536203613282,0.6193931810220472,-3.3578455100829645,0.5746065327038508,-7.090489659935499
1210,-0.6246170017183001,0.7310168080624098,0.5914966144770337,-3.200211155515222,2.0065376025210213,-4.850664674972869
1220,-0.6509527039500278,0.7044006343463056,0.5674135491007328,-0.3714255594888194,0.9771108133818274,-1.2953435008304885
1230,-0.6104423291255822,0.748371353375667,0.6024746340493825,4.298457279933535,-0.37545033721709575,3.1098402013859596
1240,-0.6272390315356609,0.7359801573782786,0.5890763750916932,7.93375052635027,-1.262216324801268,7.176063385670321
1250,-0.5939726769498263,0.7792462511265655,0.6175263928794196,12.016426026214187,3.8664599001497346,13.294289221174749
1260,-0.635209026263585,0.7504748189137401,0.5757430268470122,5.088807411093468,2.285705273182665,5.5942993118974105
1270,-0.6351755472567889,0.7347637533955039,0.5766495665611916,1.6158821603869875,1.057509674106579,2.0094873637200283
1280,-0.640595863259694,0.7355701012726241,0.5787112085081517,-0.9389732091441356,-1.8226780157514848,-1.4081526302572427
1290,-0.6445853891023958,0.7348650236225148,0.567885665331857,-1.2170217972384463,-2.0975711829236894,-1.4375248490366879
1300,-0.6093319442611145,0.7669188678456837,0.6078728727588352,-2.4810067107924545,-3.3038076488468913,-2.5753395562247507
1310,-0.5923184135890354,0.7818824415584043,0.6309195817456965,0.6444991572567442,-0.5669894169925813,0.3809442998423597
1320,-0.6303859263410438,0.7450962256360847,0.5906594682430998,2.45301970736525,0.7163914239200594,2.580629393296768
1330,-0.6433504791625737,0.7323075744210132,0.5713056170642241,3.501652318336363,1.3074520015747044,4.103839398869756
1340,-0.6362557117237264,0.7405960541661548,0.5705042260708155,1.9089457451810872,0.36998383371165766,2.69366808377873
1350,-0.6248990370468671,0.7625590104077442,0.5890716227913707,-1.04842698110058,0.026849730720774997,0.5004275479433573
1360,-0.637772740524315,0.751011932121066,0.5929732910038183,-0.507036499840994,1.2263635676537898,0.9482750458954219
1370,-0.6162936921551224,0.7569676688629698,0.6016855456852717,-2.9180581375468555,-1.6584541215130617,-1.4129375529721853
1380,-0.6529762750344277,0.7182579412688948,0.5664862073538007,-1.260705989013209,-1.9940838476032479,-0.314713284784947
1390,-0.6570486605979241,0.7244024597176423,0.5661603316903547,1.3915501269499,0.050715635750363974,4.206470981831332
1400,-0.6319444654905851,0.7521964228827281,0.5807411601377425,2.386618948573042,0.8600956969711133,3.4852550259805053
1410,-0.6506229657772439,0.7400089047875215,0.5688599415354499,2.3383513993560108,3.0333506922666924,3.5152585817499276
1420,-0.6521319416944826,0.7399783003567386,0.5658676761053834,-2.2016138814805473,-0.32713306556742594,-1.5557972490564682
1430,-0.6674605953282872,0.7189220227381935,0.547771485031171,-0.5882009570986928,0.8592327793848497,-0.3263618676390405
1440,-0.6293909809084482,0.7525840682771702,0.5862251562914612,-1.3954892028042134,-0.8439582879514547,-1.3155469283404466
1450,-0.6125939607581005,0.764144697538535,0.5933364094033401,-0.7887238655570745,-2.4693526703800406,-1.4407022804727065
1460,-0.6114699929730402,0.769276092545414,0.5945733346831767,3.102280611006731,1.2251887167063777,2.2892348798764757
1470,-0.6339227656329666,0.7581319576014298,0.5910227018611404,-2.519211839993172,-1.6666647016558664,-2.600490614280046
1480,-0.6330667434943198,0.7548872329515964,0.5946931311953224,-0.9859236515915435,0.46494588989901664,-1.068796095020925
1490,-0.6268542229688172,0.7511556831762293,0.5887803685022154,-4.236892365325938,-3.5034158559035014,-4.8804133860689785
1500,-0.600295156898232,0.774024426840182,0.6124625929756022,-0.42848085215508447,-1.1422347881570396,-2.732150164470853
1510,-0.6549511992614978,0.7167032430576223,0.5545655240661136,0.0764350786379333,-2.3903247908064085,-3.49022903554623
1520,-0.6614434763172345,0.7244034938833064,0.5577173174559632,1.2313873426279738,-0.15182475336227153,-1.4916321487028892
1530,-0.6527319546948998,0.7284972883059649,0.5690337486982251,1.8938744154066018,0.8887583009773034,-0.6384319099093041
1540,-0.6159396614240739,0.7594359402738485,0.6012847509707836,2.877122826246136,-0.14751381421114157,0.45481120986169266
1550,-0.6157433465495672,0.7595208114490403,0.5943503886718458,4.4025157522210545,1.3658849208042974,3.3491731404430647
1560,-0.6668326344459816,0.7167562805702875,0.5548244108354158,3.6907413380685945,1.9297947409761624,4.577701583414357
1570,-0.6063434964989863,0.7790958952698103,0.6190156248356068,0.03583086984452821,-1.5433942199640787,1.505864148672123
1580,-0.6143798638720922,0.7730564145327159,0.6060773554452273,-1.2968781623572034,-2.346449112812948,-1.5952267632729793
1590,-0.6520491114748902,0.7397397976711272,0.5676153069571629,-1.2373365325421926,-1.2675273492681105,-2.9830441450368395
1600,-0.6659046233163435,0.7262070144157139,0.5584106649489005,-0.9432833345320474,-0.18359127224244165,-2.3549471017504144
1610,-0.6207577225929615,0.7641492565187206,0.6007436967485104,-3.0026879685982104,-1.702151230408629,-3.2778790749322866
1620,-0.6323135505814155,0.7417380511345314,0.5768410038696195,-2.646496260872823,-1.471139326936778,-1.6042437168306671
1630,-0.6067441041401005,0.7656413191937664,0.605464013419711,-0.6380566627625307,-0.043346628035221824,1.3879671707743455
1640,-0.6365163508283874,0.7493532372446223,0.587186884379414,1.2511029387550758,2.0258262148919,5.0122467042232035
1650,-0.6237394264264987,0.7737423648236393,0.5960849456074255,0.7744145132236526,-1.7574221081624026,1.7474456230781357
1660,-0.6441963136213472,0.7542531176026684,0.579428571674816,1.8056728946130025,-0.4367277272415728,1.9360442921010617
1670,-0.6146847953341951,0.7735208962350896,0.5910114156118081,2.2616513923912254,1.2966427847599202,1.3879173348926015
1680,-0.6183966437881586,0.7711920572234886,0.6002323666769992,-2.159306988125273,0.3284535011988262,-1.812742710913874
1690,-0.6351122095063596,0.7560061258928552,0.586263661928023,-1.4142528002755617,1.7973144836593344,-0.31243491407964985
1700,-0.6425414782567803,0.7452535909978727,0.5747706748945436,-1.3245123633814664,-0.7943379567823006,-2.1108588848805776
1710,-0.61348634785603,0.77888729976484,0.6086594531952978,2.037712907787096,0.7760997114496285,1.0299456794981832
1720,-0.655825331578122,0.7309891023726769,0.5553559936617946,2.5369062274595837,0.3444225066723297,1.7830710588858094
1730,-0.640191272065956,0.7401239373155982,0.5639404100580497,1.15783159363412,-0.24850811460385158,0.8931644626779286
1740,-0.6306592336433824,0.7519793533052683,0.5795896240026583,-0.5710505663753794,-0.20101809200695586,0.07576135456650701
1750,-0.6389647272024926,0.745442859300916,0.5703302166958205,-1.7084812969224106,-1.038876004772959,-1.2165402824691016
1760,-0.6147413962891229,0.7741869152871105,0.598411272960783,0.38807408892793,0.6072406377430152,0.25203249091109586
1770,-0.6634455739064504,0.7288032429800488,0.5562134425261924,-1.4685522868019842,-1.4476687167866027,-1.0400073619197583
1780,-0.6417216699707565,0.7445630362167104,0.571753907330495,-2.7726604682321234,-1.2927116008160993,-1.4919904389692056
1790,-0.6420273948242361,0.7488386201131886,0.5798220928032832,-2.091250035621848,-0.41561962875662345,-0.8386220914703606
1800,-0.622804528217598,0.7689169007777868,0.6008686470277371,-2.1522342104572356,-0.5215537823784029,-1.0011173794290578
1810,-0.624082956722446,0.7608006237205689,0.5806688732556897,-3.3767533274123127,-1.8960769272981588,-2.1297521316153345
1820,-0.6617994521316216,0.7295578609099025,0.5547315097296079,-1.489212972017513,-0.5812251999161339,-0.837809489959469
1830,-0.636666625629894,0.759139471622762,0.5824587178606635,-1.1233927253811657,-0.13542583438811467,-0.6446959267967163
1840,-0.65558804309676,0.742402369729348,0.5684066615753388,-1.2550058710708882,-0.8229022753513229,-1.6685083280526938
1850,-0.6360876752369427,0.7589842825463761,0.5909212176948899,-1.8474401758381003,-1.9248890448559588,-2.6842379149907334
1860,-0.6023833603984858,0.7814421676659237,0.6176257708776128,1.825561230670735,0.9804187793311214,0.9598433308724267
1870,-0.646639790589149,0.7332972268012131,0.5660070489962361,2.4239067384262065,0.8525934764804108,1.9956882893006844
1880,-0.6176858090675323,0.7703675766673714,0.5960005623657665,4.097250817116519,2.5322777645025387,4.396562163317192
1890,-0.6416997299472262,0.7528837866244509,0.5757628524826851,3.119283348831913,2.19596508698375,3.6532598670744747
1900,-0.6286738688373906,0.7675570865418947,0.5890993057690652,1.1312662504776763,1.094229752500544,1.3934027400628621
1910,-0.6358684608891951,0.7536048119303969,0.577893721045676,-1.6091843042557692,-1.1173488136472594,-1.9852884454934945
1920,-0.6294313070830311,0.7620276518163523,0.586612867823224,-0.6612058035043687,0.6010634414017815,0.10397422078111307
1930,-0.6386670440114439,0.7596202952983878,0.5809591432490914,0.41835887976058195,1.1767829032264063,1.1344256077023018
1940,-0.6169733939558276,0.7760491321223982,0.5952867514465902,-0.047202992950605066,0.15543111708585722,-0.13133090141151516
1950,-0.6288628270083675,0.761427691724423,0.5830544046051451,0.04995358544822359,1.200343267355222,0.456345402800273
1960,-0.6497695766615977,0.7417137649058783,0.5686825295770268,-1.7738197062719683,-0.16253726252507666,-1.1835210506384275
1970,-0.6128065737582736,0.7767606153028167,0.6016275368251786,0.5522311368325827,1.766858701874848,1.0105261254085236
1980,-0.6380290999198557,0.7475618661783497,0.571700713210809,-1.5478884689712546,-0.5700525532507867,-2.0584909540271203
1990,-0.6365732765996711,0.7514870947236312,0.575521512466111,-0.42789411154549667,0.7553966547141091,-1.141230880830757
2000,-0.6130373934477248,0.777380179199893,0.6055946129987966,-1.1557087099406398,0.25371197416104996,-1.1183786750580471
2010,-0.6559669878468791,0.7323202678173544,0.564677873124279,-1.3895017685783597,0.18447757559484723,-0.5538951916132401
2020,-0.6254054587968795,0.7629332188960846,0.5890250170272551,-0.17910630720814646,1.759194414775082,1.1206119744665985
2030,-0.6523023617174072,0.7394908102937706,0.5549796131241587,-0.7848405036615342,0.6044128519001222,0.09492244728298652
2040,-0.6318665187461324,0.7580573060237499,0.5777622578120989,0.5413700552822794,-0.5737609680627431,-0.17709385509044084
2050,-0.639539320579229,0.7448481572212825,0.5790458684307024,0.29029310818924126,-1.5772664858108887,-0.6451508887909381
2060,-0.6595823547827324,0.7264648983423203,0.5545883054836954,2.5341664525798118,0.6983575475077372,1.7325446474252983
2070,-0.6441578751815166,0.7448250595206879,0.5655060907259004,1.4424112273550347,0.335973925170155,0.16253519015224893
