time_ms,ax,ay,az,gx,gy,gz
0,-0.46278501793647,0.8226354477966132,0.8546307794566116,0.1864388927031646,2.468536155154805,0.3085288018550574
10,-0.4636087123704095,0.8239588917910604,0.8593263708426565,-1.57295776596278,-1.4013071933372263,-1.8987707515624586
20,-0.4795098292031215,0.8060846156202705,0.8367907348295259,0.7710327735607168,0.6673857187787916,0.7364738629400053
30,-0.46499043656793443,0.8178903619644149,0.8469035133913098,1.1693107030057872,0.45754778746207014,0.6934466369051414
40,-0.47113556785240124,0.8162221734207076,0.8412348888879876,0.39532853190072337,0.35904879214380403,-0.5781306981303702
50,-0.49001111162134736,0.80491786297458,0.825737815078846,2.2027612607748033,3.53070201871839,1.7923906096405862
60,-0.47359590812477553,0.8198390911008466,0.8427292821375593,-6.448424497035385,-4.038410524459705,-5.747437823119669
70,-0.4704145094143019,0.8174283079170116,0.8471429734758585,-2.8691523102025007,-0.957549738874693,-2.3213459789169737
80,-0.4812007373426397,0.8058407294546114,0.8384097669571572,0.11034800949143125,0.6006795881275586,-0.37356479034806
90,-0.46869589783016913,0.8166883851788292,0.847864075109554,1.285039181521499,1.4487754022970505,0.8388108385602305
100,-0.46024613165956496,0.8250577729794221,0.8595580751899716,2.6460731799210278,1.948287456898456,1.839927894652896
110,-0.43541894499400025,0.8590599554661802,0.8784251361089396,-0.14985452399286026,-0.829603296547564,0.23277263051755692
120,-0.4696963760152839,0.8207030649296804,0.8477476480520445,-1.2694406538882501,-1.5024178131749628,-0.8000855237157514
130,-0.4610868691642256,0.8266599106634213,0.8510384611607107,0.02560506366807469,0.12173176458126156,0.12029604381449155
140,-0.4524098526139392,0.8328511205522771,0.8661840956409474,1.5989711775699915,1.8856643595539655,1.897475382777467
150,-0.44250849991525454,0.847765509451524,0.8726064192770382,1.2007118072587382,0.6546525065971722,0.5676076147147296
160,-0.4929771527637432,0.7996444794203285,0.820474144445956,0.40725774902454703,-0.30839690977719636,-0.6113189784263253
170,-0.43985023236068266,0.8519273562803042,0.8736716123466085,-0.009160067441253278,0.3582956264931244,0.36527910553061405
180,-0.45087515661637595,0.8396399883694541,0.8640155215076881,-0.3081201908057382,-0.1546678373041036,0.3204802163744627
190,-0.4469772034421581,0.8446336754462684,0.8718775245395286,3.5006602053901563,2.0509063664524363,2.658528780283885
200,-0.465026510857792,0.8268879621846009,0.8554049607296772,1.0040051442728783,-1.423502811108827,-0.5830638702188731
210,-0.47529788009056745,0.8114850331428581,0.8437453210900354,0.7750714585212988,-3.1217002652796775,-1.1655288609367445
220,-0.4768544855096331,0.8182274150436807,0.8660579861936982,5.6273213446078385,-2.272976575307722,2.052045259730259
230,-0.5152181691825795,0.8070911525972218,0.9029035381546331,18.961048178513376,-1.7642034290183948,7.093470583080672
240,-0.5663582258478871,0.7603106006566089,1.0588014303304443,-3.454021982449988,-33.29516117348507,-2.2070729837156082
250,-0.4653600775230064,0.7308810050792507,0.9270950680890172,-4.439477530781042,-40.118080198146906,-6.086881870490082
260,-0.3508653517901536,0.6749213329628995,0.9009845714811331,-3.3702788286490195,-45.37450176352024,-16.23443379194047
270,-0.30174202567504343,0.8068205198482254,0.8228332638655467,-10.997930441119157,-49.398104408507784,-19.582245757631448
280,-0.2345188480544011,0.906371333747337,0.7591411400326475,-13.402416588318248,-40.419910586842086,-12.037287192115173
290,-0.15617348658231478,0.9313144613752647,0.7528900104656869,-18.553850857159865,-29.271132341195013,-8.962261380700765
300,-0.2968019916874068,0.8826838251720432,0.7103494523571359,-30.00894238359792,-6.254960325691909,-3.8754285171501257
310,-0.436962257543796,0.9216798113464115,0.8746686837519185,-44.370219020894446,19.483957168428372,5.190850097409079
320,-0.608849384577427,0.7779912538348713,0.9707187389893276,-57.58982967354523,15.064909640274918,0.8655385875590207
330,-0.7181299607029743,0.678500902129078,0.8453420655458123,-48.58497037879664,4.098326825969477,-3.719830843609897
340,-0.6311558473963583,0.715092851594711,0.8346717367372178,-24.034593217762666,-1.008068485336538,-3.30479817487826
350,-0.5064001659447106,0.8844257433305238,0.842484816361023,-9.677288446594401,5.8242449148039,-0.41811919627200234
360,-0.6156123603659425,0.7407758218583645,0.7196026986984391,-27.446170264721964,4.818303702436632,-9.909525293633951
370,-0.5004838726521957,0.7535641684402389,0.800307613020803,-25.86464353980513,32.2826788826046,-10.631900790166467
380,-0.6757068901703298,0.897585640634158,0.4893471543173999,-24.295432084190438,41.398709506382495,-2.485812640463798
390,-0.38243954508353567,0.8173595696055738,0.9270364087328661,4.511805624369394,45.345137569111145,-3.424922917065489
400,-0.12835339601869197,0.7393175849191508,1.4550161409912628,9.909399367006051,31.88779092347972,-2.9773571147963844
410,-0.16872091402655953,0.7795672801692087,1.411554811436252,8.299260229634765,24.081355251733978,5.2090287942986375
420,-0.40611651444763863,0.7212155348421769,1.0105021682535842,14.018409131301011,19.50132012708199,5.163724131407086
430,-0.4078777240814695,0.784569732035883,0.9627687365663646,37.48715982533642,12.157149605363248,7.216123842135016
440,-0.43744469039203837,0.7855034950726997,0.9171868628649615,69.24487190167251,-2.231405175086802,9.425910513597778
450,-0.4420291851165368,0.7806702153576879,0.9849451693383999,81.90976504700767,-6.852334420729871,9.375016316468535
460,-0.4795774891579728,0.7974351464990808,1.068941707090029,58.06048429668116,-27.96571785275994,6.361549756163132
470,-0.5270964686916475,0.9200729118361562,0.8522901194355034,41.92792001611312,-46.35686418097955,-3.707376640965351
480,-0.5115416925168408,1.0075643829179268,0.8713633768441624,9.537475266416308,-48.095656624721016,8.068033483546124
490,-0.4091815546685565,0.9687671878185756,0.8110358541353978,-7.221379124031609,-42.22398795804323,21.158943241606305
500,-0.32484114457415925,0.9446711983979578,0.7209458831805473,-29.8175011375866,-5.838567035232929,20.938652889627477
510,-0.3809346892178433,0.8551759482142341,0.8433985721248699,-48.32364064726391,9.970469882084313,14.532479119105664
520,-0.5477333531994087,0.6851161069910301,0.9077154556367129,-45.871076884051845,2.3200070200509604,3.4135685947267764
530,-0.5647454076869441,0.6852229068992973,0.9387288620938031,-25.816587057505128,-4.123115182215257,-5.335432159149844
540,-0.5255428260615429,0.7228583420458814,0.9416945336692071,-1.1110961883244466,-5.172639044144482,-8.976956006659908
550,-0.5146785280106984,0.688442100124104,0.8461502957750644,16.3954413043261,-6.007892961233923,-8.546479543609887
560,-0.4852588172892035,0.7868549573832393,0.6233501947244188,22.385158580522013,-9.236793843034652,-12.66525400454981
570,-0.36873618015971393,1.1976447727757678,0.8123066819793012,75.10337110090583,-1.1342493358754027,-9.97747243745544
580,-0.47248137209413665,0.6482749811837597,0.7427370407328844,6.4508906609500425,-0.2799096093330675,-33.888096239524984
590,-0.6105125531715221,0.8332544988315073,0.7636529128334882,30.565018305944935,0.88693982056873,-32.57605038692289
600,-0.46243842244658956,0.9282248705066927,0.8362018465241119,7.987763785972639,2.744469342739602,-20.20902888920916
610,-0.46287989245872585,0.9354410900953117,0.9481632001204455,-21.877789237019837,4.683210668850046,-19.068076595869158
620,-0.4050952610181115,0.9524958002603242,1.0032572966993645,-19.096894756014336,10.686586608458294,-15.195496454289083
630,-0.3947689479175175,0.5968014412767626,1.0832093520089274,-54.19380389798297,2.004107909384248,-3.0597772209416934
640,-0.2713766984148304,0.7079736244852923,1.1596943678271392,-33.871715844006715,8.395345274017691,32.68971153235537
650,-0.26576106609203737,0.9654224328813997,0.8794411397545899,-8.947799111571808,17.463649557473918,57.452054185717614
660,-0.3760226846830549,0.8392334625309177,0.718117934167122,-16.827414317837345,12.171961425790053,43.09672453687826
670,-0.4646219914309577,0.6447537440559695,0.9733791592026102,19.591782657605464,6.11996462686319,15.654314289003251
680,-0.3778510133872951,0.835211140946345,0.9571221695502538,38.1654150226845,-0.5155991682260832,7.195940384530311
690,-0.4118689072138535,0.6346176911166201,0.9026656434887468,43.72921817310403,1.8587342531440012,1.6355238005319348
700,-0.3064303786682377,0.044041464221443574,1.049594895470696,-15.143533474074236,-11.88137571928639,-41.14201176452224
710,-0.5249094964939123,0.4752309800545299,0.8203748132164759,-20.367465187120306,2.7185699254599696,-15.593984702080876
720,-0.6155568854899662,0.8010993142349833,0.2850193306821599,45.66713187779848,7.236930262915745,-36.327472754939535
730,-0.568086275114163,0.8603557152380674,0.5894966545150866,37.69692591412784,1.1928145518125088,-35.28905971596225
740,-0.42588922769157955,0.99102016684156,0.9070005609682997,11.137187448240617,4.445327870713042,-17.707735537495594
750,-0.406282910620607,0.9554413601004996,0.9313439290667955,10.988958788179653,6.306577677806073,-18.638357867210267
760,-0.376752754065018,0.9418600920270481,0.9393936313974816,-6.90417489533394,9.781258934399633,-13.928378461420714
770,-0.38223677883147733,0.9394904628142627,0.9907780669894121,-45.428086115858875,9.273427463235562,0.416060310489208
780,-0.4105753456165299,0.7919019560979284,1.0540730780386969,-56.760253326496965,7.745955737769172,13.016854405787077
790,-0.3772825254693414,0.6835448833608505,1.0662832395588768,-60.16303692441159,2.2716707930499407,18.16146344579553
800,-0.44403270488039726,0.9988118079028121,0.9373951438021313,-51.874403517371256,5.4253064251625345,33.12591553367224
810,-0.472301804165762,0.7859213704809985,0.9805708794463525,-48.667042529632525,-2.315021692052459,28.643966767931772
820,-0.38707531953849383,0.5543182039434084,1.0011830207748276,25.413844892904965,-10.673329987683253,11.488030952450522
830,-0.49010161560383886,0.7717837368016435,0.8677704682038866,17.23155160731348,0.1439988986052586,0.668583428948369
840,-0.47543943205774297,0.8052493544505612,0.8394133177926519,20.153275324360685,-1.5803177316305872,0.8989785772818544
850,-0.4725287483325265,0.8238984392906744,0.844005638295851,20.811899828858405,0.39562137719965645,5.839895968608976
860,-0.4776826571011459,0.8333376291966403,0.8358562102638069,13.280072200682683,0.18596514458966795,5.818307130734343
870,-0.4725258149840828,0.8459454924487574,0.8394366702996913,2.076456908161841,-2.4853520870247547,0.7525495630411252
880,-0.447570828126489,0.8636227973263662,0.8644231907603236,-0.29408727740414276,0.8919370026336148,1.3516692837782671
890,-0.48029330244855434,0.8242539875972735,0.8339545686931167,-2.6952145492090804,-0.19279514690613278,-2.1701067342208185
900,-0.4717564138901713,0.8318226579531979,0.8465628730940199,-1.4207276555058266,0.4152619237771364,-2.8704898460461163
910,-0.4598151138177703,0.8204716951631357,0.8474126307121129,-2.636139132339679,-1.1506413573019705,-1.7274099992368688
920,-0.4246187967881345,0.8723303285194828,0.8853332205215667,6.606511521874079,3.5028667193943233,6.586995667315689
930,-0.4630779344006503,0.829633042124143,0.8538821931303527,7.158011957646755,0.2954887099227431,6.560389826915946
940,-0.4790351290493171,0.8200341786516728,0.8308954652596553,5.958181476118398,0.30407263387409067,7.798745193701314
950,-0.4427275732379267,0.8543025802105381,0.8633886039616329,1.9050332833338819,-2.16157940281965,5.460137653029545
960,-0.43174908359785186,0.8777709391347107,0.8844105725704936,-0.4359668387349349,-1.2229251650301307,1.0073818676370525
970,-0.4549075482892117,0.8592221966280207,0.8655269100253172,-2.9953876705728026,-0.35417258480888103,-1.1099810211105399
980,-0.46490074235917805,0.8377478826370341,0.8480570559943741,-2.282242964684218,1.3982697554588248,-0.690764239515175
990,-0.47789282207305206,0.8165879538415239,0.8312998194238536,-4.366296647290382,-1.2474368647479088,-3.529747861795287
1000,-0.4394759663321112,0.8551194660642463,0.8716091883282948,-3.8015726805789574,-2.1217555999140387,-4.080779085141051
1010,-0.48216916223942746,0.8108810823607077,0.8287562891816886,2.7430584079055347,3.4814177367290706,1.7724429222716651
1020,-0.4403525685882225,0.8523648424144943,0.86758330791434,-3.8148288085628623,-1.8167108541202985,-3.0549160952438825
1030,-0.4423001546632433,0.8607048407428393,0.8646769153720427,-1.6725903368018535,2.0405677502079027,1.3225660007756512
1040,-0.45262093637314293,0.8486719781173854,0.8712646914862114,-4.032205476203657,0.032043079637512156,-0.27144333317250874
1050,-0.44324909156152215,0.8426223517590137,0.8684114367497193,0.9884515294474727,1.9827076151058365,3.2950877800767144
1060,-0.4546493509657899,0.8308823466705725,0.8438150523864812,0.8478846081671255,0.5699849132821445,2.4832256717424053
1070,-0.44881740043379553,0.8340135067653617,0.8524539934495409,1.1833560820737112,0.08246883457487231,2.1244726271943266
1080,-0.4445771213069536,0.850457199063229,0.871844520019229,6.1133784872264805,1.523675576418592,4.010221810352708
1090,-0.4796152441048866,0.8227470850497934,0.8385382093759037,6.107245307667621,0.20028973149523321,1.9254592062887228
1100,-0.46361232878344294,0.8458078559120469,0.8483988651507899,4.298845469804268,0.3394357187912911,-0.08455748288260734
1110,-0.45504572004991684,0.8490089093009889,0.8510997329684721,-0.537512817054006,-0.5300582304318673,-3.162244084054965
1120,-0.47046528312600033,0.8198429087744235,0.8301911231814817,-2.634744679596046,0.8539653941179417,-2.8141548021091434
1130,-0.4663300103563935,0.8224196126964228,0.8344315623702733,-4.314309264213514,-0.33147812381896036,-4.315020884750624
1140,-0.4684821748962635,0.8309148805905583,0.8429423371471788,2.5120622898317535,3.9756720480667997,-0.5123983977282447
1150,-0.45173949567085575,0.8546149050849243,0.8625468737158271,1.988835566510046,1.2133864064429958,-2.378389340503866
1160,-0.452699562520159,0.8527991774859441,0.85397822712003,-1.207761155822832,-1.9014454049712493,-1.942438070127766
1170,-0.43065338093553923,0.8561645056513195,0.8691030924792356,2.0936058397167807,0.0032207622902120647,1.1061203938384265
1180,-0.47237865875071755,0.8236909556208757,0.8354946299807761,3.883964508406042,-1.2101783660202137,0.1274126707758667
1190,-0.4358134018302714,0.8589191350000644,0.8685326577324258,5.828701749774439,1.9502914831424079,3.5557489913907996
1200,-0.45535246664187856,0.8431905796200395,0.8539055429033642,3.0879498427667684,0.6499735950029519,2.210534513837182
1210,-0.4376276941289827,0.8784247157836516,0.8770221610663803,5.907572322843987,3.5567221319592686,4.33108195618871
1220,-0.4387711545705174,0.8755150603165655,0.871306928454396,-4.06945279719812,-2.29478171998948,-2.782074730183327
1230,-0.4716082583369264,0.8246874903705073,0.8331104690876359,-6.899989323469738,-1.84256357987843,-3.267518338551394
1240,-0.44445361377523884,0.8460851915730283,0.8624075138843055,-2.991636164415739,0.27546054325622843,-1.1863443019487756
1250,-0.48364727209876623,0.8150330669416087,0.8271687747401952,-1.6585822822602603,-1.468900682386483,-2.1905438991314066
1260,-0.4564730834400955,0.8427803490624715,0.8528915271944284,0.6850236038247948,-0.5994736842660284,-0.38968829148597517
1270,-0.45185097333913643,0.8463201730729232,0.8506896664653593,1.7435568301510664,1.8984655906967776,2.7490342695174776
1280,-0.48669546720257784,0.8194546295618361,0.8279489426635996,4.938067509407819,2.8517258597439383,3.8101082870181893
1290,-0.4654450883343661,0.8327609809687385,0.8374465177141748,3.443438803959409,-1.2409651164490136,1.2512144200727107
1300,-0.47283096376929895,0.8304134475480538,0.832156558380262,4.949603431879038,1.5026368170845983,3.8844389562168606
1310,-0.45229237322742066,0.8576931113825618,0.8518024367609985,1.5942225949848012,0.48377863596821175,1.5349682649421426
1320,-0.437524569327782,0.8647898752087111,0.8676211979135992,5.520217150627117,4.83869728928022,5.175314141741264
1330,-0.46106575864346755,0.843135178206846,0.8488074119214772,2.2880158389828527,-0.1823019324375068,-0.6194387258889598
1340,-0.4378021404041233,0.8793402546209923,0.8754336721537885,2.311008793208208,-0.7025286841909028,-1.5660134778797985
1350,-0.43952746715016067,0.8758236540605672,0.8689101076525761,0.21889487610351877,-1.243297021071642,-1.8775850812126684
1360,-0.4543350956200467,0.8491843372596586,0.8478896789820579,1.8430413432674095,1.8482508297136566,1.5436014575390358
1370,-0.46729361246563955,0.8399075727380239,0.8395241633332441,1.9307177232914428,2.06428673833158,2.028975595368858
1380,-0.45947465862550907,0.849873350156671,0.8538320091563343,2.5755195085146827,2.3062764485549567,3.1012940020450683
1390,-0.47282381183142536,0.8395386241221564,0.8349927948360517,-1.8486741374796865,-1.792666402785275,-0.5602674655145148
1400,-0.43702828791286075,0.8728220411381115,0.8732884404790038,-2.8385715319799045,0.07843205147428275,0.5530682047793015
1410,-0.4350275748491491,0.8665458052985975,0.8780480645630355,-4.922382315680171,-2.0046709953256534,-2.201297786253734
1420,-0.45884911307751297,0.8446086330143855,0.8520047666522129,2.303701679123387,-1.3807149199588216,-1.912712763231593
1430,-0.4569620084802819,0.8515302552105347,0.8465991359130213,1.062164723168825,-1.931899700623616,-2.091362154891609
1440,-0.4525867187735109,0.8621864803423573,0.8593211661015548,0.8308052261715205,-0.0954472283912031,-0.5782453785666603
1450,-0.46320932552642985,0.8477220819217978,0.8507068984508853,0.5696404944063977,1.1146585317988977,0.5597016721948829
1460,-0.4655837933245794,0.8406687645354689,0.8451609132235676,1.3355765568430202,1.2511308418802525,0.46917993337456887
1470,-0.44876169597322396,0.8553992576939086,0.8624037481571943,1.9635206628601227,-0.5165916017889429,-1.6102299500803121
1480,-0.4366366316038996,0.8660240049733411,0.872171523773519,1.8284161043729608,-0.10430111016145381,-1.3300062764403102
1490,-0.4448567605868478,0.8618267417651339,0.8582066497341602,-1.3312541242792042,1.1287833150484081,-0.18418710385874704
1500,-0.4853886608108738,0.8238182715858057,0.8256572431842962,-1.850920644197763,-0.8614222039941103,-0.6737757557438218
1510,-0.4433503493867171,0.8744849039060898,0.8648719682681124,0.9125808895224661,2.7737830802842565,3.5352213568926594
1520,-0.4565995453925578,0.8438125339632285,0.845261789143971,-3.4157146366275923,-0.5458638626309631,1.2914166549931894
1530,-0.45660935378867684,0.8482012758451744,0.8547234274739481,-0.3542928145152041,0.14670468589474017,2.153431819372686
1540,-0.46256611903295564,0.8443934924986873,0.8494486230209832,1.561432071121388,2.1041119223295355,4.575364588366808
1550,-0.451914287185166,0.8607349733638205,0.853356285756821,1.582451160255199,0.5320396828612934,1.1272199434101513
1560,-0.46102103626676333,0.857888339620105,0.8475974901205022,0.8362675010473769,0.7005626328374177,0.07682944397157933
1570,-0.4556711149574031,0.8618977616801058,0.851455790379189,-2.6618154526997455,-0.9966504439187849,-1.9670132258831052
1580,-0.4422973540362486,0.8731727662237697,0.8619620240708586,-4.298103410250013,-2.6841181833310093,-3.5167630761162063
1590,-0.4472103738017975,0.8633891438833755,0.8593657892219846,-1.3475776490218445,-0.6450321783482531,-0.6589011496222041
1600,-0.4356565202240968,0.8670852891379676,0.8731676722550039,0.5119984938936225,0.7920014220143927,1.7111386768961974
1610,-0.4695587383499693,0.839373637715962,0.8408571233150531,1.327087605018036,0.897641169591354,1.3298023066272866
1620,-0.494157402597416,0.8137438381431448,0.8120847390408079,-2.296840451702753,-1.1123548389805267,-2.3940975641677404
1630,-0.44759793666228787,0.8597499153323945,0.8606395032321335,0.0555217170714033,1.3608325454374843,0.8641592612843532
1640,-0.49017559418646606,0.8199815703091466,0.8224612637388095,-0.024062139441181074,0.9980375100393237,-0.08131080462598195
1650,-0.45163922402505596,0.8611772816992259,0.8592924687270578,-2.653054719331357,-1.4833659924482037,-1.9496090180964918
1660,-0.435563305076397,0.8710788429850026,0.8673611557551065,-3.380933626004737,-2.3367618073595438,-1.8904052057711307
1670,-0.47866341469466744,0.8342660824272148,0.826465367576997,-0.27581772803899274,0.6094509153686702,1.0045091680881335
1680,-0.4308235159575445,0.8841834078300689,0.8790887822538939,-0.963248917041725,0.46867081385635595,0.8235897014212346
1690,-0.47474364494894034,0.8334620238402547,0.8374370482570352,-2.928114593830488,-0.8660264321905836,-0.4957405134202646
1700,-0.4394393777744658,0.8670486257223204,0.8728514020017681,-5.3984394221987895,-2.5822998464787372,-2.1914336345390746
1710,-0.4722482619231676,0.8384224013674242,0.8411938419695971,-1.589748297093211,1.78532694658799,2.0253035944489386
1720,-0.43988056279948573,0.8674281996829573,0.8750578690017172,-5.692888397370744,-2.659046133959427,-2.767802655970053
1730,-0.4485220532813428,0.8506949550126564,0.8606019186085409,-2.43903366026799,0.22224539816817043,0.4523169219240903
1740,-0.4599896626001407,0.8297869310125746,0.8417049375196998,-2.5506834626905985,-1.4277055604308861,-1.0619904556912068
1750,-0.43559001617248394,0.8598835698581632,0.8616860508633196,1.980687565679168,-0.5217386406280429,-0.5417894691607861
