time_ms,ax,ay,az,gx,gy,gz
0,-0.8296060912793666,0.3798939047022824,0.45705071448992646,-0.9908875392269169,-0.7555023719490481,-1.8203257042995218
10,-0.8460751262996892,0.364793031071747,0.4397212292567213,1.4091735130183252,1.6739914924463979,-0.06187224969817817
20,-0.8457466052248238,0.36440475321447174,0.4375776858289114,0.7236299129798607,2.0738891136581943,0.23745962306035728
30,-0.8354486716417437,0.3749505367402411,0.4440470724636834,1.3602905559684673,1.6391660447897176,2.016412617447539
40,-0.8179258706134463,0.3991523124363752,0.4640623799355399,1.0282845908097318,1.2124504312407645,1.5532897496560012
50,-0.8197596532445757,0.3918582362152234,0.46261102729810105,0.6984310756144476,2.109877084406591,-0.2186475883640835
60,-0.8059798952182274,0.4017406811848985,0.4769919364493398,-0.4074330257368596,0.3711240794376486,-2.235848263785781
70,-0.8222200974941376,0.38803521800629065,0.4625978502627891,-0.6179493468673726,-1.3010254083683945,-2.283919912888906
80,-0.8220665456119886,0.37909500532210205,0.46109444485527373,-0.13590036984408238,-1.1843613852114134,-1.0448897926762197
90,-0.8330585964755229,0.38017651535155267,0.45046864417219945,-0.39122703300734474,0.4887517019903085,-1.9333624118785122
100,-0.805390867496952,0.4001266910155435,0.4764989994108702,0.5932511500864472,1.7770229899187004,-0.47927751690311116
110,-0.822128002160609,0.38411255397290794,0.4601672506352427,2.173451163140404,2.449016191255065,1.8027719867677674
120,-0.8290038397397587,0.3782869181886411,0.45175636019579174,1.1781040215013991,0.31429371562515873,1.393491668029281
130,-0.800530693048182,0.4123795293577397,0.4780768789605971,3.3537479544916957,0.8594111410673608,3.5339746040329225
140,-0.8401362174131809,0.3632436959234162,0.4332843098581156,-3.3952603965505666,-3.0283202403887093,-5.599425447890598
150,-0.8334281313354079,0.36965712417894214,0.44680708654081835,-0.9354399574665206,-0.204471053239635,-4.2452538638687285
160,-0.8025542232453999,0.40268045932691304,0.48664020918473655,-1.2594133072677853,-2.112025448667768,-3.6558993583402293
170,-0.7950058571121342,0.4041324204016361,0.48181654657077033,3.2062002948695625,0.6219979047614123,2.4170347839917015
180,-0.8317073871353623,0.3772421999611315,0.44441988545768524,1.0387410670344646,-1.1979447532796301,0.7809344047842891
190,-0.8160976169769847,0.39366566039982204,0.4659064072463199,-0.15381659477610388,-3.106992888285459,0.8293767247753666
200,-0.8342048292037557,0.3547817656828989,0.44671306639079006,9.131648197070266,-8.685012253881656,14.959408523568172
210,-0.8299158004776946,0.35911582066626546,0.4564185296269536,18.23842063457301,-16.962495057395326,30.805085947017204
220,-0.8371887693893701,0.36876279914668314,0.47358311388650565,19.812164847286,-24.583459185655208,40.335408376266045
230,-0.8224752548808535,0.3178248265364127,0.6193777924880074,17.7921267390499,-22.695647770333082,48.70382334198104
240,-0.9612198678294887,0.20684262841063747,0.45960185960104316,3.779470968931656,-77.4010397739273,26.681036547251413
250,-0.7529908117341595,0.4485883368214359,0.43979523179817526,16.370261349319964,-89.77289459948815,-5.488829584472697
260,-0.7192207383494248,0.32693498176931773,0.6664972522495355,-11.824501222010095,-77.70218904994516,-30.180987092581685
270,-0.4233880021101181,0.055001369363794426,0.2838536940354136,-3.5113989723647054,-31.092053613190178,-72.20001906237589
280,-0.4671444826488774,-0.005308959790882455,0.2450343905101396,11.386470395625748,28.959406123691977,-122.0431799322304
290,-0.9191252296882338,0.583862972317419,0.6672255668566083,16.618836949454717,37.30413912672535,-120.5265822369614
300,-0.715349799958377,0.7838972069338562,0.6810953771221455,10.687425278708687,-11.997957959358434,-10.917477430775051
310,-0.48021441407844007,0.6497457622166667,0.5711646464934593,-10.117941002395133,-27.750546908739796,46.56631677585957
320,-0.5304444334815978,0.47831406772577606,0.5441464253062834,-26.083093811911287,-3.237307112351922,30.34715803691039
330,-0.618712095848232,0.43444583454143176,0.6010437750101427,-30.799709716343862,13.32225018262481,18.69518425613951
340,-0.7322113733365548,0.2778197211142832,0.5538268598730978,-30.916518318220298,19.692341340082557,12.15168073268075
350,-0.9178941804284989,0.09624988073775764,0.6409555664850669,-19.9159136121142,21.277829318484326,-13.884794870166253
360,-0.7963255938775817,0.43830217448197567,0.5992773292220255,-2.454225755651561,3.300510464906397,7.185825436389673
370,-0.7892710821089709,0.4089469251584039,0.5474764695472872,-10.40022360548276,-7.631142610341695,5.976054682243384
380,-0.8624963952693028,0.5124665955430368,0.28010970122679846,-7.400034723470382,5.96946623150336,14.592114652564081
390,-0.9125203813411533,0.640612406586249,0.20559967055966205,8.883733682595505,30.37319561215455,25.558218671258313
400,-0.8137695643693655,0.5296219501417146,0.7269884294550211,10.062819166971455,68.39925363406923,28.515451732182026
410,-0.6829665319148757,-0.04805573006524688,1.2735196249680911,-36.010615163930815,82.76538418056745,12.802173720738896
420,-0.7972622467421618,0.22574764719775897,-0.03573985664392801,-57.714732593036366,78.69857978776123,20.73121738527071
430,-0.5871734167530902,0.6536141975675538,1.1155176164253917,16.89592537744638,63.70231489962643,55.27506768007476
440,-0.7309144827100916,0.534422284577145,0.3950807507205491,10.587126618335711,47.63222535664663,46.998060710712494
450,-0.8779487257365313,0.3364434902416129,0.5673059844491005,12.676489623466052,32.355877084934455,39.917150104762946
460,-0.8197175355068089,0.4376440814254747,0.42734175580462996,17.130532072967476,12.880823822574392,27.780277537105587
470,-0.8439207177452299,0.39652474091758616,0.47274081487555375,5.579851586648654,-0.6099698953508856,26.428368799238974
480,-0.8316937565726746,0.44663138471664726,0.5197237145949639,13.493921329699573,-4.140376178515202,36.73041649238151
490,-0.910362229409858,0.5220794544350066,0.7153993340379481,-7.461906291042615,-82.57737523617193,59.538571623008124
500,-0.9701268296358619,0.11516823308153687,0.6257584916941586,-27.64234117729001,-93.85753471570555,7.935653308626387
510,-0.9817571765520939,0.2675595680267179,0.46846846072896203,-1.0081935926052306,-101.54299378632554,-27.49254432634188
520,-0.7027043951433273,0.5023851568605773,0.6366394445004934,-2.272841081933393,-67.73483398990635,-23.129056170363842
530,-0.6505363129772901,0.4191044359355871,0.5969395005378026,-3.796897478793742,-64.98407377314018,-30.841207115743764
540,-0.6267285279388193,0.4881345523477338,0.4078226719924855,-7.149018297196774,-46.260893378417734,-41.726548360074055
550,-0.5582349744085691,0.5883562948182148,0.3385342831342225,-12.422454190689542,-4.074770059905411,-41.24564519780032
560,-0.6527424614104116,0.5754805047378607,0.485027396423441,-14.628865044391217,30.728473770712665,-42.31138955825439
570,-0.7131776951370473,0.28192529154259877,0.5893106727377742,-11.683895711833067,4.8201562472112025,-15.211221464408482
580,-0.6985925417868678,0.019391995264951147,0.3873510751696131,-0.4697492118625166,-16.161106273613363,-8.581831268641835
590,-1.169299956206899,0.02334237537275645,0.4512522364228723,33.603231546385544,-23.036111718631716,-16.6656001222919
600,-0.6110929462853054,0.058897555925462974,0.6728843682873623,37.50856764659928,-12.080291265054623,-32.633413731004104
610,-0.22584927023319845,-0.3040602953941845,-0.009336846726948778,55.496696328588904,2.226986882111241,-41.757121812182916
620,-0.8692879366557482,0.06681172497094728,0.26511608511153034,57.81897997635082,14.52918554594145,-32.134071435272126
630,-0.5270595761920069,-0.33443130117492276,-0.3021420320294086,38.15486372403092,28.936154660760028,-29.70392706234876
640,-0.7339381143349135,0.2885027646482886,-0.011077854663596513,-1.7968213579607315,21.66379658303902,-23.682674169039814
650,-0.8296995469502811,0.32991335977100333,0.3167671310459296,-27.127441208966584,40.816824946727785,-24.735075119132034
660,-0.8643686868917513,0.5802480563116433,0.5352394527339746,-24.337786809953972,43.293588530816876,-28.08933260993349
670,-0.8940210528254602,0.4265835823829625,0.161893848566702,-39.8771898626829,47.707044036601346,-17.16265656590082
680,-0.7800668101413636,0.39345610515230883,0.24808800598045821,-30.110252224052132,46.6725419571449,19.096528040041125
690,-0.68732065798777,0.827494045921561,-0.04103941389221971,-16.537745831817357,31.773059471448462,41.19842935557982
700,-0.6178084673611387,-0.023142940278825398,0.9630743233028305,-15.929215792492451,5.919917833038559,58.35005868713118
710,-0.7054583195497457,0.3872584184851993,0.8333519185157537,-10.927459418044903,-1.4821834447362723,62.695791593394496
720,-0.7216866845401261,0.5417025352951166,0.7817249003967855,-14.957893101382403,-8.081100283767642,41.25291168518167
730,-0.7326748088518096,0.3748031673649294,0.5681060527943491,-5.78107614231698,-16.62297283012347,11.052708135280206
740,-0.878649319169041,0.2170704208070513,0.3088284461677715,-6.22562470487053,-11.827096620341136,0.8190399182717061
750,-0.8325101173490497,0.29646563127469777,0.43608859388234145,5.9928180200200885,0.4793505794371228,4.039957207104677
760,-0.8207211784198352,0.38551329665594614,0.49978810728519163,1.9310437132116929,-3.2795514948982376,7.366486494418118
770,-0.7924007763350763,0.3936511801780143,0.5290402492058262,2.3662146684789085,-5.821281016313108,12.965469844771345
780,-0.7994758330398705,0.30916919433981876,0.3551356493640703,7.6575620533902,0.6987034651640659,5.09371946730827
790,-0.8680528563419858,0.16596797087462795,0.021041600459616918,35.41920693774387,30.07752249133753,-19.106964565666644
800,-0.9858468576995632,0.46524687627958955,0.4871467042754395,33.24686650814609,31.203506179087032,-8.709680030798243
810,-0.9077953856866501,0.6300084309210647,0.42282412373856293,5.687585078676638,36.00447495804778,-12.474867167222122
820,-0.749686638879435,0.37794282747222235,0.46057986116413724,8.510957935452126,23.977287021060167,-13.55729903127952
830,-0.8249191524085894,0.5575145058449583,0.6719651375554752,9.207073471244238,25.869589364043982,-15.17422088164261
840,-0.9806046002061585,0.6433375706909746,0.21989566588103202,-3.0252469969579443,23.95019585059473,-9.910318379779557
850,-0.8911554826167588,0.6106160073629483,-0.13193836685398735,29.422981489916804,41.04383286608221,9.26339572564174
860,-0.8081373523880029,0.3347050017622362,0.4010297163483546,4.030197004901751,33.61874102992293,6.7843594461499785
870,-0.7495853198873148,0.24179383157992254,0.9109226561845688,-20.546327681760175,29.816792464530476,14.022556782945731
880,-0.7639698913621067,0.6621517197709795,0.8074013704718831,-27.769416199833444,23.55904780420096,23.636333090603266
890,-0.43556863175674626,1.746701193461862,0.8945538452381926,9.854245666987415,-0.5677146380162035,64.74692753192346
900,-0.5225716633228329,0.6866456775835055,0.9119901694693231,2.705613326862575,-8.500069651008763,35.878566584978536
910,-0.8354693069374401,0.5801858546143924,0.6243575300921325,-47.72727035822856,-5.246950038720882,6.685063951814625
920,-0.8295226322307238,0.334554391562411,0.5183781099261205,-27.587461971778882,-1.898912881356951,-9.271305304532422
930,-0.8614303639197269,0.6309982384882825,0.3401857247167096,3.6213583017535624,-26.715838914423998,22.527337194479394
940,-0.7868396780680013,0.6091863567246173,0.7795105048814491,-16.656219791162137,-13.076628035531591,-9.343591892396486
950,-0.7835617596359017,0.32993249069645064,0.34431530915533676,-8.614601505307304,4.079315119292361,-19.28427383916682
960,-0.8003990082076993,0.14343221449198096,0.26975132847832767,-7.664249898586534,-10.629800466284763,-4.637603833084548
970,-0.8324326371527452,0.2913640762029819,0.3827522461464379,1.5020296510840647,-1.8777248308765828,-8.38046318947425
980,-0.8497304967599129,0.3662930276224786,0.41996828777688294,0.19439551363854024,-5.0189612330505255,-5.029599922569224
990,-0.8274459006759469,0.4056801521955066,0.4538866254767856,-0.1445331259119822,-3.53626589138732,-3.747952231917617
1000,-0.8192119933739003,0.41764278968506524,0.4555524882426724,4.77307037428036,1.7507736496436852,-1.7953615750200038
1010,-0.8201000713282237,0.4174421564078985,0.4615070243800266,5.364710531671999,3.5147928553339773,0.10355130003810675
1020,-0.8390673863882355,0.39257844307829187,0.4372529956483076,1.4951057919013615,-0.8726234702206215,-1.4491458351364335
1030,-0.8269842380866692,0.4092266392547889,0.45075877271879544,-4.3561200761099075,-5.485623672606755,-4.538250794119698
1040,-0.8296944880739083,0.40066280342311905,0.45081301846192806,1.3029203563808616,-0.1200599861294922,2.926116873446395
1050,-0.84185923935489,0.414134916903954,0.46362680654873645,2.1909983673029965,-0.025067864376195903,2.023538500405449
1060,-0.8387799125205282,0.4138927273634881,0.45824089174220584,-0.9614621319010851,-1.6866331028304382,-4.131768098494289
1070,-0.8116016033987414,0.4220032863182588,0.4646292205643882,-2.4285089809167246,0.2772924713352415,-5.665377894516112
1080,-0.8288037137666553,0.39476497709858,0.44583086684820783,-4.396234594880049,-2.9480649268940953,-6.713079724810189
1090,-0.8500956178449262,0.36684388443314603,0.42069270823527033,2.8271777633015995,1.0407631431395847,2.3028160280174204
1100,-0.8314931449946434,0.391139432213127,0.45077515455139194,0.819597492025786,-2.990387395101217,2.034259558974338
1110,-0.8426979698872208,0.38394594159454903,0.43933222777159153,3.736226719037212,3.560221639536617,0.47941364464513336
1120,-0.8236531896266592,0.4016279048834377,0.4556731727096173,-1.5847940093013602,-0.55088369412211,-5.19269746926622
1130,-0.8489071997476161,0.3758061392158312,0.4328596268171637,-1.9611380068145066,-2.4557264513300536,-4.871357528323356
1140,-0.8460659785480277,0.3817448077718561,0.4313216542453755,0.1436492090813828,0.17712153903740918,-1.7256022560740716
1150,-0.8120348927004865,0.4127894843336036,0.46915525006855696,-4.959210647445991,-5.0582167357207135,-5.525570380268569
1160,-0.828318383095234,0.39077480372373913,0.4521395394926823,1.4839824449765022,-0.6287768828432463,3.514920639670608
1170,-0.8145782917737127,0.41090072009728745,0.4671513481430921,-3.562962675359378,-1.3395930919153938,-0.13128562068651028
1180,-0.8240767742461425,0.4002958046689628,0.46518500766690773,-2.752995067188223,0.43092363559503677,0.14899578010788617
1190,-0.8438001359627457,0.3808192106651457,0.4367735210200858,-3.594333565611225,0.5389012758336632,-0.41597542797898723
1200,-0.833199380868932,0.38545742810256456,0.4470994988920461,-3.28949386415851,-0.440558366211871,-0.8927898272915157
1210,-0.8262225487631185,0.3940811116343784,0.45047438829995096,-3.502427372021881,-2.1678391725165835,-2.0096708573296223
1220,-0.8534750939844066,0.35926035549817575,0.42905378736370525,-1.8486010520705376,-1.2309109225753374,-2.2509190236354444
1230,-0.8168637563032017,0.4003041593945726,0.46167506191757857,-0.6749141511479956,-0.9339602309477255,-2.1557690957994082
1240,-0.8154179794813461,0.41760511087233476,0.46891288484986315,2.031553002417113,1.5488607414699107,0.9372778537397722
1250,-0.8175033297985003,0.4023564647553924,0.46317234360542836,2.1845659078555517,0.27494529613999186,0.8435554235477573
1260,-0.8225699113536757,0.396658193940394,0.456221029751476,0.5857282653702941,-1.094323988687318,-1.6509951164895222
1270,-0.7944683111043847,0.42018554119778156,0.4850486325676783,-0.8682622655345706,2.147047153507887,-2.840517379515889
1280,-0.8010335723231924,0.4117118625946645,0.4825698301516354,-4.2340402849932115,-1.3460227274389003,-5.709912321165796
1290,-0.813832386773623,0.3914541933922335,0.46623677139407305,2.145307305066466,1.7833437824101586,1.1789909920681356
1300,-0.8049088077984132,0.4099504251116207,0.47846665173424585,3.587775156996218,0.6409402747166636,2.7389984498793325
1310,-0.8243665447200129,0.3932184330431593,0.45822090380186514,0.09053297070762681,-0.7266639687689614,-0.26409363266403013
1320,-0.8368662535645108,0.3770659309988968,0.442977510475157,-4.345209668804788,-1.5780267078413623,-3.589107792767363
1330,-0.813053929884024,0.39857647641375094,0.4648842192390537,-3.1167752054204465,-1.3553791061186409,-1.3551425586136765
1340,-0.807649704870738,0.40153969006295415,0.4712938033463414,-1.4558710746429178,-1.4558755717537541,1.6728090103543731
1350,-0.8311335794616088,0.3766326941497708,0.44547533215811796,-0.2328655385880859,-0.4361464301800523,4.161657347121801
1360,-0.776199983875164,0.430312333589687,0.49970142720574606,-0.20512751362823733,-1.82242611272551,1.5383666275191255
1370,-0.8372061522182828,0.3769660414423656,0.43689851694904897,-1.8388398793306455,-0.49787580295430955,-1.2588325948488943
1380,-0.8334399845626679,0.383471826308732,0.4463660451728706,-1.1598874423232277,2.5392132756735,-2.0787873696446986
1390,-0.796137423704984,0.41701475998344717,0.4842429478826445,-3.3909611012442986,-1.3889225169366535,-3.492774401962614
1400,-0.835897903678919,0.3788360322296107,0.4413451943506321,0.5250530869506778,0.20071605284162525,0.849433774004702
1410,-0.8393507868188214,0.3774089450220991,0.43553162913024634,1.104450255728393,1.0282359982171947,2.6119328616912165
1420,-0.805656929322396,0.4148103506122759,0.47279960840198565,-2.274363481950607,0.31833329512599573,0.052898232235415725
1430,-0.8104183435878722,0.40033596900545027,0.4593532401609921,-1.007852692240133,-1.135126330178892,-1.6305915869719922
