time_ms,ax,ay,az,gx,gy,gz
0,-0.446726414073814,0.7673638761004183,0.7449840035856683,-2.4095206075753,-0.8839085884074481,-0.7483454428594846
10,-0.4645213289375572,0.7553647111696485,0.7330314069084637,-1.542341458983884,-0.8929045886790086,-1.025004044098027
20,-0.45786842103025416,0.7612512202930509,0.7399794326001262,0.058897960519692594,-0.046846141271647906,0.8417254855778349
30,-0.4684642447629096,0.7492349282382726,0.7236667527573027,2.8603115474966567,2.059563994981781,2.289481345458076
40,-0.4389382354651051,0.7798915080097167,0.7506684341807374,0.6029198199080205,-0.3126159405837681,-0.18113419322363822
50,-0.4662580032458537,0.7512657042156772,0.7255955671253432,-1.4813406221803778,-2.369475345677438,-2.370088219717422
60,-0.45056643012633546,0.7706553399867814,0.7421260638243586,2.4790135959697803,2.3785915155487896,2.2910039496931995
70,-0.45905630102525113,0.7649281230627032,0.7406786500040259,-2.130825217268507,-1.7618704275650257,-1.4854521537113698
80,-0.4651992700227346,0.7481360532747284,0.7234648946098374,-5.193213585652848,-2.6310263645368144,-3.2510045094720255
90,-0.4348202547565519,0.7879933789932991,0.7559895098261501,0.8149166077452565,2.129544802739822,1.3846563588902776
100,-0.4511249988710746,0.7666677550143667,0.7460175505534716,-3.407686175707392,-3.732929995291753,-4.5152378905427994
110,-0.46239524513151564,0.757895816511539,0.741412352325985,0.2702250065450684,-1.6012621998704482,-1.6048125741216746
120,-0.4534999200108362,0.7767406199269417,0.76049030892369,4.641514199244468,-0.37151122158343997,1.2373487068964308
130,-0.4389280011550151,0.6623850028488503,0.8483498728567982,-10.301079393805143,-8.699389808864176,-3.867910550298256
140,-0.4986589914958083,0.6628481771918302,0.8504876305336825,-15.121298763166969,-15.542218566941521,-11.849129727965751
150,-0.5310345374431418,0.8027027414225013,0.8706562941127073,-5.2666787318886685,-27.388255811737057,-9.756811059959649
160,-0.3810493116386687,0.639740504382907,0.8524536593840832,-27.9154314503706,-46.01897766031816,-16.396841140581323
170,-0.2829081002864409,0.6890963886535642,0.7939360163184664,-15.177736230937214,-45.31798604339521,-19.56591669329111
180,-0.25706068579585173,0.7865891888712679,0.7202167712749754,-26.85154446174066,-35.35383217786292,-12.762447687887864
190,-0.3805533261773859,0.8835744577625216,0.6461354718313952,-14.831933187250167,-1.749585693705408,12.952406093593579
200,-0.3955255453090591,0.8808545212755343,0.6928148395115482,-19.090354694392296,6.932699490858216,16.88724107589654
210,-0.5351622316375605,0.7441852505695208,0.7880386582224107,-34.72064128547585,7.621412109597857,12.844504175221427
220,-0.6387914799611019,0.6451430608883398,0.8386787796613745,-39.47855657315632,2.939102375284084,3.69975567811992
230,-0.5621750941720836,0.6862253895751509,0.7046923375623215,-5.211347628044276,5.125241042220572,-4.743440674849732
240,-0.4400193819175293,0.7351394361396277,0.9200743528570093,-17.8639403146719,16.839670474948306,-20.081486684086205
250,-0.3397238836150857,0.7911506017873287,1.1477346607033305,2.4674045590380502,30.500363772994362,-23.693788872518425
260,-0.6415741997231214,0.8047016895483154,0.36711190235107444,40.20955582608,49.5169778620677,1.7791212981858668
270,-0.29679399115984073,0.5799886602779749,1.0428633216420995,53.48175818391992,54.31448656254564,7.122578419726991
280,-0.24352288040063455,0.6761927182596068,1.1929574886978735,35.793436508703834,52.825664840552584,19.275530004672852
290,-0.28193211931255924,0.7826025965180464,1.0625934564465687,29.507487731678857,30.87275947017038,11.68799713960434
300,-0.38318356369057893,0.7048783616732291,0.860049020340025,17.467340330561846,8.724588196048101,11.022020889550673
310,-0.46441485387615666,0.7117779262785278,0.7590960466026693,36.41430015972601,1.3389969685597864,10.930119498304634
320,-0.45916359490378816,0.7346238813583271,0.8017027439216634,67.89385247551893,3.0254192227798837,16.60130564539918
330,-0.44183914458734364,0.5938106267810503,1.050149661619228,34.93288307761905,-27.718034473164693,4.959192576389256
340,-0.43039574845040657,0.7682293024730575,0.898754818354327,7.36913681081767,-44.03015724442903,0.18858713247923264
350,-0.26865345738149005,0.8411376674020509,0.650498578530798,-31.33700030326481,-31.47582540101559,18.94205774160275
360,-0.2747532587765795,0.7860922206949286,0.6156035304625334,-38.02868440602622,-15.94997634836086,14.064434086662557
370,-0.3298972303464556,0.7683063615678036,0.6293631136768688,-39.42099257550987,-1.538635968627951,2.999579768295539
380,-0.41932501841549985,0.8256163016641624,0.7165823514617777,-43.96990744266728,5.174787936741823,-6.770003199312769
390,-0.5777091028970087,0.6718074671596537,0.8497231686606024,-49.884400128468876,-1.8111814878739296,-11.11111539135367
400,-0.4604318965268367,0.5534565783900605,0.8902281844568815,-21.03817259779873,-11.20497222755825,-11.45565543524123
410,-0.5455476370459984,0.9648705077610497,0.4941443963323713,20.57340528548121,-5.66479780411249,-1.5926085871784168
420,-0.46091489066658453,0.5835034283375989,0.6729752503564657,7.821528658280949,-7.7407991846272015,-18.137570636431917
430,-0.47056105681126215,0.7267142807519217,0.830059069456249,29.97592978681842,1.3397949424370408,-12.830622687555982
440,-0.44538261707913285,0.4396078702660325,0.7256672114472817,-28.802451339607774,-5.713866298678583,-31.773648172883103
450,-0.5187913419245023,0.8424767113136111,0.5969110207550314,-9.243448645611487,7.790165986069417,-20.245705654172284
460,-0.47747075678581474,0.7570820890295059,0.753048482940158,-12.16503883268309,10.213763205418982,-15.525160755214722
470,-0.46542292278179614,0.7740327701331071,0.784459268636289,-7.261728443670801,17.031746221480454,-1.1790650851038516
480,-0.47981460289973765,0.8648461159098425,0.6330967306319418,-2.6861175946397955,16.792226771538576,10.816907154725023
490,-0.3716040960191167,0.6354497571480813,0.9330366580985968,-11.98203289487673,7.475119631705528,12.509277094664188
500,-0.36015305922789315,0.7699432566734029,0.7800391292146855,7.431888456657375,10.393727695402898,28.94292457055463
510,-0.42468141696674216,0.5359088733649192,0.7280451936674507,20.093868285240152,-0.23585320622711842,20.499265609436918
520,-0.4389200632745663,0.6333917530501069,0.7696631956985727,33.42938703255113,-2.220557584602197,12.118959506172006
530,-0.45287668558523364,0.6910849297942561,0.7597149962513493,48.30808694936894,2.5784576799430967,10.109882904575485
540,-0.47093864316154493,0.6038160801283443,0.6730046505755273,33.540922207990995,-2.684805518449193,-8.374524177571383
550,-0.4679033875185776,0.9281715350609548,0.6189195422065706,48.279608322373356,-3.9156923279589213,-18.055386514999853
560,-0.5113959243805282,0.8294606803548469,0.6795531857388748,24.25101176925367,0.7801740084815068,-25.52156684943198
570,-0.4569881414913113,0.840480464274254,0.8489436522027206,32.862950662778495,9.50901445652285,-14.998967544256693
580,-0.4258076431291374,0.978437183995233,0.7921962781665145,19.373276800160756,18.582313718141357,-22.1017018912324
590,-0.357910524602227,1.0330327590678225,1.0098035449128646,21.866189919504368,16.301660369646612,-9.25644514008923
600,-0.2815894196651323,0.7696581547786955,1.2397980883953075,-5.669561798711559,16.681579516370565,-4.34733514645206
610,-0.34187205684883054,0.727781314003733,0.9382315103846347,-35.53465368555138,12.67283713970671,19.17196679030411
620,-0.3025175002004193,0.7416262553198151,0.8750727419162404,-50.021076433855846,7.335815337909768,40.260522459339114
630,-0.39177825175084363,0.8149237546728412,0.6706875009577783,-14.49019901270038,1.0539362125954563,27.049247812715393
640,-0.4934767232826477,0.6187454619984591,0.5880007613832718,6.928334183340273,-2.986797364250419,5.425938276101733
650,-0.5262227214112041,0.609379974574474,0.6927497471388154,4.54165011927419,0.9174298826686305,-6.003897897985956
660,-0.4662172734036564,0.7323178994355415,0.7407612624720775,12.35709735975859,0.28021485743781827,-5.9681316158432525
670,-0.4324243258012554,0.7741431591443404,0.7604969385828921,0.03760123414479044,0.8062032502683643,-0.20399460701232863
680,-0.476530722949679,0.733938497692194,0.7319271194921495,0.28498597903529643,2.272377465284606,-0.11649914656377991
690,-0.4526897608339023,0.7544636710561474,0.7497547641036948,4.90317039634459,7.497057006772028,4.0242091322969
700,-0.4589842213302644,0.7499401231399354,0.7389932240216813,-6.0087970261352295,2.1892006735056926,-2.9653012305478073
710,-0.47746136810674494,0.7367096992724631,0.7357411782959656,-13.173443664939287,5.919315147760189,-2.590564976409246
720,-0.46164775943337805,0.7426373725284391,0.7339255837971574,-5.362124315833187,4.6407355093599945,4.5389839642991285
730,-0.43572429006265856,0.7706905294727779,0.7587593462596123,-8.450118050954416,1.90755488757227,5.584122939760274
740,-0.47174903518000605,0.7391728296353876,0.7184045750008592,-9.757226546490315,2.046171807029937,5.056774354045318
750,-0.45937321480106375,0.7489469853777609,0.7429169314583071,-7.183835192754606,1.8882729570335592,3.4878134777457532
760,-0.45181751150897037,0.7487403234590626,0.753030358627586,-11.007409121366184,-1.4106418681292006,1.0533191714055317
770,-0.44618699050011357,0.7542985083684671,0.7542940169760222,3.4033123124158005,-1.0195025301690235,4.154546180092902
780,-0.4339178064300985,0.7760937362108008,0.7555432109309023,8.739943323596039,-3.6013285253754432,0.3596472666902861
790,-0.4377176776507317,0.7815240010636355,0.7539592243987798,-2.169015523863637,0.8236884906997781,-1.9508737529400875
800,-0.48097100958997974,0.7296417839991707,0.7270231891147116,-13.911176277949183,-1.1204703473188102,-8.424560124877258
810,-0.43708896583056767,0.7672133931895063,0.7766278679041181,-10.141855439011872,0.17842343033349706,-6.1085713788643785
820,-0.4530042865182181,0.7280998829026047,0.7360015982330086,-4.342803812713246,-1.2541950800638604,-3.5174303878071322
830,-0.4797523922176259,0.7203825597758748,0.7210695961145666,-0.7042530363867504,-2.601295207610235,0.23924230982723205
840,-0.4574360805464947,0.7425112194587403,0.7409484492095623,1.0778367327333334,-1.56423049498407,-0.4297972611368843
850,-0.4814151435236461,0.7175736883020859,0.7158827551103997,3.6293177023721293,2.4908705000955838,2.998455258358848
860,-0.4643591910302161,0.7380155756512912,0.7443297802798564,-2.3704647807054195,-2.426448493281973,-2.0872892398206297
870,-0.44947997222488434,0.7523402816602135,0.7533364669722613,-4.406006424465332,-2.0071038192319217,-1.176522966690536
880,-0.4461249705761779,0.750108518946183,0.7561123608085041,-12.251671870168387,-2.2010136250520405,-2.4005851028812337
890,-0.4216499670845806,0.7637918353567928,0.7830548375392572,-11.05603009977223,0.21177437306326552,-0.011543104643349622
900,-0.48349086316760004,0.7130798786239829,0.7239824059612788,-13.750526856330715,-4.47812752630152,-3.3623710011165358
910,-0.46138183165075164,0.7274179572516514,0.7481471944482524,-8.760608136141904,-3.5824411791399875,-2.056353139837948
920,-0.45043888818317246,0.7298923470919441,0.7487296172030965,-0.9864532008792718,-1.381434274149388,-1.0159542350889708
930,-0.46823984750035424,0.710027190431523,0.7260824527007849,5.47258999958107,-0.14800256586522678,-1.5520581830361138
940,-0.4536833725045212,0.7303066797909628,0.7450217111248153,7.11634699911925,1.1799104762190966,-0.5447717591052668
950,-0.46800176039587704,0.7181396115654274,0.7313197296994381,3.4680799901011885,-0.22703097504353703,-0.37680451713755525
960,-0.46719236639635353,0.7210135104175868,0.7345697921940392,3.486706351854959,-0.03197988437261168,0.43270039520825593
970,-0.43269777570381,0.7601016440331431,0.7726374660534385,1.4170657620948715,0.5328547504083455,0.8116310987723399
980,-0.4581054550284833,0.7341035932314377,0.7429467911708756,-3.6797978151497164,-3.626625313809209,-3.2677382886813353
990,-0.4950689440897931,0.6892668545732157,0.7120268655683903,-3.53750242671435,1.3845048545472385,1.5629537522308024
1000,-0.45857414722924583,0.7278288676832232,0.7480051478177214,-0.9235219778235162,-0.603109849756468,-0.27031547115539806
1010,-0.449601271122525,0.7379934136068953,0.7575430974438147,1.3761038007310962,0.5581011113312453,1.7664852748614468
1020,-0.4769666153286569,0.7062901316111213,0.7301937279676978,-0.4658356888207372,-1.4157357787620695,0.4235367171438831
1030,-0.45792254651855363,0.7332627025702587,0.7498001776606249,1.909707512620405,0.7167437277984607,2.3082144040130514
1040,-0.45586282119105487,0.7440556045115894,0.7526086281232437,-1.3483062706346562,-1.3134954521772524,-1.8822086774862326
1050,-0.47515427751995304,0.7499447503078454,0.7788061445484585,-2.8781781184774817,-2.8946351987995995,-2.6998593698951048
1060,-0.4654788103143774,0.7431931416369814,0.7453922063923984,-1.3435780510342163,0.6674451207135801,0.03927057787514321
1070,-0.439331647274221,0.7280959071217689,0.7406358959048132,-4.192683796604823,0.3616049645328605,-0.09910374929250998
1080,-0.4737763410917747,0.7060115698615007,0.7303790492521722,-7.041188602845022,-2.8372915626480584,-1.9989051161874558
1090,-0.4512208622223412,0.7357358179750191,0.7585617353665624,-5.672985419411505,-3.302413341925219,-2.10308323429901
1100,-0.4505459205732077,0.72589322284537,0.7451612189803724,-2.1521675176163724,0.2464318806762018,0.06535357160775421
1110,-0.4468028305093715,0.7387242725804005,0.7541449238413297,-1.1806219435841792,-0.8361423657809522,-1.5223667950946123
1120,-0.45936031897240553,0.7240426096507554,0.7373274129300488,0.3074940278437239,-1.4497253542930397,-2.965759127065314
1130,-0.47522002314721634,0.7057618536536014,0.7252344138535525,1.4628914824828207,-0.41619653124722167,-1.9248053212608551
1140,-0.45216604892278495,0.7285788308093119,0.7497686880493704,2.845841825936278,2.0357792752272905,1.2791381640142712
1150,-0.4529046035880378,0.7306012373455543,0.7476777748967813,2.4908040117047308,0.17761073121384996,0.5124953878477378
1160,-0.4130608507305957,0.7724431560047391,0.7921307853346253,0.6387035727912167,0.11123483670852663,0.27506761170936345
1170,-0.45866985367179863,0.726038939459858,0.7430252971327035,2.5119654326493617,1.5839668207127628,2.2631337290197804
1180,-0.45158474372255314,0.738529918551309,0.7497666374162395,0.2183540957708093,0.419135263231157,0.5798922893698937
1190,-0.45972564776470065,0.7332275541515773,0.7455869280478512,-3.9156393503361278,-0.6575623170394425,-1.437167634465868
1200,-0.4598443922264935,0.7208043082844031,0.7410822087929624,-8.768363300358011,-2.4739431209624128,-4.410365943503271
1210,-0.4568226984802257,0.7166605527119659,0.7486758860629253,-6.494753312226983,-2.567278358590438,-4.07370857755839
1220,-0.460901176087266,0.7132665145637949,0.7435184342685152,1.5523268206038094,2.0056088453009724,1.3334614548528783
1230,-0.4833486060596718,0.6976837116371796,0.7233496716236306,0.24582886736341902,-1.0451940914508886,0.16047730822698192
1240,-0.4614415395536455,0.7154025034392851,0.7345436348531471,1.4495279823085083,-1.6074111395891586,-0.47114536263246043
1250,-0.4503062054826486,0.7361745728275143,0.7497406292715837,2.4770356138195186,0.5936633275833525,0.8026928343436206
1260,-0.4457587511795555,0.7331934909195725,0.7555956382206029,-2.3343869685877046,-1.249722906261608,-3.052349394441405
1270,-0.4476463212256393,0.7252317518655653,0.7540568181638723,0.9461767136989092,2.072836901281117,0.6601321248159706
1280,-0.45295420689700416,0.7226603476255412,0.7490958745433233,4.086255088153764,3.347638580695193,2.5287646115475653
1290,-0.4329105158523667,0.7496046952055679,0.7709413786611744,0.956113569251636,0.31462193589660803,0.3955850973283157
1300,-0.47143698619130936,0.7123932780487826,0.7345546540162973,1.9347263691700696,0.7538715475744336,1.4118763156901633
1310,-0.46464985224597205,0.7142317606508534,0.7356809047429095,-5.0682766749293675,-1.453458679231061,-1.9137434539086449
1320,-0.4603989927396569,0.7184850683951192,0.7466203524736594,-2.204489204555614,-0.48151298299577805,-1.019646730294148
1330,-0.42854561775108,0.7491759043898788,0.7740030699819919,0.5739548632454516,-0.20728768655263932,0.16703325331320162
1340,-0.4744813552563284,0.7073739952457274,0.7320860706232472,0.04155920692428028,-2.5300739880740384,-1.4330320723718497
1350,-0.453546680049575,0.7292980577544259,0.7518100557091907,5.874864063492646,2.4787301290926065,3.973439834025056
1360,-0.46747255520970316,0.7143062081875345,0.7320035354097597,-1.6465851962601694,-1.531569806234843,-1.73436125522652
1370,-0.4399820381643009,0.7351026690721326,0.7554917136393375,-4.296608440081502,-1.6894132378669438,-3.2662636660100173
1380,-0.46362906532876624,0.7166791173253002,0.7438840791544761,-4.615197814767976,-1.963176275240703,-2.6478273097890375
1390,-0.4584763316266919,0.7170372419076457,0.7388022772996738,-2.98996327224579,-1.6052202313660058,-1.2852602802701454
1400,-0.46362335225567114,0.7116871161200911,0.743328735728989,4.062374228148548,1.5160090052789612,4.104568781359039
1410,-0.4501809369557304,0.7279315878603139,0.7527858367277558,4.539282287853796,0.03190108677840531,2.759990452759137
1420,-0.41538526589426217,0.7751341716912642,0.7865304714124401,-1.225503681520768,-0.48553462670703723,-1.2341316731690393
1430,-0.44878552775791336,0.7395138851543697,0.7508306790665336,-5.020091803575308,-2.041238278144851,-4.5698349055294
1440,-0.47038559504257355,0.7118546245255554,0.7285484107669625,-4.004977338332973,-0.02170971060988802,-3.057338273359288
1450,-0.44797368844371765,0.7292393189633608,0.7580112154725887,-2.788438135215501,-0.12436558741466461,-2.074728389197114
1460,-0.4791546113740767,0.6995484415622497,0.7264169602124281,3.144512277511499,2.2729498425188512,1.9167712325072646
1470,-0.4244313598144712,0.7621837657559859,0.7698093496456085,1.288220245887324,0.05757203479757261,1.8652088599393477
1480,-0.47844866952338494,0.711890821114316,0.7201323836210851,-1.9085966173381572,0.41266936998878145,0.6871608964696899
1490,-0.4684218831002489,0.7201712615860483,0.7405277990834043,-3.291529860046735,-1.0927190390799812,-1.1240147438251995
1500,-0.4634916166599607,0.718100452031493,0.7382502256920878,-4.884575757672777,-2.168792413304967,-2.4215435838547674
1510,-0.449081620229897,0.7319080208919148,0.7538437875769889,1.6946375111305558,2.190588860743936,1.4581639987989004
1520,-0.45631656430862816,0.7298967834192124,0.7453099626263149,-0.49412952115886555,-0.8226139756875137,-0.7309385147491883
1530,-0.46282531398357846,0.7240795190771808,0.7386873913250999,1.5755972960250464,1.3448674192240704,2.4411627592242042
1540,-0.44039804826590245,0.7503389958459037,0.7696338714491656,-1.353870860079542,-2.33128129890522,-1.5780450535071853
1550,-0.48988187540974193,0.7010670163138025,0.719885033082911,0.8161237321291958,-0.3425428663773031,0.38763554822171364
1560,-0.45400928566839444,0.7304895674081681,0.7482417190622738,-2.13624581772258,-0.8951159695229336,-0.6038503230503308
1570,-0.46429781952670046,0.7229907605308845,0.7428425644499049,0.847650300620147,2.0465934898883376,2.0052852325030113
1580,-0.4445132048914431,0.7419254504783147,0.7632939634319927,-1.559908881302457,-1.837570246988992,-1.0819688448950244
1590,-0.44993459519744633,0.7347731070772912,0.7527140181871783,1.9838755747980628,1.4623272257232838,2.2955957842004775
1600,-0.4543744957552693,0.7297167747633994,0.7456460066407384,2.0860483709332933,0.8283158210646367,1.4218794668439196
1610,-0.4574193727874574,0.7281677820835426,0.7442258583764666,4.786569954508373,2.8285326312778603,3.9064406433649124
1620,-0.45660369220835617,0.7256143499290181,0.7430007015365779,-0.0821814234794025,-1.891456157756714,-0.09026971546479867
1630,-0.44821947300879905,0.7486125724423303,0.7527668014694735,2.306741403208863,2.5452535403380083,2.7353890583468057
1640,-0.4307872491876351,0.7657315852255399,0.7739388090148573,-2.677141018396435,-0.6136865165464814,-1.4142529333860714
1650,-0.4654131387735978,0.7176687986769041,0.7373592158364703,-2.590887900789429,0.3477910192707131,0.32791282013240786
1660,-0.45604049825388204,0.7289617131150541,0.7397377845049808,-2.752586024434521,-1.3041520981610852,-1.2455341713125838
1670,-0.45500872041842055,0.7313247889831614,0.748026695285817,-0.45441115903123463,-1.3859093084071417,-0.5132969080480039
1680,-0.4670406710517482,0.7234917548465722,0.7351130847955462,2.6409497189810685,1.183277505242698,1.9312936279512893
1690,-0.46801025980432925,0.7248077396899187,0.7326039847243642,2.0700378850080225,1.4692272083924982,1.5796502661492886
1700,-0.43637545374296344,0.7541277136892736,0.7629752707046654,-1.1820070186313771,-0.5660340155741734,-0.9673189639878406
1710,-0.4788608098077023,0.7118762755286713,0.7203843729837357,-3.5549667159136993,-1.0393692025775036,-2.2195872366956895
1720,-0.43813238074287086,0.7482912026340214,0.7665082703039763,-1.28268262949517,-0.11334712036641387,-1.1889630138012985
1730,-0.45139548109766553,0.7315080392838245,0.743903128180436,-1.540508430352139,-0.574471519199309,-0.1885781207386953
1740,-0.44666160140040245,0.741938445410647,0.7499897375405962,1.042030709766098,-0.09046851094964731,0.49498266538249036
1750,-0.47450026733026573,0.719377558702169,0.7309878558229935,1.8580923990002365,0.3575227605829057,0.4739621334073137
1760,-0.468104707575342,0.7310806650324612,0.7392412276394001,1.0728306380169292,0.49510524727003535,0.6227247827561605
1770,-0.44304704587243926,0.7491062211362549,0.7605824075352398,2.014588447165744,2.5095284482994193,2.60892799663987
1780,-0.45257218392858395,0.7290644935812788,0.747294252728341,2.545795472997666,3.278188867350527,3.5788757110292826
1790,-0.45160491934790115,0.7394763597867224,0.7467431114479905,3.245838366089478,2.5251406455254335,2.396910466607435
1800,-0.46854873686468557,0.7276801667702528,0.7326027935081363,-0.04452964399258806,0.4828319839740677,-0.783117641868949
