time_ms,ax,ay,az,gx,gy,gz
0,-0.5618864126807842,0.7922063909133872,0.6740796328536522,1.799411520811171,0.8543362444909492,-0.16900047438790233
10,-0.5489109386422348,0.8033469621239729,0.6843494613765021,-0.8140402666288331,-2.0550021744454092,-2.384557349757074
20,-0.5615349242474423,0.7950516217698274,0.676835192014124,3.015217869137603,2.155379896172889,2.2914240029497353
30,-0.5613562582701157,0.7961793236726917,0.6782354987411848,2.191654979522713,1.686207124671586,1.8799265868270243
40,-0.5778076917549148,0.7819073610600366,0.6677925468941506,-2.3921491410316755,-2.318296112131327,-2.5047543872581515
50,-0.5790419619606338,0.7788800991646125,0.6662825138068436,3.7384837196221774,3.357730967106264,3.80164129313285
60,-0.5583665490015494,0.796153775824102,0.6779530977758822,-1.3062654443729276,-1.5916914992444011,-0.8280777823537449
70,-0.5711668833880156,0.7867186108956283,0.6651693925634324,-0.5771020029444948,-0.3154088045331809,0.1645599983474163
80,-0.5749786892137592,0.7859222569284413,0.6602911619064474,-1.299116304928737,-1.0539640069662417,-1.4829896143519081
90,-0.5476131050187133,0.8084506982222208,0.6921965066571046,0.3735850004885812,0.6891689983991652,0.044190748706898986
100,-0.5984784387196517,0.7523862762690245,0.6401535564161209,-0.9610080411078094,-0.9049197185078528,-0.8332972901333373
110,-0.5397382538635997,0.8114718680022476,0.6978915423246642,-0.00802210673811904,-0.29944165501113074,-0.02055531358874635
120,-0.5430840344598047,0.8106530964167854,0.694506774375321,-1.7498430642828886,-2.230836455692385,-2.080518905545283
130,-0.5874436820666287,0.7744394541282026,0.6585568752693817,0.9832718849444229,-1.3893390485962875,-1.2856735418287344
140,-0.5868233430075389,0.7789052776072588,0.6626926385752862,4.70092910794476,-0.5290011617384847,-0.4278414409635797
150,-0.6014598266205905,0.9132192969425408,0.8496557301404917,-6.933793712013968,-12.617245821222014,-12.336048560051832
160,-0.6881390428443566,1.0654690674043756,0.8491651662443419,-15.076465996460723,-25.254524229227012,1.0784155405613018
170,-0.5906985646230954,1.0194897556158873,0.9685929759313013,-36.03268259731233,-49.32865758300646,14.912493308051816
180,-0.44924413485813675,0.8323460495155312,0.8322119408318345,-50.13319712294803,-59.42983205070075,20.115555666793092
190,-0.35771314690144335,0.6665919745478089,0.832176582931629,-70.79336528873708,-68.62285442111192,8.288119957533223
200,-0.34430593515227004,0.6343020690782324,0.7174433500529662,-82.9021026136936,-67.87094512176682,-10.617203201240795
210,-0.44756804603814754,0.7909791421332308,0.499726144536671,-75.69706028986441,-10.139948779871702,-24.022440674051776
220,-0.5446220812713213,0.6157856262122707,0.673559507600224,-45.68644553423419,7.279018276192385,-22.602390067541023
230,-0.6584562607576682,0.5455584441285953,0.7114048078064078,-43.23674996350104,6.74777791444342,-33.176071140436335
240,-0.7804971292536476,0.6099748982495105,0.8014294481826398,-24.38470080503688,6.315222475300272,-31.935981593752793
250,-0.7129958547362331,0.7563515798848899,0.7772296943543786,-5.055093315004674,4.459620154687192,-20.627337463056744
260,-0.6451993441272076,0.8195680837890048,0.6931301447945943,-1.458979352908226,9.755947116352015,-11.559964133816779
270,-0.6410854274478552,0.8653178717400278,0.45413496818891597,19.864581799421813,34.91556986274519,2.962681689736452
280,-0.6539661203862498,0.806347254710741,0.5154744326179057,63.354473929881784,61.035638832003364,24.380603883283733
290,-0.6173906171391914,0.7262703315529997,0.5981341556680628,96.39521860501169,62.649822364571015,36.541105732595554
300,-0.4441860738620585,0.7191144737984811,0.6566507223905191,96.71473223150568,58.76604917679991,35.197978817705106
310,-0.5144608617098237,0.76514680650623,0.8737366849181496,42.25195930765519,40.952421812275965,18.66362094347629
320,-0.4636962806218026,0.7905890099516327,1.0133491837692628,21.639360755566287,23.890442709050333,10.140248188167982
330,-0.48604723984715753,0.7193193312273866,0.899355250728928,11.302814669850758,12.439816094845796,2.2995981826636065
340,-0.5435943536792606,0.735153477662429,0.7566033298026426,12.62906953389521,3.9739821810545695,-1.392381069159136
350,-0.5591929067698643,0.707305327482391,0.705920723472524,25.789147161811044,2.2699937442652747,-0.3255680869967654
360,-0.5882374247271159,0.7131664042455829,0.7520962611830193,44.03837044449419,5.033347634663252,10.276530066451503
370,-0.47237996233290824,0.7658555026695897,0.8325782734569103,21.47954154970606,-15.89422482279454,9.36194148779293
380,-0.6269284170039207,0.7390414645587399,0.7659978678586017,-37.572553961544656,-37.02106430262963,7.383433552329473
390,-0.546306398791915,0.7997180787793589,0.6952154994613254,-32.06060797406193,-39.410063554184106,9.393138652662538
400,-0.48885303644148626,0.7889186219069434,0.6720348815600935,-26.959675028685695,-33.056488114441095,12.79752326147934
410,-0.41503211900576326,0.7546393567543838,0.6255354384349806,-26.539520068617065,-26.296113771883387,7.750383103518116
420,-0.5118117162046388,0.7551054460249256,0.6307444020096866,-12.227407612649683,-13.34549343677579,7.918212253520078
430,-0.5333880224132223,0.7427917637724472,0.6476257552916469,-10.43060075988538,-10.398896457606249,-1.3091810000969129
440,-0.5992369452929025,0.6638012195201989,0.8600633161390873,-6.275189225817497,-14.596656953130971,-17.026916536275785
450,-0.500630211402546,0.5667225774593743,0.9413420515773843,6.83317657457016,-15.212837447984171,-24.028079099479868
460,-0.5908978368057585,0.6638102693323851,0.7805245234151965,7.3016784763968,-6.39712110829079,-27.276803004843906
470,-0.5837195645957732,0.6444452742136032,0.5799607558952854,-2.8334804521662074,-2.3403654088287382,-29.809106874896504
480,-0.5076360744914827,0.7918988904194456,0.7445351566558488,0.41246012356496964,-2.8884317778991973,-31.6925939032214
490,-0.5833370619844588,0.7815064856122224,0.7444814933272381,14.68682029778788,8.392120482140465,-15.903907321808035
500,-0.5796993547868036,0.8331181461083996,0.733862780006508,12.076900368500842,15.836734594595749,-5.407674418838419
510,-0.5419101507899209,0.7790431729789984,0.9003987301289728,13.885470730795518,18.333788808924403,-1.7918750450227403
520,-0.6081017943317445,0.7357458571326422,0.8086116681399804,-14.998489199353585,10.624168663831194,-3.7295701751086803
530,-0.5590797231516275,0.7088358097464137,0.754765201635638,-9.151226416253314,16.945845347644628,9.649737928573686
540,-0.49761059046421846,0.9062574472640031,0.8684095602760703,-8.884776312143602,19.850204821372103,23.71720600123766
550,-0.5055648191135167,0.6528010309066573,0.8063879499155951,-15.429341154969443,5.9192230518518665,24.88648294035663
560,-0.5131517122354998,0.6957861995840877,0.7561961611889683,-8.099149091511618,4.924086429632519,30.70557115959801
570,-0.5514932802622624,0.469312048531578,0.7540580901333519,-15.53565878805613,-1.5112362461480064,12.332212556807828
580,-0.5336670271123152,0.6467363317604654,0.714145606258546,6.112556557496223,0.7021097588864611,15.538982008132626
590,-0.5524113472108988,0.627930450516213,0.7287110398497961,20.440036594260253,2.2505845504233037,7.29195824152021
600,-0.5259192401894512,0.6784445900975151,0.7521103218173633,23.041551432199142,-0.8442328190449234,6.141130164944426
610,-0.5505082953542845,0.7222893929029057,0.7277300963805431,68.28430385444547,6.661191962925958,-12.844669339341342
620,-0.5955457427339708,0.3182536642290103,0.4363400446998047,65.20500699538528,5.973987680410194,-25.930608523030866
630,-0.49954797704402376,1.3578634907640441,1.0304700766522579,61.434439813462475,10.835643109483636,-3.414326885869055
640,-0.4819020455797754,1.0751753583546615,0.8597089210183912,20.26721363255194,10.29620906805115,-13.86090438569315
650,-0.6286253111087012,0.935681417884906,0.6653362746799822,-7.1001059391235435,14.021590503758933,-13.85866701873186
660,-0.523810708692176,0.9923985590181218,0.767548248705746,13.84322493834686,20.106874347168656,-1.147502427222706
670,-0.5066052378859066,0.9267346122372894,0.7208201823302529,-9.820194460315024,14.420084348087503,4.572127425908225
680,-0.46885828646552863,0.9811383515236889,0.661783501390794,-2.3712097897432027,13.463501756599983,19.947772501066694
690,-0.4203716060984934,1.0856113834549688,0.6074907004225172,-5.3724571952556825,12.71758650428588,30.5141617452168
700,-0.43145163749606646,0.8470473285202504,0.6794365713104298,-14.001881287319057,-3.557643685046601,19.328522157065926
710,-0.5861245843147289,0.5828516528772264,0.621166275202867,-27.66186179047864,-10.89421593490609,5.719863642405647
720,-0.6405284288472332,0.5129402266574414,0.6584093349154229,-17.261345407763887,-6.152427153531766,-0.5869996787559981
730,-0.5743125964271765,0.6318698633574267,0.699307479110599,-6.820152329835062,-6.894083947635757,-5.2800902916289525
740,-0.5625915386641228,0.7172863109316137,0.6931558734881954,1.6574116905033758,-0.534389152933507,5.214864040430433
750,-0.5459597824501788,0.7591084582444868,0.6995577187659829,8.969155695465982,0.9297932756451994,13.50552439649004
760,-0.5452452654367664,0.7787467210014268,0.7025527873890931,19.334962149353235,5.733434262346199,18.473072225696637
770,-0.5728681829256287,0.7905664107984912,0.6693656430502701,20.680741505468777,7.227395917943666,12.451157078243037
780,-0.5803587361060394,0.7951275255089922,0.6669838425901935,-5.302455130905915,1.45176642899752,-14.597074396501053
790,-0.5776955821997586,0.7764536950134592,0.6748227732665817,-9.907835558201887,0.5062023671506817,-16.720457172284046
800,-0.5751449128015214,0.7610508629053937,0.6706307643627508,-6.734378542923346,1.213160183659937,-13.928280926659095
810,-0.5541876302399776,0.7849625109983648,0.6822593759243715,-3.5408511900765314,0.9481977872390126,-10.223705572983851
820,-0.5679533146090819,0.7807140518913946,0.6717380426699905,-0.9469265045838298,-3.417886671062586,-12.683627122147987
830,-0.5657240590231155,0.7638795470495227,0.6801012380808985,1.3686894977024302,-3.865714456044093,-14.232916236701602
840,-0.5379066675334593,0.7769286140428763,0.7131624539819781,1.8808082684310452,-2.04591072061932,-9.233859118640437
850,-0.5168261744479733,0.7900791524242472,0.7325689491167746,12.485092665381519,2.049684366308908,-0.45744115801717955
860,-0.5805214220080037,0.729737431729493,0.6710715634035306,13.46923038730458,-0.4997098870709875,1.1952751359998073
870,-0.5757397106137921,0.7449697548745016,0.679968461952165,18.96330217008066,4.924914952267123,9.302826268891845
880,-0.5776771217732689,0.7520620256966886,0.6737280195345692,18.272507939012623,2.081067279942754,8.679469008840284
890,-0.5600540687842708,0.7769821237272156,0.681409570761195,12.39541503242248,2.6061166280992536,8.610454931400136
900,-0.5809927493783255,0.7734269026505743,0.6669933637939988,0.7902660462307887,-1.5012540652074393,2.3274810171872824
910,-0.566751203341183,0.7797737491062625,0.6765086841766603,5.214911936443379,-0.7358227299979287,2.600596700322592
920,-0.5431132052807716,0.7976455547859782,0.6943937274785619,9.296417756169753,-0.23525526797075513,2.0112912644616507
930,-0.5448078111235862,0.8119515166346788,0.6937505938541608,3.2577402149935013,-3.431043735675931,-4.360267857113568
940,-0.5762072595225266,0.7826581550271702,0.6701964084617703,-2.9097424411998567,-2.3537263029866544,-7.444011796010142
950,-0.5607428161544046,0.7611307927526686,0.6854305152161062,1.1917512926161016,-0.687859074188234,-1.9899342761839571
960,-0.5520523980591681,0.7757757379417267,0.6855519660603563,7.411549756366374,1.2052544619784984,7.1168009065329265
970,-0.5381245274112803,0.7847545062706128,0.696529773149747,8.5002489412806,1.599844277920953,13.617732656807334
980,-0.5477500949110845,0.7842059239919198,0.694269659069673,10.409090911340668,1.1294513841173421,19.176305489559116
990,-0.5323166374195398,0.8120768121611165,0.69709044059838,8.821855359481573,0.04322760448519425,19.970404152233286
1000,-0.5589502030311112,0.8016336933259117,0.670932813733805,9.40072793355398,1.4434804907492245,18.86894521891085
1010,-0.5670008970587487,0.8050166880037335,0.6665116851719683,-2.2379368398994934,-0.7085422141548148,3.591357424086103
1020,-0.569224617528174,0.8066932004096293,0.6812280053790571,-4.598763671843474,-0.5861500565461643,1.6875156344953854
1030,-0.5583059703388981,0.8035050768067387,0.6801541318123924,-2.4413178724760733,-0.2554414807385601,2.291927615288085
1040,-0.5635820392821181,0.8018131285020977,0.6651493059039553,-4.389661759662964,-2.7796663452437325,-1.4070280503386603
1050,-0.577391605129342,0.7916019984396719,0.6620497452348819,-6.7913923901485544,-4.073754801182504,-4.985694197552185
1060,-0.5913405017910313,0.7745779156019976,0.6525659472652814,-4.901787201445092,-1.4354729122438095,-4.958272112859406
1070,-0.555412024515217,0.7922876717345861,0.6857091167967607,-3.8164200460445006,-2.3951585756102283,-7.418663297467433
1080,-0.5741733871702445,0.7682012407700133,0.6627720076312366,3.9308024211798935,1.0506653135959936,-1.5159401925747351
1090,-0.5923436998883749,0.7512188824034997,0.6302132117306051,1.9700180576381425,-1.5221292254193723,-2.0053082114000564
1100,-0.5339842735584396,0.8204841485579083,0.6950661786904077,-3.645084341370115,-2.668623748978884,-2.9713376217967102
1110,-0.5990017661500641,0.7540323937916791,0.6396854424318862,-4.76723971914074,-2.2343032865569343,-2.7517332596346247
1120,-0.5596848370246023,0.7929311432068517,0.6883963472567183,0.857747378912976,-0.7691891549453418,0.34884062482441125
1130,-0.5568346203918325,0.7971640341497457,0.6906417855176007,4.0881051672907756,-0.13101317237073695,3.115585837252851
1140,-0.5833374615568598,0.7787551483963759,0.6604600564720093,4.106805501633931,-0.135448949153285,3.6780175776175152
1150,-0.5561102226074565,0.7950191416564905,0.6764344165607366,2.205927501244851,1.1836634342338161,4.8388454695680565
1160,-0.572427683763072,0.7775330775103909,0.6661730650424575,0.37962340964951413,0.6170260872122704,3.5265485271174875
1170,-0.5518252109721555,0.7873557481356287,0.6746579483145485,-2.7722978606424165,-0.4770594548544016,0.6350799336529158
1180,-0.5498189452199139,0.8027103776091066,0.7003089382484335,-0.652604851847852,-1.253382332861133,-2.075550047239721
1190,-0.5785681737286636,0.773012509035495,0.6709007093503196,0.13552150664168228,-0.7556501059722089,-2.0848041634103396
1200,-0.5690213803840739,0.7910224559078091,0.6674443138923215,2.9083925672328026,0.8386622851368581,-0.3718269901755249
1210,-0.5542047118927075,0.7926829315446902,0.6750729317944294,-4.975039154028364,-1.976572693414981,-4.405168188866533
1220,-0.5709796683068132,0.7826234683031936,0.669731093698054,-6.698050843104114,-1.2243497216056565,-4.908542138725327
1230,-0.5467196788071179,0.7957850525554769,0.6971922676310642,-4.598558752597159,-0.39197219741998496,-4.28294457623793
1240,-0.5794897054884206,0.7536614122477765,0.6598560604686591,3.658563879595177,2.9584199740666084,2.5517228047993017
1250,-0.5515050834866794,0.7918201173007399,0.6835914939855009,3.447874445592058,0.3322104275668094,2.2688388335639114
1260,-0.5622355278252426,0.7877158780914286,0.6671800933975949,2.006868150727916,-0.11712521174413482,2.142067185908738
1270,-0.5901085148834853,0.7713198141418668,0.6533908090738625,-0.7358283688574825,-0.23402713944713005,0.6350504258871628
1280,-0.569967532713153,0.7843229869281385,0.6750173423986452,-6.390628535042273,-3.749642355105472,-4.407909069396302
1290,-0.5534872034523591,0.7787763140870653,0.6865317338721103,-7.184055225861862,-3.225872331681983,-4.708741909752365
1300,-0.5476597572176446,0.7788837900196337,0.6937885125414119,-4.406640782010057,-1.80692775094763,-3.5987497658695666
1310,-0.5306104819134638,0.7997260111317492,0.6973069677638501,-1.7422594940779041,0.8839379411467243,-1.9050151905016248
1320,-0.5867391201614895,0.7667997170033004,0.6611265235719983,-3.710364331201864,-2.4804747772384363,-6.423563958823799
1330,-0.5485215550913798,0.7950869625048748,0.7032540082618314,-3.8677325739362027,-0.821208209976766,-6.517639206830722
1340,-0.5636159315212533,0.7816487552709208,0.6896271269783587,-1.4042511507103081,1.466023469124604,-3.7615429234558
1350,-0.5417030748084884,0.7939936532963588,0.6960514130604027,-3.8132215949488812,-1.3404407346972145,-3.5988119288195435
1360,-0.5765124263400562,0.7522606634444955,0.6647880991870786,-4.6365012733596975,-1.241368901852598,-3.237859915334945
1370,-0.5544732912640014,0.7747819396490595,0.7017173996615689,-4.557354432610896,-3.3984755498565864,-4.636445798389786
1380,-0.5645492756071248,0.7693858617184559,0.6847670351753178,-3.336117289631428,-2.9284088920328175,-2.863075739412557
1390,-0.5571868457029171,0.7682324679285057,0.6883179249922563,-3.5194262225668673,-3.7751504915677736,-4.133748549074742
1400,-0.5502568091925875,0.7931103166025655,0.692922325002787,-1.9060567614233392,-0.1706382442204013,-1.709189800167657
1410,-0.5656246663326616,0.7496999772166758,0.6789646020487747,-6.797340161105505,-1.4916483126717952,-4.990496963035995
1420,-0.571483049743815,0.7491486658044716,0.6874103011363503,-3.1807873044581916,-1.0484566336548586,-2.1563985482737484
1430,-0.5754745371762268,0.7537432078889885,0.6898828161370569,1.5122682313960416,-0.060198855628174175,1.7545163892654527
1440,-0.5757497274638226,0.7652431810884353,0.6850353829431186,3.2917553422129866,1.3215162527597586,4.429258328496795
1450,-0.5737260311665233,0.758029972471691,0.6834548646866792,3.8123862080732653,1.8211988653266287,5.493010371554826
1460,-0.5798073306698966,0.7526794212738348,0.6778201653160328,1.7402848561856672,-1.0205028151376299,0.8668957775526853
1470,-0.556414382661771,0.7820668046791099,0.70518031829549,2.1636010827359318,0.8014804790960554,0.03511770417807436
1480,-0.558800260891924,0.7742054012823156,0.6950756596243868,-0.34925790739244994,-0.22381395664067483,-1.5926989051704206
1490,-0.5501435990596036,0.7768293962232321,0.7018179070394971,0.8113810367047073,1.2507002690644915,0.5308087005459889
1500,-0.5381641829388164,0.7889184294979915,0.7137150462504017,-1.4874821664889275,-1.0012218235545993,-0.8982992604705138
1510,-0.5560200211839211,0.7722943577136173,0.6993582074844095,-0.26566202969101005,-0.6557020776070918,0.33286234278327126
1520,-0.5705101446751191,0.7616906779229379,0.6840680758418017,-4.479033269926891,-2.6376738379314477,-3.3533297391719707
1530,-0.5608181027649484,0.7807771241919929,0.690819099392453,-4.651885566040453,-2.4187637534725495,-4.321596572755267
1540,-0.5713878892752311,0.7505219176517505,0.6765002008717427,-6.157564780431028,-1.430746418045822,-3.512192680201224
1550,-0.5625428533279513,0.7509196730940173,0.686541564053651,-7.134853229025823,-2.806560412307444,-3.6816454545817745
1560,-0.5860282902669702,0.7333091020499986,0.6775475505641132,-4.269075855942752,-1.4082351621089573,-0.09131687294719529
1570,-0.5447997330199724,0.7780321476198118,0.7138600401928135,-3.2423538210284333,-1.4280168330180072,1.3078488074270915
1580,-0.5453788202114223,0.7745102133619334,0.7118500971385775,0.9774642319108457,-0.45276884788744653,1.7493533705358326
1590,-0.5502284794770412,0.7776533632158606,0.6923319603924571,2.4381797680608117,0.2042635743001503,0.6906147721056369
1600,-0.5542130040738328,0.7692887073921651,0.7003628423782919,-5.874651841504592,-2.7346818921901703,-4.334635356335276
1610,-0.5726397171722797,0.7565416502863725,0.6936034247319136,-3.2688578883446935,-1.3625248233655323,-3.1071565219414956
1620,-0.5679673785946412,0.7564824035447655,0.6882498996400791,-0.3530760201188882,-0.32134587679324855,-1.2798642828691058
1630,-0.576161898455979,0.7438498926940976,0.676695816553202,2.0747992371990156,1.2652837532260257,1.5852177051846017
1640,-0.5803900095993091,0.7466257676553395,0.6732005967089747,2.9804124892375063,0.4623122679176859,2.110404837935414
1650,-0.562356732857432,0.7633970090082504,0.6900460397135331,2.926239765790155,1.4037550036684174,1.703364698407102
1660,-0.5520289568894715,0.7755062283658593,0.7038826601610726,3.606889066893805,1.737026702336754,1.39637594478125
1670,-0.5651526926995882,0.7641734880946144,0.687853090189597,2.2549066925862227,1.4652402885300906,0.17295356341565526
1680,-0.6010182454832952,0.7265348552624825,0.651069655763008,-0.4151986099636099,0.22803996676501156,-1.3410260287432452
1690,-0.5931878796878237,0.7348719648123623,0.6605598022699528,-0.0488180009271485,0.907853294446125,-0.8206083403073978
1700,-0.5593044065609528,0.7644180528877466,0.695370850192748,-0.6197706825356694,0.12991083902269762,-1.701870514858571
1710,-0.5697030798333843,0.7513526572558369,0.6814452476802833,0.18037412807221798,-0.21131106386257736,-1.6439019833212303
1720,-0.5639497830729276,0.7615624709127677,0.6888801657068901,2.7777139949222196,2.172433479536208,0.9357944018978016
1730,-0.5433615384530868,0.7885059749366011,0.7091916432687236,3.3225326622036615,3.0282189803091226,1.2484153120834514
1740,-0.5831142759371335,0.7473759076957895,0.6745463976806663,-3.5317309132043406,-2.46017284931164,-5.47818499573817
1750,-0.5440153486514022,0.7700059392135522,0.7075836771991176,-5.272799648663277,-2.696362322900148,-6.353216718018204
1760,-0.5602030015792636,0.7436339998876972,0.6893583915824766,-0.751689032583161,0.27166210801235824,-1.0905842605258234
1770,-0.5516598947957655,0.7532680530331743,0.6924102589489644,4.116067835034496,2.034891628587178,3.713888534456343
1780,-0.573002688560158,0.7474564830253201,0.6871282714164408,4.146520410919703,1.0536281145223991,4.046721268146577
1790,-0.5915749922369021,0.7348148948684734,0.6637420709061613,3.135383350119004,-0.44271229125212463,3.70718568690497
1800,-0.5726253709100068,0.7576154722563624,0.6854656982327528,4.5529279208352555,2.0417352767879255,5.193291508901492
1810,-0.5703690594656735,0.758951051793676,0.6861945296168811,-3.310217502692052,-0.9691848987726013,-3.119241346690865
1820,-0.5495168235965797,0.7750043669025296,0.7056327032354306,-2.3075347999048503,0.07729867360038167,-2.2499946258201735
1830,-0.5592022360040446,0.7587724302089709,0.6905942154059671,-1.4266306393579944,0.32828645757861424,-1.4410816429316045
1840,-0.5530939908925325,0.7668094779241489,0.6968414613982525,-3.7181104043277147,-1.765243804902997,-3.5006963891625515
1850,-0.5706295480269564,0.7453422571102243,0.6789536179407004,-5.213303624467805,-2.331450235649,-3.5634084453893444
1860,-0.580091162308844,0.7416509076411623,0.6749613986051292,-0.29035214679420696,2.0276452375607015,2.38193863701528
1870,-0.5631452114099831,0.7582387076666884,0.6937424388706505,-1.1672924021743885,-0.2413020878842068,1.1521129348752128
1880,-0.5301993911310341,0.7881781992422634,0.7212162161654797,2.3063198454332627,1.8312010299672674,2.43398434597756
1890,-0.5483711245422402,0.7729725111336311,0.7042760018935625,-0.38195729247157595,-1.5739927918371004,-1.4093289239257736
1900,-0.5508992171343934,0.7718254351855864,0.7064533322166383,2.926080175926126,1.7087557995424816,1.730202012734772
1910,-0.5805957825212368,0.74343520260587,0.6752974589461089,2.428450547831685,1.3746281849502784,1.3968450114550455
1920,-0.58568042624897,0.7342341333251331,0.670895198103668,0.4784391562008782,-0.5038736028798356,0.03774415562488975
1930,-0.5682116250270725,0.7546598581335919,0.6863291223263734,-0.1022535687715811,-1.8285070304780662,-0.6955532840583663
1940,-0.5717964074188118,0.7529919096641866,0.6766555898653591,0.5255102546375391,-0.5544014431491147,-0.2598352488869295
1950,-0.5475325253991389,0.7781387951765538,0.7063410424132629,-1.2021732298982282,-0.1578771862595635,-1.059483177728499
1960,-0.5551696687818481,0.7647199188539651,0.6968818902676027,-3.1446568366968437,-0.9121772928006634,-2.8194120344475073
1970,-0.5731663693392609,0.7418753475261656,0.6800558374050726,-2.7716317563551134,-2.0518712589590113,-3.4413437006870704
1980,-0.5450468154627804,0.7733567322811455,0.7138889123204231,-2.564210925848056,-1.2996501161840084,-0.19045289021095213
1990,-0.5394797740441846,0.7749155572222052,0.711897692871986,0.9783618989601113,1.7807600003510184,3.796312143076076
2000,-0.5768473209333715,0.747442486484261,0.6766103368962606,-1.526982362809919,-1.7763788509646512,0.08539657716988369
2010,-0.5864319071074909,0.7394205893503046,0.675943731544825,-2.384554445145071,-0.7994648202081696,0.11544980430777985
2020,-0.5635333580668499,0.7588745362557759,0.6904489017570917,0.28207739053916603,1.6156435499804882,1.9018825060051756
2030,-0.5629485254920256,0.7595861313234981,0.6883616711563989,-3.268906934227724,-2.4182463438073083,-2.641254717037068
2040,-0.5593005340354552,0.7566432816455293,0.6929660250107786,-4.603202812502454,-3.822031579584099,-2.998243000464794
2050,-0.5543042742829072,0.7603583721182132,0.7009266080979616,-0.9747575524282232,-1.1702339196896712,0.3244094507700781
2060,-0.5806235922061124,0.7385928637446687,0.6753608006039339,3.8474057922929874,2.3680332147003345,4.387546046378665
2070,-0.5680480242613658,0.755819258137381,0.690083249618734,0.7426818084471203,-0.7193118936366394,1.063149452361218
2080,-0.5802110659922561,0.7426306379981731,0.6742512887292815,0.21396232987690977,-0.7819357887590216,0.47371218877162424
2090,-0.5415339262065675,0.7808286888205651,0.7132132858010106,-1.143871878548536,-0.6140080319162624,-0.4722887899640449
2100,-0.5675598939896368,0.756208325997438,0.6881501932792766,-0.3009143164500192,0.5461904080629202,0.5835192265394616
2110,-0.5734109146335961,0.7454980236716221,0.6853216666944296,2.3017647667659125,3.3470909376137663,3.9455199875717013
2120,-0.5772263337569579,0.7423316054273099,0.6761973730751029,-2.675917324935166,-0.8881110338641852,-0.7126695671316102
2130,-0.5825744826172914,0.7375459196375321,0.6695783442097348,-2.2363516396604934,0.2516871083313917,0.31459801853240066
2140,-0.5507921210636642,0.7722419547867254,0.7049908978537247,-0.1973022558801958,1.62594825065872,1.6987173286666335
2150,-0.5806870094552802,0.7437429002129979,0.6773762524264433,1.419162430804281,1.7273898518465387,1.9985029047436789
2160,-0.5412347374323663,0.784328499941528,0.7145741685636664,-0.7214108925922144,-0.5192173537204829,-0.4918181421055056
2170,-0.5413158857083016,0.7825426741598753,0.7097359626589864,-1.6915751329098025,0.1671969773108122,0.12388676638444236
