time_ms,ax,ay,az,gx,gy,gz
0,-0.7467631974366422,0.3482091011473131,0.4975996546853083,0.4762634755213302,0.39082772154879536,1.6429520766210768
10,-0.7345752438984239,0.3622986236594345,0.5120332791312833,1.505033013496869,1.590847557250479,2.7033188148397014
20,-0.742353162036558,0.3535634115340224,0.5007017299704485,-1.5348689900131844,-1.3490688088458151,-1.0157210936873031
30,-0.7302003107527858,0.3689321491520431,0.5113088194181102,0.6681024962287893,0.678063490949697,0.5580022274934309
40,-0.742374501220212,0.3531862307248298,0.49703578688490657,-0.6668792760763264,-0.12394572430754319,-0.19106059745803433
50,-0.7524194032775806,0.3485118791670175,0.49358228282798544,-1.1136575257403623,-0.370106988392723,-0.23658846889078322
60,-0.7314450651460153,0.3697026698298421,0.5150926169341448,0.7164481504086652,0.4889483866673457,1.6757816192335693
70,-0.7464026978455974,0.3555022658079441,0.5031093833493532,-1.1782485924965032,-0.5474198862361284,-0.21408999746693116
80,-0.7503563478653547,0.34842353032830087,0.49917621438152326,-3.24540828108991,-1.9503457960433501,-2.7419465612952805
90,-0.7312519459359749,0.3721736766429664,0.5185924251171671,0.0958133314273446,1.0595090092073092,0.6288136154774413
100,-0.7154408222031592,0.385531319448988,0.5293545426115777,0.2627674010152598,0.4938568985627899,0.40761674459771247
110,-0.7422086529300834,0.35368743179678913,0.4983391244470357,1.5887077646586834,1.187025338527443,1.2781521578776036
120,-0.7518188277175419,0.3470190163013636,0.4904251905528555,-0.23724911215620348,-0.13651365939520815,-0.5900538850782522
130,-0.7506215464059975,0.3508116117657858,0.4949118706816837,-2.5419941630514833,-1.1372831103137553,-2.9780593647622013
140,-0.7400638579131325,0.3606989770402963,0.5083417864184095,-2.4116773673202556,-0.29851215956180666,-2.3256523427800366
150,-0.7449917204599164,0.35535469445586065,0.5026261449136087,-2.0423262010491308,-0.5126546046351879,-1.1324416774137096
160,-0.7539550940155898,0.346262164011135,0.49143492942563893,-1.777516432974183,-1.4769022774363938,-1.2107839308585877
170,-0.7526161033317373,0.3488756969092305,0.4972584292650668,-1.8464983714350813,-1.357060104731613,-1.7960023429088534
180,-0.7435215527112291,0.3558772984408679,0.5084018842280105,-0.6538693202219723,0.24429839701936285,-1.1387976152702957
190,-0.7416148976317528,0.35551227809571734,0.5074147344904903,-1.8667739410875017,-0.09075980085068303,-2.4601189257786427
200,-0.701454423083554,0.38932388254996797,0.5419782416916424,-0.5626211929670144,1.9934625482538662,-0.7597763864758567
210,-0.7399032766444964,0.35228437323582035,0.5003338545703594,-2.9871067722634255,-1.1831150165760778,-2.9355060231942707
220,-0.7201941944830528,0.37892859147930147,0.5252363688388835,0.10525242091526055,1.5644329371696981,0.5265263194176928
230,-0.7405372089700056,0.3602818868403547,0.5083815369212562,-2.691861931874114,0.3270953511890594,-2.4932981836914676
240,-0.7442497897098634,0.34470289471828136,0.5009251221610851,-2.5623203470800626,1.1284257213510964,-3.2331576157053554
250,-0.7522735177671437,0.3411823514857846,0.4961927641612526,-5.9100901880243795,-3.8518973668004373,-6.907471562409685
260,-0.7341637121909127,0.35317888765245925,0.5076371674770804,-1.9430981089352184,-0.4053954006275248,-1.8952709542837016
270,-0.7310297577727591,0.3520549909018717,0.5110803291882836,0.2764694057868935,1.4877574803807854,1.0369464273877185
280,-0.7462874156899479,0.3419973702529484,0.5025280962264552,-3.5597655402066546,-1.85904604792997,-3.8477822180026067
290,-0.7186676452036882,0.365198220439632,0.5243172654852659,1.502340605918259,2.1670993350183836,1.0643658445148771
300,-0.7539785645191499,0.33215171558357376,0.4907769080878928,-0.611197642859215,-1.4863950284142058,-0.8303416253976073
310,-0.7387527663302063,0.3537115905280702,0.5165730243108675,0.799100128287086,-1.0222342356395455,1.4793006612439012
320,-0.7419662076600353,0.35721856317578904,0.5204249507600478,0.007113227515809228,-2.435500471949881,1.7651011749796242
330,-0.763478201893552,0.34801048961106995,0.5093039418041184,1.9414423962132643,0.21676424684510953,5.1304593131449785
340,-0.7776636840215044,0.3522466482992567,0.6053296593838718,10.074929260336214,-10.148239759227433,13.757350039576085
350,-0.8003529166944736,0.28712977019408487,0.5770084470915883,24.138708674715215,-26.08576378435348,16.779463745646712
360,-0.7231601959661706,0.343545517308123,0.5496455521406276,33.51596475344297,-29.6300263327076,15.321740589116954
370,-0.7267227296244255,0.35811810981619124,0.5212170134320705,30.02049399451737,-31.091730022541146,15.381634299240407
380,-0.6838979294542274,0.36398572554619674,0.5245985146661264,25.44935620864874,-30.590813654293736,16.8183855056115
390,-0.6430864721848407,0.41622796030653786,0.5691255026222061,21.00163374301322,-27.771846935294125,15.664846396522673
400,-0.6718028477218435,0.4301691471789314,0.5852069420236888,16.831762430751922,-27.594019231257686,10.128969190763799
410,-0.7304971417405666,0.42876615379624644,0.5693344952523881,14.953101609163006,-27.797859711366012,2.0260755887012634
420,-0.7129201012857997,0.42956133773842287,0.5608723936031728,23.712366044842465,-27.521695789501713,7.372372494189737
430,-0.6671579657349461,0.41453253766123804,0.5447907571084394,7.322245226230178,-26.03026469273427,0.09335058158313903
440,-0.6850577665768239,0.38408587860611876,0.5282758090783858,8.037463310499568,-18.717138719393805,0.2970065303420436
450,-0.7052046428388166,0.3562334516468451,0.5455024183308042,7.748928782273626,-12.5075752403631,0.6734116451736287
460,-0.6790837772424753,0.4091745361510062,0.5887963240346936,-2.7125816659876056,-13.825995157206046,-5.759265285583224
470,-0.6899160439201494,0.3864684446827383,0.5445825106138189,-33.61314438237963,5.117493328199314,-24.45186022920247
480,-0.8254651034878734,0.42243075273853664,0.5692962891724404,-33.55041379991965,12.931381680783653,-27.71943790568889
490,-0.8668112546441928,0.32965635486339834,0.6565990716093697,-33.52669323031134,-3.5191429181117795,-32.60557174971984
500,-0.8421034333118752,0.42106907986875186,0.5132108310339261,-14.179517009485686,8.602105067215469,-18.852460322456356
510,-0.7471816921500436,0.41430686300115954,0.5383721158916289,-15.3794990667003,5.499184536233056,-17.572032737556537
520,-0.7643401190863162,0.3814405279564431,0.4640085629833254,-31.10098601385096,0.3062435452997897,-23.097671229887116
530,-0.7382683526583703,0.5330479912599251,0.28109297563736096,0.9742097377484992,23.330972437950773,11.743238988959732
540,-0.7557797166307838,0.36043543108163945,0.45048067034574935,-0.3616842287346671,31.95809834624281,11.635836054980736
550,-0.7296859498923022,0.25035378715312745,0.5498339230288802,-11.915210443086323,34.80024979228169,-4.799337704553677
560,-0.7327948537027046,0.2406637599894773,0.6364662817318515,-11.40316979731227,30.39633778057579,-5.013481902326935
570,-0.7731306639781154,0.35623985985537154,0.24320440823444403,-4.747169252123201,30.332208834343955,5.804890529468915
580,-0.7225273988001406,0.46901763271674585,0.20078128310154614,-10.92143168371765,34.912807847744595,8.853021051276926
590,-0.6955638843020852,0.3639945654886476,0.546364110821526,-15.583221997744982,25.164530284692233,8.855125913596746
600,-0.7207684165866848,0.26431367711353043,0.559438946546242,-6.8410597852039325,9.921400647127385,11.296480192514231
610,-0.7216606240889242,0.30539916317973,0.6002165932964528,0.7964724441324555,7.4161069078380955,12.607709440722688
620,-0.7473835838499928,0.3404231386304335,0.5842649613324118,6.915139874199539,4.468865856839832,13.650128940765732
630,-0.7540895545320576,0.35070331545946765,0.5667871495842036,11.421273598658715,3.1328396533791283,14.69799191314398
640,-0.7796950254315934,0.34744422126977637,0.6006185343531454,16.098724286728398,-5.834576129002205,13.246640276671002
650,-0.7716620269948774,0.3032816109514387,0.6050889462594037,28.04854504799068,-19.357553831139782,11.924136036919803
660,-0.6269275165497246,0.4631489030552175,0.48591707559856306,41.88609437250469,-27.36382081076564,16.610235548740054
670,-0.6741136362504996,0.4771959625768911,0.49303527166385697,22.361022842112327,-18.263775751152885,9.568385713887487
680,-0.6486847783975288,0.5129373169425546,0.5625437292255133,10.556730505765135,-11.267841366053485,6.571696890317546
690,-0.686090831979321,0.4615740495487173,0.5661939500143883,5.043895485698719,-9.031751783687891,1.8681573624146253
700,-0.6933388090993561,0.45611673908240663,0.5577659329465579,1.527160602751378,-6.534928284156215,-0.08762817704492491
710,-0.6649930986793091,0.48212924579592575,0.6054397890283847,0.029896628502032563,-2.268843013542374,-0.3247348491323865
720,-0.734520297553545,0.3698868496794273,0.5382223826250059,7.511018136312611,-10.707661511880227,-3.799851461643541
730,-0.7021825593714253,0.4012678060485702,0.5561082439982679,15.878638823738024,-9.462344437575505,0.9090793524038281
740,-0.727212071195795,0.3977311234966717,0.511225773871988,10.45950769769265,-8.93187329112007,0.5606260686839168
750,-0.7115884154175268,0.4386284974305788,0.5377321415583944,1.5697522857094006,-6.067740006138502,1.0266094512190544
760,-0.6954879508618856,0.4529870462036501,0.5557101722064166,-4.6646443869676055,-3.0292331140539925,-1.1573555827708135
770,-0.668133718788966,0.4584236409050374,0.5813329536157755,-5.341291860282866,2.395251261389632,-1.7683274948105279
780,-0.7058747552631405,0.4110961705252469,0.5650771237699442,-1.0602657522982826,-6.137958660414062,-8.33576360096142
790,-0.7505693518495833,0.37508989475036364,0.47278047013754554,4.210823519257269,-7.686098644078121,-9.528082272668678
800,-0.7223552906901356,0.3251882688278819,0.44473381528644484,6.710234992925483,-4.414048512471698,-5.203894634242133
810,-0.6723498177054766,0.31720181403773806,0.6126903421996712,5.565044327252126,-7.884372405923576,-5.53896457882365
820,-0.7119115755313635,0.3175510065902981,0.6689777641136249,4.895311784445539,-9.14149581793429,-3.1942095018114176
830,-0.7051281789631004,0.3431888332245022,0.637388049173833,-1.0484800424032834,-10.684620235060803,-4.918057121295723
840,-0.695133336946993,0.36581780928863294,0.6034628881910683,0.13126253398609167,-7.332837941965244,-11.360387439226303
850,-0.6447533248381343,0.35651726506423537,0.5920805495745195,6.766853482601448,-5.147084955158226,-19.482011918880886
860,-0.6162042292081393,0.2844401011020604,0.6652065821300537,4.853985779975607,-6.10062194619964,-20.650240569957223
870,-0.7857081016390836,0.5144853473827269,0.5343540361765905,0.829527345103639,-1.785460938970136,-5.002750768623781
880,-0.7996376948702713,0.6047274253835454,0.5942118014338377,9.935802188310458,3.3103645592908015,3.8541258496974695
890,-0.6584277370458737,0.4004319482120279,0.5355407131638621,25.39218597835991,4.815422107707761,-22.2860262276911
900,-0.8115127561236132,0.4180722952972854,0.6178779315729714,3.3010643179361487,-1.714038646002126,-15.314484646539647
910,-0.7165421102267353,0.45444745582144436,0.687767955089838,-26.315559088141992,10.08749558142704,-13.490835625770224
920,-0.7261256310636464,0.42743567295110557,0.6738674441734673,-28.429155047739968,15.415738246143482,-25.070389430383415
930,-0.6637490986286667,0.27583300765561225,0.3821991983724274,-31.228914151419794,20.311013856057112,-29.04026937659465
940,-0.7588712710926144,0.35754489437261405,0.7753704869237951,-27.485599796829465,13.075094973036206,-16.34727590698976
950,-0.6307832304692788,0.2876997316215646,0.6803090288222102,-35.2705046330708,11.948406471010372,-16.965974547879686
960,-0.7216633940078043,0.17376315866090705,0.8058514742199482,-32.25053019302069,10.659116107631124,-8.733820931899464
970,-0.7127600936785318,0.18906185282646273,0.645752503568224,-17.81763943683845,2.3736709771238083,5.800490453912477
980,-0.6731417877745778,0.23031185422009962,0.5741807127447447,-9.444397101766526,1.2360916057434064,1.234201911427951
990,-0.669739354735504,0.35235581715863046,0.610718707001252,-2.835643754538346,3.144559798613779,11.910214596258388
1000,-0.7231813169112785,0.41934991178973385,0.578047442106874,1.4352270056807501,3.2979306366359253,23.278409184642918
1010,-0.7458177813341799,0.4250475237555729,0.5398003981576257,9.31167837739997,3.9005847591819505,14.125820498399195
1020,-0.7291641440667088,0.3245483090008505,0.548972180622068,3.9157934518866293,1.9731265546838592,2.331264899864606
1030,-0.6892758697319974,0.3097878747803351,0.570691941087942,1.312563279916258,1.8837860241753361,-0.4299907201133362
1040,-0.7038314212020285,0.33752772567516803,0.5524201309837989,2.695365524012841,0.49991761256726397,-1.8496004053373991
1050,-0.7209361535816121,0.33961999049555963,0.5436519165777992,5.373619601237721,1.170284703289128,1.6079304167948938
1060,-0.7357831684642526,0.3272916220973058,0.5230578856317932,6.368094256532969,0.47348383073812506,4.017814555924844
1070,-0.7370895497387518,0.3388613940945652,0.5209478082177309,7.024099929057472,1.5191431480071682,6.109169941523867
1080,-0.7245947021520781,0.35714921914254777,0.545374865445037,2.518573073268426,-2.3099847461287277,2.5056308115636643
1090,-0.723395958611648,0.35655485350795796,0.5612543236290677,6.732547996690006,-0.01687336951274815,5.159834246309974
1100,-0.7436089625571115,0.340336766498383,0.52227679419488,8.766282873585546,2.241283463073708,5.698786012394121
1110,-0.7070822760330615,0.3706898295386095,0.5557536853989158,1.7687034059731466,-0.7541106400491719,0.8575470562446936
1120,-0.7411523599448446,0.33837234799172367,0.5281412125966993,4.868736956212374,1.3590908697400321,4.543825553613423
1130,-0.7524584623975916,0.3037591759620096,0.5227757724859059,5.15666658702898,0.8268498305238416,3.6473553041420073
1140,-0.6909833602254575,0.28732286114550665,0.6008448970392305,8.645325829488106,3.6750188537104096,-1.3183923674179405
1150,-0.7209109655358655,0.4056485379759978,0.5536763264168929,11.138147111397636,5.3162828193977525,1.9367063498590051
1160,-0.7500685657054228,0.41892935178870516,0.568818900640277,1.5617892587113293,6.9170164107450365,-8.23809884359111
1170,-0.7202267526411884,0.4013806590943625,0.38357246612836854,-11.895993794393048,11.156022831953203,-14.647086611408744
1180,-0.769767670011055,0.5320286248412931,1.0444985156279498,9.137664300756773,11.960540274548288,-7.367185639847547
1190,-0.8262514245259822,0.42330383301806784,0.534058201044098,4.216452775651606,14.953446928359469,-14.769938478039103
1200,-0.7591329742644286,0.5043313693563093,1.1466452196826715,-7.690337216116611,7.471763275510123,-5.792957901250576
1210,-0.8008821689206388,0.5384395724168337,0.6965812373057713,-17.717856942532382,11.09473876489321,-13.505866919147728
1220,-0.7578725683403894,0.4410599208918998,0.575628815175227,-29.15341430955291,11.020288765570484,-15.688461859780716
1230,-0.7316346971596743,0.42557674226398173,0.3695625805398868,-25.528339046143,14.857250674710965,-12.82052081696053
1240,-0.7842124772296772,0.3870036317875043,0.3094746799084527,-23.672080023020648,14.336580753545705,-13.423233268130959
1250,-0.7475474889577692,0.37394621792083904,0.5069528736428764,-26.43251462233603,10.417092135769419,-9.001578252667887
1260,-0.7199888945975683,0.3551085595931214,0.4886579686357205,-19.037976435351855,11.523358927057696,1.8053937443368266
1270,-0.7225216468124731,0.26770019230917996,0.6063743705892614,-19.00827645883114,11.335557410638115,10.973283228284524
1280,-0.6934190315664636,0.2526057512508131,0.7034717078361434,-16.991259157165757,7.430625247638812,15.990494854344941
1290,-0.6952898406438693,0.3854663843635135,0.5094390806436573,-3.101807444755498,2.936876341596847,22.55250657105827
1300,-0.7090725951838386,0.49120544196122096,0.5414225651365918,3.945718222244455,1.7412381051548662,29.14862209604295
1310,-0.7541199016989728,0.4441723154417204,0.6059228467148821,-0.0760721616193134,-3.399204038227703,16.408298663486207
1320,-0.7394185630661554,0.48121368950935334,0.5464518572130799,2.9818915373649073,-5.132283008460177,11.439243227141784
1330,-0.7043668760726945,0.42847918564149917,0.6007841486963537,3.207836409516233,-8.992596103424514,21.253965990980117
1340,-0.6886085588472288,0.40972810511262925,0.656290670551666,5.625473359610102,-10.26214742179054,18.342653897974145
1350,-0.7346666499486684,0.3065406587794921,0.47630941971244195,5.3827266039055095,0.41111940297179256,-0.6862651406762703
1360,-0.7424194396557036,0.4100078223820736,0.519687203558251,8.161963083480298,-3.5130289346350847,11.113972173410342
1370,-0.726670466360611,0.3594176537338825,0.5084236716974534,4.022853286555001,-3.07208998047176,7.512834379325051
1380,-0.7339828964019219,0.3977810748755581,0.5280735688123243,0.2156378516812579,-8.80805936990667,16.313383308096448
1390,-0.6971886777737034,0.2904733582927784,0.38594308624586615,3.6128465476581146,-5.996764377943699,8.59026090774384
1400,-0.7400549621460307,0.32571294358774183,0.46615084020271536,0.6840391337157303,-6.586050070088914,-0.5216192649446243
1410,-0.725155408644956,0.35753884536559455,0.5079612045062031,2.793927081883041,-1.5995926112181125,2.7129365261875638
1420,-0.7490831102798425,0.34560259844908936,0.5002983448349644,2.3277407969011934,-1.3965135627945686,2.2601340170988946
1430,-0.720529621070612,0.3699611402160573,0.523164044685246,4.319674669531249,0.176578132849333,3.2337357455088496
1440,-0.7583271252926475,0.3391485546355597,0.4827766282500782,2.577748416855868,-0.9460395198674574,0.9620893463505609
1450,-0.6975406041450262,0.39924467713776945,0.5414103333624612,1.0436101427124167,-0.16850186855968058,0.6473043465173983
1460,-0.7173862038164323,0.37244411400084704,0.5210329431500406,-1.0601309022327625,-1.4008802204440332,-0.9240657553205535
1470,-0.7475844169627196,0.3480721782716236,0.5006547832048277,3.7774239275156574,1.8521130494610478,3.2040351252923545
1480,-0.7460156160470197,0.353704006888823,0.5068216403771184,2.4808550958860573,-0.6519887393723834,1.168138330983515
1490,-0.7693933145044128,0.3337135009972287,0.4785689994102263,4.9489070320110375,2.6005566806069487,4.1449330569738025
1500,-0.7435856939594162,0.3559875909977929,0.49608865178997574,2.4360042504960084,0.9947543873111344,2.2894730112568222
1510,-0.7669851337562764,0.3335407911560141,0.4749450617372337,-2.345175264032344,-2.843824178019456,-2.004682745685729
1520,-0.7515692332816489,0.3545751450894559,0.49698314035313473,0.5252573314621203,1.2268053371720264,1.8861572898323435
1530,-0.7455158241255962,0.3578899732915164,0.5021026987241515,-1.102122743285958,-0.4470542180294397,0.35415259160026635
1540,-0.754582750985812,0.34732549081688596,0.49115918464594444,-0.4900527021690778,-0.9540739776499063,-0.2638920919959038
1550,-0.7585958715878759,0.33933055054113226,0.48296008816759384,-0.1390752516717615,-1.2370990664116313,-0.10331670063819365
1560,-0.7582019633163326,0.3411012324116673,0.4863829983635876,2.340535158495336,1.8753451738501785,2.6849138097791814
1570,-0.7295590845597367,0.37041967487976496,0.5152312461061989,-0.371779127783149,-0.30697136007453185,0.04162527480918676
1580,-0.7303945695970168,0.37483110409468334,0.5101331102511254,-0.989080114608288,1.1033265968803434,1.0040787332651349
1590,-0.7255202630571678,0.3805303680020596,0.5213183903032431,-2.036347108828991,-0.5706516672874871,-0.7256008861820868
1600,-0.7726551578424271,0.3323958412089126,0.4712777877083399,-1.0771164508876854,-0.3138057366390948,-1.4545648925267851
1610,-0.7338526326862479,0.36708286154323944,0.5123127935513027,-1.5465378294418126,-0.043957492261233855,-2.0255026462365597
1620,-0.7157306194421328,0.3792493382397969,0.519433696471225,-0.4684420583581819,0.631289205953198,-0.9027339885413026
1630,-0.7481589226054588,0.34779607512274513,0.4954250805651836,2.482021060099942,3.137447267864395,2.623178669609232
1640,-0.728918167423742,0.36927686858686565,0.5086662598260777,-2.429469125265685,-2.518249406754895,-2.086579905573716
1650,-0.7654496263324648,0.34004958960120585,0.4759846627289353,-0.36349159390190805,0.22470282831962002,0.35117114009819594
1660,-0.7411428805576469,0.3641863100102807,0.5003958550266171,-0.40317263272835335,-1.1209445515805931,-0.38798101614715363
1670,-0.7422261275803649,0.35825354668170895,0.49869500830785835,-1.715255816441159,-0.7438151693890281,-1.6345161702662483
1680,-0.7213954289375044,0.3760330097638288,0.5166379539871028,0.19115442138204752,2.739182983515147,0.6765697928896219
1690,-0.7282534854448454,0.36949997256825867,0.5125004725267642,-2.349425143658732,0.06277548727177054,-1.8147646336459822
1700,-0.767667666853387,0.33360338404381257,0.4778092614904723,-0.6844575656340699,0.6604997345785091,-0.26026706671435423
1710,-0.7309021156046586,0.37074833333572693,0.5077996895058439,-1.2656507649583795,-0.5949163119833452,-1.0475034689314446
1720,-0.7504161906072122,0.35137561379647025,0.48575403774699727,2.0430038623823306,2.0073829963797785,2.2326454570434926
1730,-0.7294187196337636,0.36910002213306653,0.507968003661123,0.3660248006177097,0.8040798732386045,0.9756318443919814
1740,-0.7307198732959763,0.36543666666080155,0.5071733728140303,-0.9589815984250307,0.05711519951591435,0.014412499267981924
1750,-0.7229873976223123,0.3766460143900244,0.5193608998644732,-2.03333420966099,-1.9779170022037553,-1.5222648550026103
1760,-0.7651800176664597,0.33639480315622916,0.48041157669892987,1.0236603969812479,0.32863016621277985,0.5392063758654667
1770,-0.7155803026297158,0.385845992341964,0.5285773111806529,-1.0528378936537877,-1.1039524604495836,-1.990217317207768
1780,-0.732956868875511,0.3687681753666383,0.5094440408103911,2.4125228330721566,3.029504860849261,2.1805813812139863
1790,-0.7089989787196885,0.3917809273698043,0.5332331044938455,1.317109629797731,1.3778234790376245,2.2582254379828024
1800,-0.7358344333042106,0.3678277803398919,0.5055321813913259,1.6649410109186076,1.2350398200854351,2.3360139739718644
1810,-0.7229628977571325,0.37294593388834324,0.5134002703179111,-0.31810969156273905,-1.311710819781087,0.017866450167530523
1820,-0.7363436750259659,0.3681306813728552,0.5089192053498794,0.48258698522511845,-0.5198720772151767,0.25013657499120623
1830,-0.7412003635393561,0.3561157113551493,0.49781194359153613,2.5027239363047573,1.4537533535666611,2.2539050639209197
1840,-0.7148643556186653,0.3889674170908563,0.5276690977464945,1.1660460806774275,0.39096850419608264,0.8389807291262262
1850,-0.7497647004588912,0.3494410100646099,0.4978144708756012,0.9299832923644709,1.2445785221007217,0.18559238291331143
