time_ms,ax,ay,az,gx,gy,gz
0,-0.7499427248262917,0.334314571108838,0.4219999643617521,-0.4057893048307797,0.6737575702698655,-2.4668471979640723
10,-0.7460083855553041,0.3394553170805409,0.43173877811176753,1.3086131393096467,1.80996431078483,-1.009533265003419
20,-0.7259924612913946,0.35089016963620184,0.4461836171249381,1.659271504236105,1.6753437322754032,0.9220435094722131
30,-0.748456413030667,0.3303319690992629,0.42878722928692625,-1.0005499093206405,-1.6023177329229874,0.04371395207027495
40,-0.7297619104996479,0.35938206957665436,0.4433055988814456,0.3557072938616417,0.8321584830215949,-2.7121876181206868
50,-0.7677951355676195,0.3204214605127828,0.410081489279301,-0.9652192369705883,0.3993543576545643,-4.159417434236312
60,-0.7641652258697635,0.3120456692801224,0.41190007895771624,1.405343531957034,2.257163663313995,-0.49350342446149886
70,-0.7495771878222371,0.3261722973084316,0.4287248379957232,-0.6083261387252494,-0.8560808906322166,-0.5782465547596348
80,-0.7395147038400611,0.34058193116372254,0.43247963171973863,-2.9337970268021185,-3.9723482266785743,-0.9417147318196091
90,-0.7676648844992404,0.32001664156183646,0.4004146468679702,1.7966925402898888,0.5532570116114979,3.6347583372904992
100,-0.7673970558124455,0.318024667243175,0.4034502334402906,-0.20051923990493126,-0.46638885009400965,-0.8154013188272557
110,-0.7620563166599478,0.31562320566872865,0.4105107295319052,-1.6235926192948094,-1.5412498532747514,-2.72363384922083
120,-0.7787707931613702,0.29900076016640553,0.3957786255314308,-0.8020516683367468,-1.636111274220176,-0.1173099226168145
130,-0.7437913744408577,0.3398051741263661,0.4321958814894844,0.12959900293288779,-0.7720242738528285,1.8139893230111503
140,-0.7380184738706409,0.3484378913815883,0.4355492907409019,-0.3800801017314906,-0.035324264271354974,0.8595688596655071
150,-0.7520977466090156,0.3319601348579097,0.41900120900503857,-3.6390292886094273,-2.146504449474221,-3.961706438174809
160,-0.7243059481596967,0.35685062085122826,0.4483612319626567,-3.650630081284476,-2.458635206742278,-4.131877921404472
170,-0.7682565539315617,0.314915499912259,0.41275126358625885,-0.4791615177798674,-2.193365022733163,3.051204636588988
180,-0.789114640464552,0.29843546549482475,0.3931765420886277,5.45408812185812,-1.0656840791038085,12.854912694050228
190,-0.762005802662907,0.3078028045302371,0.4196902058010692,10.246523346725633,-5.235547720895748,21.91524046944474
200,-0.785080310486124,0.3066956432809186,0.4163414822743803,12.721569871152381,-7.979590990651682,29.955987375679303
210,-0.7454116867979508,0.3388403917499113,0.415817083705139,13.648538987556718,-8.145468797653978,35.403563905227074
220,-0.6238544065472148,0.2558341612607156,0.40652488994097824,27.575965201672055,-11.0725165351296,34.60200122632849
230,-0.8165857294828139,0.21625127211938822,0.39218656657262563,92.66620785787497,-79.31765647615826,-11.209759837735533
240,-0.45011810740931574,0.3820988321678016,0.2903188687779447,76.87279370100521,-57.84107642727781,-6.4029608127112505
250,-0.4156964787880676,0.4319759876086547,0.3078385030601228,52.302384654787524,-37.53161205958887,-12.06232697213975
260,-0.4192043353615641,0.448452109363941,0.3400906225522266,34.87442337573789,-17.628976137996514,-18.973407665306375
270,-0.46427645925382116,0.5114890601044361,0.4029854688292177,30.861323237308774,1.519216077978018,-17.971242978947604
280,-0.5304594837702369,0.5686103890462195,0.35986358484348396,33.63976108642988,22.67935647770934,-11.138007480564436
290,-0.6183921376259992,0.5232482906795912,0.39963163274329194,-14.573099913503771,69.59817087218774,-2.134087825153725
300,-1.0455186492366622,0.37744161526667885,0.05651740449362475,28.377600797208927,3.9782483599609253,-5.818718328853668
310,-0.9938492290019045,0.332565925545664,0.2829358597598742,34.2279573066922,-3.8779036661821715,1.7625630705854527
320,-0.7998495238289555,0.33522597710969126,0.4552504303882561,11.843565723550267,6.349238920991165,5.059051105675354
330,-0.7509387668181131,0.2576375727213446,0.1465080428662287,25.187671961196468,31.69469283572444,13.963924634036433
340,-0.7603655497333927,0.3740732412381462,-0.07539610583528532,49.32782638653352,57.781823117358044,30.088109103267403
350,-0.8218284559028749,0.37493864654168624,0.17054786992320353,53.44671458060899,82.58129505510189,47.871843738678685
360,-0.8349283817057601,0.40691293455785105,0.5171477568923979,45.87956725606472,96.66380899308066,52.78134856374236
370,-0.8255897556065608,0.682046126953137,0.5952395855586958,36.94505838380034,84.16938228791761,47.78806124577804
380,-0.7397732694334245,0.6002735665578955,0.7206387629336009,11.511403700701967,69.63256152622505,34.32305690640484
390,-0.6539869255245891,0.3033599565206513,0.7762674280305862,6.37127949265421,43.13290512087453,20.613757108105045
400,-0.7284560235750281,0.2031406450317029,0.56301030988483,16.811290159834243,10.820929799643071,24.961354837164166
410,-0.7639137941771186,0.20644522916654093,0.1464855718847597,8.177041812966284,5.0935293353413895,23.86378089862889
420,-0.764085018632607,0.4653415333827455,0.4122124310629299,-14.080606915145891,-2.6767146201014933,13.288895525257145
430,-0.8141319679916679,0.4271914534371894,0.5393140321435316,-25.358584972527563,-6.380536509529237,10.563782133214387
440,-0.9292802168364726,0.5286149287187507,0.8974453618064886,-26.855843598449518,-70.38622877744945,11.017262122291285
450,-0.9633706965962492,0.38332661530758944,0.5931101314948944,-32.064033422983954,-109.64703418370236,-26.345662051774497
460,-0.8093981358157292,0.38363563242115634,0.35642643750753,-30.452183495247926,-119.77343464849957,-22.87283304890917
470,-0.6543071549338331,0.3446549323057072,0.183747605144766,-19.8810928544124,-103.13575079161463,-28.475374695122436
480,-0.5660725857797503,0.5382063194918943,0.34593372556719515,-21.9948407713196,-32.53034865098595,-22.209671831438904
490,-0.5809256939435024,0.6073344606706861,0.38802131988219585,-34.447361811779466,-3.905233137005242,-20.245022105460205
500,-0.631034487067825,0.5407092431553392,0.3982367047408005,-53.40782977590696,5.5873944779505615,-28.06793617368722
510,-1.576258847714601,0.1964180812811454,0.5963593656110142,-162.46004870994952,-45.87872298407944,-98.92551693925847
520,-1.2799607819457353,0.26129762719607164,0.11506310509944676,-108.45319046449865,-32.08455715565303,-65.52802036722001
530,-0.7904953193147634,0.27875975902195127,0.31191437579814346,-55.85788643930227,-23.61734800831729,-28.19727742936986
540,-0.6570399517749913,-0.021626931836498768,0.40680118918260755,-4.632717446641548,-7.85335243457642,-21.626225954824797
550,-0.5830375913077986,0.04032821317216646,0.4091683808731083,8.559973048740463,5.775633804665352,-23.4236131362551
560,-0.7851156524279645,0.42606000806001737,0.819333964204977,21.38829819137908,13.82990624429042,-21.858740175453395
570,-0.8074361148512073,0.7164057380117712,0.5889746354617211,52.56544491499075,17.001660977203983,-9.477232438647057
580,-0.7006451867936291,0.6737656134005523,-0.012826166534921447,48.81260880730579,18.80643987271316,-5.338371042912919
590,-0.7672150061008994,0.585010733936445,0.15889689934358858,24.575472828728994,19.59576203111789,-14.892730828418248
600,-0.7972797335173144,0.8097823973682609,0.46586274770779196,31.60577798005533,30.47692141918057,-1.2243865516469599
610,-0.7320715037370499,0.9423991856262266,0.5387202205257013,31.28837857996951,45.13205602757698,29.167352877138466
620,-0.6415031947091248,0.5829825532499449,0.4781786742668808,-9.427485561159989,25.88274580172808,44.8322502746089
630,-0.6634120350972784,0.6565267873024819,0.3575948785970014,-25.335196785711304,16.062816031497245,50.5005705979118
640,-0.7645657104421896,0.3766009462091139,0.7756245396442184,-31.51277052836616,5.700458206879994,22.27253517351702
650,-0.7401634955427879,0.17171608600431462,0.4842257483732292,-19.018575491170154,-8.87492680078007,12.834715463833051
660,-0.8357772443684706,1.0317610690878758,0.5305552094815517,59.42840978289348,-12.312828219775232,38.803620645278265
670,-0.7754204863317998,0.24698312988104906,0.416700646133364,12.051543942256217,1.306562385118502,12.113656892091104
680,-0.7687142883315143,0.3339690129926628,0.43100429792380085,15.1315897766702,-8.122807019713408,16.109610246138786
690,-0.7603611537251116,0.2847487073538606,0.4466949136642689,7.050585712131934,-8.574903990914484,7.049436598232207
700,-0.7283290143360979,0.3655527863992875,0.2914166230835623,14.903728124393455,-21.89508768150401,-29.270875550246494
710,-0.8934478983746854,0.5683120741854223,0.24328273089096816,50.6039428368279,3.4093292519184697,-6.077896182766635
720,-1.0653318399608658,0.8828285015502955,0.8092066776555059,63.02074450846136,23.885595817252906,-25.99857600986065
730,-1.072910250392519,0.9792891489176327,0.829858790666968,35.836146426015,43.779603828349984,-15.170069107051408
740,-0.6703169750228541,0.4330638353789326,0.43047524480950383,-11.593861343909172,34.4204400137689,-16.45948047507067
750,-0.6990801873326826,0.23416784437200885,0.3071649363223474,9.058014711794703,29.818202408878566,-17.152238360941922
760,-0.7773759166739441,0.3318595932181892,0.6206485608276014,15.825320915381594,19.89626779251209,-17.489756955594096
770,-0.8213343736796571,0.5412590004986337,0.023211253538340342,41.81928056330787,33.45961164969991,3.4008194483914407
780,-0.8310345949286467,0.7083598320084404,-0.09523890648057726,40.099388981888815,35.55443414572973,9.765539313873669
790,-0.8494824179625035,0.9313767622550442,-0.030595321474487458,-3.65458298072111,22.179608008679278,25.61435326138791
800,-0.8509052324223988,0.9811551252837468,0.20297778809878378,-34.63844128321803,3.080064477611992,43.31441943683524
810,-0.7401305840122869,0.5329016064488606,0.5652761103214847,-46.53370297473495,-8.905357745660208,33.823183444236484
820,-0.6603404858746881,-0.013524974386256106,0.4993172058875209,-29.316809047944233,-12.775222950881915,4.413461828716606
830,-0.7362049669239952,-0.029108988727068776,0.35462656979661694,7.020128291386359,-7.490141467931924,1.5409525541347475
840,-0.7575345246100711,0.35443834846111255,0.2787991075454488,-7.815976500323478,-6.905912803433777,14.239286285642649
850,-0.7519484788363695,0.44063812618007653,0.40925447459517633,2.7004319624392106,-4.802877241191098,0.15935069366997645
860,-0.7543514214881859,0.3119167870398356,0.3775286787951507,-11.361405729824074,3.451709670106899,-6.69385022243351
870,-0.7811476631702566,0.3392223440330391,0.3622115073724386,7.932437610414552,2.465628325427315,3.8372155830466155
880,-0.7331597014879259,0.39724760016492977,0.40420016916129253,5.314734178660866,1.6600611751585221,4.538382097915064
890,-0.7596840656278142,0.3889761667093123,0.3852234641023701,2.8436116510963494,0.2914375452855889,2.324553551917912
900,-0.7610269146176375,0.38182415268607683,0.38249656835075774,-0.9534030038042721,-0.6462060135319729,-2.712446382871775
910,-0.7572955867678649,0.3810449267883138,0.3833119088407394,2.13376708055399,1.9604744730876917,-1.3518100696628377
920,-0.794499479005263,0.3402447275830906,0.3445244991380318,-0.6478304241196684,1.6845328851102832,-4.211359073761994
930,-0.7713532357842378,0.35437268959949053,0.36473403906187757,1.553903620322803,0.2975647293881787,-3.5304342431872646
940,-0.7595179006560039,0.37090888314795223,0.37955608884234115,3.0764447102288823,0.17631379020303162,-2.0064297713375163
950,-0.7783787139114476,0.36441086134815476,0.35959918639942273,3.446675589605826,1.2989947443633334,-0.6220457884815881
960,-0.7550850615983375,0.3908668667428928,0.37859665845246554,2.8733204824323937,3.0345059523898628,-0.5996859596425463
970,-0.77206139177018,0.3632426539552501,0.3672451216504123,-1.898546850551532,0.4732423699928426,-4.821672414356342
980,-0.7645093283518763,0.3675783559437357,0.36932392717096285,1.3911489959411225,0.33924220321116616,-4.212384198805562
990,-0.7909949129596656,0.3468134943339745,0.3497759746404202,2.2176632289594753,1.9090995708095924,-4.227476280631669
1000,-0.7706522631964593,0.3645391727656752,0.37221946051471444,-0.11837128071143432,2.7121356326248782,-6.252126350289182
1010,-0.7782514357688798,0.34555969929458397,0.3567519453284394,-2.0354580904929636,1.7697155788976635,-7.878315791403689
1020,-0.7837343719654662,0.3368912959754887,0.3512163241946197,-4.854258662959802,-2.1868524113321723,-9.791748542742559
1030,-0.7899512601366228,0.3343201155826123,0.35109147018142645,-0.12202422298732296,2.1186948232682243,-3.3125748890449267
1040,-0.7714276346987747,0.35523594743275466,0.3694995096180738,0.21607988254861638,0.6061693421903097,-4.7709656480712
1050,-0.7682532725930543,0.3570330614685048,0.3694262607759286,2.651198810804945,1.3756689913646603,-6.554029212269678
1060,-0.7630158807425126,0.36004143634880464,0.37427704139328816,-1.1992769606237657,1.3149068660158134,-11.110155911684984
1070,-0.7717988698074819,0.35015911622008844,0.36381904962570966,-0.9308591218938753,5.099564602652394,-10.627009999693744
1080,-0.7564388988420968,0.3557326590997793,0.36918346498970056,-2.93009529870312,2.390210932120425,-12.714776686020958
1090,-0.772268673248499,0.34251063009041505,0.33902983944430354,-1.7022847179689888,-0.36210876806625425,-11.823871322575187
1100,-0.7903787765265975,0.32312805866916594,0.33796772628657507,2.533993214268556,-2.8608043739510816,-5.412392844399927
1110,-0.7890199462732426,0.30743816050692785,0.34194761257781253,-2.3061503967247665,-15.323563167111308,-6.738432537321502
1120,-0.78100190630157,0.3089865372099997,0.35704519204536167,-4.710841188942114,-18.73522658193196,-3.0264657236301113
1130,-0.7724747603745268,0.31478307043233267,0.36437483950578775,0.010929230993243388,-16.98476197929056,7.27043704749037
1140,-0.7403885159580996,0.3659069446318378,0.4060541987369152,3.172398576646362,-12.21823050572459,11.452671275178458
1150,-0.7610574724446675,0.35206218669502354,0.3902544367861203,-2.06129100173962,-10.274993687031559,5.528856855243102
1160,-0.738896348881229,0.3753380844572512,0.41882945484735773,-6.499094887737971,-10.838346381872148,-3.9872467633496376
1170,-0.7582791203629231,0.33358041482091316,0.3956460523909139,-1.8954935128765882,-3.897447203525529,-7.2815520635933915
1180,-0.7717202375633407,0.3071236442621484,0.3753064076616817,2.133909510526354,-1.024930160644825,0.95464522681374
1190,-0.7672506797500253,0.31333025913237683,0.3821858128916601,-0.6438145650801934,-5.337179216274403,4.836364869647415
1200,-0.7529288849608523,0.33124635675799163,0.39319173779736477,-1.3128651026949778,-6.8333364360005335,10.734074756726105
1210,-0.7527653472730559,0.3386392856768588,0.39538768275562164,0.02671615067384059,-8.444875534001339,15.708616023806819
1220,-0.7463448804652152,0.3508644624897561,0.4061979088187767,0.00880079040309889,-11.816908032200338,15.138770174040918
1230,-0.741770146503627,0.3585445883721131,0.41742558350264525,10.465106242984552,-5.508629626766147,12.760907641066206
1240,-0.7486932826761459,0.359932633413187,0.41051875723062015,18.955978718004733,0.1765762270124973,13.051867391123487
1250,-0.7511808928323512,0.36245910036483425,0.4047743880228679,21.95783096381375,-0.7690449828546408,14.82207053905815
1260,-0.7760766065376501,0.3300153615775311,0.38101217233055007,25.530277163792,-3.4877804569235122,18.54807921711795
1270,-0.7636679834309659,0.3480789796240055,0.39810544219826277,23.646189896812174,-6.824476398600066,20.110495289153587
1280,-0.7734355341290189,0.35102202994903675,0.3954930167388444,25.606594045666455,-1.9820325189287002,27.1546021934844
1290,-0.7810863727290002,0.3582313838101414,0.39395897920620687,26.65216381244298,-0.5501337177575714,28.503163525334177
1300,-0.7481459002202082,0.43544562748628307,0.4281598857645728,25.618697886353832,-0.5950244068881433,20.095539303109238
1310,-0.7858517674511226,0.40103463654530586,0.3931774913410657,25.303163253595784,2.96224020005626,14.637255697078142
1320,-0.762506366270353,0.4167258268584596,0.4228194055782929,13.73359796774084,0.49874912828643836,2.629811987261935
1330,-0.7684795478933396,0.4155758297674182,0.4201576952333866,8.598098363197066,0.6702636057453562,-1.9623351250914363
1340,-0.7712400767594608,0.4075960275992315,0.41143191031996024,8.925780771006186,-0.5107939896677249,-2.3118188165336853
1350,-0.7891123027278653,0.3850223116422749,0.39296185273635525,10.933717018226336,-1.0028520241862564,1.0133561139925458
1360,-0.7720522174975771,0.4022878468796358,0.42507019975500077,3.189361713773428,-5.976726012165494,-0.18070906829694666
1370,-0.8024269093133846,0.3806690900501773,0.38778816773187663,2.228852057867083,-6.933521716801251,0.18901128114015853
1380,-0.7673391333281582,0.4150406574978048,0.40357265337526,-0.7324431588722531,-4.302891770244911,0.5752348887833856
1390,-0.7724784768647859,0.3998991122984066,0.4081014441142865,-9.503729017874178,-17.110964761620117,-8.312588465639424
1400,-0.7818029245465955,0.3838295716502971,0.4101179611480786,-6.758073351649731,-15.998016497493373,-4.1545658722010375
1410,-0.772500421059206,0.3972115765332832,0.4237213618055513,-11.982584046033388,-14.552500363760057,-6.975308482736719
1420,-0.7459262431957471,0.4043814131664587,0.45106145530962266,-9.661440531672172,-6.1974443666146275,-0.9159014189226355
1430,-0.767893823177622,0.3776525142556722,0.42718629788093687,-4.77702645818083,-1.6969696200878672,3.671092745877664
1440,-0.764538843295357,0.3847038823150231,0.4331288716610994,5.074705125528645,3.789082745518257,10.520008515737118
1450,-0.8036053926484219,0.35543591039096306,0.3872469746165863,7.6003078711435705,1.4370604085135823,9.42965897858756
1460,-0.747724807032866,0.42298563851456533,0.43834180554016056,5.872721504022168,-3.5155242185220885,3.6168662393425035
1470,-0.763346273844908,0.4160888822223596,0.42593388658734666,8.912449398544418,-1.9840247924390473,1.5774840730602349
1480,-0.754883188639228,0.41377034066320456,0.4392546656810078,0.5578777955689458,-6.450788448705934,-12.959743587017378
1490,-0.7652415493789805,0.38593352083957316,0.43247102759590705,-5.350290897492175,-8.369378053122567,-20.22653675414671
1500,-0.7596074544125716,0.38327237096833006,0.4379121743739025,-8.025093684807256,-10.638584504378265,-17.264248084709692
1510,-0.7492088263482891,0.38606187613261095,0.44947275725301156,-6.726307358837192,-7.440304450755803,-8.146865722544963
1520,-0.7660273689698295,0.36430122758029604,0.4386473496278209,-10.123425786007209,-9.159651885587472,-4.01867240670836
1530,-0.7670271057817774,0.36323357789866095,0.4401774821756241,-9.870816999515846,-9.100266241956506,1.399711865424381
1540,-0.7557301051897929,0.37796300918434433,0.45386254608960525,-4.9001143284591135,-2.9574071317440294,7.271741084067942
1550,-0.7933519496400763,0.3495488367440095,0.4064130216517136,-1.7937264829135604,0.6673149462159433,5.691733613178568
1560,-0.7647985060415464,0.3860631621801843,0.4379527137798845,-1.2850285033341224,0.6728974091325579,3.285701960562209
1570,-0.7971870552988103,0.3596045496208567,0.40354237764141415,-1.0959731312801924,2.4343408524154695,1.264302111422567
1580,-0.748680045480656,0.4032082181686445,0.44285564403117206,-3.411880770660311,-0.21710962762709599,-2.6734919312626615
1590,-0.7563600453772444,0.39189543220559747,0.4412899357677589,-5.283569494490586,-1.6814413958135868,-5.221675128802073
1600,-0.7771263672079783,0.370300426704728,0.4224829363474468,-4.5357876248528886,-1.9444850289556423,-3.1022452353055283
1610,-0.7578107793208569,0.38813486163625577,0.4451938222191228,0.9143557862212,0.20150760863178696,5.6645349327940755
1620,-0.7469568539015022,0.4073418451430323,0.45645011501175864,3.8426236965181784,4.285555358382894,7.14979218639097
1630,-0.7668917824093775,0.3915087671113608,0.43404882150779245,-1.1704112505500297,2.7132035731113477,0.016498469267541727
1640,-0.7371213382583294,0.41529415047728263,0.4663280738056649,-2.3674763609197287,1.6322425996038699,-3.273917459707786
1650,-0.7573907609723421,0.392648680081907,0.444095358604317,-2.519579349352524,0.7982603859022122,-5.157779625534563
1660,-0.7631302114885677,0.37978032752391844,0.43448202668840624,0.05220517402507707,3.7388332578899517,-2.0716673248257873
1670,-0.7256887154357713,0.419887268863921,0.4733286831228859,1.129550726164939,2.0504975303682764,3.564702851254069
1680,-0.7853089309004568,0.36348056594345074,0.4187519256771689,0.528054130157028,0.7741783356803864,4.868952924754673
1690,-0.7605545238080187,0.3886127462320644,0.445513311593787,0.5305900180780052,1.0633349235651115,3.320876919980737
1700,-0.7589304428704415,0.38840772967072523,0.4453748849336384,-0.14816316779749905,0.6260044560085458,0.36763175635891465
1710,-0.7673735514316601,0.38022228082208875,0.4355904862391225,-3.4422393492448733,-2.811340474677691,-5.373021947203897
1720,-0.7459402656632721,0.40212504837587193,0.45165007770844784,2.027727186090877,2.7184428084113432,-1.988309076315522
1730,-0.7559628534620341,0.38785221940407494,0.4346652221696041,-1.0966336997810997,-0.3061655550560046,-5.873856304656451
1740,-0.7664491410134541,0.3715412276667195,0.4280222228119844,-1.3186242678930775,-1.4052969909430661,-5.282732509756471
1750,-0.7479652498745601,0.3872140381914197,0.4554141467907802,-1.9812676226059147,-2.645901025167167,-3.630309797942976
1760,-0.80716469621527,0.32825083553313306,0.39540762866644713,0.43943306084716155,-0.7660228439976319,1.4577449523611936
1770,-0.7544764979653323,0.38088597067519503,0.4413257603743182,2.326999543922599,0.35064636286240836,4.639229609547787
1780,-0.7626419506793911,0.37912227449992997,0.4314373905753151,0.040469820173464566,-1.625376004139122,1.7357119616419718
1790,-0.7504949307449935,0.3999690206260354,0.443198914396958,2.001268502595898,2.462017736593099,1.913079491656674
1800,-0.7504882654264557,0.37909380568556617,0.44644102692756216,-1.3192020179708548,1.3860130554742454,-2.570478380790529
1810,-0.7576545579786582,0.3652198251478837,0.4418371895987515,-1.6779021095242208,-0.9422230278005317,0.8391169674565312
1820,-0.7449618887464653,0.3766961746450798,0.4506140184415712,-1.2796624116524198,-1.325231318748766,4.948071569006541
1830,-0.7492990975632272,0.3891785690124945,0.4520215866995349,5.4883650968524975,2.3714211198601256,12.500977222064805
1840,-0.7826747540382919,0.36696726702808996,0.4159980268690908,4.0864115919873285,1.7699197586870625,8.71659897649305
1850,-0.7677186668147218,0.3888613143681314,0.43069354814855526,3.9286218639730217,3.823034671374783,5.573412585720435
1860,-0.7342917381159151,0.40285293374768627,0.46186140657728364,-6.865651726109758,-4.174587531384633,-6.5986632406737815
1870,-0.7529187522916875,0.37729012873879053,0.44620581814533783,-2.9796110844735306,-0.8064279877558427,-0.5778069317031598
1880,-0.7802083607463396,0.3522149116314453,0.42135641295384313,-2.624216985739464,-1.577039503206291,2.398224347429995
1890,-0.7467153419731393,0.3853193658227838,0.45370751524568376,-2.2533004957366467,-1.8994619614454633,4.490005847726403
1900,-0.735820269377823,0.3987785831652254,0.4675329740219681,0.5725104309381353,-0.660586005101575,6.231379295215803
1910,-0.7587144880801596,0.3840912504796142,0.4425956996477113,1.8996551472103922,0.4782047814561048,5.138748520584728
1920,-0.7680007795792944,0.3744182162507348,0.42961052335602556,-2.2778055758304347,-1.238646598200042,-0.7254258332443957
1930,-0.8057250065868609,0.3368094276357491,0.3904830739776794,-0.9865393691186326,1.206208308831672,0.5716313483545226
1940,-0.7679525956984233,0.37271909307436996,0.42843747860681897,-0.9450534646617552,-0.10841676535737466,1.010713807077064
1950,-0.7757029106349868,0.3633401564649109,0.417133008356769,-0.3196771400045838,-0.8838298248496221,1.1148720649755024
1960,-0.7387209516176817,0.40773169604331005,0.45203447095547794,-4.441745486289163,-4.222202922775252,-3.847698790451818
1970,-0.7688020191849413,0.3815628088427355,0.42773319366166623,-3.999317263747635,-1.0615708051351975,-4.085982585725094
1980,-0.7839083482459587,0.3555693110700866,0.4156131011959413,-3.3569665798085544,1.1476341255087998,-3.287833279753283
1990,-0.7728028538096469,0.35254179961645654,0.4270647834436878,-5.113281261519353,-1.26799801218886,-3.0930276054299517
2000,-0.7739890721364506,0.35839103962107893,0.4254046354704435,0.8558312261146468,2.897085940555403,3.613578919811055
2010,-0.7411028935974491,0.39400197825437966,0.4527211472597539,2.6153655257060473,2.1077405671239537,3.9744205996452564
2020,-0.7593155260605716,0.3898825015782906,0.436555693773337,2.5190752747121916,2.334121320735134,2.139197207713304
2030,-0.7771686131133037,0.36328421810432754,0.4165121930632175,-2.743583278787362,0.7316185483037572,-4.835248641212523
2040,-0.7392940358079577,0.39954616568492385,0.4598259275388232,-3.4112513944213445,1.1910812304708347,-7.244626260175065
2050,-0.7231190595399051,0.391328416544014,0.47061949129039155,-1.9778494767515125,-0.8747678464116793,-2.7418242893727944
2060,-0.754752372757501,0.36949724406561996,0.4470056015162116,1.6192499242908494,0.5110780536044828,3.0035604415901695
2070,-0.7591552116118802,0.36712313429605836,0.4342962164851796,-0.023231883202011555,-1.7340023333983943,1.6738096860011047
2080,-0.7679190837469932,0.3663184862716594,0.4265440483210513,-0.1616143820468685,1.043072350099679,1.8674877198441433
2090,-0.7773295311861373,0.34975581248005017,0.41721266102109533,-4.179205420053581,-0.038408093314510894,-3.282322321299895
2100,-0.7443271899708467,0.3820770593008851,0.44784214040327697,-4.25602300252564,-0.2706264780731369,-4.210545987569621
2110,-0.7671956682018354,0.35314212078727303,0.42311382679477066,-0.5008338369460708,-1.6739364084149753,-1.4686571408859805
2120,-0.7641654857214363,0.35766408901977154,0.42804842296954554,0.6748874704738007,-1.2541734600572574,0.29826377989018493
2130,-0.7261522333589749,0.39578059825099043,0.4702573101017723,-0.6155428835241592,-0.532982193235279,-0.20126054897167592
2140,-0.7576940588141116,0.3592798300914211,0.4387746067295443,1.622942952205788,2.731266108072614,2.0183466573888738
2150,-0.7789812950360618,0.34095131171085313,0.41718928322950777,0.587989738303234,2.0344307554129717,0.6332021884311516
2160,-0.767976775655716,0.35599111668546524,0.4288872817781354,0.4615637686777915,1.5974046913847246,0.037696065189544936
2170,-0.7371020840386224,0.38379025463501876,0.4579968323801651,1.0160143600327025,1.660587700608984,-0.237163934820529
2180,-0.7632968637763868,0.3508520488664431,0.43065768537217347,0.37139287574128055,0.222559593223721,-1.1550890318581792
2190,-0.7521273211999138,0.36326290192681854,0.44374930637577314,-0.0239887436676246,-1.2790885989909917,-0.4264746399463625
2200,-0.7729021179115241,0.3489620094952624,0.4256215005483133,3.3507586951475092,1.709888600288716,4.250667556776478
2210,-0.7673728015449534,0.35255700191244094,0.4322162739410559,1.4411271750692294,0.3175907335834975,2.5117881472127306
2220,-0.7434470646727801,0.3791983073879724,0.45137210781198245,-1.9452626776093154,-1.3614570901551808,-1.6301690701420195
2230,-0.7522751121603763,0.36656580410650536,0.4395454704146402,1.4020037040701605,2.9109908858432423,0.795735430496046
2240,-0.7510112654427833,0.36214340870555833,0.4448437313610109,3.348425456539336,4.171063349279953,3.4110248055557952
2250,-0.7567698264956615,0.36146407150126597,0.43882194840538985,2.0120677641754536,1.4160285372454768,2.8283326939428113
2260,-0.7622564746667216,0.3593119888173837,0.43091447667473154,-1.1044793613902206,-1.4262815761419523,0.6605192669283129
2270,-0.767130744728731,0.3572390090962084,0.43082428946672857,-1.1688583587362178,-1.4727255921830797,-0.3531503487095533
2280,-0.740574749120996,0.38486587921782117,0.4613750795796636,3.0897056459359025,2.7507350228764866,2.6598453867987306
2290,-0.755712346419807,0.37222432714751474,0.4425377485516379,2.8596727882173556,3.377416542602457,1.455541062644754
2300,-0.7686707930669875,0.3498611815451771,0.41920765446468145,2.342633824665386,1.6832724793165397,3.9436603967630717
2310,-0.7670733088012056,0.3507381587612046,0.4261800548173522,2.6474532998940012,1.4412212344303685,4.973788016101393
2320,-0.757940425467027,0.36318048261882646,0.42993539642590856,0.20756334253428,-1.3267458407777375,0.9036212322081192
2330,-0.7510074942311411,0.3763171331062799,0.4439558635487822,1.3132549619333385,1.3599662959687184,0.4733408803448893
2340,-0.7522763225830734,0.373935121449957,0.442529009814237,0.7461516849566543,2.349564654930462,-1.082568856249944
2350,-0.7721426667796565,0.34518447216016057,0.4222728329832889,-4.642254105032616,-2.2699249020315557,-6.364402386553202
2360,-0.7551064728733848,0.3636172474043095,0.434844502658651,-0.037858599787385386,0.042645218564122005,0.9783397837919158
2370,-0.7465628139195405,0.37609221371029605,0.44857759370268574,-0.35285196616850895,-0.3632631867778974,1.4576239789112049
2380,-0.7722514590978674,0.35066486050266443,0.42334922238089634,-2.1557551527908765,-0.8000128923421536,-1.343186239715346
2390,-0.760539853254197,0.3611326172275271,0.4361822269488012,-2.845111031973496,-1.0033338674959305,-3.0589522583221482
2400,-0.7491647844383227,0.3678363993082873,0.4467865023526304,-1.5365796456953131,-0.43058307706409193,-1.698676607884975
2410,-0.7643717695070487,0.35042964455925213,0.4315732047206949,1.1932724432241593,1.2308713883253772,1.7207696461642912
2420,-0.7328404526758044,0.3880011922837864,0.46331060261041046,-1.0005430009945944,-0.2284416603718652,-0.8531573614836916
2430,-0.78231712275364,0.34171457023499535,0.4078854756096231,-1.354333254953563,0.7705830753850339,-2.525632361671998
2440,-0.7483149612168636,0.3709180635485877,0.44946940137905256,-1.462358609482821,-0.13769979896322343,-3.481820196821112
2450,-0.7591044271296847,0.3572331447976207,0.4390654250098073,-1.9378401481768113,-1.532962533022407,-3.5679833552309934
2460,-0.75480902720834,0.36058748792547524,0.4399112205838509,-1.6119949051323388,-2.0539442540845476,-2.421797397519815
2470,-0.7753585111238493,0.34049895713299555,0.4184327642932955,1.9420527305059347,1.0787141191680716,2.464733361339812
2480,-0.754934569318321,0.36191209158456544,0.4387992941367835,0.6797364373282643,-1.532158127881715,0.6718005058782938
2490,-0.768948110247465,0.35244670153456614,0.4244013413585082,0.13898584362275157,1.0573750534273014,-2.348870784860461
2500,-0.7268885092403188,0.39300989075799186,0.46926289475449345,1.767562976378589,2.9324776129969736,-0.6609264145063909
2510,-0.7375453337012264,0.3761186414195196,0.4426858655465981,-1.873607902645332,-0.23449335638025648,-3.5367038536437834
