time_ms,ax,ay,az,gx,gy,gz
0,-0.903157749301427,0.4259364544438192,0.4431389091513755,2.955798069177235,3.1111869103563183,3.665966991496134
10,-0.9075469088417589,0.4277865247840551,0.44128126095349735,0.5372602189089393,0.8138552462701991,1.7593594484970283
20,-0.8960241114510752,0.4364387826031335,0.4460265816315024,-0.2580111936315532,0.3957125334147478,0.8394711131028398
30,-0.920829931363264,0.41475809065875746,0.42344613908871254,1.5151645989899138,2.640302745355519,2.1734277513964204
40,-0.9362208963124133,0.39837977623683263,0.4104490759126173,-1.6567456656087527,-0.6161056689016723,-1.7288122898136962
50,-0.933810268417727,0.39616183782835024,0.41420175296167955,2.3741887434203686,2.762929631799255,1.6915894716084168
60,-0.922400273755592,0.40859132944167664,0.42893450556151586,-0.6604804463695516,-0.9122370957590418,-1.437483089934649
70,-0.9242977650717464,0.4093281166517023,0.4194296475751146,0.08976533351604368,-0.3949945648696987,-0.6840409577719583
80,-0.9039823699434764,0.4279176644539243,0.43900659813640924,2.2092662660308395,1.8071680287569907,1.8385657860974007
90,-0.9188159018670955,0.412017140448391,0.4310915870297595,-0.43742005370928316,-0.332849629508071,-0.5383995071738593
100,-0.9216278425254141,0.41047907262415334,0.42870403938830964,0.23543446583121141,0.17194282933456995,0.08396688779876219
110,-0.9239930395258313,0.4125389369729877,0.4233949540025845,-1.1033333077672898,-1.318646074296149,-1.411137955317904
120,-0.9072967837201669,0.43090206418820504,0.4367520851935886,0.6903632009033196,1.0497152094618145,-0.11913440216845528
130,-0.8995711152247686,0.4341341482080056,0.4423955814174089,-1.256953749335608,0.0029208406792526898,-2.9827769663516714
140,-0.9377377602931835,0.390971264288382,0.40516870363161384,-1.7582959198044232,-0.6187325994093138,-4.210542163241826
150,-0.9095201209570977,0.41977141649683875,0.4386891475277321,-1.6155311534836465,-0.8872195251847445,-3.932334398458474
160,-0.936837669797973,0.38729517322394685,0.40813783139090326,0.3610183396478787,-0.05599601920704533,-0.7536528554411263
170,-0.9036656798089471,0.4185962166368672,0.44469943045938,1.2558673677046506,-0.42920422158584226,1.030795728756221
180,-0.8991300390077285,0.4297590194747525,0.45079034506700993,-0.1568603414216858,-0.7959301439462321,-1.2199529166570426
190,-0.9131275408038102,0.4143900361116853,0.43331410394129277,0.0077092382672819815,0.7898763918737941,-2.028964834844591
200,-0.9275062270190646,0.39334293397562564,0.4166646288677122,-0.5831324801467707,0.4240274283966844,-2.7804515471457716
210,-0.8943922816622765,0.4310599697567059,0.4535739204352648,0.023522809846908244,0.6030624211976432,-2.051497999185139
220,-0.9063595297503989,0.4170069031500883,0.43536034870554585,0.6924076225382976,0.8863243753823082,-0.7318440688164874
230,-0.9274570477453385,0.399111854146423,0.42234692586121025,-0.28062982662353764,-0.5899007741514573,-0.7556652222210636
240,-0.8973846059378412,0.42716248410309643,0.4551168391134971,3.0043544699752434,1.5121912066180212,3.8095756160151857
250,-0.9520658570144515,0.36940633101877274,0.39640375864060373,3.0978448448772067,-2.751452598107006,7.615487366977568
260,-0.9145191346362398,0.41267449510620424,0.4431010605660576,13.582180442813083,-2.0890726627729412,18.08227447949896
270,-0.9164147262678947,0.41692327567039894,0.4485015702448834,17.500454099723324,-7.184213815826396,21.314936282229183
280,-0.9007840848816429,0.4214807476226464,0.4619733923701679,20.457701885198883,-7.304590131341727,25.899635348589257
290,-0.9206423128344216,0.37524553275961614,0.5052189660047821,24.724377474792586,-6.490727097731062,26.03392332413507
300,-0.952170337576683,0.3927023019926778,0.8518100700239448,19.26568196943267,-16.439109347731534,19.095511656541078
310,-0.7314346314364696,0.49165011664743724,0.44087482997831423,24.433252481114295,-63.4996452639462,18.476975092706653
320,-0.8393150803943803,0.5481512752172484,0.5449149420045797,-16.908117597682246,-105.60482944690374,7.770521909360859
330,-0.8536938093844917,0.5342328670582006,0.5446895905609623,-33.34134688130068,-112.30460769001267,14.656251940787916
340,-0.7698954556724937,0.4692961842062465,0.49926606434271953,-33.925181527312716,-103.50636994163406,20.220849348907436
350,-0.7518136078093973,0.38615796994205165,0.5120710155452419,-30.77966521905124,-89.28760913788885,20.129678629413785
360,-0.7466539619410774,0.3864161225961186,0.4779091141409323,-15.808523431370354,-65.87772895869234,27.47925474360233
370,-0.7276435286656556,0.34467651409070005,0.5289650424111861,-8.000825479544336,-49.87225909826844,26.431507686814573
380,-0.7995715453712874,0.3341022136773679,0.5181841572619583,-1.5077000397217049,-34.817488993543265,21.979032407592396
390,-0.9122025870602086,0.5263762386661867,0.6675151163475938,3.079443408741397,-13.823435610034714,17.147442416554508
400,-0.9028502483618784,0.568009077144924,0.7132403585824327,-1.9775766278682656,-11.085836473816373,14.9964677300637
410,-0.845424877849925,0.5364037302101055,0.7159246080749773,-0.7614983995006508,-11.246631453191611,19.232846251954705
420,-0.846334775152237,0.45738755016096383,0.6819975197987141,-0.9058707901464137,-14.705424864357173,16.196437109130304
430,-0.8396903055416296,0.39270296727918913,0.664323891012654,-0.6199203987073942,-12.835074299491367,12.884924118092647
440,-0.8460531233282209,0.40437504774679756,0.6877042393315027,-4.419815223126822,-11.202244401426812,9.431510966219081
450,-0.926419262562328,0.47419268565227113,0.6897272602789402,5.406497013158434,-11.53612041529206,10.888048089241918
460,-0.822109810468698,0.4865290624496494,0.6318150856255724,-13.147128765922615,-0.27561344140656896,7.866111061507834
470,-0.8021167313430052,0.4019824444756575,0.6897943960940189,-22.87322718547928,-0.3012591525565591,-6.0468528541973
480,-0.8906146037956573,0.31043198673843836,0.6576061007492456,-19.830628281735276,-0.5803235711772543,-13.798003954082288
490,-0.9483290716356285,0.3427574636577434,0.5990079271104435,-13.232598360730925,-6.765880042466137,-21.3241595921705
500,-0.9404446860069651,0.4768908169093559,0.5862446808785222,4.793696899867349,-5.395715814414997,-15.646707030404043
510,-0.9050908747900529,0.6265604321064343,0.6153227225000706,11.254336773451978,-4.734839398050793,-3.262244250220538
520,-0.9001239067794529,0.6241001108145897,0.6473256553647476,9.581948243142914,-6.834801076261675,8.104370951789534
530,-0.9086723467177533,0.49998546688635026,0.5928194643426725,2.9409364066594588,-10.005406456318918,0.9945901917944976
540,-0.835696094341908,0.4424064332170489,0.5892768883244812,1.4897585783541536,-13.319849217178536,-6.923166152773016
550,-0.8231483520427068,0.4451317201762589,0.5908644880688592,2.0195090923403605,-10.325858847974427,-7.7980496126378505
560,-0.8213787233238454,0.46796963302537037,0.6069780925578006,1.5632635586844381,-8.653786723754804,-9.310748759512292
570,-0.814265900465692,0.47912578945605,0.6152309620101792,2.3233627957814615,-6.434167782779408,-11.613755900568131
580,-0.883310923755756,0.4548255140263129,0.5642043135219943,0.3250035467836423,-2.4721905109195568,-14.450669820991708
590,-0.8817209381841211,0.5335979000142177,0.6602524343211706,3.4648730149016,5.2778990100310725,-10.246389892008384
600,-0.842390381822719,0.47489114751794825,0.7019042701426614,-11.796889215919018,13.36545553004118,-15.778719086551812
610,-1.0208906874800587,0.5655514616695329,0.6585011699887586,-9.824809422619634,-6.581214106389172,-9.855770268962786
620,-1.0068379685805477,0.5020714458966206,0.5772281328496544,-5.313729800974986,-7.960174396419055,-5.793200166163851
630,-0.8809520872321251,0.5007371877322481,0.6219724307812804,-2.4241685691062727,-2.428439251968611,1.5027576881280866
640,-0.8872146622055265,0.4881766821739155,0.6276073337871344,-5.24034511834247,-0.7301148107298908,6.799061831904223
650,-0.9205087318105633,0.5205935476315531,0.5708816331282057,-4.24283679841375,11.843187156934315,14.373311939559445
660,-1.018571235234688,0.5000639870137655,0.4233507367284045,-7.9588138966564115,30.37829029559974,13.57996554597956
670,-0.7798055949554038,0.45670773296595285,1.6442756536358991,27.89982365622554,75.17687651032172,12.50789323665154
680,-0.8036480394374633,0.3120155033496346,0.9674037443180771,20.15458464480595,78.33221304458232,10.98006727418769
690,-0.8729112503271729,0.6773250149073557,0.27835308698470296,30.871331443689783,101.17313714925052,21.10010282254306
700,-0.9994152951367572,0.7813824501703994,0.33211370994305156,13.37940451189777,93.59047639808455,13.596879597835331
710,-0.9441738536278859,0.8879821488759881,0.9251478529917961,19.8907698749238,79.55751164025997,8.359493337073792
720,-0.8071984871153319,0.8745607703770911,1.3482131004150222,37.76650342225373,74.49264743090258,4.284628616683274
730,-0.7329647012132042,0.4049810768613087,1.267061959013779,10.380451756011972,70.76928626750158,-0.23388819712927766
740,-0.8382607676034992,0.49558255296437975,0.28503603689259455,47.36156613696369,21.876296885299446,22.724482298089693
750,-0.8797791321006088,0.4868614624932295,0.4962308144801948,7.90243054099748,-3.285073686175353,15.434284843606832
760,-0.9052185133800941,0.454719894990926,0.5397750747009926,12.9024401456549,-6.002733867780418,17.71535181831241
770,-0.9147744896112763,0.48459175373521296,0.5314461005042448,14.595542156133865,-6.594909485899275,14.51053206971643
780,-0.9363648372936676,0.5005942874447602,0.5066462233805158,16.009586677855765,-2.5431268336162596,14.977111195385211
790,-0.9252055983831403,0.5273812647324766,0.5319611898800553,12.783195871712586,-3.806539522571433,13.780432153992134
800,-0.9102518697202283,0.5484696764257767,0.6012187411611636,1.496695128181353,-21.288292218279345,16.18010988221796
810,-0.9866237012601883,0.4461789885302634,0.6780286865429026,-45.9700262723679,-95.75958185425912,11.919104166657826
820,-1.2044621082473526,0.3274062642080467,0.6377775986813493,-39.92996098526892,-99.37804277721752,-12.571024594181791
830,-1.0186394200349724,0.45135823721584645,0.5974853808900341,-15.436515253086867,-92.02463051790002,-13.172217965125496
840,-0.8539424471855696,0.44965328611730626,0.5332152790625042,-5.3725552234388925,-81.06352350275036,-10.538238023901304
850,-0.731784531599959,0.4497996223718508,0.5332375483236041,-4.9429165142852405,-75.16285301565415,-13.84081215762668
860,-0.6693887167688387,0.5115953348786582,0.581057561855748,-6.239134730376592,-69.3695534363063,-19.493122714055925
870,-0.7897838221164786,0.5027507250656845,0.5528190091420805,-5.841486723900784,-49.878690807190274,-18.10925526705978
880,-0.857211583017374,0.5694256938855334,0.6704294132896144,-6.108097703759579,-13.260564298067216,-6.917651623512853
890,-0.8169373955440896,0.5283205101844947,0.6333844746246372,-15.695622440862756,-12.232889818126761,-10.13904419980721
900,-0.8250685139084545,0.47439723858375493,0.619262606858494,-18.88504715640555,-10.865965423656228,-12.790794134710938
910,-0.8440849049824518,0.45647878473219033,0.658289915535698,-19.671681780534257,-10.886498362397097,-15.417639543215442
920,-0.8542157986627331,0.510342754509645,0.6547811308756849,-18.84029854787301,-8.672698946112993,-14.658473498536639
930,-0.886782098081277,0.5112673477076334,0.6125623060459638,-15.765729756314233,-1.8557905181553678,-8.811769030423466
940,-0.8253319564365035,0.5349812611385244,0.6773729667457352,-17.88222076642355,3.0925193537129343,-7.441699934654131
950,-0.8448179899697149,0.4529512454264439,0.6544716375045534,-21.00676353168579,8.792975203639429,-9.599804955519467
960,-0.8075590334778607,0.4320005237503062,0.7001226606633181,-20.11642680933431,11.790771829347864,-10.939371096070554
970,-0.8332855596893174,0.40244727770060024,0.6486193618128279,-21.30192572355773,9.09339704560052,-15.748254926131084
980,-0.8582228674189719,0.3976458521344638,0.6844621185243928,-16.230194892699163,10.064410320659618,-12.362149015588002
990,-1.0805235638995367,0.2930144153275284,0.9485115943496935,-12.938037494531507,-18.09294226833436,-22.8941541103069
1000,-1.0504432669132624,0.41015734461657477,0.9231235131964396,-0.41334114513616527,-22.24373580723682,-14.565987737154538
1010,-0.8582449316656247,0.5307106602687901,0.7403020373709497,2.0691244711900185,-15.7189902092031,-2.330126674247262
1020,-0.792442173956002,0.4271752489938171,0.759164460408444,-0.17255659340588203,-15.187971122607385,2.653990328259687
1030,-0.8516031308706655,0.34110121680006567,0.6328001416995732,9.388287245850922,-11.116735813231035,-1.368009111373489
1040,-0.7476837223546318,0.12418376931178543,0.6069636274006102,20.101863444106183,-5.886331876462453,-18.361648634807857
1050,-0.8173309399668469,0.4343553635224465,0.9357765860081733,32.87295538263357,-4.955324684994943,-9.522176983721858
1060,-0.950132235360281,0.7633492775791353,0.7857093978374444,20.651510038643245,-8.05119168403865,-1.5223581021601096
1070,-0.9911187199748507,0.7869673508981009,0.647738114851735,4.956610013567978,-6.658371019783898,0.028154288878178835
1080,-0.9120764214533813,0.5618239656172465,0.5286523106455345,-0.4987115384560046,2.721583765806418,-4.959907433486748
1090,-0.8631422404961879,0.2407740843339377,0.29086569594001344,10.11183289838815,15.771263655631387,-11.104521899064531
1100,-0.8650190552366444,0.1527353276539819,0.23452095421996122,23.398335602492757,19.800747975873374,-13.44708786761676
1110,-0.9178728002374009,0.6510870146204234,0.6960480116269823,-7.69219421593368,17.29376692069687,-0.2970080271417775
1120,-0.9884562304803306,0.17817962295190717,-0.03713111336842513,-3.308402912721313,31.718609868076218,-11.062788992287572
1130,-1.0436518810788165,0.3012647302025444,0.029721031167672857,-4.4060182313550555,28.565638347410633,-1.4312143460266198
1140,-0.9921339245783096,0.4333297990517797,0.449521417058244,-5.3874977157450825,34.86922785549643,2.456226205222463
1150,-0.9064028035511649,0.5037661168093315,0.7855065478103329,-8.790575240272378,35.580305046960525,-9.982548747762705
1160,-0.858663513627667,0.6006074527856163,0.7953920425063523,-9.650322492896994,30.526073972321957,-17.681057723670353
1170,-0.8246295236185438,0.6681812820019123,0.6725208379857753,-6.371677543397798,30.692461782097922,-5.29191433176995
1180,-0.6760642676141856,0.46744840016308237,1.062450442920914,-14.205984020883653,25.737430100689526,-10.30331852400367
1190,-0.9172665678752178,0.9182919147289873,0.6032465722041568,24.177548666812907,21.55864890684602,-7.722146611051954
1200,-0.81364869686618,0.08245561957575297,0.8997690603205148,-30.306103488614543,20.032464547193985,-4.603188747854808
1210,-0.9392667472974168,0.438123479620381,0.6600310277951683,7.249108545768644,7.020663833561452,16.129311462283315
1220,-0.9685423921142072,0.692259528816643,0.5681672643607462,11.25682863495589,-0.4014004559627047,4.5879167372205565
1230,-0.8975641984287839,0.48661011354077616,0.6565513384785157,-25.83626671609946,-6.486563089738527,1.2832988371829426
1240,-0.7998973844817442,0.21619157765388794,0.6895393273771856,-42.68667483699678,-8.857730183608584,33.74925034160642
1250,-0.7789633484187027,-0.053596704447716574,0.5861047483489584,-45.93032104958768,-12.43383480778678,15.93416359603464
1260,-0.8963190779386804,0.2869422735804584,0.590358550982075,5.533299728461401,-4.0167811027997615,1.4647160882107046
1270,-0.8435756818153066,0.32672217337167186,0.6187276688553869,1.8502409717139174,-2.8327572351885273,2.031780507200006
1280,-0.8788956374035443,0.34550689851660193,0.5938168020398586,6.472082604892947,-1.3099658017124673,2.959293288443302
1290,-0.8737813378140787,0.39503728440039676,0.6038835568342982,13.878615529848737,-2.4875053720855558,9.074872910698204
1300,-0.8825694323567365,0.4068977070425309,0.5975915736956027,19.33966073783494,-2.3220254865600296,15.09604282699395
1310,-0.8752186718821464,0.3482364414725306,0.6004007692909045,15.478794395340746,-6.475482069806477,7.285647452445164
1320,-0.8201399321050795,0.2020754798763283,0.618287379696945,20.783462856742005,-0.8103603320199189,2.092531121959671
1330,-0.8289672375021985,0.06524323144249526,0.5508581187073266,23.393530675157816,4.309370989613852,-3.4673794816781784
1340,-0.9898301674734207,0.23157528330926994,0.9215682803181041,47.54065049433406,7.59168599737688,-27.60313383932895
1350,-1.0664392253600403,0.9089010455187967,0.6250859187893579,37.27290493127293,-2.688129456803613,18.55355985460372
1360,-0.9554365504018041,0.8301945145944216,0.6938329630661709,14.90671091491562,8.851676031029909,0.13465117868665893
1370,-0.8573895111566778,0.6016049192639484,0.6684925873042875,-5.197493713741129,20.662286040002492,-24.883433351476594
1380,-0.8940676430013884,0.5081671309845552,0.5035887331063416,-10.305258977957397,27.474669057990763,-21.961544665150683
1390,-0.8624503247684847,0.5505737376368112,0.5809088007451387,-4.203222354096374,34.769858233929305,-11.871426898173942
1400,-0.8285436318673525,0.5241194942519979,0.5216679833846497,4.846684221105695,48.479197233344024,-7.709704155734235
1410,-1.038632447962817,0.6004281172540988,-0.022226818863804423,21.9021860076919,32.06329857301361,6.688189279019177
1420,-0.8722085550217525,0.45868257673178675,1.2143786563436005,-6.084272992227383,30.514228638615677,-1.3630331875740525
1430,-0.8256662187819227,0.4606623127873555,0.9173820849711383,0.3978811664437317,22.18438068063589,-7.842683118284324
1440,-0.8182326145495388,0.302555100445735,0.8382658688419633,-27.146351074667113,21.880331294669055,-14.479717038601695
1450,-0.763018443962014,0.07075035438206892,1.0201446959765146,-42.31070023735108,17.476163768296196,-17.016345172913585
1460,-0.7450815216020119,0.07539051818459816,0.9486694318473604,-15.452939250572305,6.360073511209663,-10.662867766847912
1470,-0.9680892676203056,0.33862961184039614,0.6427069557660771,-5.488245296735637,1.1720936219520912,-3.750134716107125
1480,-0.9144637644332113,0.35187221635994487,0.6004152414332439,-28.93387325038593,0.829156285759478,-5.2976532354637
1490,-0.8412502258026678,0.8091556945506587,0.626257693485115,0.8808353420861844,-2.273912874734849,28.509760828305453
1500,-0.9105240553704969,0.5531657997884372,0.5132353821713264,-15.868377857630172,-5.439268012326778,9.86125324537831
1510,-0.8673666204142557,0.4681419291622291,0.5625163102163808,-21.117967556647496,-7.567985585094018,16.70089357112923
1520,-0.8609475323642733,0.641596554077324,0.5542072020912291,-7.653025164680755,-2.6524173543251326,5.472361692904167
1530,-0.8772229946397683,0.7308148890900116,0.5155868990862105,4.078112542492159,4.343459105576011,-14.667717090797547
1540,-0.8733550983307844,0.4763553659172248,0.5480949864869057,-3.421329177617241,0.43188043465560066,-6.832503201827255
1550,-0.8938444076733595,0.42527685830846035,0.5539635644056804,1.4926764987225212,0.6901271920236517,-4.329563343119225
1560,-0.8974961865997813,0.4263541320866985,0.5356454777444837,-0.981979834753128,0.9191372358418082,-7.361465137999591
1570,-0.8767193375470291,0.4434680289734036,0.5473640265280553,1.625127165512302,0.8987256484193775,-0.25100691552490073
1580,-0.8861388340271111,0.4354131299624679,0.5388277649500398,4.083373971296871,2.1144209866584434,4.230016419585559
1590,-0.895607112116053,0.4275470877228514,0.534078007664352,-0.31128079013278187,-3.340437139965479,0.5033568162057396
1600,-0.9128037614963332,0.41462810479008205,0.519504280115009,1.4491997681886721,-1.7438853954572058,2.458595910883261
1610,-0.8936133313203131,0.43999342440950856,0.5391894328569453,1.6084913275593578,-0.3599951071570312,2.349068298900187
1620,-0.9038640786230207,0.4292164599302482,0.5317672852889125,-0.393752694593303,-1.643593281585741,-0.3150813701978332
1630,-0.9263241817708515,0.4141049120733436,0.5070962499237285,1.5398494254234838,0.5304700067771382,1.1751692695115097
1640,-0.8733330529991977,0.4629473132761615,0.5585223594609615,1.7642337504527885,0.0024406390794917687,3.4585581978546074
1650,-0.9157417034489602,0.4191519615118901,0.5132489863431166,1.2276232462457375,-0.5490844452418466,3.3885240316823264
1660,-0.90322811297612,0.4295146059649707,0.52894677653717,2.8019346482967453,0.5013147507767418,3.9571487614334235
1670,-0.927172159533156,0.4094265442225845,0.5086232571336425,2.9653200311867725,-0.20458072950482642,2.2754228039669098
1680,-0.8790862362329531,0.45008902694061265,0.550056963812981,-0.2650412141909628,-2.9300981754910618,-3.3261662223337023
1690,-0.9216591451402141,0.37858212863414864,0.49413115616122005,-0.6821469276590797,-0.7939656422458117,-5.845925268813181
1700,-0.914018238394991,0.41273637583975253,0.5199317055066255,-0.05023365453922138,-0.0065644861482968,-4.0810495281338595
1710,-0.9209541817282306,0.4078164577056666,0.5152877902421766,-0.06981395974733046,-0.6273896584424095,-4.2991247303919575
1720,-0.9076997304561738,0.4162035838277912,0.5224180123360576,2.624167717239319,-0.056834369886615166,-0.5780835196345917
1730,-0.8764167969524831,0.4455902574844744,0.5545492750009963,1.416182402740506,-2.0783067784509024,-0.780435282989497
1740,-0.8908273106611251,0.43696986065672766,0.5454342219695197,0.9394272753374264,-2.8375582124195624,-0.7857375472526029
1750,-0.8731850888921595,0.4611939888013278,0.5654355931956018,2.6084001905828553,-0.04704067825413005,1.3772657764133052
1760,-0.908072335160376,0.4233870574061897,0.5275722432555686,-0.4873777127020684,-0.8110217532624224,-0.8328835718106545
1770,-0.8617458333059373,0.45694905635718386,0.5721324035209403,-1.325020409769487,-1.8994033775190966,-1.357093977349371
1780,-0.8799328420767046,0.43755962093020034,0.5529912659361699,0.0065112371553864845,0.8276242753029512,-0.5679173412869569
1790,-0.8947567008259518,0.42408842453402124,0.5349785422827843,-0.6096191371505587,0.5339710598329197,-0.19833236466288648
1800,-0.9014784582761007,0.4234230046258325,0.5326621069968412,-0.17366473481375644,0.6303581280656373,1.2726153640662736
1810,-0.8924386047882625,0.4348686485760703,0.543265616009853,0.6317795477623342,1.4667366533587605,2.9011971569804174
1820,-0.8858796225145329,0.4400123438630896,0.5466983582701632,-1.4555716109235302,-0.2924782267702155,1.2456838570375666
1830,-0.9085686377777403,0.4147594250555169,0.5191542266004611,1.1205062773236638,2.065849867069184,3.83160924657519
1840,-0.8794422307894543,0.44257371373222193,0.5446165601224519,3.070209392670702,2.7155435180009313,5.0230349274526285
1850,-0.8870322377439889,0.4423745744353304,0.5376592070524345,1.5890310701768668,0.24804327580918883,-0.027016226320239478
1860,-0.9205347431338126,0.40849816224335284,0.5090716328997474,1.3494802972759814,0.5177188117600524,0.7862927942664605
1870,-0.896956656758455,0.4286295469121129,0.5361811721662031,-1.9216587995437804,-3.035721807551154,-1.2635121816978758
1880,-0.9079730621178549,0.42219132901522444,0.5232838146066171,0.8767333028613647,-0.7782486930156908,1.5519132223911936
1890,-0.8738757406367261,0.4603200130588673,0.5559434474097845,1.085011110663681,-0.21147710629333893,1.132025944461548
1900,-0.8633398538518018,0.4698905743251206,0.5687827489165532,3.4204938575330868,2.4827169739862196,2.57072567070916
1910,-0.8960610807779377,0.43331395510484444,0.5388748671733957,-1.4435502613871454,-2.2670636796296524,-2.931381981333176
1920,-0.8912953616244811,0.43125582210301927,0.5406798187653199,-3.0370013905771085,0.10632955575627934,-3.1737863337411003
1930,-0.8719741221601317,0.4587447054095508,0.5575744417652886,-2.4923689412569963,0.6522031902119787,-2.698437299388068
1940,-0.8774251808663333,0.4517392465721362,0.5555588580768815,0.07552578744395877,2.68872082931454,-0.13979914343193744
1950,-0.8675637008247555,0.4613990944417006,0.5645608275926627,-1.314685660990631,0.5888093209463701,-1.37069840154137
1960,-0.8901604564450281,0.4350487460800243,0.5402253575603451,-1.4981898828917268,-0.4304852974571449,-0.7810574857545388
1970,-0.9127679181347055,0.42087437493470625,0.5202511039837656,-0.2354186097338517,-1.551029557502323,0.188552248974933
1980,-0.9063457913360264,0.44130235476728025,0.5322259614682521,2.4170728312725775,0.06466931587727986,1.509590118972616
1990,-0.9017518350853687,0.4263006094784477,0.536564599291143,-1.554045201260125,2.3869551791669172,-1.7889663204475585
2000,-0.8710228038061563,0.45109464955063855,0.5628341654553713,-0.404545362988612,2.7982316991686793,-0.6980805376494825
2010,-0.9075763549392039,0.41390878538987924,0.5281524248446475,-1.0635759504403357,0.7611871993212919,-0.8263091140928841
2020,-0.9096958239349076,0.40615042851581273,0.525253520300204,1.6542291811650798,1.680604796458213,3.0286055157053138
2030,-0.9170445966078922,0.3982668530909479,0.5093295807664678,1.161591816906114,-0.7388271736196821,3.561074867129746
2040,-0.9056234386112714,0.41755253219346694,0.5232417021798241,4.757298232104044,1.3665738890820425,7.642289605392423
2050,-0.9057316180778199,0.42575309369048775,0.5322850329670115,2.608667333244955,0.28598360930437494,4.405144788254069
2060,-0.8757698850527056,0.4541973793855496,0.5572675997781834,-0.12268603669017075,1.7462197041191931,-0.8855328240454003
2070,-0.8762046643657122,0.4483846173665689,0.5580411811524977,-1.2054955477414864,0.9060048700743453,-1.285720269836534
2080,-0.8817677988548723,0.44378421777723476,0.5551820456831211,-0.3480437794991015,-0.7072734011452763,-0.2009784500350057
2090,-0.9066741198229248,0.41980267700273693,0.527937124313535,0.5431265734053159,-0.5235322326928128,1.8346527022057146
2100,-0.8974213772240138,0.42947538998509005,0.5339824138648954,1.5254695024436997,0.4318773279713575,3.3064707341165973
2110,-0.910474348121999,0.4174531946335028,0.5234171564125926,1.5950987237658454,-0.2996565842233848,2.683004391893035
2120,-0.906445328544289,0.42150768878064837,0.52840688181985,2.2048154494638816,0.1541789736736658,1.8658567823824654
2130,-0.8665389751173722,0.45859626305575824,0.5623158351581576,1.2882545927269229,0.11940261919923106,-0.06195005473558535
2140,-0.8961223079702874,0.425627762462082,0.5325848977859234,4.22205759472936,1.218333460040866,3.4332599885731385
2150,-0.887090293027953,0.439057293386154,0.5454196263306277,4.7907859815877565,2.0007527370282436,5.457403458458405
2160,-0.8981592973959729,0.44129290452383646,0.5303579536350558,4.3400006756658325,1.8267144976694039,4.967111520924515
2170,-0.9187417206158357,0.4236082070160213,0.5133516230817489,2.4706130107317916,1.2401856234571902,2.1084009191073707
2180,-0.8750063322847177,0.4646079020696671,0.5606198584301731,-1.40881474299647,-0.6391073823604704,-2.903847721472258
2190,-0.8724164064891953,0.46157793424331883,0.5623051791140266,-1.4962312267809585,-0.8428226877564483,-3.321339203519874
2200,-0.8943987624117099,0.4335890265157353,0.5377629799787134,4.934665618211806,3.04656440164189,3.8318183357713163
2210,-0.8760339550203843,0.45176866115906134,0.5560542918315998,1.9300791900177057,-1.4256868822347641,1.9753335377900387
2220,-0.8937511154374572,0.4516883653584854,0.530253334865385,0.39563672151407814,-1.8413617667195288,1.4311807282584277
2230,-0.9133779990380422,0.43013733138453375,0.5170514708325922,-1.4506073808511464,0.7777578496192166,-0.5658405873037414
2240,-0.9005301368216926,0.4319143823378141,0.5266350307177833,-6.976194580603382,-3.1896192493980666,-6.9544436937323315
2250,-0.9135439850767975,0.415275345750777,0.5211323500925975,-5.213192416329864,-1.350644900850582,-5.717353957550952
2260,-0.9121931922150754,0.4179580375029165,0.5219519521970555,-1.8642096152545617,-1.1464674007798121,-2.202178616137692
2270,-0.8716068402299013,0.4623724898266541,0.5561793567734972,2.1935575442307145,-0.27581633375789677,2.058881176107135
2280,-0.8948881670137487,0.4456886939071949,0.5375064028602776,1.0699705722821395,-0.3917584977874956,0.40427579656025003
2290,-0.9150767399346603,0.43077581863668135,0.5227876389848533,0.179477322353857,0.38133371602023847,-1.3078623523710886
2300,-0.8897939813345428,0.4527743715755361,0.542301830928331,-4.906930254974798,-1.7617349900830235,-6.65501942382355
2310,-0.9300926652490976,0.4039098766966488,0.4973863367976107,-4.181162673915189,-0.20394193761230073,-6.509561248362482
2320,-0.8986487856096235,0.42844827613621156,0.530927859942235,-2.2462672570275113,0.37108032476334474,-4.35270551776958
2330,-0.8818112111855718,0.4494794152169894,0.551369904837669,0.15193652349970868,-0.3417720351248713,-0.2839450889302152
2340,-0.8873914253550462,0.4506754557066745,0.5461037097392656,3.22972317813952,0.5340266521103452,3.953951782325623
2350,-0.9251456325965832,0.4134280033136006,0.506949543437108,-0.8355927588390588,-2.7169491881657066,-0.46139493971664436
2360,-0.8945064298512786,0.4422564195378494,0.5408812238139644,-0.8245479955181665,0.12787158920332226,-0.36428375261359314
2370,-0.896237372161155,0.4309597562912002,0.5411543324415595,-3.2170090262914735,-1.1390120255079543,-2.7580466345892
2380,-0.8959973094896192,0.43652780831307186,0.5407419428007998,0.07563245894691617,1.0168218721542848,0.23580903593655134
2390,-0.8920734224576572,0.4401434263162272,0.5415270111835152,-3.1284591880736414,-2.0220294206536504,-2.421347756705371
2400,-0.9111021306632593,0.4217679473758448,0.5217580540687186,-1.0272854049500768,-0.493173046029422,-0.09181863036699378
2410,-0.8685618885439563,0.4658861557406348,0.5660054177262968,3.8232975547055896,3.970829319052266,4.412262330634157
2420,-0.9127777950804,0.42222570420046335,0.5235635768218362,0.22908896300561238,0.8061877165918278,0.4555962672217596
2430,-0.9144330559590454,0.41913268692915207,0.521811823147548,0.8973277391767938,1.9185861330599228,1.2202465881618643
2440,-0.9011290054058055,0.4284453026158231,0.5339734431410161,-3.1450664440233873,-2.254622220610807,-3.116346590011018
2450,-0.9017251380671343,0.4318467636032893,0.5372467210769287,-0.5118242561588126,0.4305816555540761,-0.5053823283972916
2460,-0.89039967198351,0.4397792358739934,0.5430770868031185,0.4370546490429147,0.9481476010287399,0.3515028182671647
2470,-0.9237879949800224,0.41430449478927456,0.5078187600495756,-0.8818259486358082,0.6790367251842042,-0.9807516250962027
2480,-0.9255002745452674,0.4148660851661872,0.5087082422403175,-1.8819036463545773,0.6903199484230633,-2.1381174780640233
2490,-0.9180247019241669,0.41402769391216215,0.5160567873915688,-1.541035314164502,0.7387790136670445,-2.2525673245883056
2500,-0.8990840895851904,0.4243649230869401,0.5306257267273121,-3.4862153769573268,-2.5748935000124415,-4.729861035206717
2510,-0.8903895675544257,0.43343782068515835,0.542008133406883,-0.20662074787272786,-0.3321405253469403,-1.4895747503783268
2520,-0.9014154914635216,0.41463400886576723,0.5259526846110462,0.8966754378214709,0.14911767648546714,-0.17972598279190632
2530,-0.9074076175306045,0.41292880132693177,0.5229409987412817,3.1452589623578437,1.7820912390357095,2.412942730045894
2540,-0.9083853661819011,0.42286102607375253,0.5229753752149677,1.1409017694453842,2.1851203483073087,0.677746822875702
2550,-0.8903085732955321,0.4398089811798007,0.5390863150470667,-1.9653514442066957,0.0026716726581614836,-3.2008577141116668
2560,-0.8885313314113071,0.4354122599613983,0.5395833861639809,-0.8906159970332568,0.7280089533006312,-2.8600585895361332
2570,-0.8948134863855802,0.42711104317926135,0.5338670387786226,1.4545946581110525,2.594664728088681,-0.3746160559134175
2580,-0.8871863981663894,0.43419094398508545,0.5414938726297566,-1.037079621394854,-1.0575733651856414,-2.364739645046292
2590,-0.9020319997667929,0.4198745122096294,0.5292902731392998,2.1733972752688557,0.5233420680472838,1.654052580351041
2600,-0.8910522828862758,0.43144700680423453,0.5465225219102792,3.2607197988523713,1.5854437075773489,3.72747825279957
2610,-0.9039653457769354,0.42068446838243395,0.5344089031307894,-0.3983195158121049,1.0476197538690162,-1.391838671715314
2620,-0.9055957175071151,0.41595980836039775,0.5286016389995856,-3.393645516712515,-1.0189274061790594,-4.838351064783622
2630,-0.9170170729982078,0.403559760570496,0.5190720113423652,-2.816693512033193,-0.553261265627671,-3.435130989633034
2640,-0.8905560676674376,0.4297947575757742,0.5465305286827497,-0.8650883035409228,0.9999398522117015,-0.3968015277290347
2650,-0.9264494756231036,0.39005364793711755,0.49963925680321947,-0.14428125996759655,0.7630339417123826,1.0980193005908427
2660,-0.8950234816893081,0.42444067851053063,0.5248610163860012,-2.7013067392727335,-1.8927351587022172,-0.25140945145082383
2670,-0.8604745223395243,0.4604894222865857,0.5677441487359687,-2.5132072594758954,-2.029620423503543,-0.6260398082446342
2680,-0.9055486794276211,0.407451848280069,0.5191489508309265,-0.5429745183727115,1.238611779738178,-1.1572763658848766
2690,-0.8598533480653228,0.4522109775510582,0.5644270139542736,-3.176800273450266,-2.093538552408161,-3.8061022324291676
2700,-0.8845545460712257,0.43067781605161487,0.542121380032134,2.1850276386371768,1.8895341265686163,2.547218731896993
2710,-0.9078697996228702,0.41087896733661405,0.5202339439384491,-0.6148924260266172,-1.3324418787235888,1.0338144914902045
2720,-0.9142420902881023,0.4081475760083184,0.5150561632273434,-3.682604987815401,-3.7268803742471794,-0.956008295179128
2730,-0.892024624133003,0.436064760273352,0.542170375422958,-0.7585423613164026,-0.4043640772053004,1.579468908149321
2740,-0.8729947102854294,0.4584010325358194,0.5523774509514906,2.6613216236838135,3.2552302064965635,3.1191231613975194
2750,-0.9009775410702278,0.42495425924181174,0.5327030352901447,0.29240309947740256,0.7631661177624836,-0.36872955904261306
2760,-0.8891669694321834,0.4295981792595403,0.5488593499672187,1.2576085585408652,2.243002615237767,2.1001558907876343
2770,-0.8837172598030445,0.43866958545252316,0.5521496797356529,-1.266788987541396,-1.0086564984970217,0.4952384200982858
2780,-0.8968641198904727,0.4296046808803045,0.5347137907695148,0.11705664674283395,-0.490523916961792,1.3925879916806665
2790,-0.9094873904480312,0.4158632515576512,0.5186700457387999,-1.512233785802758,-1.8071031724428208,-1.3918220629414704
2800,-0.8992143027679339,0.4250609924382167,0.5266445867454098,-0.9336224322914988,-0.01653298436291152,-1.7330321354921845
2810,-0.8970093100750552,0.42503601777036804,0.5303306229569762,-2.2102742649891858,-1.062291509710606,-3.807908673712847
2820,-0.8957958094097355,0.4240952496650269,0.5345023033737702,-2.606278669394478,-1.6821303568781083,-2.760896256230602
2830,-0.8858692279917455,0.4273332865703032,0.5439303714006405,-2.906630200762961,-2.4201242148861475,-2.481668117534319
2840,-0.8972446837949893,0.41940032072447014,0.533164994556089,3.500276468571842,2.7500628988907643,3.8448518139624923
2850,-0.8840553116702381,0.43601864693142967,0.5448812127453174,-1.0286751127804687,-2.274278479422012,-1.3147379512511879
2860,-0.8975425697371421,0.42152807461996705,0.5307109141272113,-1.2084049885753947,-0.969649778237796,-1.6127333499093925
2870,-0.891638876776606,0.42490496264965755,0.5393821512904534,0.9246308289377843,3.583344322051187,1.235765480057864
2880,-0.9014712862530548,0.41302547458224453,0.5290499669968917,-1.4676119263770087,0.9010224439439048,-1.2666642763618574
2890,-0.8803138187959154,0.4325834429324888,0.5408912307310979,0.6080858105191393,-1.084264535226813,1.4734434760212283
2900,-0.8924497970639405,0.4308567013858543,0.5418201878926983,-0.42995554841717376,-2.839090297613647,-0.4661367179078759
2910,-0.865934419630755,0.45711346451781354,0.5676801215347422,1.159373899839931,-0.3407069814516613,0.2311337697445123
2920,-0.9004166733023103,0.4198270142554577,0.5273481307047442,-0.13849780254011246,-1.4582889063640754,-2.14777219256847
2930,-0.8880468124212085,0.429260790772442,0.5399873079854633,1.8197585719416867,1.7020955250101533,-0.2655308567846042
2940,-0.8964689383365615,0.4160316647514633,0.5363767894890011,-2.744915019402095,-0.66695689125094,-3.6010121890396896
2950,-0.8884275480536354,0.4192608734346178,0.5423179273710541,-4.330865885621911,-2.5605828022629518,-4.178038176365924
2960,-0.8889565239149543,0.4289656640111536,0.5383409120335566,1.0189123907980528,-0.0204255558301486,0.8011383774370866
