time_ms,ax,ay,az,gx,gy,gz
0,-0.7283359609796093,0.2262000053369902,0.3863713391438171,1.1390827406278787,0.31284564513992075,0.6269631251708263
10,-0.6910195672314251,0.2657935018036772,0.4292545595919249,-0.8353871384575582,-1.7032129706773544,-1.5438863482789245
20,-0.7230487007857969,0.23379929513943096,0.3981725254125619,-2.296679240004357,-1.1016203085135328,-2.4417677205041732
30,-0.7050991927447755,0.24608553570379096,0.4086225762409213,0.09005203756813096,0.9878763358008297,-0.1736711684535449
40,-0.7173393634188967,0.23213881501506883,0.3962285590065867,-0.860762926263273,-0.6199395615706905,-0.8222945356966095
50,-0.7165024346797617,0.23598277422231684,0.406264924495372,-0.056386125057605846,-0.4694439368959501,0.6878721890977895
60,-0.7363413984426816,0.21860451479094048,0.38542490158998005,-0.3851650471508246,-1.325432027998036,0.4754913760716737
70,-0.7253263343836281,0.23086003861523893,0.39672662444190776,1.5328806085871618,1.045254610522404,2.035878484006444
80,-0.7175562156510182,0.23628764579421285,0.4024008231093583,-0.2952563022255166,0.5218888300854307,-0.6949907984791602
90,-0.7210055692424638,0.23128079694642223,0.39857606169714044,0.6813573103618112,2.3251480032910665,0.2943823877560805
100,-0.7038264401748885,0.24770488765097326,0.4130096050604451,0.4751187141888839,1.5628142833901597,0.8147535378886779
110,-0.7217711316921176,0.23242186546473956,0.3958281906584051,-0.8268857887185671,0.021740048716284877,0.4467281357159054
120,-0.7049760369913713,0.25106853888881236,0.4107657809866219,1.1555135985863876,2.40818647836506,2.9923452786558253
130,-0.7043324290507037,0.24934118663174104,0.4100601375762841,0.7069510154541206,1.7420871926503485,2.592970024965581
140,-0.7508116391777309,0.20594418735178222,0.36954598050275383,3.022701997581397,3.1910824889602765,4.185711143657798
150,-0.7202825331768915,0.24393913755511787,0.39724907315722474,1.156867023215636,0.7845762047593277,0.5922196455171075
160,-0.7108749355524238,0.2530391872866209,0.40758269041160883,-2.6421636381448,-2.034342180267484,-4.130614482496842
170,-0.7378511980368555,0.22203033334883782,0.3796716621880462,-3.0414091449602063,-1.4379847910035244,-5.3403763835110265
180,-0.7274063088627198,0.22619271501631347,0.3871167965345604,-2.843892474877349,-1.0146844260935006,-4.907817597181989
190,-0.7275454235044161,0.2148094030923578,0.38876270885883024,-0.6353684213987247,0.6444495701973812,-2.2962577588451403
200,-0.7166188413281285,0.230443644837462,0.4010779294259069,1.0514259878361236,1.4484216454780956,0.57103617387951
210,-0.7007865505316049,0.2580591781704864,0.4140693234972257,-1.5129666359805434,-1.1000923850165458,-1.309655796089801
220,-0.7104950180675875,0.24709955000133454,0.4099607042868139,-2.2067258327857764,-1.4471833536947654,-3.2088964906228554
230,-0.7311929765879216,0.21726979929765172,0.3757348808767258,0.7945732870845739,1.7239737274974403,-0.9337884358100941
240,-0.7614361700740281,0.18623218888601245,0.3554055959495357,-1.913048222430947,-1.9058458432710628,-3.2299738046215096
250,-0.7005260670586642,0.2449243172926302,0.4194964362632823,-0.6317213482919091,-1.8460260716644938,-0.8110315979315973
260,-0.7290406760775955,0.20861329522078337,0.385946117429877,1.8592864378941751,-0.7151623210881979,3.973206430360261
270,-0.7266465158845249,0.22936115312167213,0.391107182263799,5.78844551094075,-5.35632317112279,11.18363326850633
280,-0.758514974868977,0.20677902134345313,0.3651661033547008,5.289538643395558,-8.6840244169107,9.736896934197194
290,-0.7338088387050167,0.2511180563853154,0.3935981441185473,4.680262353877624,-7.434321318003226,7.538457475957116
300,-0.7538349437120121,0.2846311359511186,0.4690853406479981,6.26210249507919,-6.630965161680057,4.736340733229149
310,-0.8079454806957933,0.23420134382926963,0.37050996253247553,-1.5409973487501083,6.522907918359181,15.843028850458998
320,-0.811972808497818,0.18527871060796253,0.376575171280009,9.933818147618009,10.850780380645709,21.776844498708947
330,-0.7422685817654784,0.20678720098693879,0.3789022913946613,21.467783692329142,12.252009414085881,22.83780243757761
340,-0.6190563233093619,0.3426255156216541,0.39206165078906136,13.119844477306762,17.972369966547042,23.910908561744677
350,-0.6268190980011221,0.39795986537520467,0.41466100656948507,4.354826077726145,22.020686698608166,22.892831638186323
360,-0.6647067778299243,0.37715464557007705,0.399780796726009,-2.0751762619693492,27.325974570204902,22.713793798386895
370,-0.7780370414610879,0.19971224288403874,0.49636373971207687,-12.108726572536115,17.945004026790887,3.7880492012427016
380,-0.9189104270071244,-0.002799045434091308,0.588751951738067,-12.809880040627899,5.219017771534138,-18.72860182769574
390,-0.6948239945279067,0.30905345402663686,0.4256104254603745,-7.18697410380131,4.655691836149383,-13.380325103685205
400,-0.750152666794924,0.24860649789997025,0.400225802198566,-14.00318628149631,-0.718131164640238,-8.5147190172384
410,-0.7372351941556725,0.242653994103757,0.4224509705342149,-17.300792283378,-4.130125986317075,-10.80859602097292
420,-0.7435841687226052,0.2967620451663091,0.3493926129955007,-12.005554033070311,2.3757343391562067,-5.52122677822968
430,-0.7225510904430099,0.23213923126143193,0.4705460877803814,-11.213452178993371,-1.981259022747128,-4.07029145450674
440,-0.5048817067494972,0.09641730464638065,0.5815590284069353,-24.345858723528224,-56.81954798472962,-3.7960263329599053
450,-0.7244139098239641,0.17619520556117038,0.48907319247601294,-21.275447195527587,-4.924655676060912,-12.278124555844087
460,-0.8255484839989713,-0.007703181803425237,0.37568643800622237,4.881711652479765,-40.95103895378467,-6.0344964168532895
470,-0.5420813404070918,0.06534948049630705,0.5948459762533929,-7.0065455724686,-61.48539593621655,-12.597200231283376
480,-0.6287119429844898,0.07901706345336315,0.15420260685746257,4.165504436256869,-62.25079297410968,-14.079873743445114
490,-0.43508665846793715,-0.38710338520583815,0.30502879143812567,26.32917591989837,-51.30224249607524,-16.88242587148809
500,-0.3876354915123112,-0.09425568653056836,0.5072071483144281,2.832061464202865,-42.26065111458272,-19.342239504852017
510,-0.7999997981195528,0.4104855885761649,0.48165963028588776,34.755731471183765,-39.36473188641755,-8.230161278712941
520,-1.1611375824900108,0.21688262946894754,-0.20692631450911447,27.57900313065201,-48.14506614944091,-14.970299159551427
530,-0.843429079795792,0.17997791404981683,0.11287459984022838,8.40725635151032,-31.875661403877306,-17.934782328522022
540,-0.5473925056875444,0.2694971509770083,0.6680974050470738,23.105438181552437,-20.48396585539142,-23.09792040636083
550,-0.6579323972527408,0.17557842800154536,0.5783249752111108,39.21290222626361,-27.589725390008777,-17.956961521426745
560,-0.6772825707293716,0.39433132374617996,0.5818341267452417,40.38053348395185,-19.33184635711747,-2.8898233321393203
570,-0.5848916053877228,0.5240999016644903,0.7621398486620522,46.84102821300923,-0.7501099391386374,-7.576289126666799
580,-0.7414642691559385,0.2612404576727633,0.9164742200693367,44.96261340118798,12.510671517798137,-26.952184549215104
590,-0.8886882588147192,0.2710464035071346,0.7820688435232639,14.79027749435887,25.725647587925753,-23.92776675014679
600,-0.7039648651954149,0.2648350519868433,0.2986955292276488,-18.82911634773553,15.153781389495608,-5.485803935109345
610,-0.6239097490298997,0.6799089420679391,1.2754104773055697,-33.37013055881955,18.248107856453167,-23.36774643097916
620,-0.6990733588683014,0.4828882144494447,0.9647937527777086,-19.21594870222368,38.541363048791986,-29.500875565597017
630,-0.6066904613170611,0.3062356155044452,1.2341388574747976,-21.87644339687782,40.61939133431579,-30.408385442526242
640,-0.704224663572618,0.29807733152125704,0.3548984300514574,-21.408751401242043,31.48218512425684,-20.089595323233837
650,-0.746028026153986,0.5954422457203911,0.4401543525689745,-48.15623651004508,17.4819712724021,7.1616154300835
660,-0.8794344949251525,0.989168911081739,0.5318753475543032,-32.22124841912429,31.525715193068844,23.555163446784455
670,-0.6165477402278945,0.3454176352098819,0.6470865487833382,-44.15987323837552,22.95161670094456,-6.885331574075954
680,-0.7660922736444638,0.34977710679593893,0.3713291122404008,-40.15587774982951,11.354136660591049,9.78446503088347
690,-0.930482591296951,0.5961075212780285,0.10126656697941114,-11.668338339667402,11.271220413001894,23.504223079530178
700,-0.6527242438456363,0.4329362392584366,0.2117602314376324,-70.20584657156697,2.8922412503401276,14.025409004367598
710,-0.5608991524263129,-0.04630660317342421,0.4004659880553436,-34.559526415088676,-9.924438828592598,12.755182186784374
720,-0.5638789867311842,0.16469618255335117,0.6570927076546379,-0.4759871755795088,-3.126987897462283,12.481648381557465
730,-0.609598779752062,0.023685505512038314,0.4774652487298417,-3.914975776304969,0.6534634725348751,-7.759228897648883
740,-0.6660169487990627,0.07119832263803962,0.40682715634145084,-7.381844617881196,0.2760548362357974,-13.543553245089303
750,-0.6858891008676034,0.1825778314110618,0.4509984653929431,-6.882745088274958,-1.327440248380122,-3.87257302008735
760,-0.6884943316167685,0.20076978942937979,0.46649981790816325,1.641636897573728,0.194845177821799,11.599330142529832
770,-0.7439396369487339,0.2757417093781558,0.48082807355094553,10.719242647261453,-10.38152904674392,10.289630303243586
780,-0.732724688253147,0.3005164248846455,0.35704214056760897,13.93921728840399,-15.666457205783791,-0.9227238805387308
790,-0.7074164805344632,0.20526676795825952,0.26913300046364796,13.245117374105263,-4.466556851208704,-12.025516436463286
800,-0.7793313934028898,0.3234819342230528,0.6657983725531055,19.18527827956931,6.781393962217535,-17.701254131980093
810,-0.914993341592475,0.642995880326215,0.8040168594357239,34.09839359333212,12.693752552951963,-2.440032346119079
820,-1.0188056148778697,0.3184705146201125,-0.04032446112321641,37.57854503056927,12.067026050108806,-4.8389021652399
830,-0.7774700640232196,-0.5446011422497467,-0.30052788470472197,19.95667393952319,24.949612947613144,-42.23122017906448
840,-0.882032987277233,0.5376647905251412,0.3834555471841307,6.966037429108983,31.163997782697272,-17.916002578113346
850,-1.201550025975526,0.9813766984276155,1.04417200293112,37.922579231687585,50.13961859346468,-25.904553318330606
860,-0.5886396272139328,0.06332903467371184,-0.13977514328736598,14.87014393905115,47.72913222449912,-24.15679859736402
870,-0.7811579469252117,0.22046578645230983,0.549217762107398,24.098584308477395,18.8561519268691,6.3212496176818345
880,-0.7160261839087322,0.3500592484219211,0.7741456264066995,10.642136941172073,36.48982074739684,-26.736892372222208
890,-0.8200609242369952,0.411308282352516,1.008005320122195,-0.4792390319330271,38.34118602008511,-12.032230146900751
900,-0.7576346050677113,0.36289638587625256,0.1283200019878929,12.342185442510411,38.24860268471885,-1.7681794204710326
910,-0.722125707224141,0.2606535364566956,0.44223073028677284,7.278691470922375,17.06713332201628,1.5824941420523597
920,-0.7436630490546537,0.19942252718082623,0.34063442742540284,0.27072699776746534,16.631100088111292,4.80667522954044
930,-0.8163850885977362,0.402747768203849,0.17770469774386816,-3.598261232780832,18.15268791955498,1.6961214812714287
940,-0.7357464295702463,0.3935442427975187,0.45581018407359786,-0.5176480873451611,25.40238056498663,10.536602259430923
950,-0.6624389382679227,0.18452933182993536,0.5726864473327921,-14.848282706728833,15.700859544825358,1.9977408790220785
960,-0.7493278387218976,0.1437026192004508,0.49186301779720276,-17.189212592848953,9.162619728273635,-2.348442191563385
970,-0.7059501138791844,0.34704902201646254,0.46642205564752837,-8.103476518234217,13.250407587428853,13.041989799099841
980,-0.75131015820178,0.26693768596566275,0.4596530844949396,-19.72633210999143,3.352591543565537,17.502938062403942
990,-0.6521761546168576,0.05014124654180238,0.39835894192528065,-48.860329861114195,-8.870131559537123,11.904156258592382
1000,-0.6677870787501052,0.23628749490270154,0.532091657810216,-36.94613224577538,-6.918241468221362,18.95207272873795
1010,-0.7947304072347642,0.48902442936165313,0.644576779565442,-18.950196052084777,-2.2057964285826532,17.32873155412647
1020,-0.7588745548901707,0.4645014366011952,0.5325854301354115,-35.356338553292716,-9.913391635848,7.632102257341393
1030,-0.7096684028745226,0.6039987794272733,0.7173330372138951,-12.91547572100659,-8.891993266640153,15.017351818395698
1040,-0.7066932105498309,0.0005041447704044535,0.2707016285952664,-16.143287980575842,-3.115961205244209,0.6925476729644817
1050,-0.6207143030922045,-0.34161991944620757,0.21124823770612502,-35.9576704817235,-22.732370844864832,25.94187511590054
1060,-0.686530549869041,-0.05590798060307761,0.2494388646305938,-7.223634059296828,1.5324629233483584,-5.642974861116027
1070,-0.733851126825612,0.28898318939804807,0.4167075426168827,-5.938874606568893,-0.9349420256865497,3.3306274670573552
1080,-0.7606715023826518,0.2542294897867346,0.37981496120171254,-21.89361208614588,-10.412668729668358,3.304645271309027
1090,-0.7105665325390282,0.17326972083460981,0.3427186558540787,-4.1776685882819296,-3.003008143739545,-2.566569748511813
1100,-0.7590586684065694,0.17932828025011552,0.3316958645347063,3.5434447991900715,1.77742441650651,5.946104311806241
1110,-0.6864398379890639,0.17221957725230783,0.3172377909256548,4.082029968093806,-1.8187213116492669,8.839032445851343
1120,-0.7040459341963425,0.21866375993404596,0.3586014361796774,2.233704937143613,-3.799704325187,3.0085376932731602
1130,-0.7007956260102884,0.24442725510750368,0.38288033511490255,-0.6393549723821563,-1.8570986897027697,-0.9872599670930671
1140,-0.724504777160322,0.22121605215476448,0.3597891887762283,-1.1218513205401905,-1.0780322151952662,-3.500969003465915
1150,-0.7283399343345097,0.20793213993965484,0.3546853316098881,0.4082982762745877,1.0763664278805891,-1.1365528969205034
1160,-0.720007914763806,0.2156433045445859,0.36219450898444167,-1.631650608542777,-0.8506751047501823,-1.7224139682485808
1170,-0.7171409927400189,0.22438076827127765,0.3612092294351171,0.4348204110724509,0.7474824455568058,0.5679469619595813
1180,-0.7027985400880667,0.24353379244575885,0.3777855770884521,0.7820844983006608,1.181399637623693,0.20875846584173674
1190,-0.7283322836790078,0.21484179933394323,0.3558246516378224,-2.2100876608541142,-2.049499340190657,-3.42285127166382
1200,-0.7341035652567529,0.20316202013158352,0.3503145038923455,-2.4119306767096225,-2.7720344377501456,-3.822809573744755
1210,-0.7349107844450322,0.2172310110043344,0.36447409288675237,0.2476801985047068,-1.023369421502868,-2.2322190859069444
1220,-0.7236224482414686,0.2332782414268498,0.37500263779256665,0.042735592865449146,-0.3756156977320303,-2.540981823166625
1230,-0.7004060823889974,0.2392056125314784,0.37737485505552404,-0.13763903636791952,1.326632701432053,-1.4188951701279136
1240,-0.7479845334824834,0.18817137329566153,0.32827503032174377,2.4731662023427425,3.725154605701771,1.5546607670592714
1250,-0.7370909008877861,0.19966970052726166,0.3402358999875213,1.4940154412793616,1.9716455279556944,0.8118866993898195
1260,-0.7560358343481847,0.18183922135184788,0.3220881532063639,0.22716988666273935,-0.029460994524932376,-0.5261718452654696
1270,-0.713776010976427,0.2242602374470306,0.3647553476357802,-2.7930912354466644,-3.201865958371855,-3.1634204318121046
1280,-0.7396032180321426,0.20457274298360736,0.34671759115526596,1.165388337689337,-0.9410751861541076,1.6566182425973168
1290,-0.7180940854841685,0.2397960403971159,0.39006738451048856,1.3364091017566928,-1.147148657817944,-0.21242633802720856
1300,-0.7494876292781906,0.1916789660097981,0.3318768393480804,-2.217820093595953,-1.7038590578780124,-2.797459000787842
1310,-0.7210351071561016,0.21757781871612877,0.36163068309062296,-3.225639096018339,-1.6700365940164068,-4.203113954032872
1320,-0.7312188728283119,0.20392469840470118,0.3547156532885534,0.41981111577033325,1.0382990814184603,-0.11795032291390806
1330,-0.6923412772826557,0.24276192929817234,0.38987364090732735,0.8898026733502089,0.35780905454906686,0.604507896697663
1340,-0.6934294294307247,0.24568842721730202,0.39321508890932716,1.6919348769150722,1.3912487154623634,0.7557343863768451
1350,-0.715078576732864,0.22267779356074405,0.3707034993083095,-0.9633135077288086,-0.4566798445577601,-1.8040566521814483
1360,-0.7522046317612693,0.18824868660904798,0.3332410881216906,-1.129179155279249,-0.5579092407613121,-2.243964768503891
1370,-0.724891972305806,0.2111705159185499,0.3586832003227201,1.131904376228119,1.6419838499609734,0.2774737452028262
1380,-0.7393238103959336,0.19834836525135294,0.3436613895122086,2.407393258326157,2.129925586090846,1.347788330957609
1390,-0.7431879682285973,0.19741288913710806,0.34229171619403803,1.4010772316722335,1.099758031066333,0.1352552798982971
1400,-0.7609305916952235,0.1753432137376502,0.3227151999564129,-0.1304514085999127,-0.5479166315062098,-0.5001464582061796
1410,-0.7082988591495296,0.22528681850746227,0.3718617197757547,0.40477664413272263,-0.2791648884571225,0.8710685353991842
1420,-0.7116400238167215,0.22339420382450378,0.36868130044151176,-1.6695143773410481,-2.4890371617966167,-1.002640432301731
1430,-0.7151174783307903,0.22177894208578255,0.36652482739846004,1.4380912705448354,0.5528571318609711,1.7698024793966858
1440,-0.7238053975950844,0.21617393813749997,0.3578937791503562,-0.1695075354382507,-0.39412818324293136,-0.3291480858735846
1450,-0.7197287813786044,0.22084889141315675,0.3627430384910779,-0.7283690252711654,-0.2553292456029239,-1.3037882117930613
1460,-0.7262634635337841,0.21028244264017049,0.35647329899979646,2.911768116701296,2.4964562186740764,2.281431918699954
1470,-0.7224640598149633,0.21411287248275446,0.3594318542344346,1.0290910879413306,-0.7546061817043774,0.9307107663390557
1480,-0.728775047684053,0.21037078446509966,0.3562536024735074,0.6507685558328506,-1.2552178451390472,0.6667143939084428
1490,-0.7259836611895473,0.2126274826480857,0.3615248457792035,2.0042483856402247,0.9680798798927401,2.0635565061220302
1500,-0.6663607555572293,0.27999780539453256,0.419541504913616,1.5709324072899298,2.020975798132361,1.7068656363118975
1510,-0.7329993092039716,0.21318914560542124,0.3502679929278099,1.1238194993308124,1.9160917832436948,-0.33135832774021345
1520,-0.7259792657359634,0.21352679626105409,0.3612895348858703,1.4215133409910619,2.1390918012747795,-0.24863143993028136
1530,-0.6988665937959372,0.23318411040754472,0.3810964272256415,3.743404983527265,3.6248720737703484,4.02444881531615
1540,-0.7242056168377032,0.21396200985752745,0.3582332748735324,2.297479764960749,2.5299094608433688,1.8099357356725267
