time_ms,ax,ay,az,gx,gy,gz
0,-0.7646252206219902,1.03154512859464,0.836534178439283,-3.0776044246103664,-1.2622619459841053,-2.0656206326087583
10,-0.8206547414116384,0.9764801046834282,0.7856516504546355,0.7906237391851532,1.2515167974824228,1.1560202047865855
20,-0.7683926864373923,1.0221902437381374,0.8334324510592489,-1.0984417891920464,-1.017387494996795,-0.7990006716393714
30,-0.7559087040738991,1.0365891362895312,0.8417466204210704,0.9279347093817705,0.6011773049053827,1.1396925496311492
40,-0.8015375105830307,0.9958560612584116,0.7969674512212199,0.7627191176712906,0.0842710013718288,0.808535387834725
50,-0.7922571446996435,1.00583037625463,0.809176153495732,-1.5879478261837279,-2.2376575502710754,-1.665187819627891
60,-0.7700775389097275,1.0330686308462123,0.8245135777392727,1.2434133079311698,0.8058606751994635,1.0509539014600597
70,-0.784708981276477,1.0170956650906535,0.8142439247529799,0.9630375939505842,1.1627256082145836,0.8285040235261524
80,-0.7861678854181114,1.0128368989554422,0.8173687810839809,-2.3554525895384693,-0.8464107092997368,-1.4164872181059098
90,-0.7793627615560951,1.0156979886084863,0.8205929564764457,0.27786863499678294,0.6821375643857124,0.8925195092249331
100,-0.789610674577031,1.0062419119744503,0.8092159420962047,4.659243367129002,3.862818411480995,4.718497528118507
110,-0.8021702371387319,1.000877102324666,0.8026675505197081,-0.9290746116484492,-0.9866163949971873,-0.3892337304466509
120,-0.7971352799108173,1.0103789006897863,0.8034599117448186,1.2890135659069932,1.7256362797606384,2.2853020688342562
130,-0.7972263043875178,1.0080668271244555,0.8071487924546441,-0.1512215754635151,0.7414929926912601,1.1562233901202474
140,-0.7995852399089145,1.002330422953862,0.8041884360491419,0.3102090847843754,0.7643816611895569,0.9444694274180216
150,-0.7751995883221149,1.0260199830886119,0.8251078656416084,-2.8468525394910866,-1.5732929265707511,-1.8744442517861828
160,-0.7774915617663162,1.0167422202358016,0.8294946631072659,5.63869969516975,2.749324398941548,6.02997140831507
170,-0.7771446452759914,1.012405059568716,0.8580032078978935,16.29298088517726,3.068021181633599,14.354493709665366
180,-0.8237863039357931,1.0013389240361283,0.8775932333054071,20.591923852306696,1.2963440875819998,17.601791976329974
190,-0.9037452023479086,0.9704971294459608,1.218302949600943,14.038096061024037,-7.743609677424402,15.24255055122078
200,-0.826821474521152,0.8426409016604773,0.9728547408959183,13.977724858308683,-13.716040346351884,2.106085403143667
210,-0.9060873602840764,0.9057368583425573,0.9828137397346836,10.304650289419172,-21.516697214985694,-4.724272635021581
220,-0.9454857215616678,0.9836547773573356,1.106941516085365,10.171733368789901,-31.13085587046931,-1.6846294760940443
230,-0.8285488205716902,0.9928006919657871,0.9980011052097705,0.027931009625516534,-44.05291329086302,-7.955567387433455
240,-0.5674944760183223,1.3270644902228215,0.7168924779384978,-37.658767104327026,-42.96198866839313,-37.02518051703216
250,-0.5467435758587533,1.3587908703310143,0.8090959881291032,-41.34896902575704,-34.86452428392824,-30.446137242173773
260,-0.555908926741417,1.240771734539835,0.7791260085395789,-45.452974134613974,-28.574302622529174,-23.84907995050908
270,-0.4883124640012174,1.1732908148620105,0.825578864303785,-44.87797043896892,-18.443674968959833,-17.945072174639602
280,-0.5508059520926953,1.034913462212996,0.766859749105802,-51.74379076018283,-10.373923907968,-19.566218032518663
290,-0.5683853993438951,0.9981211916012899,0.7593562028874665,-62.13476287783201,-2.343498785277955,-26.068930340861804
300,-0.6883214426063121,0.8568451960985509,0.67461533165525,-67.79149790866143,0.7876161972579121,-41.07686653667815
310,-1.178367233402776,0.8426018956646157,1.022599192650529,-46.09284734064797,13.013868643742102,-44.75679740915105
320,-1.243906392192698,0.9513951773477134,0.8251313481705458,-22.148389444694303,1.7568123809880367,-21.462704287519948
330,-1.0421482849247818,0.9309219815529332,0.7447634599036241,-11.6137436646596,0.3271535134157153,-6.906910180724823
340,-0.8918803301936211,0.9032223354556621,0.6959165388694423,-14.143841509402003,3.2208147732828913,-4.481233662133544
350,-0.8897538153245538,0.9179436560375552,0.5439857217532785,-4.926686486233523,11.719948401674397,-1.3140816191134441
360,-0.9912173245745297,0.7560018025816607,0.21617025702789303,31.00052183396479,20.042993678826257,1.3425240092946644
370,-0.8878819031475959,1.05793615281936,0.6779363109337933,55.099509826758585,28.88760013879585,9.553234456217393
380,-0.7506154449932652,1.0961705384479614,1.3847315033727714,101.24542011004577,35.028835065532306,24.149587864434682
390,-0.6822802283723755,0.9923358928946896,0.7850477394628893,84.49983130759605,52.20436845921328,23.834794304545113
400,-0.6218590596267087,1.0869989368904434,0.1617132828546522,49.48160120137202,48.99666299198619,9.669875803814207
410,-0.7176718625603634,1.1480855460013597,0.04824424447993932,20.755892253280805,35.1973475369151,-4.86889393923249
420,-0.800629769046285,0.9644212715640899,0.2598260739485107,-34.30507420528245,34.03437609055368,-22.74098734849586
430,-0.8214365941371468,0.7326057407725025,1.0164137509912539,-25.741086134129517,20.883399544968928,-12.177400053474775
440,-0.7929408055950242,0.9153077192337664,1.0503417093188787,-17.564385251044264,10.110037159763655,-2.9820032013751927
450,-0.7853332591997115,0.9741193749082754,0.9686485689690123,20.430230176090674,6.781561732543559,19.428246170936177
460,-0.786808491507631,0.9617880843834495,0.9296295438621328,52.575649652188034,5.712930101652016,40.685292975122586
470,-0.8171306495708729,0.9235383451252486,1.00731490225065,48.01876730814736,-11.738459283651004,37.720196271744165
480,-0.8739928015914674,0.8947002392100666,1.2183605048669675,30.36685539315545,-32.99756841845656,25.285868119860897
490,-1.0831017339686537,0.8879908540440241,0.9730425819448844,-0.7858038326922399,-55.00362274628173,3.98519091427875
500,-0.9937310553584984,1.0734846558681943,0.9056617124808785,-22.716648771592393,-64.41921649812465,1.0771391280292604
510,-0.7820567064844357,1.1402056315535285,0.8716934780606476,-33.23817768557759,-66.25291639211835,3.5907814170790826
520,-0.5621054536814928,1.117520571858911,0.7006970285917224,-36.27585390505936,-44.92640904068351,1.3784658958266403
530,-0.41720006028785594,1.1509045239410554,0.540231409301674,-34.96741258912315,-5.941132157060695,0.37136295414308584
540,-0.49285234375811277,1.240565377895268,0.568118543964487,-49.423629700377695,12.047969167376415,-3.8163272522741685
550,-0.6057470787990114,1.2373454486013449,0.6762510572529582,-66.1463139257572,25.478712899185254,-2.638208342853825
560,-0.8326423441671487,1.0976319577844327,0.8757372945886379,-79.02504354824926,27.393165211933198,-5.59323195902099
570,-1.1230744922522355,0.8717995317575578,1.0333184817694658,-75.49810321289628,3.5208026554788296,-11.109805166193663
580,-1.1357831829330258,0.6256185591459011,1.2202735899008919,-73.19783587615406,-14.553126820155402,-21.84927533354854
590,-0.9577280313209932,0.4669317609209549,1.235229244643877,-56.38943301286736,-14.84350428852245,-25.79688072522305
600,-0.8095715238506367,0.5584520415556281,0.9943213522753173,-8.744318701035043,-9.275783156670462,-14.900638061594274
610,-0.6835293427902837,0.6210066255287882,1.0826325922849755,4.596485495925661,-9.8491500484066,-19.19456202403079
620,-0.7925925979095367,0.6699087719687846,0.6581861865257144,35.77199785436169,-7.19312521418262,-23.975085719203598
630,-0.8032861317286916,0.8859316033649798,0.7660358159422814,64.80860758326108,4.565296440376072,-10.059610236957624
640,-0.7341053792994652,0.6946906068250389,0.9618182093131462,63.90630305757188,4.601126915537307,-17.55376063642904
650,-0.7701719778090212,0.5491534654711223,1.1263455078320574,59.1453753095369,7.312902373132556,-14.889435724084938
660,-1.0484432127790455,1.0062658509628732,1.2676872252633746,73.45046862861092,24.3138244489316,25.802415006534495
670,-0.7253724751541196,1.1665140087163635,1.360500515365035,48.255804705683,23.986062029772874,2.600016490433358
680,-0.7909364188798854,1.198925741120702,0.74735634141702,24.847418294596057,21.47325311800719,3.5663981991330833
690,-0.765063311776675,1.2898008948232933,0.5676674236631994,11.976128293990714,22.756007289951047,10.36799814442847
700,-0.7382478359248069,1.228757289114639,0.6834920890263028,0.2539682517725962,21.088974609446783,14.24223345622223
710,-0.7558517961279917,1.1198124084839103,0.7460288589593889,-0.9645542823315214,16.76627823900879,18.058944369418214
720,-0.7691470918108503,1.1027476998476706,0.6137976235907536,14.697508820912422,11.102597853031968,23.85078467964256
730,-0.722472299570767,0.7275969336857006,0.8110116654234847,20.07353977887597,2.223614072487286,19.408314716254804
740,-0.7508194994836951,0.6432038773879307,0.9333103442840348,-13.553842630307088,0.8648039784264405,17.234430030218707
750,-0.8310426488864529,0.5087730991118258,0.9197292074189449,12.108859207411008,2.3913133088762017,14.359397228931615
760,-0.842703257301656,0.6793050557677099,0.8853376242132005,34.616616721323695,4.510014536798019,13.722644952391278
770,-0.7496249656799818,0.9594518865111934,0.9245656466904792,35.74645736231237,3.8386626241258854,12.59413478593099
780,-0.7869161407563474,0.838198782986473,0.8578596419234937,26.799141899247388,-2.9510100654798466,5.766377797193657
790,-0.7521887886222822,0.7693273016569043,0.8581977171373116,29.54841608804537,-9.620418388567971,-1.9603679096804503
800,-0.9429297423203117,0.840209549956383,0.895285149378204,68.66258567081063,-7.306970157766724,0.2190890526409708
810,-0.8960214812583964,1.2494718740758477,0.6707309452410396,91.65798108527247,-1.623137722521818,-0.8405064467237695
820,-0.8960249813531889,1.3167336961319398,0.6200948957007599,69.59845168976497,-1.8139721416781005,-14.197932437838649
830,-0.8821990981477897,1.20712841859082,0.7564277388605766,42.36590825840495,-1.6565926446187322,-21.43830953269903
840,-0.8303275667966222,1.1861059472402957,0.8051987974441837,45.409008044008054,7.673310634726901,-7.894027587451508
850,-0.9434850636946154,1.0435004462775461,0.5806737062832914,16.74693939532029,6.1720593131501325,-12.55856316274766
860,-0.8658948051836174,1.2168274926683695,0.750782064653616,6.8159466495709164,6.9018959943209435,-12.903114017555847
870,-0.873581054353458,1.2407823186291236,0.7230904205001801,25.22725206643563,14.156954285555493,-10.030955554624857
880,-0.7432599550589822,1.500569660237154,0.5899654252014785,39.55126537199059,20.83064288912728,13.116590647230279
890,-0.6899334531780965,1.489248170577526,0.5595526935161672,26.64864390921441,20.61677731687348,28.89182841902138
900,-0.8225318810081454,1.046052624155569,0.658888574409406,-14.218763092303783,9.45621253636754,16.10995415230044
910,-0.7632634650670495,1.2602281052008535,0.47082959114622336,-36.39345811640037,2.494621089923549,16.855122142952776
920,-0.7448255757907342,0.8374891640179456,0.790196544356349,-42.697556971556956,4.326229252228934,10.594508598693126
930,-0.710672086935769,0.7498455233283179,1.1076539161403611,-39.1302743924496,-2.077556635194483,6.185360307595527
940,-0.6966044585754171,0.7522186728552952,1.1168402707918597,-20.94132708156914,-5.182318277061766,12.148659853082785
950,-0.73098154019277,0.815260005466616,0.9340607885230788,-0.5483289692648105,-4.240513147532248,14.687963103282012
960,-0.7922467928513066,0.9296770467289812,0.7888897201702951,13.45242545168827,0.22260160582800526,11.181058366134325
970,-0.7891606733883124,0.9914951652238573,0.8013467705708575,16.41928679018647,-1.0178320623122827,16.19017296603617
980,-0.7722219135167937,1.0340241202772942,0.8012065883465147,14.010986854282947,0.9443909725664509,16.83643474212212
990,-0.7872295426945352,1.0378405406788032,0.803260626026087,7.124203093855245,1.029377345531193,13.446875753858693
1000,-0.7939170558725787,1.0254771664061209,0.8146415213266323,-0.36596139972466535,-0.9086891424315596,6.455115726195583
1010,-0.8066703467140429,0.9938381327333083,0.8004867351221028,-0.6856474475240466,1.1521654529266123,3.5566276717796557
1020,-0.784274586032206,1.003141029596208,0.8087170384486049,-0.02640789240866459,2.2541766935775813,0.13753166722645727
1030,-0.8036606770461215,0.9878604843134031,0.7959226263708903,-5.068696892048371,-0.0805685082641455,-8.09283028813498
1040,-0.7560119780880927,1.0163138186468021,0.7883084522798718,-10.0363014266854,0.4237142870380428,-10.001839222249236
1050,-0.7950859690654124,0.9782201447194463,0.8125304396363531,-15.078246888259343,-0.004157733644805317,-10.349595775699264
1060,-0.7625320994030755,1.0006079451819396,0.8549483371447495,-15.075782860481599,1.0102048859340138,-7.465026094538134
1070,-0.7956453665881849,0.959002744158039,0.8058708116976192,-15.02872452291808,-0.6293180261195477,-5.969782898137195
1080,-0.7767500729961878,0.9819652259393715,0.8281541415758794,-12.681560847616538,-2.018740030402729,-3.648445060726912
1090,-0.8081651888107393,0.9590999955648813,0.8087987824504022,-4.0519472823716205,0.3260578775767672,1.9756289914892666
1100,-0.8210147925191484,0.965424991675596,0.7947260034051828,-3.3701335031029886,-0.12408315963705574,1.579572609317981
1110,-0.7779724704267914,1.0036204462577998,0.8318196752443874,-3.12713828985228,0.6670675059300715,1.6710365791770228
1120,-0.7832734279043657,0.9934384335923233,0.8182550799326169,-6.283349024071603,-0.8634792719037783,-0.5778776026329582
1130,-0.7904563656103856,0.9783002972874848,0.8059610935583879,-4.563025362180495,0.4764869849656136,0.9001459065684
1140,-0.7590742789228122,1.0008488273039962,0.8387587756670265,-4.213893863420258,-1.7459170870195657,-0.26619726627100215
1150,-0.7711667974308929,0.9933443147924097,0.8338419139115185,-2.611557502019366,-1.1310313848694362,1.4218458234506453
1160,-0.7797719589523849,1.0030357489679107,0.8345299509919704,-4.765709083292578,-1.6425377397981962,1.818814892133634
1170,-0.7624889107008677,1.0021266739347305,0.8259823311749801,0.4855530150422723,1.1530852772464033,7.212834790251261
1180,-0.7619135854077875,1.00226087668879,0.8271659190661058,5.663876594793613,4.700024364690063,12.437216393483428
1190,-0.7840780325134667,0.9846482904844251,0.8140407809645747,4.75695765765496,1.4323150524800452,10.85424974479266
1200,-0.7512457901926527,1.0232680495211797,0.8484576333599724,7.293195549693489,0.3194392440024061,11.108899903687934
1210,-0.8080882845389844,0.9890275815953765,0.7916144836408301,12.140297421016927,2.846710524970584,12.338788961197334
1220,-0.8015313401071861,1.010225028147039,0.8070701101467532,5.852024005916091,3.3893683779445016,6.964695539253031
1230,-0.7921140670794906,1.0190921203426315,0.8199344943788448,-3.388313155093899,2.5610374455075333,0.08371562005572503
1240,-0.7777751204202992,1.001999648085218,0.8226467035702624,-5.848289114638455,2.6038902369449315,-1.412768966639971
1250,-0.7582009178787059,1.0038032757441653,0.8367830424196353,-3.9453467451054447,1.2033615283871377,-0.1547548367267313
1260,-0.7913834022465541,0.9850170313834492,0.8052545813945469,-0.219942321304877,0.32691973997523016,2.771238652469561
1270,-0.7876692009055282,1.0127749188080555,0.8008881702737223,-2.538802962466678,-1.8835574074934034,1.4125995005676595
1280,-0.7963434622657863,0.9954998994081126,0.8062507218123103,-1.9522264535877492,2.4555975796586127,2.7909025473693556
1290,-0.8023639825780704,0.991755014352294,0.8159215537244352,-5.164644767441871,0.09394322754731499,-2.021877570855882
1300,-0.7951785295900436,0.9943099091553602,0.8187222811645531,-2.4763062497563535,-0.13107466567765558,-3.101029221999209
1310,-0.7626098436536783,1.02304545014472,0.8403856590313039,3.7428919011037216,1.9761208950841993,0.09929755086680458
1320,-0.7935147461021953,0.992161150867931,0.8050660769512835,-0.10291537747195578,-4.377786134931242,-4.236571305780228
1330,-0.7879430647387593,0.9971899795707918,0.8154276967120001,4.67607778589646,0.9848854404575396,2.25788812386921
1340,-0.8019582825321488,0.9778801518517566,0.7964197479326262,0.2578340630519522,-2.369625215909031,-1.38649432459297
1350,-0.8042344590153224,0.9717817615076868,0.7994810457875106,-0.3908700933203768,-4.102143191497984,-2.543439921501614
1360,-0.7868214610519265,0.98942985807136,0.8144719693462104,1.9330008303159762,-3.1765801084019993,-1.0524586321798086
1370,-0.8125615302800097,0.972460600465429,0.7894190594764764,2.7281248010282018,-1.239334022957096,0.4331744512068311
1380,-0.7763213466178038,1.0119678525364288,0.828606423034461,-2.5187983529883224,-2.7053012096071933,-2.856936545220516
1390,-0.7736412882154642,0.9972819519236021,0.8278782400165993,-4.301082889827213,-0.8815582277886911,-3.344597872601693
1400,-0.7772572018092059,0.9962794243646483,0.8241466300585957,0.052964912509039674,1.6808678889062845,0.1730121848692252
1410,-0.785074318145196,0.9922397823879296,0.8215368530818925,-5.586727319625494,-5.089168532470377,-6.186275466962521
1420,-0.7949946109654882,0.9781131099942021,0.8139182945825579,2.0693059758125263,2.026777053903073,1.829504940048682
1430,-0.7919847586620137,0.9848957645100164,0.8204161696017026,0.4085218845855748,-1.1661401113861338,0.08842150602853327
1440,-0.7787184607853433,1.0014805202018906,0.8319952583340608,4.687247984388889,1.6511873234706755,3.9497879426575357
1450,-0.7795931527503245,0.9892494945104324,0.8186348469449278,2.2484828118714923,-0.37017374494833144,1.5299058887286707
1460,-0.834662387123558,0.9419129185711975,0.7663606823146659,2.10324266160314,-0.8648455967845846,0.13280969853441327
1470,-0.8367668060113922,0.9391010750277833,0.7708415048007355,1.148464704338061,-2.098476707915912,-0.8561805441087196
1480,-0.8116193429292808,0.9651647219356732,0.7933013648373413,0.2722955294164777,0.030676519168161165,0.5269915757511786
1490,-0.7853791172578309,0.9937072771799865,0.8191138156645308,-1.5510863094873932,0.35703107379566074,0.42541369277831464
1500,-0.7870552027517237,0.9955507601816854,0.8202295010131108,0.08228653275719755,1.8499887183526473,2.2606501162609565
1510,-0.7760913729558985,1.0098469889552395,0.8317499292882767,-0.06828324657141849,0.7887541842689921,1.760326154294961
1520,-0.7796302670501789,1.0028200216781584,0.8265042329059418,-0.7752776044434935,2.184461821956836,2.5867475337333223
1530,-0.7779232150295718,1.0011124922572021,0.82784899046803,1.3130849670865261,0.1391610125150836,1.0695670070435195
1540,-0.773380909697335,1.0043102701078537,0.8321607320560371,3.360570712669504,0.03938096229571055,0.6225755801913604
1550,-0.7839730945876284,0.9992267854053402,0.817414308903814,2.365355010193671,0.8119099513099627,0.19557658315897775
1560,-0.7964609985785178,0.9903089049292466,0.8033210050857971,-1.2971330985438927,0.04256930533138298,-1.6769285614397265
1570,-0.7931904606668644,0.9868425046516579,0.8126511522411574,-4.037841567358223,-2.505678725851185,-4.260624415004659
1580,-0.7785103425263907,0.9979910844969846,0.826432285408372,0.2932435861976298,-0.3869139752010726,-1.3162024774332148
1590,-0.7635261820226706,1.0135384837523456,0.8399106813256785,-2.1007559090992167,-2.944255284844801,-3.0956136210241505
1600,-0.800591647929803,0.9732294486763315,0.8048884623815835,-0.9123900138319192,-1.5383031879245186,0.6217533708917007
1610,-0.7717902484338752,1.001326595572909,0.8334949817676056,0.7587356490992915,-1.0660678621579451,2.9266856487744306
1620,-0.7742777402202701,1.002484411663283,0.8282968593190636,1.1308782826818713,-1.8972771309796401,2.446525966871653
1630,-0.7796696946380458,1.0030394258594684,0.8214998032620253,6.695628129002641,3.9217464884280453,7.332387505220551
1640,-0.7923751174402036,0.9940742969202478,0.814486321980609,4.316057979643718,0.9358651021712463,3.5879426626251356
1650,-0.7560769631768186,1.0306107316555062,0.8454281306272442,3.2891846493149886,-0.8195491593418299,0.44038299407116666
1660,-0.794455674674734,0.9899023385287936,0.8093164171850629,1.6264165376699204,1.39979859984402,0.6920832765642129
1670,-0.7928164383668362,0.9864285093570193,0.8140054985007575,-2.3884341794872284,-0.452679177926893,-1.8903614842297813
1680,-0.7842463466848223,0.9906749501853838,0.8237366272464698,-5.519661133739602,-4.39700668019562,-4.998770536861095
1690,-0.7755599320644406,0.9989804811414553,0.8320623939660349,-2.333942105964167,-3.44010310915268,-2.4799071272117814
1700,-0.7981942692300934,0.9785892244063463,0.8095714794284046,4.7726852331413285,2.0250054738720937,3.6571983749638064
1710,-0.7551680154247281,1.0246361784741318,0.8532530611256052,5.640289709108943,3.491005814868813,5.180992895641408
1720,-0.7864695843369726,0.9910952503445248,0.8157938376067029,1.6979730823520967,0.801425630965357,2.200385848787719
1730,-0.7596736899140152,1.0213510401889612,0.8405668320247787,2.6320120813249552,2.5316403463315718,3.6235087395888264
1740,-0.7814813896364983,1.0054056259412747,0.8216524716909702,1.6628701283050848,0.754698500470836,2.2016309059618746
1750,-0.7803665908580315,1.0090782782216687,0.827863652283046,1.5419835086482057,-1.180162163371277,1.1650614779467092
1760,-0.811479972625293,0.978236364206141,0.8027327251143334,2.2914655296758677,0.17155933574579613,2.2790286148000822
1770,-0.7818027609397421,1.006357983079595,0.8277082903303561,1.473051509957227,-1.5361838825266165,0.20676736928020079
1780,-0.7858967571977381,1.0046363042944182,0.8182154498892537,4.280265190670363,1.4595607046560464,2.186935949256637
1790,-0.7717387045998383,1.0165835127397773,0.8266190639700106,-1.5939638143266808,-0.32014715262606513,-1.2332625958010681
1800,-0.7874931350311914,0.998450115879267,0.8154328642331824,-3.504898910931677,1.2689498005090696,-1.0872661243565576
1810,-0.7726604496956546,1.0118571194575146,0.8413870386850326,-4.740839384744171,-1.7586464272089133,-3.6525903286990626
1820,-0.7794416657784066,0.995105450736557,0.8234343678929888,5.266887692466707,1.2958813806923428,3.780606734135521
1830,-0.7820713248611171,1.011595181947111,0.8317259488142045,7.613421991155992,3.6070951942095917,5.355324403025822
1840,-0.7918333936012524,1.0006155067762323,0.8080767575632782,1.273254615627502,0.682666189746171,1.0617589204613271
1850,-0.764512860771884,1.0246975996039585,0.8394486128579806,-4.910939900451084,-3.7678251507009968,-4.33416630796931
1860,-0.8069063221278152,0.9778185223399903,0.8059732575827928,-2.9021658194121596,-2.235525820622211,-2.8495434348003332
1870,-0.7534161242067384,1.024901636117114,0.8585657998276526,0.40744268052498445,-0.32839665597668877,-0.2521656708723917
1880,-0.7899659378498264,0.9852104939891146,0.8200309274944781,1.3059220200784765,-0.19902783228964518,0.5136770801766611
1890,-0.796208912851224,0.9881303865560204,0.8132552681302391,3.792007941771457,1.3637022701505699,1.82521222161989
1900,-0.7752699060911759,1.0132199555647958,0.8225219575478258,-0.7594150914817182,-0.47815063452807294,-0.7282123662657987
1910,-0.7692306747313538,1.01895150299629,0.8330280357066444,-2.8435466949655153,-1.496095468179762,-2.134229688093516
1920,-0.797520359048374,0.9915214551913779,0.8162735455060381,-0.6278718782068933,0.7049372648687574,0.12242000416311538
1930,-0.7816415384592543,1.0105581538281334,0.8372057328956789,1.6324785032752378,2.658226362191021,2.503687052432907
1940,-0.8013516110529517,0.9899153950253798,0.8119144655818422,-2.7714835328572938,-3.0294946809644725,-2.516322483253727
1950,-0.7960060767191994,0.9857689580920462,0.8121446254006164,-0.4626640330011353,-0.3012287373201885,0.45357444300954747
1960,-0.797632249903629,0.9827284350728699,0.8012964417881427,0.7037688080723699,1.0077841777954646,1.1248724930331293
1970,-0.7823396079385825,0.9998937452585296,0.8124479970315216,-2.580968447896042,-1.839856385939349,-2.198811347945569
1980,-0.7639675932772837,1.0219294942765693,0.8317889772758315,-2.653023036196664,-0.26636002530865877,-1.3707289212980742
1990,-0.7844044453389735,1.002008680928145,0.8161896494490154,-6.1163591736017455,-1.5630674638040918,-3.6145804230566037
2000,-0.7599700267318957,1.0173973348529097,0.8473041792239304,-4.28324596959493,0.6059392371713067,-1.6315612305759184
2010,-0.7869237392961044,0.9903765722006903,0.8103336712367134,-4.1328529948143276,-1.1750393116264946,-2.3532183026552027
2020,-0.7968373608749791,0.9868056615336142,0.8143820938209074,-2.408619520790946,-0.6446415932912454,-1.3217448403617793
2030,-0.799894252626507,0.9866695820126078,0.81157544728762,0.031529724960432826,-0.40774334037362586,-0.2996155494298166
2040,-0.7763746416075386,1.008276100250248,0.8299434231515291,2.749384225551946,1.4347581996043188,1.8111173870027453
2050,-0.793044071898285,0.9875077822648549,0.8107740362390377,0.8660537616952952,0.2792823352782009,0.4041452301438002
2060,-0.760758791517427,1.0184677166255636,0.8415630804900366,1.5252316465899378,0.9701588929469475,1.255381633951147
2070,-0.7784650746295496,1.0067887057657054,0.8247523799785523,1.9679688211268478,1.6743890066330094,1.7742422737856973
2080,-0.7833816702271699,1.0013743697950124,0.8221365932490702,1.7745411191830476,0.30828781144002404,1.0854710457872847
2090,-0.7962862377075001,0.9862119099309282,0.8112502564935358,2.339346662267261,0.21604298759816665,1.3159555736018027
2100,-0.7613018943711715,1.022122479048335,0.8414080821680151,3.4400921685875994,1.9585745954845626,2.8756674668305844
2110,-0.7719010328633087,1.0152305781370377,0.8262034594739495,1.4850037883363196,0.970770624621799,1.241244644302405
2120,-0.7657062138986818,1.0222429977251781,0.8409131932358381,1.2615067835373148,0.4375892975322223,-0.2431476203783305
2130,-0.781965198187178,0.9975021327111144,0.8165070547727007,-1.866566697114409,-1.2053476632536866,-2.464872137679211
2140,-0.7795427929869603,1.0075712470181748,0.8294267963157418,-2.5857243766532942,-2.3747546509884723,-3.268764478910575
2150,-0.7797116014285669,1.0034231535189584,0.8280943060614508,0.21195747475411664,-0.4020450294007943,-0.75510584578872
2160,-0.7767039820324029,1.001776477659935,0.8278625243025081,1.3534819558050795,0.2678010128507069,0.35443214876862505
2170,-0.7424830526842162,1.0378236559269254,0.8596492984007275,2.871028507524835,2.068693379494774,2.412372964306398
2180,-0.7811289891280996,1.0052609616503099,0.8163965070679063,-0.7089653251237271,-0.5433014473326712,-0.1229401690528889
2190,-0.8135109355664198,0.975133092166678,0.7965461180749358,-1.0255670782592365,-0.36926246228623905,-0.28971963481876595
2200,-0.786863737227776,1.0072071384117878,0.8275101541245767,-1.5213684325432466,-0.9964821293758372,-1.3566010613590855
2210,-0.7753556326343731,1.0161983400720653,0.8332507736502339,-0.20946466157986104,-0.31882855671138993,-0.9255433967506651
2220,-0.7716455756554293,1.0169527598346044,0.8383107693141808,-1.355159179359974,-1.4305029646290282,-2.3866561857869786
2230,-0.7871733452532671,0.9988827228173799,0.8256232100386177,0.42850317870245463,0.7696475581154618,-0.46452656057896724
2240,-0.7894064153282511,0.9914591635215255,0.8129244409261801,-0.546510370511114,-0.5526345254158999,-1.518636906660505
2250,-0.7807652726589939,1.0009555951711422,0.8235265349217585,0.9823882488099555,0.1474434106602382,0.07183402348266833
2260,-0.7774275711262921,1.0061267215687162,0.8334059579415288,-0.10410842438221576,-0.009110065847147034,0.026946848338848695
2270,-0.7615502468645928,1.0250170342705236,0.8472894058824476,-1.2689933807466138,-1.666293614930656,-1.1487363845931897
2280,-0.78122197737824,1.0052720239416992,0.8262033117058691,3.099253305351888,2.6775380648152574,2.979875845693765
2290,-0.8075362114868232,0.9775924869614457,0.8006362188506233,-0.1988207993545063,-0.24641802890663705,-0.49201508262209814
2300,-0.7965610463844974,0.9894744652775687,0.8099673483724037,1.081323910244426,0.5035480052111767,0.46266772134243644
2310,-0.7714605630062497,1.0120249825184255,0.8284296202411101,0.8428423447886595,-0.980840913825444,-0.3338646912029366
2320,-0.8091904333285801,0.9824431992960437,0.8005174014644715,-0.6999704553340373,-0.1716876231905418,-0.35893376361236407
2330,-0.8100584668420787,0.9777433552038974,0.7954552012327911,0.18182086681891563,0.49486529788137273,0.3887804092849456
2340,-0.7664552641699008,1.0190669415150406,0.8382313523290222,1.6753957706776113,2.0036679580389487,2.0708303783149145
2350,-0.8131631034576667,0.974108872938394,0.7955155610949659,-0.35339393590054097,0.3655259232165452,0.24005966154459318
2360,-0.7790195259156337,1.009257149158618,0.8303011161825848,0.9178702000629761,1.1404960634395696,0.6782472644827244
2370,-0.793550735967778,0.9941563224630573,0.8121441203434392,0.7881381320152755,0.2147687990067079,0.3794186415715768
2380,-0.7959106443413936,0.9910423617174596,0.8070093790195055,1.9675711329870733,1.484091441889829,1.7048102646196632
2390,-0.7767340519810114,1.0095933752667847,0.827787870996452,1.3209316354402802,-0.1676124413844738,0.6406313750555406
2400,-0.7669005922523616,1.0211026160788854,0.8383805051204472,4.33385581122611,2.85785347288678,3.5779407321213017
2410,-0.7771334883271453,1.0102197162509285,0.825635376355507,0.8034048909130047,-0.01485583346601825,0.2412844540438144
2420,-0.7739145045400985,1.0082563175671413,0.8257213242478793,1.670158585557497,1.0121131583433847,1.1380523838754024
2430,-0.7694478588447454,1.0163734306548102,0.8368560273467406,1.7006537146510745,1.4687113495264807,1.2253852311614333
2440,-0.7937368136657673,0.9920192438608715,0.8100120368643074,-1.9752583755780524,-1.757408430648174,-2.0898540433786352
2450,-0.8067959011034183,0.9819079977267314,0.8023156314224672,-3.641241926861047,-3.0996338390850924,-3.76779308611719
2460,-0.760275385002927,1.0284446390967206,0.8504504187653771,-2.2009306113237743,-2.1634609180776208,-2.7137356747344468
2470,-0.7869351711231614,0.9991219464622265,0.8208206149536481,0.5991326640631127,-0.3117500089673995,-0.25233648209002607
2480,-0.8157372798453674,0.9683780535171306,0.7888142227412965,4.235402281773364,2.692372886016979,3.43440904764612
2490,-0.7731913834041486,1.0124472044834878,0.8303367182842065,2.5093826928620446,0.9682622299319323,1.8647027192740218
