time_ms,ax,ay,az,gx,gy,gz
0,-0.5166688350885394,0.838176921442319,0.7954357137342773,3.0361458857660093,1.0407407918031675,0.7259035598559263
10,-0.5236185676215839,0.833809353182809,0.7878198041406387,1.3163428540795181,0.9830550726294816,-0.4240307380825511
20,-0.5297414213991756,0.8277409415471247,0.7926034096337179,1.0616167788018571,2.3195337480919065,1.031803693408161
30,-0.5225906067270469,0.8304176708516626,0.796937405673335,-0.7263972095513433,0.5071879767141779,0.13388296921853726
40,-0.4911905080095879,0.8609860268074491,0.8230618238358194,1.555297443211673,-0.1522372173973759,-0.0032938357386683714
50,-0.5195442643764178,0.8383888777695663,0.7892836842025313,-0.7358765943948473,-0.1755215594565675,-0.5113924447508278
60,-0.5209823027405864,0.8379672602137523,0.7955007955824854,-4.112825170821114,-1.7067449249470956,-3.3508726563382645
70,-0.5357417421105967,0.820849772401036,0.7827153288493707,-3.6328432322574176,-2.4449374471080976,-3.891547036197097
80,-0.5270003242532021,0.8243261003557724,0.783950299674126,0.5309098760485973,2.3765265100537722,1.208234869923334
90,-0.5078354867964416,0.847985526267017,0.8074479070796147,-3.0892467149799883,-2.7470663133587414,-2.599041346840739
100,-0.5201829137766397,0.8367189126442,0.801611125671168,0.27223473139471677,0.04788929513077457,-0.19171975648050912
110,-0.5271843260956101,0.83647622716259,0.7957061285530403,0.8703035552585849,1.6440676539789083,1.2635518048106704
120,-0.5210761902536717,0.8383538340281039,0.7920143732206997,-2.311962862848903,-1.4591661956189816,-2.1447936784840085
130,-0.5237698687302468,0.8309455081490548,0.7918630892509863,-1.2314297386172393,0.6696396665389568,-0.07290027223702522
140,-0.5062136194090714,0.848049434822046,0.8104226174223808,-4.125543872262877,-1.3224288636890444,-1.700215719773246
150,-0.5267908632657734,0.8193188229644964,0.7833471903094792,-2.767006591982012,0.8361281085616717,0.785702636413685
160,-0.5343620118884866,0.8154133640266146,0.7811049791825984,-2.5799889497054744,-1.8404333619264834,-1.8000776290577127
170,-0.5319083856857089,0.8185766058628903,0.7868227433136921,4.156318939527457,4.330903364246983,4.50311548747179
180,-0.5119721982180966,0.838237028244783,0.8145695284538096,1.9609330143463466,0.517932885282096,1.4714249845929925
190,-0.5459801643106057,0.8146157436620725,0.8163515110541592,9.909889003526303,0.5486647305601822,5.3705318965118884
200,-0.569299849130978,0.8114108600296365,0.7979180632738194,16.602037038056952,1.2868670238313804,10.854661172890317
210,-0.5291405511579481,0.8262404300352666,0.820271178975701,22.81598219085183,0.4718914150679886,14.544888767559254
220,-0.5761322364539653,0.9265891607849972,0.8508175976640939,28.719931459745975,-7.521947622953082,17.174281412392126
230,-0.6001693649521403,1.0157731883948442,0.8485709555392675,20.703629018823158,-11.01431799521374,26.22498247151946
240,-0.5583656818603048,0.9656247268162595,0.8450859078113969,13.200199206349975,-16.21259809024999,28.524444798608506
250,-0.47127282862346204,0.903631984168019,0.8078523239110302,6.903956494783467,-20.931058549780754,25.017665502163393
260,-0.41281633132655404,0.8293334666847729,0.755622678518837,5.913442002384218,-19.303402204150174,12.866688463638674
270,-0.3850207798539374,0.8574286590879213,0.7090144026701101,-6.961585506182873,-16.26131260308629,-5.489192317764639
280,-0.3976440052494686,0.9696324889047805,0.8133718961795657,-21.971059601072536,-7.465221604519581,-7.148589526665891
290,-0.4052100286122485,0.9847121949698873,0.794689497515521,-17.861162654927142,-2.167000869993786,-3.6323988275628416
300,-0.4654162331085687,0.9588392514216115,0.7688053793673713,-14.350872438367897,2.5336217853353573,2.3116931956583677
310,-0.4369116702327337,0.9298303802007671,0.7902766543530154,-17.513303786783162,4.4054694057220445,2.9426388265051546
320,-0.4504505494551082,0.9041610173462666,0.8083856623729146,-18.574977529648674,4.199927442813817,3.0861893585028595
330,-0.45516087094704416,0.8538954453680568,0.8304526780343144,-10.339339601076482,3.643887027041687,4.296181139851687
340,-0.44492755783040866,0.6608550768978617,0.6463083935837053,-34.43136141721078,11.522930904757619,-27.520191807375706
350,-0.5344516476809458,0.6894620743307918,0.789325306137953,-38.13990853522864,12.652840613696519,-44.29884717741864
360,-0.6780217628056252,0.8748823497746581,0.9489381651237503,-33.80391532351982,4.929577149399302,-38.578295789891406
370,-0.5901467776550412,0.9313533713773926,0.8549611823997477,-19.54629904125356,2.3816307782312838,-24.62490032809621
380,-0.5241958099623915,0.8180799572869268,0.7698014475418457,-24.12729573422535,6.051475779955325,-19.85486364778762
390,-0.5834674933221383,0.883009024057095,0.7762312137886545,-37.703490568846235,3.506914674471367,-20.938305349103963
400,-0.6211175978457064,0.7302184470255044,0.7447103378405506,4.355206845062623,30.958187784861394,1.9079180742973216
410,-0.5610077769986952,0.8073919486184047,1.0286722464332567,23.649263224091932,25.202755356988064,6.982624432514774
420,-0.4604600604998647,0.9241649448184671,1.1011986488873764,43.60975734362545,42.72288587761428,19.251765444135373
430,-0.534677420220315,0.7373999284951369,0.932634704943739,8.22475762465916,23.45211552197669,17.358854760070063
440,-0.4948462790914905,0.8377756234770757,0.8712462665329832,30.30129921075201,27.794876243955525,19.375002585815754
450,-0.3798226714188804,0.8035361534364013,1.3255213062294617,-14.636108107987475,21.35012715276929,13.821249766982435
460,-0.5021041547650207,0.8371654242796285,0.8720528109206955,9.65775637559216,-1.1663402289245188,9.370857668672569
470,-0.487481789161372,0.8328070964579425,0.9262219257662313,20.12417764430417,0.9588317680455587,17.05371002783278
480,-0.48929492536933933,0.7899590092838393,1.0161729869621188,41.72753141691228,-17.999749569082375,26.20992535640349
490,-0.41175382043049474,0.7309144520286526,0.9564178602704306,9.456056433654634,-36.880360050655185,21.168563273068216
500,-0.5961056327909237,0.913951113961698,0.752938973093071,-14.813613290890405,-45.420938347475946,10.811287339315232
510,-0.4366592814265302,1.0081050575822394,0.6726996482572578,-25.08959415017895,-35.99571031015317,6.952487695152566
520,-0.474356209039912,0.7586978601113715,0.8773388551021299,-43.19917052009041,-14.147738559646015,-14.623647815306246
530,-0.5463144848068225,0.5221750545031485,0.7973526583831917,-46.267112698617055,-29.374855102026537,-29.008116332354717
540,-0.7514781301415409,0.6666289433357964,0.5324041850963667,-35.44857583838353,-16.721217376020036,-29.682356859387365
550,-0.6551605497459784,0.6102801382853104,0.8855078788229407,-39.98122267670222,-3.0428655616881586,-24.371558672327044
560,-0.522508745443828,0.5686707956401337,0.8185659709340094,-15.463732986441334,-9.210433560240544,-24.6075794141462
570,-0.5895431891814751,0.7433557578444193,0.7722087002564201,23.49159090884389,-13.425977760468779,-25.2798260913816
580,-0.6259594253906112,0.8339616986503208,0.8239446769460215,48.92700770197599,8.424408480042416,-25.98456386078333
590,-0.5682306980830989,1.2834542155052062,0.972373518336578,35.685601661702265,13.618123065814263,-3.6000678157575194
600,-0.4939889063752334,1.0528564019382514,0.7594981323062605,27.576947709567875,12.645617409846311,-3.5936742567085562
610,-0.5718680843990794,0.8873026039252425,0.6805792738414832,-8.91957206558299,15.143632705257938,-7.373687974190722
620,-0.438748792155935,0.8746755709672315,0.940642440189723,0.41133923964628033,14.260148634221585,-4.144387168858115
630,-0.4734202581870492,0.8979979215626555,0.7951389445450475,2.3811440696525867,14.287452864762175,-2.7376480139169144
640,-0.3952782518540777,0.9529155573196896,0.7272518127056478,10.299544440384011,5.59966856112661,27.536254860331365
650,-0.5012680505180447,0.9988070209875403,0.8276400637577311,0.30157387361633137,7.565825131623113,26.477637330488726
660,-0.4607012697790258,0.5996313089763761,0.984277054815925,-27.44329783201198,-3.7242070968478496,15.505172813221023
670,-0.5499747707988651,0.5919925807836581,0.5886631660602166,20.078959133790363,-0.9794374320773004,21.238776217111038
680,-0.5428906530359844,0.622641394733407,0.8185098418656537,19.40166524926332,-2.3954467195955234,4.3482346931670195
690,-0.5312425918878857,0.7523378864898649,0.7859490553686566,26.967834378664946,2.1730095775558045,8.97154714449159
700,-0.5763949162377671,0.974676171498194,0.656272653180968,51.63508645016143,7.4987814416609995,-9.809747888415801
710,-0.7197397435441735,0.8719157992896949,0.7383027778122772,34.6734239647776,-1.1004066965325907,-26.894305975275618
720,-0.4500089516252804,1.5413683261137092,0.6584154600571328,35.59762489888497,9.511065421230057,-6.888569493204921
730,-0.5832974293422833,0.7053925362741298,0.9204546556352076,15.44288211129243,9.084761658258993,-17.30891196575629
740,-0.5903704424848261,0.8457867885711967,0.686991046907681,35.06519085312487,9.567082862704961,-12.445303205244116
750,-0.5329884717836404,0.7971274532360766,0.7059626057398903,11.887874128496964,6.9264616823768,-14.47713333319985
760,-0.5394462654241848,1.0090145723955786,0.619026547628663,-3.993761807003967,17.850341965943247,3.2254590937621295
770,-0.6063419180524598,0.960136558461493,0.5555156565139441,-2.489944311478135,8.700514991274092,-1.3366035652731254
780,-0.4652307123416643,0.9641075995518416,1.0449620889596827,-21.243981009461912,10.137001521911536,6.563608710370126
790,-0.507462031460559,0.6745874727933449,0.8435714316985904,-19.28957969661501,8.238701685763711,8.12762162766206
800,-0.6019139463353235,0.8765354911574686,0.5073636045190603,-1.862791737303978,10.976357551807787,33.62055051896009
810,-0.5257866328311511,0.6577851492373056,0.9332075732068364,-32.61141893171368,9.389079904101719,20.810473549584856
820,-0.4696799429232625,0.5764051186130051,0.9434435498508524,-1.9500117091983729,-9.071956279586285,4.330145251580786
830,-0.5719745835599688,0.7263380503766165,0.7904384980122999,15.804672350259649,-1.8953499526806985,-7.144009625153405
840,-0.5517035744959976,0.830135904645499,0.703457792119825,2.1541894213808384,-4.371136122478807,0.2479138359669999
850,-0.5568164803979601,0.812128386379998,0.7569901795396154,4.571282271458381,-1.712599158532446,0.5922505315904203
860,-0.5559454480577839,0.7979462150225082,0.7534667923853339,-3.1391902568102505,-1.1797910056282213,1.6732473418500766
870,-0.5163664901664069,0.831155293631672,0.8017312298790505,-1.486503161587657,0.7385728103766873,2.8190804387487027
880,-0.5252623790975813,0.8230592381723592,0.7879795625944921,4.164994594573664,-0.49845931952653166,-4.473375629320243
890,-0.5284835191558004,0.8201689091403278,0.7928407688282096,2.619538110298114,0.8616950215418802,-3.32765259441328
900,-0.5388862550204705,0.8172607500836881,0.7856646009020921,1.4948620802980832,-0.27752940617245087,-4.945155537873833
910,-0.5097972064057891,0.83726563474677,0.8064725682080381,5.221329190165104,2.4961005009800767,-1.864303332807629
920,-0.5483239028290794,0.7996184589443217,0.7663565407796821,-8.942090872289173,-5.739025744787059,-10.350296648696933
930,-0.5401201971850935,0.7983428949969692,0.7700310508781432,-10.023601559407814,-1.2914442810023774,-5.565183260791242
940,-0.5464669829210421,0.771897376382245,0.7678510681807749,0.8336495748429607,-1.3895101244002006,1.9727970809502042
950,-0.5547414060041416,0.7799116422304206,0.7584073993373083,5.516475617338698,0.4607858622926776,6.028999556056412
960,-0.5173347750246103,0.8180882687950403,0.804690950589755,8.830937051140278,2.0808397094070616,7.1695588328086926
970,-0.5662940613795191,0.8080870104306314,0.7696410317961675,4.2777897513197765,-1.1294968840354591,3.799444349330332
980,-0.4867386612558013,0.8591304395243494,0.8165372393087373,1.488739477065598,-0.5340039287903217,1.565701602452942
990,-0.5274477089514494,0.8125203728192208,0.7812600522688786,-0.35221950236503463,-1.2948478671023345,-1.5827819844201079
1000,-0.5206161881859616,0.8162850737680377,0.7931412845214364,-0.6898817911652061,-0.6892555313923103,-0.09368483269625894
1010,-0.5398998671289658,0.794155287435073,0.7759975451254755,-1.3815854919730512,-2.449078344671043,0.1312320985749582
1020,-0.51487419877754,0.8194905855080534,0.7962352807568212,7.263276682703658,3.3264451856432173,7.447893623263747
1030,-0.52445301335117,0.8331153483777146,0.7912734470669026,5.198090614923762,1.2159767363879463,5.409968874034256
1040,-0.5440168646653756,0.8113598337413347,0.7765053719483244,2.767017338353864,-2.025625601931635,1.8570932764466508
1050,-0.5197279430528849,0.8239533945097457,0.7902498607108726,5.375357650752401,1.5071703659285522,4.176512040269097
1060,-0.5617941264569122,0.7913626171401004,0.7564068828347184,4.875296752939509,-0.583248225560792,-0.9266754694960548
1070,-0.5465631945177252,0.7972163257095273,0.7668244082933973,4.044795757242522,-0.24604022437117767,-0.47512736923925614
1080,-0.5192391960277748,0.8349913188500467,0.7955215555298423,4.047619803904567,0.8476358875024841,0.581167059154248
1090,-0.5819080285165429,0.7704184793206602,0.7300312855685583,1.3290185672784187,-0.6997692117324317,-0.2319698871498905
1100,-0.5271880711351832,0.8243250195453423,0.7799633102298377,-0.4472695488720465,-1.5517829672061927,-0.7838685720285415
1110,-0.5166430017575993,0.8366939526316384,0.7947455207424163,1.1607801289974486,2.050626420844639,2.843854947372113
1120,-0.5571435233453413,0.7869909850949198,0.7549414518588088,3.6672138419095317,1.9686369552277592,1.4132093982029685
1130,-0.5468710525186417,0.8048326068831579,0.7678896990389754,3.434476429113481,1.564307833365796,1.0035092497998763
1140,-0.5319904524526526,0.8274156613681987,0.7785960186770529,-2.5713937320058844,-0.756184730042917,-1.4804815794574773
1150,-0.5381999673494197,0.8163180285045543,0.7852493054029716,-1.8867022336087462,1.8839560490276155,1.6696795155055022
1160,-0.5353621942016922,0.8117732593444299,0.7732930422502101,-4.987715724040069,-0.7138531120694982,-0.5144443233901689
1170,-0.5362332952024469,0.8045524018094526,0.780941453941647,-3.109847664211979,-0.9358140660588488,0.47298498939041894
1180,-0.5324486496302288,0.8096091276301296,0.7748859628436047,2.189843922364319,2.6577386774523535,2.4005506814210062
1190,-0.5252921192139783,0.8232821654827304,0.7973798437560985,-1.809273004715247,-1.1558181268223942,-1.758838247243388
1200,-0.5390231317152637,0.8137395375145642,0.7790745883301937,0.7400050415296038,0.7046701983581531,0.4664459804459065
1210,-0.47445594892106746,0.8739516369976809,0.8407400257030184,0.9338904845791103,1.0065466282421307,1.8613482726512198
1220,-0.5333522473575308,0.8173532213494422,0.7809533414287343,2.166239638831076,1.2118547097352304,2.364781778845974
1230,-0.5288518648911209,0.8189255612446865,0.7816012243919793,0.20369090378458188,-0.4842362971875167,0.776954984667099
1240,-0.5125932880341438,0.8372320012795701,0.8073980966993535,1.2337292335308234,0.5344906896726818,1.3619121848331024
1250,-0.5301417255797886,0.8161746214007715,0.7739137941870666,0.449442946738994,0.8593712199918628,1.6860140695738899
1260,-0.5435263320257566,0.8084064125566215,0.7634613918491184,0.07621936237403881,1.3224381143699526,1.5852447885765422
1270,-0.5192123192845948,0.8331929359505884,0.7963658045082105,-4.2427077333557675,-0.8547421347828856,-0.6559090964105567
1280,-0.5234067043962356,0.8228487723461185,0.7915200140715294,-4.059756681296884,-1.929772732023172,-2.5252037233460842
1290,-0.5537315514820739,0.7983466267897823,0.7606848039396954,1.102960251640612,1.1081143383743606,1.331651826992043
1300,-0.5230863547396152,0.823811497226338,0.7853071029452972,0.9880153681523308,-0.6596685450245838,0.7295530065772492
1310,-0.527000234290958,0.8177948469086457,0.7769219036292918,-3.5027243743253225,-1.8690486097289474,-0.931341315367773
1320,-0.5246510238139336,0.8280688826167223,0.7934392188421927,-4.007094330967194,0.4305615170363877,0.5213623119782951
1330,-0.5106689413896132,0.8379204694212479,0.8040264569978104,-6.262435474287125,0.5514145750114853,-0.38176822069168304
1340,-0.4990805893805593,0.8490272178634339,0.8108945388769796,-8.89895175120637,1.0750959788300516,0.0212872685401706
1350,-0.5145087686216163,0.8296781666515951,0.7977699566731118,-7.408691980211477,0.8441555841036078,0.033230299277130504
1360,-0.5115953210539497,0.8337880837479611,0.8033110916227163,3.778903046079778,-0.150228084138066,2.0681426126357723
1370,-0.5343152218718795,0.8044101861942596,0.7746715823141027,4.353687807257625,0.6959752888559498,2.0981145556862155
1380,-0.5460979024249399,0.7945834219440646,0.7654966494380973,7.419558395995399,2.376594482791914,3.1001868029525137
1390,-0.495826778463853,0.8619287577447371,0.8198996819542197,3.3802770767050028,0.1040517469943171,0.09712421625267298
1400,-0.5044602558236175,0.8522715676744028,0.8114975246747965,3.7486759761845923,2.9706485671007528,2.162625704667396
1410,-0.5332720341446496,0.8133303847456747,0.7911477493513097,0.21106083675613407,-0.6164242538651318,-0.9809811268957322
1420,-0.5486715291490002,0.792794179757736,0.7647814268323155,2.6082644818405587,1.0259172081391803,2.6289122615970464
1430,-0.5181502061125198,0.8242502236897026,0.7984812288358196,3.9152217571789256,3.0823453491853576,4.502926617324635
1440,-0.5152862501294181,0.8395083054907095,0.799813912637826,0.08826724946141509,0.44267511536705906,0.8494093498820101
1450,-0.5301151047986682,0.8168901546840736,0.7846054012629669,0.5963762698001474,0.5957422458709295,0.8290330450133112
1460,-0.529147757499628,0.8198249369816785,0.7881325903106413,1.6286676104597637,0.778976886001777,0.23849651549572182
1470,-0.5407112520896151,0.8063850237807771,0.7700208801591393,-6.214018655176945,-2.132255035246477,-2.5066153966036966
1480,-0.484369458438141,0.8522880119574161,0.8269558372685752,4.29954448988943,1.0924621020097987,3.5333739475799786
1490,-0.5306652825315912,0.8172591471081794,0.7785881023044936,3.340903426644349,0.6165766395157701,3.6653784654184483
1500,-0.5344376499735297,0.8168780466502666,0.7792517940574563,-3.2762254355586187,-1.2044194844585525,0.3309618781086594
1510,-0.5208375777735311,0.8287789516970862,0.8073465538011907,-1.98869542122311,-1.2400641723788683,-0.6176472810461122
1520,-0.5446850401489883,0.8102822396104238,0.7723440478760567,1.3700940383602658,0.9317140318880726,0.5555671272354148
1530,-0.5437906015676404,0.809847535269044,0.7692048822223214,-3.1682194903804928,-2.869450401627971,-3.8012055306582138
1540,-0.546352290410869,0.8039676047520394,0.7651040777224501,-4.200772137007295,-1.3418742244412185,-0.9019902175977161
1550,-0.527651972915717,0.8162633052596171,0.786867305666009,-3.625298502959992,-2.056902459067543,-1.2612000623137145
1560,-0.5329178879129365,0.8142145254655955,0.7830523549010294,-0.07921276517269821,0.37404232269898113,0.7679021749071246
1570,-0.5229238840064803,0.8253357743348354,0.7967254140111715,-0.29008337814451474,0.07842558477094866,0.32038191221992646
1580,-0.528524208740517,0.8187875657759496,0.790255009230413,-0.6777467406489034,-1.4205897932458547,-0.864720810176097
1590,-0.5367936633526564,0.8086110157002858,0.774768303446838,1.5127925886463875,0.3793033238692539,0.9405445354227796
1600,-0.5138270535554408,0.8332554921347252,0.7998271299057841,0.4441891310572075,0.6928966846991164,1.1575602209487674
1610,-0.521152395698912,0.8246750792278008,0.7982906899126099,5.155393670240881,4.018332459181429,3.997638789154978
1620,-0.5496108395657264,0.8046855957331515,0.7657382735667396,0.9457228836508228,1.0102604488697655,0.9964763303956954
1630,-0.540507034865367,0.8095920758956602,0.7848932292266021,-0.28633122695182456,1.9523952089332326,1.8521790898154231
1640,-0.5506459890911366,0.7915533413004284,0.769762439294625,-1.8662277314012514,-0.8887900599052073,-1.3911702995492012
1650,-0.5338854569006675,0.8057562929069503,0.7741431158141902,-0.5016122213198637,0.17634306372062267,-1.0344343369512785
1660,-0.5306809501660039,0.8212215840294638,0.7897981824023877,3.758693227874199,0.4529273063340581,0.6198800287870749
1670,-0.5493511788456553,0.7934522351947063,0.7704790408608065,2.4195446130441094,0.2340791727883284,0.7807307178769645
1680,-0.5352255822920174,0.8108214457195998,0.7830455820529191,2.4790898561911674,-0.3560640565748706,0.09878102071164663
1690,-0.5485080091788058,0.8012771091591657,0.7702836711076759,2.952049070614153,-0.2663053194871861,0.041004955168178814
1700,-0.5457742080153765,0.7992505777398368,0.7661421247724072,3.019175158948737,0.8450110935510055,1.1432719095366335
1710,-0.5077566151527605,0.8440560502892451,0.808862357480027,1.1345914100509817,0.23981124145107158,0.12296121391097636
1720,-0.524655076912271,0.8220752461678144,0.7934351657438553,-1.7862094895342995,-2.4524612472202296,-1.9650613867898534
1730,-0.5497907046647411,0.7971135647090565,0.7608482912333898,-0.0749543201390066,-1.705802182666587,-0.8286920074311603
1740,-0.49677555873714613,0.8541811424709634,0.8090124606907136,0.2769896851642858,0.11356142429184468,0.20459509289783856
1750,-0.5198528969286705,0.8367288580577167,0.8051301404679264,4.406472740926392,3.1802106989025294,2.889678564916379
1760,-0.5332495964646952,0.8174547835518591,0.7765921499462386,1.9768886417688558,3.137043134614329,1.9937947104773417
1770,-0.5037146263341767,0.8533283338872614,0.8064692067926024,-4.468543621356531,-2.368166735317189,-3.4048230088805482
1780,-0.498480013434574,0.8399069348805561,0.8129508809383175,-1.0263034417511694,-0.08176132920180573,0.03915764247627773
1790,-0.5392505511623749,0.8030432735411976,0.7798554326595223,1.4028690523254062,0.7823019964384925,1.075813983919001
1800,-0.5261338025647019,0.819306301674951,0.7911137771389167,2.127829862184667,0.07091565540321737,0.18611954917020018
1810,-0.53550598629649,0.8250237416534564,0.7744668325410468,-0.5232008585067945,-0.31931187270580763,-0.4692406057027799
1820,-0.5120690283881153,0.8373974471281752,0.8057872186814511,-0.09630623017246152,-0.1641972185096202,-0.2701150610095978
1830,-0.5435585858613947,0.8095073687775386,0.7787059372226434,-0.6134847411334851,-0.7317175718111663,-0.4831468401989167
1840,-0.5063537796102884,0.8398820462445314,0.8069380113439921,0.925214368695138,1.92058900123739,1.8738645626022135
1850,-0.5335928708787351,0.8157752754775233,0.7934193394294012,0.2944537312176772,0.3349789589506044,-0.08991630246785279
1860,-0.5293551874303768,0.8207336437906935,0.7847616361915308,-0.9326121458798236,-0.8970646911086112,-1.4008000695922922
1870,-0.5399546065922605,0.811260075082512,0.7701638733643252,-2.730717605983511,-2.330626235250599,-2.7999306188395683
1880,-0.5324769660918327,0.8144779865209318,0.7826584572451724,0.8644646418449038,-0.07208358286885841,-0.2737626252112411
1890,-0.5360662245924745,0.8123065477768894,0.7798712501148406,1.6186059871618743,-0.15664274650837995,0.4081134925558549
1900,-0.5539167499171881,0.7942276875655683,0.7622144748807049,2.6993376853432083,2.8935578828638384,2.6372714517592737
