time_ms,ax,ay,az,gx,gy,gz
0,-0.8170396159499459,0.40551820872873917,0.5676167746906766,1.6067507505516607,-0.47616304875950966,0.0646140830505614
10,-0.7715192466573233,0.44987254213751215,0.6089794239315108,3.5173119091673146,3.5530138052909273,1.3278219905706687
20,-0.7938782532067338,0.41569229007224684,0.5955097721168635,2.195308655469162,0.47386868666960796,1.101086492565264
30,-0.7941215807173247,0.41911606988754824,0.5879233764041322,1.1425642409940735,-0.4384505906265198,1.0017331799588396
40,-0.7901487575102818,0.43521990404048494,0.5977714162948216,3.8906318026938216,3.1917272963154586,4.5796905094324245
50,-0.8166749790220379,0.40997325030399395,0.570520337181583,-0.9192889414623515,-0.6494826465633812,-1.0534709701860534
60,-0.799864303741514,0.41963268140582854,0.5876582393588892,-2.640173235053351,-1.2396735932018454,-3.313391501171631
70,-0.7981334337155102,0.41847499759469653,0.5886123782535239,0.013470340421098015,-0.15716155892399836,-1.3619549639406263
80,-0.8061078309196047,0.4106869610338683,0.578055084553231,-1.3182618564617505,-3.8434432951518813,-1.63606768332979
90,-0.8018092239203448,0.4168327911146977,0.5867679187422142,3.6296884103755622,1.6618090279178128,3.5846700876453292
100,-0.7957953060807079,0.42942003269969636,0.5977204887572005,2.6321995389775927,1.9033639915839147,2.1529818879804603
110,-0.8164674145304276,0.4031997273944818,0.5732817145604455,0.5747536072034037,1.7552828556449864,-0.46070956023697573
120,-0.7944784184330482,0.41879541842423923,0.592963313920813,1.2691538524941914,1.790498125545966,-0.8807025001492771
130,-0.8093495302628803,0.41121805583784443,0.5840855169699736,0.5576290076448964,-0.4675883449750209,-0.7105741502851498
140,-0.7882136833595194,0.43288402825618405,0.6004131921271876,-1.0173419285794993,-1.8737241413693475,-0.18779043572873044
150,-0.79770056582249,0.4254356860928142,0.5894810179365813,0.7011585979335311,0.14517288967075814,0.6781845358379336
160,-0.7971725008973607,0.4245705041791247,0.5895713655166128,-2.0166569277199384,-1.737207072260883,-3.941413412683206
170,-0.8046329756252227,0.41157209049856047,0.5841200934776475,-0.3605309875835103,0.061521342803070825,-3.038986752231832
180,-0.8040627599290352,0.4073707962495317,0.5813977588563053,3.1609674182683496,1.8802001811054392,0.0664798939227047
190,-0.8127791816416371,0.4082831113379727,0.5738467494174547,-0.40075813477077094,-0.7553542425639443,-2.110254476288551
200,-0.8066561047511008,0.41372418922508475,0.5789907506505138,0.29462919333828885,0.41252484795293975,-2.1718844278217344
210,-0.8186761573919108,0.38960248039543066,0.5665093023712227,-2.2080575222047907,-0.5492965724677448,-4.363754340932045
220,-0.7920812131625568,0.4139549827266596,0.5954882155424929,-1.8793876114546724,0.07187458161561089,-3.063970393556904
230,-0.784478668112945,0.4151173654333947,0.6060031641846321,4.538799191617437,2.8039217875450504,2.14395701235343
240,-0.8117116833242568,0.40434870408687484,0.5818151722850302,5.009556801225129,0.5920978618669638,2.7846068232820125
250,-0.811354443733114,0.4079608595068296,0.5799618338767013,-2.946110503902154,-1.7305458741755793,-0.14845297580026562
260,-0.7951604655085064,0.4143208933289307,0.5937781966523995,0.42321345174827213,-1.3245990113446602,3.4213414692392803
270,-0.8063994393267313,0.4001604165723622,0.5841069228356872,0.23490755368699015,-4.333845342769658,7.467023527300967
280,-0.8248504645217855,0.3843546870395607,0.5796807562000273,9.260391078610745,-5.439616576188056,18.351416809366
290,-0.8165577441101748,0.36600483700285213,0.5826946433711239,18.03726358006956,-11.364447469917973,27.020148669844264
300,-0.8360097190862269,0.3692008152383941,0.6335610790818054,27.796222239516784,-32.763322633291324,27.049699272919245
310,-0.8935117683476406,0.3933107650863296,0.8384924542136392,11.076074559742462,-116.71840678987621,-15.395553869990245
320,-0.7751657623570587,0.4492710153767734,0.6935378177748829,1.8308185919049969,-131.338118734877,-17.367253364303885
330,-0.6502288817182629,0.5119374231541345,0.5969942961879661,-9.220379002673948,-109.4839945118163,-9.968750214375884
340,-0.6003024389734085,0.4846252395192415,0.6853061230672062,-31.715342564642796,-90.93661307453154,-10.409489367052014
350,-0.598948810766821,0.41426900636597647,0.6671415781378929,-45.41368904465414,-80.58103903603681,-21.16865338711779
360,-0.6312072529912381,0.4889523341243166,0.6039249944504405,-25.040524065909242,-44.82977839156422,-31.948899880668655
370,-0.7080402074869064,0.6189225987489776,0.4331975091845315,-12.813091710741654,2.525551819404817,-39.25655080313106
380,-0.7510163963379309,0.6939917748271237,0.38822962168842534,-24.304880947054095,52.897272674081364,-24.5458029725155
390,-0.7174763621777024,0.6377958234651804,0.2877374120056163,-75.64960983724394,31.538917823862857,-30.58156354409965
400,-0.7979215724458983,0.6808144386973504,0.2669128301600224,-51.79582175884203,21.974045959178028,-12.67390149802206
410,-1.0350368986930856,0.7575507987157774,-0.16326374433833551,25.734495395453155,38.46967457401672,19.439470071625028
420,-0.9963848126873329,0.5347629750036318,0.3741043933967769,32.53194451930124,91.23852136729857,23.27380353415625
430,-1.2123525875098395,1.425044980908843,-1.2028795034425772,50.75750158391022,120.2994096880018,55.012368076477706
440,-0.7550934279825283,0.11314482264830157,0.3124196763200341,19.412694302848855,109.24741733305434,50.613687707982386
450,-0.6098869469039722,0.5694917016862074,0.2888918640830608,34.25495889995831,105.77547776985995,22.889599942493913
460,-0.6138965348079428,0.05442687718726537,2.0498901776306417,24.59437449781317,110.23321145930733,5.469831553152998
470,-1.0683448330786225,0.4156173449436016,-0.2837896924160206,80.59735798296859,62.62313467192219,-5.427453414120546
480,-0.7587485514729702,0.28150530393410333,0.562036634232879,-2.979937561395351,39.8364948087335,23.00821459306594
490,-0.821583170657647,0.4432060551736382,0.569510862675626,0.4508505434077734,2.5327672610284604,14.681913010911604
500,-0.7740333727980008,0.3667413174569353,0.6625178669481392,4.21586826711466,1.1304143278067078,20.91194904913395
510,-0.8267679782886924,0.4570952053105521,0.5960490980327475,1.2165875732197213,-3.3981956618426405,16.881499504147655
520,-0.7945664628126455,0.4371188744160677,0.6817691596133185,-4.929442345202066,-7.317962157402886,20.79475547477078
530,-0.6299797637970018,0.3039214613278078,1.2035216596468108,-24.74592910611401,-63.76777251613816,3.8610079903642016
540,-0.8345894396914139,0.5460608464580862,0.4861628528956673,-17.556232809460965,-131.93506401216197,-27.448148229878043
550,-0.7214930835875203,0.5488691416239982,0.5177798960041876,-20.715470227488172,-98.21180086337387,-23.411336264322557
560,-0.6750788504791239,0.46145658277464624,0.6672185350820719,-29.71202002003454,-72.34473317930563,-18.993252254543552
570,-0.6261303547550705,0.44648211613587213,0.6763763855942271,-37.33427812316748,-63.30740086034248,-25.330205990234564
580,-0.6247309540625968,0.4057821995455664,0.6188873279478985,-39.741087997941975,-47.90551622916366,-30.177055497115262
590,-0.7364819993365301,0.4160538068038048,0.5978872891000931,-21.01268198481033,-28.235165256989827,-29.72939785416509
600,-0.8805812695743263,0.41228846120445745,0.5739007148815475,-16.267258917769816,-16.502413969930164,-25.764551313870605
610,-0.6891479060912766,0.38673963009575796,0.6947970582488778,-30.024117165396884,-23.683691998536418,-15.18736437517071
620,-0.5220686264689259,0.13398672553723803,0.8842712706788047,-26.853506210665042,-32.274234921683195,-3.2227592618203103
630,-0.44546531810374607,-0.1235030496493915,0.7695749772416709,-27.319325934291854,-24.845093935723725,-28.854135894547838
640,-0.42181329597617895,-0.10486087551577576,0.33309097424717726,-6.946904010716447,-18.47086601512998,-55.996827753074946
650,-0.16854534466447482,0.15564625705294868,0.12439567835054255,29.846125007983957,3.5433464777551738,-36.37743086617201
660,-0.6280017173392664,0.513476170137621,0.512507221097169,69.63204060487827,45.96676485707234,-30.300479150001358
670,-0.9144816886423499,0.8180474225690565,0.7982856082663399,54.14007685004238,55.490811585294,-14.181095733737937
680,-1.1232072075045334,0.026472060534797726,-0.30254707017175775,12.529367835879041,35.46512823864211,-5.476467268391301
690,-0.8055048640829691,0.4587146033306878,0.6367197323563117,13.141702874909496,63.23606429562291,-9.251586100775285
700,-0.9472223360432535,0.7101535995237871,0.28423100482849717,23.062104988214333,73.36694556825299,16.501028704638866
710,-0.5948135262300711,0.4219640814778735,1.4361525402452098,-28.856064574525696,62.799910869966176,27.82982528233953
720,-1.4044705018686265,0.36891939735246265,-0.6091343655917034,-2.9165169558354975,42.88870190392093,62.99068662679798
730,-0.7609677357397949,0.08254007343956736,1.7252837078871859,-28.651988082831785,42.69022396396112,41.359616506460135
740,-0.874022986040578,1.2290969153194304,0.14150654427040119,38.409035001901515,8.406341889541949,52.17091393792782
750,-0.9291287796116076,-0.14383436530493465,0.4389747917388233,5.428907284843595,-15.658498940334402,54.46767999319785
760,-0.527239092241866,0.34644932472689943,1.1290393103536154,-33.54405009778975,-23.48631721534078,30.32438194416639
770,-0.8140891209741765,0.16880375240549672,0.46150387769049545,-16.413890223386996,-23.85826410444969,18.184285462523793
780,-0.7297143555518559,0.3206012433890446,0.6243693550032947,-13.49548171883944,-6.885272488067805,-4.8497053780229
790,-0.7778387168165719,0.34806385679779184,0.6380021032340439,3.3076673019044147,-5.125606224890004,7.4490096457604045
800,-0.755594539090745,0.37251825546756845,0.646006331742841,10.50556210386902,2.1828808792542147,14.933560193564272
810,-0.7439171229488172,0.3748229606643447,0.6756894603367857,20.85348657702083,2.808299130049898,16.00105953432299
820,-0.7150714572348971,0.2208676743057483,0.6363537070874217,50.402145971627995,2.8414917668085673,-2.309022905416102
830,-0.7111276296125263,0.21452617201257645,0.8013708769839042,88.55018197104562,11.352099823300932,-46.23769096224048
840,-0.7976141224938808,0.6301776925453515,0.9462225324535092,81.17679183240439,30.546423810554913,-43.88487131214898
850,-0.5336641395776333,0.848886625270812,0.8632405986477233,62.16970488054296,32.41563297372453,-43.11974982290842
860,-0.42971320164054344,1.0890748433325217,1.2803769360940835,47.374736859011136,31.0179738899977,-35.671301597121584
870,-0.7379852827587254,0.6706641733028524,1.0045300203897105,37.667615011510954,43.81909999971134,-27.09503303546515
880,-0.9568835292070041,0.4815979297679725,0.480104467361056,33.924444375313335,31.653920713931218,-14.090626146113806
890,-0.9638605052574766,0.4724756529085628,0.6179831190620022,17.435577135076855,44.891070291365175,-4.170273911001525
900,-0.9592451356349296,0.5657620800936813,0.360242753068761,35.95300572459739,51.72635158896136,-10.17203928093849
910,-0.7609301995282759,0.7704511636995905,0.30401112065735303,46.828785136546955,57.54066665035852,2.1818991004263566
920,-0.6312027229998961,0.5053289247170202,1.5275817800282399,-33.67437725366596,68.38282704626181,2.831878862436458
930,-0.6851737040890107,0.317918540913523,1.089536462461893,-24.404181686691842,46.5591088389047,2.62317280207934
940,-0.6350481540835258,0.47537824773574355,0.559618657625564,-66.67798402098995,22.5538963592952,15.152080970793397
950,-0.5958759511334604,-0.06454937985188003,1.071585726427652,-112.816763347929,11.588311585781502,27.330969820097557
960,-0.8828544383399012,-0.14310098572029106,0.7265508268890807,-106.6343984399486,-6.163546307589466,45.84965318430628
970,-0.7764891365401175,-0.1466522391253009,0.5908889103100792,-85.31590326758264,-8.497125467920569,48.79663001249427
980,-0.629492643851167,0.4921543297702217,0.2170588465754143,-46.179540092022876,-17.545520209956937,59.82718149903922
990,-0.7008030150465222,-0.1265455130509969,0.7808510035073161,-28.844998656141424,-12.550635175653309,23.301737434146062
1000,-0.8517588088161335,0.3484819592005744,0.5037237354780618,-5.415086445441329,-8.576482171376366,4.025745460845945
1010,-0.8394777246230639,0.6215658031844817,0.7067302188551204,-3.012060081794411,-8.98134572626301,11.112182520450713
1020,-0.8127065365392957,0.4215168621459954,0.5612092453684188,-24.070442497266974,-6.704774514956683,-1.5057167121814863
1030,-0.8422179439100862,0.44147235091204073,0.5498668769883903,-7.7830996516873245,-8.081386277066533,1.1025783344222075
1040,-0.8172046207845826,0.35531666177679044,0.5099580989798599,-1.9272549167409447,1.4218465441544597,-3.196593831131351
1050,-0.8305209095942678,0.4016315785715964,0.5244341272878159,1.526126542357225,-0.8065871705003103,-3.0607087583352217
1060,-0.8203647952750249,0.4180072813450001,0.5299283352118426,-1.6145684075577074,-0.28885371799901194,-5.607732707337604
1070,-0.8302738294662226,0.40326595511594915,0.5281921456357223,-1.320549950667467,-1.7348716921360494,-5.266375438642823
1080,-0.8308842228070938,0.39801682003152916,0.5237468951448591,2.6225789723748694,1.9001584448068505,-1.6246435223749045
1090,-0.8350969383635143,0.3970572135921425,0.5172838819032699,1.568689118075632,1.09455943470128,-2.5361773147253412
1100,-0.8035980999987427,0.43409275612574905,0.5530399083758386,1.4372608381565952,0.1970807756304072,-2.030666699954641
1110,-0.8309645303255495,0.4045188211247335,0.5257146396548156,-1.0280591474912548,-3.5351351825108006,-2.7485648185878837
1120,-0.8268882085195103,0.4022831865256399,0.5311593963509165,-0.18783244955937017,-4.369256110381311,-1.1171786732134947
1130,-0.8235823532565171,0.4080138563595143,0.5347257989866283,5.028314438709621,-0.6206101104787947,4.101231149460109
1140,-0.8106195954126367,0.4454214108884266,0.5547823900864668,1.7409784180469767,-2.9946472930969557,1.6587096704881348
1150,-0.803964581775124,0.4408058114534551,0.5610807452817664,0.676184490727584,-2.590370180671068,0.6816481854546794
1160,-0.8188544576563934,0.41321574056660104,0.5439829315756256,-0.23126763689543361,-2.2626280851690077,0.34801882863307065
1170,-0.801458199162522,0.43989958845828503,0.5635665139832274,1.771703766020867,-2.3740084499089216,1.5891812959767706
1180,-0.8194051228961601,0.42594732541534963,0.5383972581720117,1.00246485573936,-1.516714407382313,0.07489068997976968
1190,-0.7826920838464451,0.4542773559201888,0.5845776636515961,-1.9636718812182599,-1.3973391832206186,-3.310214466519894
1200,-0.7807658030430626,0.4513015453158404,0.5764463727721465,0.39285563461563744,-0.005418343093899658,-1.9217438980994053
1210,-0.8168106220418879,0.40915652611227865,0.5503846936323307,-0.11320884060186959,-1.9034750265249452,-1.8987179839626485
1220,-0.8002974069987057,0.42167384173159705,0.5502475634672124,4.062720514489004,-1.6447064282279609,1.8948470651429057
1230,-0.8393578319086493,0.40977894579738294,0.5256449662162926,-4.627790477427417,-3.8890032960641676,-4.091609877297536
1240,-0.8052040331763971,0.43329277063886906,0.5620764716044662,-3.597498230723464,0.46215106257054395,-3.2005989552730663
1250,-0.8192864270133938,0.40887296744155144,0.5489879960577781,-6.050378666982038,-1.0776497131416531,-6.352035273553508
1260,-0.8310592330158474,0.3881676717262778,0.5390474403583873,-3.1896985402253346,-1.2131929346146937,-3.581209088062181
1270,-0.8192189371072236,0.40646682791457134,0.5401817195844765,-2.3783584221919085,-2.564610927234061,-1.7404567910284503
1280,-0.8358416554495097,0.392634274765328,0.5260951924954992,2.4630797464944285,0.9294590980344143,2.205037746359729
1290,-0.8052308523777297,0.43020414987464367,0.5620877314380852,-2.821318131005807,-1.2463873378416033,-5.904493804052972
1300,-0.7996406148082132,0.42825494788654717,0.5640420553550971,0.002549514716235546,-0.7853055021686599,-4.136403605491868
1310,-0.8135032258610952,0.41084990394824694,0.5540169009211869,1.697464362716759,-1.1397958608153393,-1.5838339410267408
1320,-0.8268904960887116,0.4042591013856548,0.5382078265625871,1.5308903021611275,-2.6757530838984986,1.1308618022653394
1330,-0.8027641782559987,0.4300618578273533,0.5623491416355187,2.584875906485311,-1.6264936970971289,3.945049021187339
1340,-0.8007189716894719,0.43727240285887164,0.566718516516447,0.8273767371303581,-0.8936575305635015,1.1336099881601163
1350,-0.8263999082967564,0.40560121234302005,0.538437909851665,0.16042665965016598,-0.23255907491424482,-0.5867580141114461
1360,-0.8155822397102488,0.41156694026021545,0.5452674697127605,0.6126043394791425,-2.5131696434279194,1.4494408243296542
1370,-0.7926055761423201,0.4349624632419775,0.569414853497575,4.623357924381182,-2.080851520565071,6.145169798961071
1380,-0.8080595471235469,0.42874553242794583,0.5556584478180372,4.862503965073453,-3.806873285576806,6.613287704244384
1390,-0.829023006354152,0.4118503352913989,0.5300594004978704,1.9401878963838515,-6.356412716377576,4.140713705782657
1400,-0.815427357306661,0.4220996431659746,0.5461965340340483,-0.5585621268978161,-1.4771099207723146,-1.066919423036876
1410,-0.804854014321367,0.4276854021359102,0.5590259273704261,0.0347824302955545,2.6374985071009958,-1.4434514949919484
1420,-0.8244558571911077,0.4072120957069455,0.5403779808701709,1.5282573029189828,1.725737541738884,1.3073096919334417
1430,-0.8008214023957911,0.43529666527512406,0.5654527471959919,1.0887715774266655,-0.3139448807928392,3.0218984045356545
1440,-0.8012655988359922,0.4434895305917224,0.5674777426294707,1.3927896279503507,-1.1363669568250228,3.557783463961141
1450,-0.8291246307562103,0.42506616932337843,0.5384244339911882,0.8521041116294492,0.3500256190426163,2.1947183909956927
1460,-0.8308897787144883,0.4054311184303142,0.5396070317626754,2.4115318564581094,0.7081475772886294,-0.14736678823830363
1470,-0.7934446422005496,0.43886408222631623,0.566971083792071,3.9860404010220067,-0.006816639663989377,1.7705147123086897
1480,-0.7743839433200541,0.4642473072445745,0.5966327650637918,3.0667349158535573,-0.9691858166894862,2.999636672718165
1490,-0.8211518749189378,0.42804880162833203,0.5458546861049034,1.973206152494201,-2.1136172285393444,2.759454287412557
1500,-0.8282223504873824,0.42254662774739027,0.5480564424824409,-2.459885536289466,-2.133469857998196,-1.2004591985941775
1510,-0.7996392710070859,0.4408860462473527,0.575886316257781,0.666975481618516,-0.19729192718131083,-1.0766062372256995
1520,-0.8116252664924324,0.42668211658280514,0.5521907441066108,2.5642056455947797,1.685435550272626,1.6534780475559059
1530,-0.8224420585789027,0.4272795020443436,0.5435187797539227,5.0053641162763665,3.9695004830000116,5.077232266489486
1540,-0.8405030901525036,0.41285828257579177,0.5240555418449616,2.079380076749733,0.7362936570722551,2.209994589347202
1550,-0.811646867930884,0.44155365444759415,0.5593135777598518,-0.3427376414582446,-0.0039668760536950565,-1.0516601821130045
1560,-0.8110521088681384,0.43146802555917163,0.5571410136184852,1.426429652871536,1.117861654852606,-0.8772907687913996
1570,-0.7982041416683949,0.43881748771482937,0.564698935941257,1.8926825088487391,-1.3567350805916447,-0.06028276573686253
1580,-0.8313844270568694,0.4219102377574282,0.5342485208164179,8.124431923850599,2.4166437220293835,8.936244944936256
1590,-0.7974556175213191,0.46086293667948575,0.5741908989867378,0.37780705031374484,-1.6532822539542362,1.2032457319394114
1600,-0.8107331220921996,0.43996936477208404,0.5625941322397923,0.3283295022619369,0.06408254861064777,-0.8489556148719237
1610,-0.8268213483307932,0.42103653925836004,0.5418742175794932,0.40071800982574857,0.32889344180722924,-2.2937634003748686
1620,-0.8504031957480751,0.39326797681513953,0.5176482218678767,-0.6505099523621848,-0.777080218265781,-3.3615899456191354
1630,-0.8133727294326839,0.4343919750532174,0.5563997545727578,-0.2775551627825542,-0.8355506830071074,-0.05598055993051021
1640,-0.8188927940523102,0.43694688684994387,0.5490564898221552,-2.020729304569236,-0.3571684848952986,0.19314296659720864
1650,-0.8105176969597098,0.4449313666754958,0.5579119106984063,-3.0682692154337543,0.6303073728023092,-2.070651917675223
1660,-0.8014235967397279,0.44492493853783394,0.5604125528280374,-2.118187206379024,0.5972210502026858,-2.0395053450794034
1670,-0.7918271122015097,0.4513536626333995,0.5747780399173221,1.125546151251873,0.8670293501611901,0.4376421068365981
1680,-0.834686469054551,0.40909501537146875,0.5354815642678662,1.825628772083364,-1.0558001765216274,1.099701170832477
1690,-0.8014931611800518,0.45459968999939554,0.572059127656518,-0.9613158221947551,1.378004551365933,-0.7417163113221286
1700,-0.779187983894263,0.4690722342155939,0.5883637652321718,-4.525775279340829,-0.6912229553648519,-4.3917996369838725
1710,-0.8178237835603585,0.42608771029695813,0.5559807144733302,-2.8797675688214235,-1.1484189428440827,-2.2039705418487
1720,-0.7939908792110087,0.44830278461595946,0.5755082961766076,-0.32233614841230324,-0.8950075634167327,1.6593644089161301
1730,-0.8263640314218574,0.4253109788037123,0.5347276708383921,1.7792830696002455,0.4437522732029012,3.8544273374585707
1740,-0.7862724634426005,0.46004853339671486,0.5736991442701405,3.237913776187387,1.3879191808725913,3.3465304814205696
1750,-0.8053459819364545,0.43295851200029367,0.5625592882972988,2.250849615959181,2.2176274907167963,-2.133571118645091
1760,-0.8270567091912606,0.41221074675477465,0.5469872721796647,1.67883803883405,-0.6231026958240575,-1.0973929307409012
1770,-0.8230597434671607,0.4222884962254792,0.5393557900184673,4.0852030767940315,0.4315950429362173,3.6885291441601185
1780,-0.8081640492257184,0.4384209826961507,0.5597027451158818,1.883730259743849,-0.9875577756971058,3.1093343498487767
1790,-0.7986866222065168,0.4600577010601548,0.5737089613261656,-0.831082087493582,-1.3380877774414333,0.8143333236129147
1800,-0.8150860279421499,0.4403739402549692,0.5575421946859657,-0.6524422618388703,0.6785214646288341,-0.2880688880854885
1810,-0.8270842735508491,0.41670801290087045,0.5478682057013924,1.0749401217275396,0.4383040089081577,0.49771877089015226
1820,-0.8422547039034657,0.39567043696814147,0.5223002595481802,5.4516202069064255,2.262221929129124,5.319767507297319
1830,-0.8117562036997268,0.4350972739710467,0.5538147408531036,1.1671586174101165,-2.176835471749893,1.3881741573024597
1840,-0.8157003604254538,0.43939282948814423,0.5576394016749067,-0.05647548665000997,-0.6872433545915407,-0.5335993880830909
1850,-0.8109730755185547,0.4398242780144736,0.5607662163360833,-0.3610361415524084,1.3341649193094574,-1.85394011955734
1860,-0.8171842487299565,0.423995987150702,0.5476806242215463,-0.7784270422264122,-1.1620278994546862,-2.1378885609634417
1870,-0.8368437184813902,0.40563619541897883,0.5302317244168175,2.0484133088965346,-1.0422729234286296,2.1021300755457313
1880,-0.8012608187127345,0.45031508481058913,0.5709997129450378,0.2791080854625644,-1.561196395509589,0.27954158502625787
1890,-0.7982897322284203,0.45073603205407176,0.5760880751997585,-0.215470388746812,0.47041705602552053,-1.9206228814115183
1900,-0.795823962475371,0.4409633558012611,0.5734067444927742,0.7678665756557777,2.6321102043748867,-2.12526504723975
1910,-0.7904086471779557,0.4441506914493159,0.5775026300280778,-0.9247875620602555,1.8311627606410712,-2.510510934916439
1920,-0.8276518303740649,0.4146832197636281,0.5419369377476834,2.2124618257033015,-0.3189876486186456,2.869766725288876
1930,-0.8004171467151362,0.4556218933708968,0.5631223597854382,1.2572233527300063,-1.78886271565851,2.133072535988295
1940,-0.7974297268900211,0.4530078897522074,0.5757607226738012,-1.6867323067983886,-1.5065126954001236,-1.7883475139103266
1950,-0.7947844465824488,0.44868765897545704,0.5735045518478495,-2.214163426413404,-0.21334639240414965,-3.749406077082257
1960,-0.8185388865369209,0.4119466958236882,0.5473381834089284,-0.4335392051809235,2.4835170318153414,-1.1420990361844172
1970,-0.8131863170249387,0.42343941077654484,0.5606180445899525,-1.470981419393868,-0.7313287715609524,-1.5152715949590363
1980,-0.7996876606636263,0.45029148677384395,0.5724898485911041,1.6023970876386378,0.3265767629406496,1.4628980523296813
