time_ms,ax,ay,az,gx,gy,gz
0,-0.6322285322727491,0.49883877175457,0.8763345868633803,-2.4981516248525075,-0.5629851267432737,-1.9874182197597343
10,-0.6500810375870341,0.47872602911553586,0.8561145177310823,1.6004871406713805,1.8123994352263622,1.017484383208736
20,-0.6284888112231294,0.4985213949744008,0.877259733573923,0.35291329192636356,0.1678475532505419,-0.6464304472940369
30,-0.649582236126267,0.48111830059533667,0.8602400143858971,0.9628405788111839,0.8693249614441717,0.19230967556457032
40,-0.6265658566079214,0.5062059082663877,0.8860342913691541,3.1019480266042025,2.3494023361711047,2.917446893003614
50,-0.6192254424145693,0.5155680590273171,0.8937011807218838,1.862959595755975,0.933415963247928,1.8939164312686545
60,-0.6347868308238807,0.5015223105000838,0.8790593131437194,-2.5004644109548955,-2.6321775239243586,-2.325702635247208
70,-0.6296251534201734,0.5061294124467701,0.8852948086786094,-0.18409212742734504,0.6092634374199971,0.43048907611876874
80,-0.6432901879417291,0.49301704902975735,0.8683863800836159,0.44825051375548874,1.8195830150684298,0.9311241492729132
90,-0.635757857551884,0.4973092744896283,0.8743240769796278,-0.3921125070671928,0.814777399325685,-0.49079402490675017
100,-0.6212485995148588,0.5078885828050196,0.8848659555258783,1.0763069558431844,2.391116659054092,1.441255440934711
110,-0.5929329243660468,0.5398595039138612,0.9173182136519686,0.4527766214769857,0.9192592535970114,0.7558406806537199
120,-0.6395887270962142,0.4922436018695133,0.8685097113161582,-1.9061057800997043,-0.5399067758714207,-1.4474817905192365
130,-0.6348709605957797,0.4948258182866447,0.8750502328208153,0.2274016614723502,2.0947121137034657,0.7370396024571477
140,-0.645065104939042,0.48138329683698333,0.8621683599835294,-0.8348346955337649,1.295651104582391,0.5145421006065343
150,-0.6209795672986613,0.5034431039979169,0.8837149410090007,-5.264199909720061,-3.2974967162326507,-3.3533158927329882
160,-0.6348803561838676,0.48974620054704293,0.8713980696909868,-2.236952561251056,-0.9840985750682336,-0.813637417909896
170,-0.6369160795713501,0.48920875189802343,0.868621028214046,-1.313776055110019,-0.24846738575960775,-0.2794267883663065
180,-0.6585193355265814,0.4717954485458421,0.8454033104704437,-2.4100780393736208,0.08503096466050736,-0.9019085503518145
190,-0.6376786097774704,0.49027120391584667,0.8660649665788447,-3.609920846061419,-0.7792227462298404,-1.6356004094435017
200,-0.6278570140553109,0.4981682986457941,0.874399560685641,-3.4316964654353597,-0.7278191863200314,-1.4325932256460585
210,-0.6316866172543812,0.494070250066879,0.8793584529972989,-0.6828022451309124,0.9948269702182115,0.1813922463734583
220,-0.6308858601778418,0.4964606922793875,0.8831438068648853,-4.073016075435982,-2.413542531656325,-3.1339154832789706
230,-0.624962856551855,0.5041378804080026,0.892913122559358,-0.7240910147378766,0.7985915875658096,0.14822819095350437
240,-0.6455938230141508,0.4833927593670798,0.8748379362459624,-0.03889597053000716,-0.008276031976199635,0.1029792073943084
250,-0.6454618837012722,0.48782764117074506,0.8836572115784456,1.227532344875389,-0.3867951470298636,0.9084421351850482
260,-0.6475161644079839,0.4943518595957579,0.8991950736009056,-0.9876909330404509,-2.124335011659773,0.31340767941893977
270,-0.6942929506731645,0.4479475145212155,0.8627742922776801,0.10301973433253986,1.1202297032407216,5.618782098855633
280,-0.6788443153602245,0.46459129995085824,0.8847297719421701,-0.7622533506122144,-0.5360163557781719,7.5121449437565
290,-0.6255584295601546,0.49749919028256034,0.9267376337697447,1.5098032144244327,-1.0111607892511327,10.668465584578023
300,-0.6135125103278061,0.4297762325572215,1.1105139301032236,7.962240523416168,-14.20140939686167,6.3234219452559906
310,-0.5457216825364437,0.5145450480196081,0.9675939944665457,33.443597035948265,-37.27842181232696,4.172178708981621
320,-0.536295451632982,0.5306799823406014,0.8826881211590792,34.5107823634671,-41.0565427112172,4.000146096363759
330,-0.5056300078502117,0.5470324022445016,0.9213144472939803,21.323945741679772,-39.23628884133521,1.6564373575739895
340,-0.5333016619244655,0.5558258021003859,0.9274678352132686,18.207041731368406,-34.26575774479247,0.4015429341351604
350,-0.5747653805634493,0.5655138962680532,0.9228231602854702,9.745247484764237,-34.98794649014543,-7.565289727876405
360,-0.5731652277462184,0.5450787479018322,0.938236813675253,-5.718258715916282,-34.10067556602543,-11.261613459902819
370,-0.577241987764545,0.5450962501648537,0.9053697029412251,-10.164590230817197,-29.557905879846487,-11.31102061683379
380,-0.5826648786262097,0.5729761581577133,0.8323977180224222,-36.45481210808798,-12.192756159595527,-10.851700533422717
390,-0.5802006094587969,0.5451360665110588,0.8734725988911402,-36.1983664288983,-2.696281463684744,-6.285036309174565
400,-0.6699120042068535,0.5519251602944499,1.0125778063484687,-33.52945351422375,-4.709924637710625,-3.95330584034362
410,-0.5921687842695449,0.4231613460940925,0.9923706436339584,-29.6974929974092,-4.645249379003678,-14.00009215167283
420,-0.5862473932173652,0.47062246413013314,0.9774991455566104,-12.246712837102192,-7.446587078664736,-9.850677363400305
430,-0.6239674582665825,0.46534426117617606,0.8593108842729503,-7.630695084637684,-1.2964387633576822,-9.592212484140479
440,-0.5670363652941757,0.39719555994465744,1.0733357230952265,-8.722704180018988,13.90181048219777,-8.433966472978835
450,-0.4763210822987468,0.42968353840656387,1.4445141632947789,1.3619487493177702,27.38397367968124,4.03835476628722
460,-0.578291149787687,0.3582135078963082,0.9346150599253128,7.2864246106345405,38.6301529907323,8.605193123511775
470,-0.4620121198818329,0.2835321553601917,1.093171644666543,6.891264550251698,37.41043293106496,2.4174189904648937
480,-0.930219439681677,0.8491427171945117,0.2648564871148944,9.446353862963528,40.218748576431416,7.111884252208365
490,-0.605634762365974,0.5344303624852866,1.0222963150219928,-5.494983674807432,40.66327601833413,6.135769936883501
500,-0.49608643502149763,0.2769366185748977,1.237618462048568,-16.295765508668865,41.2645414243892,2.190472169601902
510,-0.5781433112843947,0.4320130314673764,0.9764629520104592,-18.026204301230123,37.74088352955835,12.664585780896923
520,-0.5835340633559822,0.5480729248677586,0.8266292567059218,-10.001624721201726,27.96551493395366,20.79677933779603
530,-0.5801211888972031,0.5100108617571193,0.9672035002793917,-6.970815835598333,14.39836676381593,19.212706822096596
540,-0.5491347694109626,0.46221464223792724,1.1594488330753805,-5.830026506537793,8.567847484259785,17.91997912079163
550,-0.5291448725627357,0.39408540435553124,1.060568957947253,3.437693729919399,9.261648508478785,19.30706668284003
560,-0.7043202886365458,0.45685479348189106,0.8904210235091449,20.08546890551791,8.68014155518781,25.58623591521674
570,-0.6024473300089515,0.4172867755793961,1.0276518285175706,34.11225760839118,1.8728124132749802,25.895956322055
580,-0.5287323492626347,0.5038172313060574,0.8933146496948569,77.69967383230046,-41.09787496145446,16.26135616765673
590,-0.5140244793886437,0.5235576733756849,0.8226601808194987,62.514157792901955,-43.98576131451572,8.414713335463768
600,-0.5065066640699688,0.5872722213494737,0.8364867536508013,42.26950640863406,-31.485506719639123,9.993363757406328
610,-0.4925173126365563,0.6415386341409304,0.8821871645139325,19.442396939961508,-27.841255519349268,3.7948171794380214
620,-0.5204535948747496,0.6237241317268164,0.9007020798313006,7.793696291796547,-22.107877090041004,1.9320724412026067
630,-0.5200367204941054,0.6326072096632576,0.947263867040421,0.7877450722874735,-18.25918490138365,-0.2123688727284292
640,-0.523507945708199,0.6400665499124737,0.9761872837018098,1.2254123563179462,-15.03165566242801,-3.343129141230625
650,-0.594162787622283,0.5489594679632747,0.9277569133732743,4.221670986906052,-16.4744097974285,-11.299756882819246
660,-0.6020901526428335,0.49281885443709555,0.89914745201254,3.268987988690288,-12.411601479122048,-6.832660692487949
670,-0.5675897012881316,0.46158503069079754,0.8999942189483733,1.6116102352228678,-12.34535102249701,-9.26581415924898
680,-0.5747788435614493,0.4673920607490273,0.8954120293441118,-4.5509856945094915,-8.789489046269797,-13.396143870400143
690,-0.5892875274183399,0.5134738954200012,0.8919740769589238,-11.880287571756613,-4.984593768665571,-13.030869241794907
700,-0.6670437295847277,0.5388752271065698,0.9719370041866269,-21.15455765981982,-5.323823096503592,-14.70766559902112
710,-0.5915611694758177,0.43021077995606943,0.9592261776570116,-22.283930862306995,-11.248438424352138,-16.43732742978624
720,-0.5603005479832841,0.3010841032346966,0.8880131521367561,-20.736389565339792,-14.386952516178988,-22.47446269769854
730,-0.6482468083998674,0.24294317693396267,0.8734982427367106,-16.661852227240836,-7.981697792049359,-20.673598816712737
740,-0.6218838929272461,0.3229189579767282,0.9864887365033741,-22.802844311857466,-18.133082721444794,-22.25081147606155
750,-0.5472126954551564,0.5874642076265892,1.1195573120472455,-1.4552592210448962,-5.84274736682122,-8.558017159791937
760,-0.5544087207624717,0.4919874787680435,0.7811168576253253,-22.273319757701522,3.9875004611346125,-21.334654209637673
770,-0.6135479278867617,0.39021274871933553,0.8576771385143128,-23.968169661885867,3.3515900616063927,-26.260205625201394
780,-0.5662681948346584,0.6760742407840982,1.0998283462359062,-15.866298624945212,16.06072382529917,-20.762885292976133
790,-0.5882786279912977,0.667925583101661,1.1566144780149812,-19.35776625895896,28.58944545713949,-21.723512763482866
800,-0.5128213790570546,0.5545654963211984,1.24903549179671,-30.784293422821737,28.898086818101238,-12.157620957648156
810,-0.5538253101938476,0.5860334008875325,1.2287688238041585,-23.48538440764083,33.012017551356664,-1.350325056546897
820,-0.6046369250830631,0.6692025074710323,1.0755144890189507,-17.388604038765695,27.03842050350836,-3.9439144183444834
830,-0.5541437111139023,0.6473441083367653,0.9180747357198198,-6.987885138974793,23.38369403336116,3.4629342193234676
840,-0.5525049924825145,0.5354684338572209,0.9280666565208465,4.281774263014148,20.352628876510384,9.529682622639193
850,-0.5233841527111913,0.10156677620742083,1.1945347877404222,-7.289054663354429,6.596273985578639,16.178871547217554
860,-0.6123994435208239,1.0710126663380748,0.8158765467666689,34.673799719359806,-1.2691963804589235,29.466306270339985
870,-0.6359009499733979,0.3277347092647335,0.8968826233408423,8.75390022799816,1.0298187931758314,12.430460575002868
880,-0.5817632494739916,0.4557880029862671,0.9482967005075563,14.73344468188117,-1.0081288663589987,11.583630964453487
890,-0.5712719360265982,0.549770950124094,0.9876687805894847,16.306525377870177,-7.966445826698932,8.155290966877253
900,-0.5406862377515513,0.5238669785271794,0.9931056548424068,25.136022272407942,-2.928001292059037,20.152218568572618
910,-0.559224132507143,0.4677769785657069,0.9078568005810452,16.828736816682994,-2.617219799846803,13.331235537481739
920,-0.6462295190432708,0.4005193504331339,0.8176610185378193,12.85180725489883,3.137051893921008,4.226590970514338
930,-0.6195276665364808,0.4085947742938975,0.9000222262935481,17.6319651668629,2.7773023490533135,2.9195351022550686
940,-0.5572737025268656,0.44457917503127686,0.9277587865959194,21.054773730093785,2.4455526707463444,3.1703919065339843
950,-0.5684717677538779,0.5228757996098535,0.9510234888330521,17.188026099764325,-1.3997589390360892,2.389987788453581
960,-0.6353098513071869,0.2860885555216458,0.8319185496523033,-3.6830555266340435,-1.1323342082028425,-7.589836814963969
970,-0.48671453450035723,0.18676217623856767,0.8625105635487408,-10.868546460809746,2.05951834253751,-25.864209912405556
980,-0.6504200405545718,0.3619191901023719,0.9469973139424881,6.9084065348036905,4.97264062762723,-19.168798890098135
990,-0.7771735438083701,0.033403294195545094,0.07128229867446874,-26.16427156548717,19.15018074143571,-28.843221126515175
1000,-0.7462841025453886,0.0819277790361683,-0.023346795844619975,-51.99448656163034,25.56532421295891,-23.606496259812285
1010,-0.7837176576671488,0.38562890629701846,0.40787372838326696,-48.50644545406278,22.052761658981474,-18.233803992017187
1020,-0.7982030949637239,0.5051173760027401,0.421429381498423,-29.198145833844084,30.812298820342367,-19.21323940800899
1030,-0.6963118851162237,0.5162223750205203,0.5491567126995245,-18.901300571704017,32.77966082552014,-16.11371881056334
1040,-0.35499892900613483,0.6739445075849896,1.5793950828820087,-15.819884586415291,31.639695065389688,-14.586376664325359
1050,-0.5586765127631016,0.5396072989419002,1.1556621908674132,-26.747039268883878,20.945368008594105,-2.954425339515258
1060,-0.5992300626036371,0.3986927314163611,0.7970766544581777,-25.34760413847655,22.79085520941787,9.615343302521378
1070,-0.5571118055613637,0.42114530738309675,1.1098306068336097,-28.302613133497406,17.044530275333255,14.487354050520754
1080,-0.6070252406284573,0.5272007657491337,0.9828210726223686,-16.36675356593715,4.361585187260316,17.48115333632581
1090,-0.6531828654456701,0.6660111067482121,0.8814426551094147,4.763638740684698,7.35863398644006,25.283306261110777
1100,-0.6088596343776121,0.44882990208458345,0.9700288322611847,0.24423574631159367,2.5424819320109737,20.693297839381962
1110,-0.5738194653529051,0.2864235767875211,1.0427855881602264,5.671373239462007,-3.2850671226308448,20.362029598722152
1120,-0.569722975375605,0.6632346001941591,1.038449304057278,34.11120426661206,-5.3127920931512795,26.10120731962965
1130,-0.5249090496490849,0.6423017083055184,0.9902883167852582,31.652190639971028,-6.0164196051995535,24.73977834955268
1140,-0.6263931019592901,0.4718600902491044,0.916169586113251,28.786896904679942,-3.523131972544032,4.987014370879885
1150,-0.5805694905089231,0.4679620330573113,0.9127783834594992,25.919276075984108,-3.846051569087388,9.273287659199122
1160,-0.6741254286769686,0.3755424141985144,0.7813913801445721,18.894271277101257,-1.2860805461606981,6.08382624946875
1170,-0.6665377372833748,0.42113047877702214,0.8118451690144703,15.358220576301651,2.273412372057753,5.818517684139648
1180,-0.6168031992670816,0.4835300428944556,0.8765222143568194,6.046477991226953,0.9747236829956774,2.164334701989984
1190,-0.6306712272221271,0.4664066357809088,0.8622229903843682,-0.7478600428586107,-1.2733540749854662,-1.8323999577792365
1200,-0.627604321291705,0.4666813307319572,0.8671610479078973,-0.3659803539797949,-0.3400696738589736,-1.9748703820448137
1210,-0.6229298399357851,0.4718074102785611,0.879587592458657,-3.0226653290306222,-3.182634457311087,-4.944707606388367
1220,-0.6328328937203228,0.463868067829629,0.872146096019872,-0.25502755973271585,-0.6391277288091164,-1.771387984812185
1230,-0.6146107109623826,0.47809149314446253,0.8862366882954629,2.8738321892501575,0.48524796005540527,0.15078033151981926
1240,-0.6437461920480707,0.4546962814929993,0.8571141604264336,3.5061976215257347,1.6533419127985423,2.0864239795432686
1250,-0.6400352918106643,0.47013946250013017,0.859697178826155,-0.9720069544674423,-0.7847638062778124,0.29676059880933503
1260,-0.6171584616210347,0.48717354960570736,0.885998950733559,-2.9940271065340305,-0.5553253454711098,-0.0831455038338218
1270,-0.6226006089219037,0.47616491457984966,0.8815460919958494,-3.5082044477373695,-0.2852679408604085,-0.6407420336174047
1280,-0.6050197059833481,0.4870366855999234,0.892726607061848,-3.900943387290026,-1.0764271552814066,-1.8404042587293623
1290,-0.6222195190684043,0.47180715415726926,0.8811557472748811,-3.679061534725478,-0.9893898797773132,-1.9580366673591545
1300,-0.6436219553895431,0.4533568711165563,0.8665576832522961,-2.6698922543468915,-0.4900560181816853,-0.7681129813346329
1310,-0.627282943298393,0.46488508486663865,0.8757997810044877,-5.367108079980735,-4.63576606027044,-3.7302359732759385
1320,-0.6034064040100272,0.49484902424863236,0.9064015872120866,0.3057664290496038,0.9810817487379567,0.8716450656697194
1330,-0.6215319773690613,0.4784760619612067,0.8838514707667867,-0.5822059769489518,0.05578791704006458,-0.4626685955211612
1340,-0.610268036660308,0.48759086608037416,0.8864810521993847,1.4837965633153596,2.262049471546388,2.303438627473254
1350,-0.6287244863974549,0.47189517501201017,0.8691082440755221,1.490600030586104,2.827309404954593,3.138945611466647
1360,-0.6449803920177664,0.45525168852137793,0.8551199573537273,-1.4043817059932022,0.8731827811848685,1.4640607083682455
1370,-0.6667237382948298,0.43102998547093324,0.8364344991597495,-1.2992461265989024,0.892664798944491,2.0931621055524494
1380,-0.6473790471986057,0.45079478200811324,0.8570598300642557,-2.0700533892695323,-0.7452251488612488,0.35835908596326693
1390,-0.6453695642976931,0.4534469489631713,0.8570545909984121,-1.348039973155569,-0.9188190025060948,0.13905149924719296
1400,-0.6349733082530885,0.4639920758114821,0.866425707140293,2.58965622710013,2.200721852223351,3.496341911639719
1410,-0.6045367593842702,0.49857397741517906,0.9004369267413327,-2.262442228435476,-2.9098710787920288,-2.3143525017897333
1420,-0.6478658516986587,0.45729944249265414,0.8557713390039761,-2.155274412276488,-0.33478426030428216,-0.3485901924403325
1430,-0.6240103159654611,0.4698944226893881,0.8725174833242876,-2.924296351599853,0.6334282983042105,0.7961499894190438
1440,-0.6463575949236372,0.4443359976697155,0.8597533577858363,-0.3727763390051877,1.0081035946169756,1.7166845686688013
1450,-0.6350878224118301,0.4617381713018038,0.8678183916405716,-0.17221232579376977,2.710679588621456,2.1560013786960845
1460,-0.6357058420890834,0.4644896461595731,0.8679401190317827,-1.1500365784145137,2.726361112267559,1.2340919109976225
1470,-0.6294408497340404,0.46986306623663016,0.8768916442356967,-2.046852653984008,1.5087740541163237,-0.2708184610580793
1480,-0.6282288246052878,0.46502033347473865,0.881711058197884,-1.8500815429988888,0.9475547778241081,-0.8213443785141314
1490,-0.6362637046117703,0.45378774652852827,0.8715620090242752,-2.5356192684042145,-0.6930950031547964,-1.617556774978106
1500,-0.6482605380025404,0.4455718054572131,0.8511256468106712,-1.6217434472038947,-1.2656590615823515,-0.47345616470796215
1510,-0.6310714723146812,0.4622511381209354,0.869357325012416,0.8988978156935895,0.1032099120744745,1.4181029488464099
1520,-0.6341894209766332,0.45952437150952047,0.8745618876640556,-1.920925927765112,-1.2172154695209105,-1.568290078698563
1530,-0.6370335335878705,0.4570589089773458,0.8606594449299508,-1.4907681713749188,-0.24280230180303514,-0.6020247560845073
1540,-0.622897212109328,0.4773508754656209,0.8711579680161128,-3.3654811869637955,-0.397771787345055,-1.8869573006464229
1550,-0.6236754588179583,0.4736041065532997,0.8788395118724455,0.5824739244890429,2.232969893146455,0.5908138812459429
1560,-0.6145874383414407,0.47238408111933383,0.8895920281956616,-1.953102414805764,-1.3704460486900305,-3.261205004018044
1570,-0.6162866015413686,0.46800656209738756,0.885865193354505,3.693958926595755,2.3147939179115893,1.2792432534176832
1580,-0.6538303152548222,0.43922192047003045,0.8484971903063487,0.659401717324656,-0.6662476681052623,-0.540523454780744
1590,-0.6341942873742737,0.4649620213835628,0.8685050596790032,-1.3526956567497848,-0.27610903605222303,-0.04888046764745499
1600,-0.6096768945795419,0.4836269765160315,0.8889451884263452,-1.86489507549056,-0.426694019638299,-0.869747487041494
1610,-0.6293711027756237,0.464607836007454,0.864317404825427,0.8435585834618866,1.8213076099901462,0.7428898328617393
1620,-0.6240340150771125,0.46325141122932434,0.8722316684653798,-1.0489808885356235,-0.11190948243149812,-1.3682864047324619
