time_ms,ax,ay,az,gx,gy,gz
0,-0.5563895655960254,0.5080892268367558,0.8866316850441709,-0.24477920698702368,0.6831820321243602,0.16095995093613047
10,-0.5679373080166856,0.4945751933427935,0.8779171469997524,1.7653584543360026,2.506009509973518,2.5453450459806835
20,-0.5587894515152946,0.5073190711982675,0.8851764578310786,1.4064175933114884,2.046799014882929,1.6905385272283828
30,-0.5798120684380739,0.4872076261911514,0.8675962678754935,3.479886748829966,3.4330675978738645,3.1167599964762034
40,-0.5820649346107101,0.48328098923894963,0.8615295370384755,1.8700819038259149,1.1398938146443216,1.3201092626613815
50,-0.5826780902613994,0.47840407478147473,0.8564606718329373,2.242555054409386,2.1723255985462884,2.7795617017627245
60,-0.5766008586510587,0.479807564334174,0.8699591499591472,-0.04183229589365345,1.5863400845213782,1.7296925274409791
70,-0.5833993566361534,0.4843717121667062,0.8725402175939021,1.1428689325500558,1.9780542490752087,2.72508292917776
80,-0.5687334154305614,0.49318474259100115,0.8740530475889167,1.3772410625874474,0.3889849016180462,1.1356219478235405
90,-0.5596595203723623,0.5071412408506898,0.8861495113516102,0.7630548836097094,-0.8050012529144484,-0.21214992613289607
100,-0.5856766558002569,0.47782338889909937,0.8572714880205164,-1.7795280137492475,-1.5195542917249223,-1.4059464955165453
110,-0.5735299975388016,0.49020258565182473,0.8697428709762539,-0.06834756803646136,0.8436445766154805,0.16843230961896605
120,-0.5726998671942549,0.48798492790317693,0.8691769106810542,-2.295411165070952,-1.3847435140889002,-2.082064505528141
130,-0.6129407285259613,0.44899856414761163,0.8285450181764848,-1.8725684836774423,-1.3735810136607791,-1.776631505508472
140,-0.5822661658389002,0.4840190377181545,0.8588048690377077,-3.0570345904540956,-2.754393838245373,-1.397415947905749
150,-0.5618903500734858,0.5033932648319949,0.8827211046698641,-2.7288226056861102,-1.395392983845079,-0.5517123392120042
160,-0.5792336166410599,0.48526376428684737,0.866452860312992,-3.9803317177553734,-2.2761514553861373,-3.1410922588580177
170,-0.592944662945616,0.472987798836814,0.8546407098715666,0.38346328390663237,1.54522080344967,0.21100297036923227
180,-0.5719262543452002,0.49146644024574276,0.8726530311786229,1.055595297048171,1.3593358044824075,0.9350904030285165
190,-0.5604630275285739,0.5028104450951059,0.8827855363762721,1.0997064441977196,1.7626894462469813,1.132091409689634
200,-0.5919320824199046,0.4715314634762799,0.8447514877013911,-1.0335999360523032,-0.07942818648317412,-2.047111637463186
210,-0.5905036595995569,0.47361890816589025,0.8540496575487643,-2.0250629889441862,-1.052736816316064,-2.813702066216438
220,-0.5654716298480101,0.4943515367289298,0.8753924094092749,-1.9442399282134661,-1.5545140676202827,-1.8559150411665573
230,-0.5609305446821935,0.5027871272532491,0.8812925476001391,0.749753588263105,1.1312226782083847,0.9309260568556745
240,-0.5429551553566927,0.5176278239042663,0.8981072378337497,-0.8433038987954415,-0.7612130898118237,-1.008059846019427
250,-0.5791626211207713,0.48190751567175827,0.8617522349954232,1.5523018598430849,0.9495875874767785,0.9567392877238199
260,-0.5724259082702224,0.49106927038684467,0.8718791011800957,2.9060354195375213,1.452005934784109,1.7570835003978234
270,-0.5876447360229652,0.47976466416147906,0.8608300234189167,2.3957016070147925,1.2889270726312214,1.0977244805226838
280,-0.5916798634185587,0.47508573176212987,0.8622390177255322,4.014512933763297,3.508718220976454,3.805687023110375
290,-0.5784969245752463,0.490085422176972,0.8788961740975553,-1.6190299693759276,-0.14089013936389427,2.331434768777796
300,-0.5853881676895201,0.4850363084564804,0.9293575169843704,-2.41601525712018,0.46482685299058774,11.958299265544268
310,-0.5846974451207934,0.4593460712248846,0.9936671342041496,-1.5915564436640168,-19.6763675421867,11.153990714537649
320,-0.5628260527532892,0.4729524991934858,0.9933655250963366,14.201357899361591,-37.69038647981634,6.902535547463976
330,-0.5228138085627578,0.4630330655940215,1.0301975840790765,26.721633572938238,-49.18151281642264,8.580849684736219
340,-0.4736117619055481,0.47328364956797925,1.014505545023313,28.100854654704683,-65.76000243374489,0.592428064787021
350,-0.3846601891794525,0.5358688878006327,0.7690166926536469,-2.5554554861535133,-36.13284711129265,-7.64999380951924
360,-0.4696771312808499,0.5557081495346002,0.860505473603373,-13.573311645502534,-20.751544807408465,-18.19235674695481
370,-0.4854262896092505,0.577933278990924,0.8440821179792669,-11.537612537442788,-8.557511466923183,-17.94536852856687
380,-0.5369821298323797,0.5164886171676005,0.810693932429219,-27.826728457472782,1.8647664935396406,-18.452079294540507
390,-0.5674476724578259,0.4922262940361499,0.8153971245008491,-37.370168365481234,15.031704768663147,-17.952426742469296
400,-0.7170236468940289,0.3960717682768217,0.6667122525284456,-16.458687319016846,7.148940037055265,-11.410288242400586
410,-0.7908657412947422,0.4744598548302348,0.6545976083850132,-9.019873392502454,13.731268990537528,4.414356407866464
420,-0.8003159459772304,0.47047874146418406,0.49786914206049115,47.69550407953617,57.75906824805539,14.2965296145352
430,-0.5003832736186846,0.4464165393019185,1.6350243650473357,33.311105740581496,62.065610869047944,30.54710890617401
440,-0.4880556793422632,0.0029609430470496512,1.8891907908483712,-0.6284022806705525,61.561188155100346,26.408769463569257
450,-0.435017638515752,0.4302179314323455,1.141655307654215,-8.327277657250328,35.385705271325605,20.643930142321466
460,-0.459049388309659,0.5626454513970933,1.0650495959844524,-3.953806880352286,22.590837156802344,16.39444876748793
470,-0.4036977315376166,0.49636111395875443,1.0980862454879294,-1.797155032200497,10.51538038261753,12.33294954750863
480,-0.47389370024878896,0.45491554080380076,0.9901883604401945,7.2755361310820685,5.944646858369437,8.986583580469613
490,-0.5380353378089916,0.4287361539883041,0.9771682997894771,12.553600244133118,-1.1644598109291668,4.26306576932289
500,-0.5168565169778652,0.41534134208437823,1.0053979668020434,25.36281949762223,-24.2279422800098,-6.633557507262315
510,-0.49210211658264696,0.6195802808719841,0.7970043926702916,49.771872714609586,-36.11874541786501,-0.7227315143972273
520,-0.4976880445993011,0.6769243406454535,0.815978000975864,16.976553606973706,-28.684519362227736,0.2962396623613727
530,-0.5153349977187093,0.5926198499285991,0.8573837807764508,-0.9074244928459176,-18.766078076187704,-0.40950834675432857
540,-0.4866706768705336,0.49313046988429643,0.9035901979647244,-5.299639394154573,-16.92794474731404,-9.535262468363719
550,-0.44184340171661995,0.5557567415617088,0.9014943950913973,-20.45616793794143,-18.154116313472453,-21.626414359733552
560,-0.9534168546676112,0.34600713660446325,0.8735115838908935,-38.40643281065992,-27.919645620200527,-36.111966766843864
570,-0.7515581968177959,0.37468023802432343,0.8588484263597262,-12.4136268383875,-26.934577846077474,-26.8022772305598
580,-0.7157772763841344,0.29407563127898523,0.9219388731441271,-1.8998086965821877,-20.93900713392639,-28.19532871187587
590,-0.7206062699359342,0.3966019361451666,0.9291167427343402,-13.017386806762588,-15.945316802207184,-27.156954920092513
600,-0.6661511722065182,0.5618451020179235,0.9426066174081352,-5.643536821399033,-10.409577849121671,-12.712194823950018
610,-0.6384256753903631,0.4004645695344676,0.7973854158607722,-35.08445745576325,3.699089694885901,-18.142744981977717
620,-0.7407975411783703,0.46336551887129374,0.5717335798890169,-37.79893967812619,16.240159274820744,-14.048885683083675
630,-0.5427832790486905,0.3872490999214589,0.8635721383808348,-7.309843195405599,23.975426605951384,-1.8024202521969357
640,-0.47496952874945564,0.475337394394826,0.8025258152710841,2.882472593587406,25.351295271249214,2.562081495985286
650,-0.5589780735753532,0.5049287385415462,0.7170402563714149,3.2788772503181782,26.7622025171887,6.993325658258543
660,-0.5457225865569387,0.3922329086191322,0.8160702106112515,-16.002211304398553,16.142244932991517,19.783237767466805
670,-0.4064450010092518,0.6793071326923553,1.0992886380447557,-5.596962641420308,-0.2725205703259399,32.47773494389064
680,-0.46851417060272943,0.2445962692245899,1.126024715304108,-11.376002228953233,-4.137143591601051,1.0733740209834337
690,-0.3912291551990917,0.5492534504748321,1.028797399263235,17.041234635890007,-3.544040533995195,18.171276934721412
700,-0.5039621882986305,0.43312364481100635,0.9266081731332558,10.220777072933515,1.0009064893477564,3.2826910768607975
710,-0.5274749041748321,0.34654503028125344,0.897312468057782,5.445279488814352,2.33803768992485,3.218078610217654
720,-0.5270040295087667,0.479853066194408,0.9212064666138963,12.552494606169113,7.074395254950575,9.370264418870413
730,-0.5460712500343203,0.4655470630986558,0.9084240893783493,8.551206906627941,2.9560068798855332,3.0096039459027164
740,-0.5368766905143351,0.4480819146008906,0.8974866865046561,4.162515801392455,1.7630552824906225,-2.2898348600823493
750,-0.5223582374128654,0.479635745290124,0.9285388648178005,11.86439072821609,6.075149446846034,3.542594528267806
760,-0.5092447284176697,0.4340929816842911,0.9356432015846413,9.050087768833489,-1.296883825706977,-5.250760283817071
770,-0.5967081254430647,0.8703747105110468,0.9749190357867704,20.14591939808779,-0.5307018378159198,-7.181542243502149
780,-0.5658740937688591,0.5799913225281643,0.839512410149328,-4.010140555878081,2.688494205675854,-7.295841364089487
790,-0.5875884904019546,0.3650891330220387,0.7441136738862977,-19.443214106287268,9.452337995452613,-19.1955170792262
800,-0.615695174277176,0.583750668671332,0.8903015195793686,-22.09427338547094,11.265618289296794,-14.606899302412904
810,-0.5601020494708104,0.5993882441585869,1.1156151234862937,-1.5837741059123769,16.602966994060168,-7.185065085970395
820,-0.8192972145800785,0.8097112918667332,0.3447441714363248,-8.605961572303688,25.066620196630506,17.596894664027673
830,-0.4521106835277149,0.4856365374473822,1.002157643952608,-22.675067923709793,25.047878451014213,0.6737011356459459
840,-0.5584516755213268,0.6326884085666912,0.8539359501635222,-2.3857315424842858,24.27852886629409,17.730345435604942
850,-0.5791531192865753,0.47147599593181194,0.8248915381498175,-3.5651838839368346,11.663752108496984,29.644640376368706
860,-0.558254214556685,0.531519350004552,0.9322787988362127,-8.154818916211685,8.26312771993315,34.53911439741555
870,-0.5345739813888702,0.492876803324538,0.9030442307016591,10.010913284250389,-2.557770804359821,27.230436913836918
880,-0.5985962652654818,0.3259700738029555,0.8094959925141764,3.6905652805767333,-7.522547689499955,16.601009721089724
890,-0.5854096121831974,0.42291297371066217,0.8642244900762758,7.429592161161133,-1.767316034565078,0.813137053285939
900,-0.5924489247115358,0.39941796848038474,0.8138312188387792,8.009545914260343,-5.296895584369971,3.7291446790974794
910,-0.6213378901222445,0.41184205195751467,0.8173037922665612,11.78366061662737,3.29648853927145,5.9142818523604
920,-0.5771591321433458,0.4754221686464782,0.8666008993761717,9.018667633162863,3.6822851035551247,7.078200623542871
930,-0.5939368313893277,0.4590991808568227,0.8512907628112363,4.272976810473633,1.4631692829990173,4.0146212733549635
940,-0.5784037873892004,0.4776058473203734,0.863920750245341,5.63209648338936,1.544523041912663,4.60225910529789
950,-0.5657898381901852,0.4984798762196854,0.880643600718746,6.501714594087048,0.9269711927285954,3.6578911268258003
960,-0.5567773797816287,0.5158870774894401,0.8904592122470444,3.539097430247379,0.49434698747257655,1.4767069421542727
970,-0.5874570583097611,0.47485077932635034,0.8542182017959591,1.3913900426871812,0.08986430637326226,0.9118978107751665
980,-0.5643192143047863,0.4946046089331021,0.875019119380066,-1.1198741621162174,0.7063181543237017,2.853060234027944
990,-0.5373169475044466,0.5218808092853049,0.9023611824875309,-1.4495128693466033,0.07115234193401113,2.493621789848156
1000,-0.5700035364956315,0.49118515113529426,0.8749885085307375,-3.05998949875415,-1.3659866877546576,0.731126468034875
1010,-0.5764927100229542,0.4921342361379265,0.8788491257418483,-1.435845666380575,-0.48507475185836924,1.7080654673546634
1020,-0.5729621851906851,0.495121018835111,0.8754879555436421,1.6068464329892143,1.0174380406913068,2.026336606404333
1030,-0.5652028138655548,0.49491460813463584,0.8763399553358472,-4.754700477178993,-0.8943447152019017,-2.0837399609494085
1040,-0.5651235034825589,0.4893725894032614,0.8749044170016856,-1.6409497554665038,1.148365278240155,1.082473702444943
1050,-0.5880857965871509,0.4716609584694581,0.8581710561053263,-0.6067950324492887,1.1008897197930412,1.714890307098277
1060,-0.5674128778047939,0.49222632623929624,0.8801215144793526,1.490298258124185,2.2762607519353724,2.7210113287010897
1070,-0.574060953819329,0.482745223256221,0.8632420194223016,2.5390204787662367,1.549059859193195,1.9468514757015203
1080,-0.5553336253934402,0.5096964032157905,0.8893091738034916,-2.6235035291715536,-1.8107218530395095,-1.9592633374407076
1090,-0.5744036133882177,0.49515303542969985,0.8730660572921398,-3.436566716341164,-2.1445648857528434,-2.3331494022119976
1100,-0.58555442302091,0.48920129578754723,0.8632556208994145,0.30953155992575254,0.9851640180744663,0.9543388046956112
1110,-0.5560395184907256,0.5122201191091282,0.8838523003934056,-1.1370317579467746,-0.6103377377194262,-1.0567372151932297
1120,-0.5615915719017317,0.501607286485321,0.8836576969880637,-1.7616889684176862,0.5141332179688823,0.24596829717732982
1130,-0.5717312700037928,0.48986477383763927,0.8701859478426816,2.6038722115814625,4.99209584768977,4.072719408349691
1140,-0.5949527424736786,0.47013240141167323,0.8467167120483269,0.46098127458750404,1.962414239712888,1.314504599852407
1150,-0.5529002343947836,0.5162169115690362,0.8911383279013926,-1.3102226226909035,-0.8902983510264753,-0.4953985385103179
1160,-0.5852260070985617,0.4855021597138382,0.8632441487007283,1.6435254010179832,-0.09690205452709968,0.9570626511709548
1170,-0.5967915040514313,0.4685390784007714,0.8443981912719581,0.7950487508337045,0.20017511932285925,0.4446710143875301
1180,-0.5541945569605138,0.5119930394391358,0.8865306851943159,-2.6724335449678445,-2.479655272750677,-2.8888107673765244
1190,-0.5617240333947072,0.5033163264956895,0.8802801981538987,2.6411088030710745,4.703380902738985,3.46007732514298
1200,-0.5751562251562623,0.4897823785979531,0.8638815431830212,-0.6771690018897023,-0.41882018424642886,-1.162124149562495
1210,-0.5746961318138571,0.4913817844942826,0.8659231683759806,1.9490955996195494,0.2937881152084254,0.7901613171897618
1220,-0.5826432931629613,0.4807007782175912,0.8549354819555229,1.1112850987380503,-0.9251678193119273,-0.09275395335771588
1230,-0.5772605887764192,0.4912709271846789,0.8593912817694348,0.40332699915718684,-1.0526776996616982,-1.2479164184022242
1240,-0.5584053251445729,0.4974428883120071,0.8811539130455062,-0.6559792030487035,2.0752671941294016,0.4841912132593007
1250,-0.5685407669408058,0.49762427780444907,0.8706323117647448,2.1573118630160804,2.3943662333037192,1.9739105879691756
1260,-0.5913821451747702,0.47537339058420525,0.8511717624575323,1.5728531247118134,0.33823893699965013,0.4880827760615984
1270,-0.5573831215999778,0.512084158279004,0.8877362015992565,-0.028609589386835665,-1.686556561699644,-1.7600915111574067
1280,-0.553449776761476,0.5173735380066534,0.8879666407846316,2.775158485551648,1.7060600070871432,1.4075110847563488
1290,-0.5535488007318999,0.5157950572619909,0.8937384922470571,1.687833225083558,1.2136937271158608,1.1977434797140862
1300,-0.5677920045206749,0.5023019606093094,0.87481796488589,4.044070852706294,3.0819855657127873,2.889513360577528
