time_ms,ax,ay,az,gx,gy,gz
0,-0.7495833482760369,0.9590348766957187,0.6743274297308199,-0.264835288807061,0.025412875895919423,1.5089055238923847
10,-0.7568817605622261,0.9509094516220418,0.6594929562415544,-0.23696198709148164,-0.9714078402159732,-0.7498796400367006
20,-0.7427206404370303,0.9653454729868333,0.6681427933079375,2.2685786504419,2.311162167491568,2.498234583113195
30,-0.7443553111113802,0.9590213862954265,0.675128464077859,3.261854781792761,3.3073478378788628,4.145472113098143
40,-0.756639938817973,0.9553008315550522,0.6631920042478957,4.305465167875239,3.513951615389917,5.8588909444516615
50,-0.732542733574038,0.9785269033465448,0.6927841114203962,0.32355155835446736,0.056412439408330475,1.4159524640941328
60,-0.747069610803001,0.9639986265426538,0.6809246239464778,-0.056667278634582985,-1.1754967203361493,-0.5074331661824123
70,-0.7830230351070553,0.928150285904189,0.6351900940201357,0.9779657495362303,0.27329932596427,-0.05990310896360918
80,-0.7417754780872929,0.9617919938784588,0.672228669147436,2.858329873384872,1.6451518127813927,2.2617896350195053
90,-0.7597409758559323,0.9482469478927874,0.6568765745505172,3.7477992391083945,2.3354629484393534,3.319661834331798
100,-0.7377259294701345,0.9740416192123563,0.6798008042690381,3.6685191919632896,2.405675998941103,3.2025449259976657
110,-0.7597159403122821,0.9611477524261375,0.6601374980919951,-1.0570775460968662,-1.2950058904227828,-0.9837111506815357
120,-0.7246215076181877,0.9940537726016331,0.6941011889116788,0.9748094394425547,1.577851447559944,1.0463025228503096
130,-0.7430173864261743,0.967024329130726,0.6707769317329869,-1.7350782122937192,-1.0156091575788089,-2.396133774499568
140,-0.7573714530011818,0.9503198455689794,0.6603582697803431,-3.615834253379906,-2.1390291779764614,-2.960362557090228
150,-0.7355460891993089,0.9749136742361475,0.6854007500574436,-0.8617871571392256,0.8154649187560007,0.5641255179048487
160,-0.7261167780848651,0.9845965412568205,0.6971389627845374,-1.8195765462140188,-0.10107879341127546,-0.04870013251525113
170,-0.7491799803620666,0.9669817493970775,0.675183146968674,-1.1099196484007343,0.10938340712366182,-0.1800008824675174
180,-0.7435893684326154,0.9750428576653059,0.6811836692032106,1.6376997252010739,1.593538242209374,0.9423511014057364
190,-0.7511896692478425,0.9569393990295816,0.6781981425531838,7.933597268829051,2.150035249705029,3.6239342757830615
200,-0.7446808976632613,1.0071253944605485,0.7151774754970232,5.255513799033581,-1.6818963675435055,0.36479250668328356
210,-0.7903282310342205,1.0117267599016913,0.7801540278564201,6.560110032654383,-3.006101064532926,2.6903059307428303
220,-0.7654813898913383,0.9938419904162663,0.7721984648398712,1.6886801221688768,-9.987911513345605,-0.42279207140702413
230,-0.7438547865699064,0.9807247173506757,0.7637897901839256,1.6267428327390254,-18.26603702915895,-5.734962896007666
240,-0.7468944235690358,1.0369422537557569,0.8257899055995328,4.3269374192648336,-18.54128856971442,2.2923701915785344
250,-0.7137067550545888,1.0256150357887515,0.7444894471879226,-22.531119194659528,-31.10669784314002,-4.5769874935131005
260,-0.6819318297832063,0.9900070117927798,0.6828087283553665,-33.79745210526585,-29.872753584355344,-5.0337292485035405
270,-0.6771214859056263,0.9761614082346967,0.6917904361872268,-42.6222350472857,-29.145348217384818,-9.020722931583364
280,-0.6562093280325275,0.9679637984292839,0.7148701124070712,-58.28312953934897,-24.148913120655326,-12.897227472755574
290,-0.6898537029452476,0.9494697501678729,0.7019738036767932,-71.44955753437858,-22.640114193661333,-19.389947235245067
300,-0.7632409467197845,0.8941076519284556,0.7033466523586659,-67.26774655464529,-19.554769601169845,-18.09889481445143
310,-0.6873911406030315,0.8968279877562689,0.7273208598895717,-53.82301980000983,-10.530828801774982,-15.367745156182586
320,-0.6630616317155211,0.8391054190191447,0.6550957510903785,-48.92272773847913,-6.151989195458462,-20.287901087269027
330,-0.6722634151450859,0.8332118685701082,0.6744299543507655,-41.45814927222307,-2.318411823333278,-19.537395976267735
340,-0.7303868678604168,0.7981827056190222,0.675026382307716,-27.147627201194187,3.3487489094518375,-14.263464394077165
350,-0.8076260267616915,0.7499737485225992,0.6931385240051396,-27.09321173361955,-3.0616324006890565,-17.461176707019266
360,-0.7602215728253527,0.821911911111977,0.8139109772771794,-16.396298879447578,-1.3975456591527522,-10.738465434718993
370,-0.7927081360104449,0.8112373071904615,0.7502226885791633,-8.002546407674721,-2.6094001563888445,-7.8365878946102985
380,-0.7724958520269185,0.8815723377260504,0.7251563185042822,-8.17462310344916,-1.9483214799429511,-4.449242374075258
390,-0.7775660123581687,0.8215488000520992,0.7069368254973365,-9.844633567045607,-0.5254915823006552,-5.5386798890594715
400,-0.7816960997656985,0.7923849341052507,0.6495193722356379,-1.1176674364242278,2.980851206134057,-2.971975378105829
410,-0.7903384104120611,0.8109886150189359,0.65094028172257,5.300771680816135,8.191831674317473,-2.917574744480847
420,-0.7866762919515566,0.8488559379602568,0.6685658732501467,27.183616792976775,23.07062524604397,7.395720688671751
430,-0.8131352621317293,0.9472482321015822,0.6326468247501921,34.559136634399096,37.35010928507856,17.1175515816884
440,-0.8121582766923332,1.0024087290941306,0.6256044831374218,-2.5254361021261666,56.72886395502813,18.414034606195173
450,-0.6374104247991212,1.1415288143678075,0.9193076552857861,13.61537187820937,58.21323507320394,26.87893135901656
460,-0.5834611559062517,0.877271785122668,0.5078518447876024,22.781369777996275,44.61700378689399,21.140833225792242
470,-0.6626067880759362,0.8911647062675742,0.9697815188555656,11.605754290246105,32.13246980368113,8.615098540074005
480,-0.7509678213545089,0.8264678769036594,0.859189097953898,-9.074597842826288,17.340311801502487,-2.165518038085065
490,-0.7361361244195559,0.7861652659242709,0.5046112311671315,-13.352047925891657,21.069236383085546,-1.630427706574443
500,-0.7375136317024562,0.8767960383146505,0.7744310542661428,-10.10640062697732,7.435549577505432,-6.6607912952133885
510,-0.7613403185734097,0.8549504608546589,0.7209851892260164,13.235977713728808,2.009949489228702,-0.9403800780335358
520,-0.7726957840474205,0.8755334991652008,0.6774300973966589,29.60028473063305,3.3922715048483587,8.481926413038286
530,-0.7621277000154996,0.922918936591608,0.7063708738038534,29.373116182957656,-2.127357146532023,10.751900035122569
540,-0.775984925142072,0.923474433751709,0.7477135714926016,25.4980232262754,-9.336527985143272,12.737434763962401
550,-0.7454320951664704,0.9417782782072248,0.8283411065945361,23.699572193014884,-18.671072364947623,18.5011797423469
560,-0.8808894193320744,0.9745188676593605,0.8038560065971939,-10.78987622796582,-44.79600020792562,24.6203792306425
570,-0.7908828484726154,1.0383323494008458,0.6628657004567946,-44.43317455862267,-47.09648072734148,6.365528015241797
580,-0.6176989332797427,1.0260026683948447,0.6855118481752924,-38.86216710389534,-38.77128662384325,3.6073412648667786
590,-0.5473111608718441,0.972751422567378,0.6580324195332391,-34.17773922005418,-28.86144024337105,-0.1906391468452644
600,-0.5405288672676395,0.8886395123215645,0.6303200536384544,-30.597965191799435,-22.696469863352394,-9.153760824005266
610,-0.5865184020341221,0.8818810127281806,0.6728392191478545,-20.68278402408574,-17.491793253304895,-16.180663695712404
620,-0.7262414629341906,0.8996087681545122,0.7050943123862816,-37.85764670435002,1.7228996862005812,-23.83808342834791
630,-0.9404452253566884,0.7410334554978788,0.825064137273462,-31.988075839308124,-7.411770259007508,-24.272486504543696
640,-0.8183299264876145,0.7072761323020406,0.6656696022459615,-18.891871148552237,-8.868717996722944,-19.425781570478318
650,-0.7733995472153747,0.7040130960070411,0.8665915577161856,-6.967599529099221,-20.470967453408335,-17.2076717697482
660,-0.7515055328745714,0.8599082164420064,0.8446257095691908,-2.3948626229799075,-19.752517432551624,-16.63313634907376
670,-0.7750292687171011,1.0299494114087027,0.8985699923239977,20.761501073212912,-11.032476840344604,-0.7684962712513128
680,-0.7144764369453502,1.2010240993453576,0.6919582276592076,10.776739247152316,-6.631518598109478,-12.881856941722376
690,-0.6924304562096659,0.4716787955219627,0.6883407406933758,-1.6134928517830558,-6.113094699694407,-23.269549743481754
700,-0.6509552926008074,0.4486650909155273,0.6918569941951249,32.00268703916579,-5.6340045265879235,-21.19424602977329
710,-0.516321353511996,0.9885444034033144,0.5699813924650784,60.41928141373802,3.4916140254833845,-13.28263711571719
720,-0.844968559061447,1.3090149289603104,0.9171614151067033,57.48848265697491,8.843358853956094,-1.9510890915309371
730,-0.7344793051573837,1.2074793808746385,0.7104025520235437,20.654122263530475,17.63427377448552,-4.322312638336517
740,-0.6475691198590791,1.022460024598538,0.757125498409803,42.27863120776651,26.126545411707806,20.71884617279373
750,-0.7379602955417588,0.884653212069805,0.8494123778296729,17.85259960886568,16.110194171410896,11.995241912364893
760,-0.7478693928481775,0.993933844145034,0.7718096500206236,-13.040857192419258,8.038271525740855,9.461845778596352
770,-0.7322061679400574,1.0293543784207482,0.5638588492553137,-6.533610423518881,10.716265523149913,17.201768386130563
780,-0.7177274463642607,0.728136109509454,0.7057177699735027,-22.532924138287317,6.132023166282105,8.15911342557085
790,-0.6516864707255475,0.9155113933025758,0.66160072212168,7.771907936478771,13.569918563402439,35.146154620562854
800,-0.7334476753655581,0.7622691536276297,0.7130745671776215,-15.4656971153846,7.90828862044184,13.26425396720425
810,-0.7227667353141103,0.8695625768383032,0.770445793057023,-18.81712236934523,4.37183886238961,5.535139142102167
820,-0.7482231817123985,0.7214761991024174,0.7551282260384842,-5.687354515211089,1.1765330226295163,1.7302352113984556
830,-0.7564873516201202,0.798784994397276,0.7534211268140242,15.856117877305497,2.0873763999367063,4.6354269768324485
840,-0.7608824622541586,0.8523519930178456,0.7244137592245844,16.825827017967143,-0.9902608151816308,4.503794580781867
850,-0.7312784145979011,0.854398046479629,0.7497675807843517,21.62342305523917,2.586110711829537,8.912248890632581
860,-0.6375400869184968,0.7981257501309252,0.7372393389751974,26.530259175132336,-4.428006907714791,-8.09729517840101
870,-0.6613121365208678,0.910771711885109,0.7456285110549115,53.209469729694725,-4.206766255252939,-1.3248040255810423
880,-0.7466150876463826,1.0598024603559904,0.6243637928908456,55.31793600819041,-0.7208189320357237,-0.9086249814049716
890,-0.7645030285219294,0.8998051612704888,0.649264712202261,35.18466972973192,-3.352833514529708,-17.804496908666724
900,-0.7706654862074717,0.8843555029001856,0.8015257650696131,1.2192219625439844,-0.35022836468645835,-16.203588499625916
910,-0.7531673659074518,0.855918445954529,0.8829266301463176,-20.271489291641377,-1.2701643888214977,-17.567803996419162
920,-0.7609010956186586,0.8761786156495937,0.7296455322900133,11.60338378003938,6.23943610433218,-9.763392661541452
930,-0.7092482530324854,1.051240004366775,0.7695526795580219,41.953131661780915,11.156066392610148,-2.231664305559276
940,-0.7505245376090299,1.0034100447234777,0.8003589493190365,15.77638492239666,12.397403848105041,-7.435973789128911
950,-0.779723244805482,1.0002656842255349,0.3806422429551343,4.426611020712157,22.33956235476318,-1.4226786031457133
960,-0.7806744393957524,1.0818245215624718,0.27562637103217097,43.66772348661589,32.303696242503605,18.622421667245277
970,-0.8027191194932949,1.0673950378681447,0.4606027462728848,60.2060333376753,32.095967997904175,25.571596338444948
980,-0.7076389738972892,1.1303415153182743,0.5022158261326226,33.18079374859659,26.130235003556795,19.978567268472514
990,-0.6826908733546236,1.1585953178394328,0.6758384350067533,-7.047624476235096,14.269880624529591,12.971282876557893
1000,-0.6665952825422172,1.0941753340838565,0.6518061886472671,-8.390105830246506,9.130434498803767,10.052901818283587
1010,-0.5661598827793648,1.1966569210090796,0.47326261265603964,-2.9866845529972132,16.056208359798,16.6422065667879
1020,-0.6023112642949978,1.148473263377947,0.5165062381758366,-24.040320922336715,11.640698302220747,18.731317479900117
1030,-0.793308298263415,1.0339402344956283,0.841524841124223,-51.76834137998609,0.600669576859564,11.549067480049043
1040,-0.8324776797178677,0.7308502002481737,0.7121720831211926,-55.564216210840094,-3.175237459063595,-2.0711293899900873
1050,-0.7841870096072439,0.6426641712254565,0.7014640398351263,-28.986063666274298,-4.221383763481998,-11.00574065426036
1060,-0.7693985639546852,0.760399024358308,0.7069906269897571,-16.779845498566047,-2.713218362585799,-11.782768535052323
1070,-0.7803443491041521,0.8167882949380528,0.6530323181797625,-4.420043716683349,-1.9042704892759517,-6.163168688694075
1080,-0.7693801335659726,0.913726519634643,0.6495981603608187,7.815871455065562,0.9729535117546244,5.793256326258982
1090,-0.714823451621797,0.9793869157240095,0.700756483247654,11.257099923217412,3.881885590689227,12.058175806813091
1100,-0.7447770199730722,0.9634307023830087,0.6707108700567663,7.856780833935361,1.4726823618591411,6.8790027031663294
1110,-0.7541942255729931,0.9635775167154268,0.6569052034335825,-0.5986721773873236,-1.4222818477597363,-5.04911971530644
1120,-0.7296079257522935,0.9885024494208787,0.6805719201072766,0.08226009431632292,-0.27047017551304614,-3.6328242412413148
1130,-0.756393410866973,0.9570602395577685,0.6590836713391122,-2.037657924616495,-2.24570295856515,-4.875893541583446
1140,-0.7703062885798576,0.937062371758288,0.6432233793535787,0.6649208322553951,-0.622763118113585,-1.12614442743828
1150,-0.7314775739382118,0.9803994896619084,0.6858405947736378,3.6731988483528397,0.5926130785621686,2.397070431177754
1160,-0.7381880907647416,0.9706091542173056,0.6699725300784071,5.450497027712955,3.5284800600941826,5.249609448917029
1170,-0.7535567465079754,0.9639157491446607,0.6618724045565079,-2.6190765726719585,-1.3621807053366355,-5.014173003458655
1180,-0.7567311270000535,0.9593556729393302,0.6594136842783591,-3.033260964441181,-2.729236446120635,-6.628182896665598
1190,-0.7515510887410676,0.9487467436055887,0.6632044441352754,-1.1529466412162024,-2.0969785543396426,-3.892425954106975
1200,-0.7488396279200139,0.9568552556910509,0.6657401676265631,0.5298947337918306,-1.0751514342545259,-0.42657482118012885
1210,-0.7436355506838206,0.9702015948344408,0.6810262317226803,3.2022599224328827,0.2554244314643799,3.230289531673477
1220,-0.7456344125357384,0.9742327590379063,0.6726648509179421,-3.8232438827010204,-3.892691437253733,-1.5871398404938915
1230,-0.7535357793870336,0.9535115578206582,0.6658995006446783,-2.15541801267937,-1.220738390223472,-2.7169084112273434
1240,-0.7211059623646641,0.986670043871979,0.692919286192082,-0.7582066984471958,0.940430411066943,-0.5894726894828719
1250,-0.7270578832889313,0.9891181228657431,0.6861255491096122,-3.4697367765598375,0.5805100601285467,-1.6301890985697263
1260,-0.7258710421805941,0.9777673255926186,0.6965025998615764,-2.862048398232678,-2.3527841755415424,-3.169707714133399
1270,-0.7560114591183084,0.9456040602090331,0.6604756513319079,-1.4864725863262758,-2.265220647978266,-1.6402390797526243
1280,-0.7445603525543634,0.9491263758864048,0.6571587988381695,-0.09217413614262104,-0.03147449301700814,1.2288577834587073
1290,-0.7393171568814189,0.9804077849831748,0.6829414520341704,1.8215881014674646,2.0573892720051976,2.5579136583650115
1300,-0.7517807252014718,0.9503021971148811,0.6543357810163082,0.46676205610247556,0.6774747178230043,0.37080598865128495
1310,-0.7672713759368258,0.9375012216792715,0.650282082585965,-1.1303282964181856,-0.10544004466307273,-1.4379393953874446
1320,-0.7583268548881458,0.9713102615480249,0.6784374219864235,-3.3135592691504208,-0.7731434058789866,-3.1136841720712662
1330,-0.7498637027632182,0.9727987303896741,0.6858920020137274,-2.453147148441515,0.045235805361706405,-2.1398285120111016
1340,-0.7586579326135315,0.9502134219975303,0.6539138882197215,-3.7555748237896145,-2.0077521506772045,-3.3747909921410892
1350,-0.7626459829177114,0.9475258471354961,0.6497385095689544,5.498920647805013,1.7610632203888992,3.3932316761705392
1360,-0.7449680513005313,0.9795234490226786,0.6747478733084616,4.539930874916235,2.946815643689253,2.972198624888035
1370,-0.7436200843156772,0.9824124903192957,0.688075859906836,1.0990571604171007,1.3688084385179649,-0.6672231947581504
1380,-0.7389641551299464,0.9720164495438215,0.6857713205576668,2.9715652076050563,3.960081169239344,1.8586625115601
1390,-0.7525239090255117,0.9522208624402263,0.6654377319914273,-1.6894077950717432,0.173353922865511,-1.4457713125443379
1400,-0.7518223265667544,0.9615156627776168,0.6702760079482389,-2.7969014469714253,-1.53860239900793,-2.3305488096254456
1410,-0.742782215906625,0.9758067235736495,0.6874052806235138,4.889008810441794,2.7301934890674815,3.228745561340703
1420,-0.770178636782295,0.9403867298721496,0.6494309710281188,4.044705783885519,0.22218394506784223,0.8097726833452408
1430,-0.7600129818094057,0.9504777395384921,0.6639290822467478,4.112337583666441,0.42604998477854483,1.1992400310204294
1440,-0.7349910401250476,0.9767539777786143,0.6845788219184635,4.0005521689020105,0.3655603870286259,1.4099321311399786
1450,-0.7438542230780121,0.969508898371576,0.67926971569933,6.9511903978261795,2.8240101185317834,4.134774572995577
1460,-0.742944936735032,0.9583660266120227,0.6683498322538658,4.813219531226176,0.6189256834489825,1.5435322913573204
1470,-0.735784803888206,0.9714071247261822,0.6787663377419704,4.5227942749858565,1.704221721172932,1.8207470852890757
1480,-0.7482711399443378,0.9677167355597613,0.664494322865813,1.1313825471026178,0.12125018638306628,-0.5848147813535522
1490,-0.740233530678732,0.9709719436312304,0.6743293444988792,0.964471345633636,1.4600366127766438,0.17242852213972837
1500,-0.7381025533822821,0.969481015094192,0.6801253328771152,-0.8807859374766192,-0.5862389293545833,-1.3882125434680899
1510,-0.7673178534553522,0.9470560667743312,0.6505621509356345,-0.37541414113810534,-0.7860444289631562,-0.6910116346994085
1520,-0.7501949816264722,0.963570041898157,0.6643340685116776,3.721346313439277,2.247852520294001,2.732685856665899
1530,-0.7429792967045752,0.9687829333782867,0.6698885329600885,1.06570702469459,0.22487274582867062,-0.01859131443526052
1540,-0.7786072189566147,0.9337532716440762,0.6349083572842756,1.5886315806362512,1.6933580488646127,1.100578674985671
1550,-0.7709500587219005,0.9419448474601829,0.6470894440529213,0.5180545061950013,0.8229893336886803,0.358477935709406
1560,-0.7460181075956839,0.9711517569305831,0.6827088289839554,-2.728417006106583,-2.2223567955268964,-2.498443685321349
1570,-0.7527039242402962,0.9634818373550165,0.6693844694447852,-0.17190935491968995,0.8458085494273146,0.672629258094604
1580,-0.7567406875226211,0.9385428091572001,0.6481794148893523,-1.2556646602583783,0.11068985393378311,-0.6094648322680574
1590,-0.744798091372586,0.9432352663031116,0.660306215258654,-0.6258581191381603,0.11313304639223154,-0.3658648165510526
1600,-0.7524340007169853,0.9520002751896133,0.6601642370822539,0.038054843371809824,0.13155223703159719,0.7796783808040724
1610,-0.7496022336537765,0.9614814053722452,0.6664680998704048,0.6816391666003626,0.7748513116073787,1.7109851041742408
1620,-0.7581286827874194,0.9594525975400177,0.6592543232007582,-0.015554046410995781,1.3339655162527098,1.376131828032967
1630,-0.7527554412058268,0.9620886128040322,0.6664107991445437,-2.633289357036165,-0.5399935469158823,-1.3193873644617247
1640,-0.7411674691593133,0.9685902360368075,0.6764711222623356,-3.485449120406078,-1.6558789946463395,-2.2446269820581612
1650,-0.7381895966925203,0.970240758963264,0.6752938126786814,-0.6263394496709909,0.8072131338548899,0.5517242152910478
1660,-0.7436182443724814,0.9668160101678175,0.6671926154921992,-1.3638190690129643,-0.58089685675487,-0.6321259256705712
1670,-0.7335761843700046,0.9780380752167922,0.6833625969006979,-0.13127349816090184,0.17411697196375026,-0.11961900001179215
1680,-0.7400999942668811,0.9721012917312264,0.6808636269621073,-1.7529620705972453,-1.5827979929974851,-2.2936611665838673
1690,-0.7602695432505546,0.9499961631741819,0.6658329251971504,0.39149808480576687,-0.5296219487862777,-0.8000484794863745
1700,-0.7336126456441718,0.97317200048897,0.6929753829300405,0.09848767344321918,-1.5210566241323706,-1.4181392698226067
1710,-0.749026791846368,0.9608426784800866,0.6689828568270909,-0.23751634582106212,-0.5701946005510702,-0.367968752501315
1720,-0.7647139338233891,0.9428222578499443,0.6569488938759115,-1.6793366629992947,-1.438373869302901,-1.6153801619576988
1730,-0.7837377658693381,0.9218803449505808,0.6347309727189555,0.6983585950898815,0.7960420940593036,0.8375759081150256
1740,-0.7371964789109479,0.9666209511922771,0.6901788633914421,0.8870182169139106,0.26169417438214526,0.4044175368523226
1750,-0.7471554576424563,0.9569050631492158,0.6776711636348607,2.489587672865104,1.7397337257276604,1.7775607739430765
1760,-0.7426130802370291,0.9614963732249076,0.6704855911714935,-0.6668114014321035,-0.21344772548449398,-1.0213085346430368
1770,-0.7531386913788402,0.9439617966407944,0.6564702357463525,-0.5299364624703582,0.6168498442443573,-0.31258258807401607
1780,-0.7264350203043911,0.9806508772023992,0.6966538220949765,2.028419972596915,2.2316442528797658,3.119255078397021
1790,-0.7289078094646312,0.9743520617930349,0.688023336918888,3.3702289051875596,2.583817104203655,4.017166680778345
1800,-0.7441556378629434,0.9694991898404618,0.6824629840887333,2.734376499430495,0.9711813339503951,2.0553900173782864
1810,-0.7568184390079702,0.9541024054437206,0.6691051956839043,3.3908004665557647,0.8497377553232003,1.9581330751287855
1820,-0.7339316952038972,0.9826040187178561,0.6811537074730091,2.00350590800134,0.4585594239720861,1.6099444397307248
1830,-0.7486948741371787,0.9619080180822186,0.6697510489693559,0.31367153947575865,-0.07964960126249765,0.02392673392693756
1840,-0.7500612195822823,0.9630300396011326,0.6705021595251922,-1.2590002456024278,-0.8528645392282828,-0.8093465729144155
1850,-0.751125006774954,0.9636623613403547,0.6686613700016474,1.7086879411713225,1.2303381314637722,2.4346282855084844
1860,-0.7555174588612292,0.9553400956964887,0.6634752648370986,-1.3926360709707812,-2.81361201110785,-1.4702185880894332
1870,-0.7428002349893796,0.9768915546569324,0.6825408623158458,1.3965925536566286,-0.2111589069951283,0.924906992740171
