time_ms,ax,ay,az,gx,gy,gz
0,-0.6233102070182461,0.40067785258545296,0.7260081104407987,-0.6855970596408505,1.5800898754846975,0.22413120418620247
10,-0.6296522874423554,0.39627462732815427,0.7224381949564538,-0.752725702496764,0.2721881406499076,-0.4642677073984116
20,-0.6072264112854491,0.4234513465314461,0.7482758544816689,1.0983405936528552,3.2520847814134504,1.7084241198632415
30,-0.5988579844771237,0.42751528268706573,0.7539752742111347,-2.8080541277324294,0.11438848921210847,-1.3633642114382867
40,-0.5984234360588716,0.42196517426206087,0.7526320633597751,-0.6189728491156532,2.2325438814469014,1.1031166302207083
50,-0.6102299095742547,0.4105856953022791,0.7418370574490385,-2.074179582702066,-0.8401262503860146,-1.0640772840836377
60,-0.6151838874573108,0.41034294326385423,0.7394415233360259,0.7759224111157597,-0.20646924584030263,0.5790796565519052
70,-0.6122328647737949,0.4142997837425551,0.7429147929014762,4.265591933531982,2.4805982385283682,3.395362751778573
80,-0.6194520944504924,0.4073305473781276,0.7278757957720846,1.2471487346357928,-1.0747087073534105,1.2474170183895192
90,-0.629298870273792,0.4199936349603125,0.7479823584821017,4.384832708536066,-0.8695684948590324,8.532729707316232
100,-0.6358464554041028,0.43706070750213316,0.7656033659693705,0.2731429657684208,0.440017997912554,10.098454735186662
110,-0.6743560894503228,0.41158007521787676,0.7763450706680327,-1.0587802430199387,-5.56897639229974,7.953230408167848
120,-0.6945535006316944,0.42083145822327994,0.8535061394285032,14.33900077958171,-15.546214810978366,14.774048430165063
130,-0.6916563321547261,0.39234388103113615,0.852413810800908,30.890011296224014,-25.319140001854883,19.542458577486162
140,-0.6281900018127725,0.388600998982792,0.8266706199426288,38.509075945458775,-35.56858066647143,17.609963182593052
150,-0.5720024724040614,0.42556957146633556,0.7754213853149617,39.77154862171215,-35.67370982021048,18.897083252110203
160,-0.4891215271815316,0.5373304114416441,0.7200205349501414,22.77530742470397,-25.971421298323303,15.225890525653213
170,-0.4642458930138671,0.5482662618176768,0.7782753332414324,9.70306205080595,-18.684259352010585,10.104804027092966
180,-0.49246773291655405,0.5396088309726694,0.8328807175892118,-6.681486916490686,-15.24201710329639,2.9727552285269394
190,-0.5650320550979813,0.5445360949882616,0.8278865134261061,-12.540639350036699,-15.3883047007816,-0.41937336734015584
200,-0.5915990569221399,0.49886755220416956,0.805603712046666,-14.473209639663644,-19.119274944041756,-2.898292297576748
210,-0.5936413034361829,0.4487229340297864,0.7811234710842339,-2.5540511466248077,-15.59026567429825,2.8580892273183984
220,-0.5621393733022938,0.44512695130952235,0.790759770495686,-4.882842687983842,-17.26684069066555,-2.554899649692917
230,-0.5716185274319054,0.42430113983412854,0.7579139046884378,-14.677790108993673,-18.26742617364681,-11.049890335109794
240,-0.5834163858104994,0.4128141279868841,0.7210909495149138,-13.393573734092637,-12.258099857612217,-10.369089872679263
250,-0.5218087111518717,0.45724350520938806,0.7786650409333874,-12.891114540977622,-5.3213483741236605,-10.864839494202725
260,-0.5373711340974743,0.43645633785403115,0.7272089727862616,-26.551140362183105,-4.147024244112032,-20.408016031894263
270,-0.5597332979099939,0.4346536108855596,0.7593396244169741,-41.45340566969568,3.26127928627458,-24.117333494355453
280,-0.7646059768005624,0.47339332064103,0.884526592321769,-48.901447751380104,2.232861238153193,-29.2080568007092
290,-0.7947323991811461,0.498903515688559,0.6915512273167975,-37.16176763896272,9.837900186396407,-17.690925559125077
300,-0.6589497878696354,0.18842653749891417,0.9262462222216324,-39.55989501590421,25.59790283860275,-6.780421345742282
310,-0.5282690833144238,0.19173678884750367,1.098339680999428,-34.969119923972464,36.88205157356973,6.798611673959192
320,-0.6151270580462698,0.5042558279880096,0.816243875126832,-6.439136619141148,41.19754635686839,19.911625222341716
330,-0.6855529650073412,0.5301723310551119,0.8692668601320483,11.753632110611223,39.68242694542437,11.290438955288014
340,-0.687712202684079,0.43655650381342115,1.036450767627369,16.01112914535474,42.57089050698675,16.14106559808933
350,-0.5896370264844633,0.30545707378006914,1.1037280561879887,-5.717750199594824,48.43905280198846,23.84836734143497
360,-0.553559169923508,0.33083342778862984,0.6571491580682286,-1.0445318812934814,29.417726673637087,19.06263909212241
370,-0.561450427487632,0.4285076944403517,0.7192230287738454,0.0733091939155126,11.823165921573926,17.50748458273486
380,-0.5552676754119591,0.40482045259565363,0.8597423338138654,3.178713426395982,4.509514098029669,15.675959099210365
390,-0.5641598727655253,0.37178934164140737,0.8795864504849945,11.991125845833094,-4.968775498959541,8.116400408729165
400,-0.5762354426017704,0.37677152128713953,0.8563692985776392,25.776285618885797,-14.991154630608177,4.332557085256494
410,-0.5192751266504977,0.4153437775360239,0.916780190697437,36.62299344394843,-24.302407849007025,5.883226230941684
420,-0.5280044040673292,0.39341728992027536,0.8615950996974329,42.62127880905345,-34.615061441651754,4.113404744055475
430,-0.5662979879896085,0.48049456149977166,0.6981190435533077,37.561903259107204,-32.14829061910199,0.7938275351451702
440,-0.5329628372788685,0.578598695919148,0.7117488275811323,24.67844598761641,-24.052095594591243,-2.7799892311616126
450,-0.525426217356159,0.5482402510741228,0.7615102279297125,3.4773724507002886,-17.469754143548393,-6.242218266698083
460,-0.5650292237030353,0.5095424005605956,0.761966731240303,-12.814406058820914,-16.815226674473028,-8.574101681007678
470,-0.5573258393825252,0.5187992850128871,0.7896268978689068,-19.89365023728749,-12.745896545672679,-8.662616140955047
480,-0.588560020267522,0.5060723587676441,0.8059279227535658,-21.039321932531234,-14.190350010961472,-10.304452366815717
490,-0.6823101614492614,0.46385520556864573,0.6913434996467058,-17.686810782643295,-13.965345018929716,-9.6871919976227
500,-0.7242796893112345,0.37277456831800304,0.5087927574760039,-18.941835774310757,-12.355071450789804,-13.336112201385953
510,-0.4831146324420196,0.28968116994928594,0.7547250259408639,-12.161986568217086,-15.682913951878916,-16.89909353918659
520,-0.6460707653949356,0.28738631949145693,0.6678609443742364,2.696704364815502,-4.790255928248908,-12.324355415539817
530,-0.5376356248864674,0.142940177239972,0.6662110396758071,5.433783654019743,-8.159764836432768,-21.882574056732146
540,-0.6895821098015674,0.48868438551506194,0.6030299010622849,15.20130900464288,-3.701627628680324,-10.689112780989436
550,-0.6927371495703529,0.5571013112238268,0.7643441023465622,14.527700237154459,5.080379133290752,-12.35264809030731
560,-0.6303187585396207,0.37515145702860414,0.8193597167843829,-7.709756118073164,16.714704527808017,-16.421300975768894
570,-0.5734505413349851,0.2839798512103674,0.9094690250198643,-25.74930647526944,23.188247310040932,-17.757886331428406
580,-0.5524123848413681,0.4262593311674971,1.0045763305484579,-12.374984245061855,29.21426604189133,-12.431944051179546
590,-0.6915061489200724,0.46080459831207576,0.6824354811306055,4.316952210270561,30.785994549428416,-8.970647636305474
600,-0.5679394561522774,0.4202144968242986,0.7211532181697559,-16.42231799041807,18.248990108829528,-8.569325729593164
610,-0.5593823872171236,0.4142213672488423,0.6287769891766951,-22.887995024272687,29.4802263049516,-6.665984625895451
620,-0.7017056137642373,0.458753250032974,0.30204407307384723,-14.159078970569785,27.08816735826457,3.8492478966840373
630,-0.6265781483336157,0.5157028406830836,0.6387658466746344,-4.892177472317946,5.060921808760504,4.036453802628923
640,-0.5570163682271025,0.3852529307715723,0.778059614002623,1.1216842436687096,0.642256456843999,6.669985268693358
650,-0.5217384320177926,0.29658157236211036,0.8726860684275115,9.053563924302516,0.5616355428774578,18.027571887340137
660,-0.5631115772014479,0.2537610049724768,0.8283236850787561,12.41093743327276,-1.9383637204124549,19.9868704483883
670,-0.6323610048162268,0.15382390289092793,0.626221472426212,7.513705766096683,-1.6580109257353994,7.028570646152479
680,-0.5493521906829141,0.16134225878597078,0.7788673047510686,8.363329626798723,0.027496674539186167,6.0415026882136935
690,-0.6166513890018993,0.35347666932062277,0.7478077459091422,12.422977436547324,2.4091264427756567,1.1906927011904143
700,-0.5866500723606403,0.3992908124681846,0.7862050297232561,4.733681136035779,-0.024952146797072805,1.8239961497762078
710,-0.5671404444978646,0.41590057580585316,0.7963515351017368,10.975099225653961,2.3402572910048174,4.9551109431130484
720,-0.5921422266242127,0.3814228549219555,0.7697701290543535,10.508110538799926,1.0466021254538016,2.805650887832502
730,-0.5684848830200645,0.40575595543393583,0.7785136694633809,8.686059453037458,0.6788358640095571,-0.04652539113426346
740,-0.6040646273855353,0.3760864516730243,0.7404131217593595,7.121499167617077,3.109542863464617,-0.08056443613588149
750,-0.5882666325980165,0.39766500252685855,0.7659204340473114,0.04566628077361701,0.8391069329311864,-5.780793526477779
760,-0.626851930012596,0.3553420396395728,0.7264104038581617,2.484250911249122,4.386770884456841,-4.540276217420216
770,-0.6207325687221275,0.3074091729104234,0.6895966157074135,6.270156558745157,6.133563885587408,-0.5056742979396678
780,-0.5954112410943121,0.1542438254851163,0.3000044905362594,2.819157959320397,21.897939256137168,-32.34348367605906
790,-0.6458517515984868,0.3692860480359085,0.6476112249957037,-5.578868712242494,4.818939158854067,-10.952481084782532
800,-0.6335105602053527,0.49105103453719395,0.7089831338849029,1.1421560918236096,5.871882857922542,-3.8375702340248967
810,-0.6504134647819226,0.5009457238214114,0.7323571032304983,9.447896609087461,8.709554396543288,-2.1169312340040385
820,-0.6210420207314721,0.4213434605558037,0.7283132552286176,6.490864675742229,8.624410047309127,-2.9011704433873744
830,-0.6547513880651756,0.33933090392230564,0.6246531980516223,-3.6814231898191734,8.910500177637996,-6.387233183189608
840,-0.6820979157722288,0.3694164609723611,0.6067347430710427,-13.005492576512875,7.513181608025012,-13.670257128777052
850,-0.6001521850018111,0.4158964793567992,0.7828409272790372,-9.22396920393644,10.043251886937131,-10.886677209238004
860,-0.5595140533888179,0.4578414054014264,0.8557881482981577,-10.282118946093222,8.43962740680272,-6.954828367275844
870,-0.5453906270161685,0.4209739117129056,0.7858107950444966,-4.237241161034866,19.9739689480557,-9.716959961722953
880,-0.5812056632185769,0.43051185711541445,0.7753045321512061,-6.807323265729686,18.851303422136358,-12.010031582069855
890,-0.6314719866404075,0.40253255844426833,0.6674045491428291,-11.018795037348973,12.58294382910518,-10.810656712449308
900,-0.6032805118806629,0.3805791747102828,0.7174914586589819,-16.40607268943625,13.235675370335546,-7.393006026665069
910,-0.6039690223093742,0.3809906743428543,0.7458990919082268,-16.083400749320628,16.24333829749522,-2.2378035538701124
920,-0.6268237971491497,0.3796596114107871,0.7179206725361357,-16.802490708710565,13.361742552254128,-2.281791711796729
930,-0.5860746203028634,0.3637667427938761,0.7846018639010961,-17.38380900101737,11.244674637175958,-2.9626672485389207
940,-0.5781770864311109,0.3093450186410819,0.8724078520323337,-17.906772766595477,7.9253427497935665,-4.579025579042409
950,-0.5924150432231167,0.3900618869417765,0.7852780531894259,-18.13651880511323,11.17830629412448,-2.2940620609150923
960,-0.5826105395568464,0.2834900181043763,0.7953721592065868,-22.89625660105788,3.7842489467448606,-7.763765416518057
970,-0.6224191154634917,0.46384980253733477,0.7809169053800449,-0.3004396214103543,1.219204433322889,12.59272733800124
980,-0.6622880494269264,0.3830028292835777,0.723194439230727,-1.7195528416328225,-2.3343326419972747,14.424123391236918
990,-0.6577518184129899,0.3885992051401173,0.699623986171052,3.1963637795522155,2.8355179212029014,21.393696375092773
1000,-0.5810166099686029,0.5247988244682069,0.7824248589338905,15.66842084630215,-0.4236984235716934,29.899128593272152
1010,-0.5637985760768566,0.5195049218114899,0.8016905132968686,21.885613842533683,-1.968982970255111,23.473519070362894
1020,-0.6506959021667474,0.39397139717291874,0.6598601714500484,14.42845509587389,0.034105005460401516,5.462860583441707
1030,-0.7013963834878671,0.5268356299127942,0.5697768998856977,36.38333819819681,-11.714050120174115,42.83757967529959
1040,-0.5663014932545674,0.36817805903513307,0.7555822197213096,10.591882012928384,-8.547293468726943,10.756308183761792
1050,-0.6404979173204947,0.3305064722214352,0.6928797341831645,6.828089936822939,0.5114038085369472,2.6296914898480015
1060,-0.6305870770957163,0.4327872444002327,0.7447404849307219,15.765030307135312,-5.366559657451307,12.881300229371814
1070,-0.5904284227140434,0.2752913378815775,0.6661608156246137,3.06314595298036,-2.812584212865004,7.7023047075753235
1080,-0.6340767282000567,0.25649402935362836,0.6408660736972013,-0.2840335639527458,-1.3436631245560875,2.9133361841003724
1090,-0.620277678626232,0.3995079609610403,0.7204821573491219,4.563111026625068,-1.7227822816060008,0.8706262890491359
1100,-0.6314904264175302,0.385351745133086,0.7003266557395572,7.086224225637286,3.2719348905697263,3.8317019585128693
1110,-0.6380597869841967,0.40366577977614654,0.7388102939619726,-1.8843185340201192,-2.5731920862315283,3.4595721612131274
1120,-0.6800805578091464,0.38066078919849017,0.719507689787407,-1.2380494203500545,0.033244005539920796,6.042853513814609
1130,-0.6769904557276399,0.39351479239113335,0.7467148898732593,-8.154720887471044,-1.859325100459682,4.348876019099478
1140,-0.6721338154025819,0.3868692405012469,0.7624413926760146,-0.5332295079128438,-6.969247633162013,6.570025312536874
1150,-0.6751153258364678,0.37314304388052744,0.7473262980368393,13.938729855804032,-7.2586023322399935,13.83999855176351
1160,-0.640080113483704,0.36335809520879686,0.7673632596336655,23.325635708810225,-16.77742253308042,11.132976854906012
1170,-0.6161363525017445,0.3820419617304399,0.7453419249358831,33.22430900717319,-22.93804159470933,9.782619968139638
1180,-0.564515032530634,0.46410423001923395,0.74141340617761,38.27775518515435,-21.414116575840737,11.915993323758679
1190,-0.5319453055889352,0.5148061854692003,0.743233862524478,31.70068998429483,-18.327291593416447,10.87098397138691
1200,-0.5281846085332128,0.5420330009017909,0.7263338336719402,25.419454942545535,-10.585355594586083,11.811806571901105
1210,-0.544598522644831,0.5494578735693664,0.7257727969455599,8.969267019418844,-4.900751939415603,7.137742062402843
1220,-0.5682179810914456,0.5135910132071223,0.7408180742407966,-1.5716323255701252,-0.613758668538466,1.5790030390535854
1230,-0.5477747460005549,0.5324974101208809,0.777840508966782,-11.811764949996752,-0.05414987777960256,-4.0239630606210754
1240,-0.6280868614890989,0.42028736819778617,0.763501170682515,-5.914535842901076,-0.6614321311055693,-2.5008983284416453
1250,-0.6411471494164964,0.3919939082267726,0.7806840044315925,3.9458911399695378,-3.103604643998196,1.1135190185610628
1260,-0.6344927401655067,0.40709410918969746,0.7809569042416549,10.535128614644432,-9.271315415051784,2.247358334841967
1270,-0.6266089241438019,0.42683121325430345,0.7508111844341607,15.901426677224574,-9.032482795388479,6.708937750308515
1280,-0.6039089533166625,0.45826391662765703,0.7137798395589878,11.725830273809681,-4.684570122773089,8.281148212486679
1290,-0.6034534941050679,0.48123780298024066,0.7217815315391748,1.1825476299884217,-4.692906859471998,2.052305008281712
1300,-0.6143626764133244,0.4739430435245696,0.7522111769298689,-4.919632181213377,-1.0865241131723877,1.9895151565459293
1310,-0.5965802013480113,0.44458793768459703,0.7781783152488068,0.6748707621562793,1.2337028002025068,2.418259810407019
1320,-0.609916977376596,0.4145042772817219,0.7696001725052627,-2.845175754346169,-2.652722210529701,-1.8880196086670313
1330,-0.627588307405171,0.4070432353649529,0.765486207705215,-1.4199453302543894,-4.859911286934883,-2.289629269092698
1340,-0.5996835790330649,0.4479954441740691,0.7688094876439504,2.5860234309313093,-3.9322866730572463,1.1865578926367901
1350,-0.5846284800976277,0.4757942500607377,0.7610830113399057,2.105060537423968,-2.618212239363239,2.723182431278728
1360,-0.5925939883133892,0.48182404401932105,0.7622734757659737,-1.2664215581662879,-0.8537749096484581,2.1671523332561566
1370,-0.5870626258792206,0.4855503341606898,0.7712341257409179,-2.5335730059299753,0.9195865945823816,1.7734344340648136
1380,-0.5851174498866527,0.44862977139689386,0.7893597852481,-4.3873885874219924,-0.5759987413233283,-2.448572331699227
1390,-0.6134730314399404,0.4221265983865093,0.7642771838018951,-1.7240595438708004,-1.021310661208092,-1.3449176928548832
1400,-0.6078044794246232,0.43095138716853176,0.7677329605709485,0.4353021076846625,0.4344697592463804,0.6544095192467858
1410,-0.5909230602157469,0.46031163936216407,0.7779536160145821,-0.7897423396963517,0.17700580266841026,0.4908458878198396
1420,-0.5942295339064476,0.4721318075890794,0.7847629002239569,1.2520575507788057,3.442300339005046,3.5867502639618083
1430,-0.5959790554468398,0.4649895239453251,0.7783448844337899,-1.8795939623989777,1.5896735434129274,1.283783423691387
1440,-0.5766244112425242,0.4680772005426734,0.7896450123623956,-2.0433780036052314,2.9279699153508574,0.41617232340986676
1450,-0.6410156006445333,0.4015317725425404,0.7411244642606363,-0.6726232732342234,4.798559821043757,-0.3551748483659387
1460,-0.6469290445627278,0.40416108874274675,0.7506494216873011,-2.7176146625646886,0.19367352883696953,-2.9621768385579044
1470,-0.6355038464419522,0.41347445857353576,0.7584731216210748,0.6354569656414684,0.7651362177982407,-0.07440051337105369
1480,-0.6183374079493527,0.43100408798769857,0.7490606573680931,-0.7210054543357043,-0.8820975974877279,-0.27518330842402594
1490,-0.591186201233237,0.46424783276373344,0.7664183389756078,-1.4413421355903897,0.08338813323281563,1.1510838953583442
1500,-0.6139252468022978,0.43804467505180883,0.741380412146004,0.4885490759571556,3.55328407211164,4.326966896826038
1510,-0.5907579158827146,0.45623243938994257,0.7749168964238397,-3.444952846810666,0.3295326503554361,-1.0462578170705579
1520,-0.5961751105828096,0.44229386941112653,0.7726875226905576,-0.17520136642036643,3.448686917536714,0.5000593065354505
1530,-0.6168009146308161,0.4167556175954009,0.7455126347171745,-1.4193372660127732,3.323711049986899,0.11691125163061411
1540,-0.6042303672813122,0.43726977895882885,0.7589383107943402,-3.4170543679952736,4.175343424326021,0.7360848774432467
1550,-0.6304526300589768,0.4143428999540018,0.7355266036834265,-3.992310720851224,2.4641637276557913,0.2029773272775926
1560,-0.5998865357310589,0.4375204106119543,0.7637138994016744,-1.9460664361552595,1.9691869474782389,1.424325197300257
1570,-0.6227916335421407,0.4316040955505611,0.7482548349941632,1.6098887156136632,4.398404662929044,2.6938224348895714
1580,-0.5692582533969163,0.47916277169057475,0.7924732052318559,-2.630006314425379,5.626944128661133,1.670694640374745
1590,-0.5757236729844099,0.4594018921087577,0.8063246850268614,-7.835290191145083,1.6643619159318743,-3.1552593593684857
1600,-0.602203438915289,0.43161680862490215,0.8036465789786039,-2.7333220677988517,2.5751982016172326,-0.8585224614711542
1610,-0.6413508888365513,0.39938875223397174,0.768546902672872,2.792936987389119,1.7965031772516193,1.41702902467964
1620,-0.6322773123308217,0.409666475843493,0.7623604797752783,5.07012058439571,-1.3453071123485818,1.1404386402208655
1630,-0.6244337685641242,0.4082272412666872,0.749921593297563,6.87721449165674,-3.1505295158932505,0.3713009165470105
1640,-0.611151841262756,0.4085614988916508,0.7543894684601882,4.744737553479487,-6.496125407308214,-2.8178930090958154
1650,-0.5600541759590661,0.4763584633852516,0.8056271672622043,-1.102042306474356,-8.509076686850017,-8.770717806947918
1660,-0.5164595275799951,0.5150342994133051,0.8614055443952927,-2.2816184572778226,-8.107612666259985,-6.014893069540244
1670,-0.5703625283164587,0.45946533919540633,0.7974076499666637,-1.9683433577912233,-7.985623292683567,-4.9625452793451945
1680,-0.5970912657733101,0.43006757902733733,0.7875284956259322,0.9340355660091766,-6.074530041262908,-2.0370702740293574
1690,-0.5893232641922106,0.4409415576855147,0.7767149260490781,-3.420742313080616,-10.99543077235151,-5.670046677565841
1700,-0.5887631507774461,0.44233809999014584,0.7570149581798568,-4.422350155086939,-12.145773821312517,-5.806462057055238
1710,-0.5735026618436606,0.45461779279535863,0.8020184354187385,-2.880036336334801,-9.662425835562304,-3.059141681215454
1720,-0.5790264866057361,0.46232195697415274,0.7990255897084798,-6.915908122746244,-10.438485590278011,-4.158782910345722
1730,-0.5838906356664878,0.4485331002140261,0.7911604020296193,-3.0148484695472857,-8.338281422165663,-0.6205716120434763
1740,-0.5748693006313659,0.4284243085208172,0.7910202483193834,-4.622564293466761,-9.974857663704407,-1.1137426937967476
1750,-0.5792747180768701,0.3826076372857966,0.7678362472127346,-7.052192025562514,-12.649050529559402,-5.074671133045634
1760,-0.5494232580054563,0.42073712242235906,0.8039314883416093,-7.882281088295083,-11.515301496573425,-7.185216206552367
1770,-0.621438776965973,0.38260539168623087,0.7817004557204307,-7.943031866476689,-11.10191096541072,-10.192959265817876
1780,-0.6220428228383407,0.4139293029420084,0.7711714285303757,-5.962867107457319,-2.4034579307959594,-9.448679469377197
1790,-0.5940936755295113,0.43802449142016825,0.7429884337749194,-10.945078134831373,3.659607992789972,-12.361077062104869
1800,-0.5857075048716848,0.4324602735141214,0.7534187761954241,-17.02550180286191,4.144458857664682,-13.178472911431934
1810,-0.6240121063103166,0.49162461336730273,0.707858057890384,-29.642336646022596,3.09935751300051,-12.45892622013664
1820,-0.6012436177057353,0.4822430322091465,0.7450027915524936,-48.95434671317298,1.451403884732201,-16.577467707969095
1830,-0.7301824719551424,0.4591106599436918,0.6097987390751508,-34.75061547238824,10.359037893103125,-6.938390602147255
1840,-0.7122426572892857,0.48293325802395093,0.6655285550779994,-17.02591201782836,20.23758341246342,-1.6282709338788028
1850,-0.7585006468726772,0.42767634710987884,0.6634487432159714,-2.128294049289383,19.680404107384167,1.8052595144973598
1860,-0.6337616451155778,0.33100554807210925,0.8505342237029718,2.890743066625192,23.60561412600413,4.143449043086185
1870,-0.5951907826229238,0.2952753380755964,0.6656038494953309,0.6382928091528324,32.23978919129701,2.6954670277552584
1880,-0.7118376426481497,0.3613529299416392,0.2858036537183986,-1.1363625961153494,37.340588147178536,2.1119590496013125
1890,-0.6426726591435652,0.3806095254265947,0.6931907628968808,-4.932072255445626,31.218952947243096,5.840327595928697
1900,-0.5976285591551475,0.3664145056763444,0.732639016931839,1.1350344978505233,27.487122451627307,18.79029726710596
1910,-0.5311431512725502,0.4287518736275834,1.0465206636012456,-0.2727295493686158,20.105334209481033,15.345538135690402
1920,-0.5727039916206211,0.38379740593756556,0.8337949756862069,13.887761209221217,5.974709146121575,11.802723567283612
1930,-0.6222857139366507,0.3468837097006127,0.7830058920659989,19.14035814893487,0.6917476126063685,10.729925206870503
1940,-0.6048887554138657,0.3815869270886397,0.8534056864777185,27.284607743486664,-7.728083768490413,11.996036008558683
1950,-0.5867447881515062,0.4126799347034538,0.8652243517155183,30.06213640426259,-21.22230947919528,7.066225582134848
1960,-0.5987710292843279,0.4155216413649574,0.8122791404423207,36.053149328746514,-27.734083277006224,6.149029239207282
1970,-0.589427158673818,0.43509554627719443,0.7964153746245317,42.54260560568903,-32.81952890395244,7.167661507198172
1980,-0.5684826321219466,0.44547427266523854,0.7701693158397346,41.51272370144155,-35.456055784421345,5.349017925631674
1990,-0.5709587622363981,0.5136391914196099,0.7514093840580095,37.097094423003696,-23.350312390087915,3.8657532876454006
2000,-0.5428044193549394,0.5341484858998802,0.7681454936130528,16.552175729709084,-23.072295689982205,-0.9148343480863718
2010,-0.5432456954970316,0.508767875051255,0.7589794586704116,3.335521746991778,-19.260505934221317,-2.3073816101737368
2020,-0.5882721266806269,0.45197306227196693,0.7329226650269037,-0.8375489312935471,-12.810911415708022,-2.255177582907647
2030,-0.554983125350653,0.4888692031804772,0.7731740900348706,-4.888603586796725,-10.525874341099572,-6.4868044904855475
2040,-0.6022814373025649,0.432153572791132,0.7369641299013205,-7.689570107421833,-7.897020292010933,-8.85603552529496
2050,-0.5925645322552724,0.3997525539808459,0.7793566221107407,-8.54164325165123,-6.866778930812168,-10.955340198512708
2060,-0.5941271965795072,0.3687459432056253,0.8104944035522041,-10.936547028622387,-12.292346859666068,-17.773559025935704
2070,-0.5936567158860631,0.4384350320454346,0.8121449303133174,-10.278091486853864,-7.740528199718534,-12.248372629306566
2080,-0.5598319337376804,0.37481204172524285,0.7892350214812076,-8.056820085918886,-7.51712651895135,-16.9426257556956
2090,-0.6306491545946794,0.32493965714834555,0.7913541889017629,-7.193315443788185,-10.583421683344422,-17.72575045556487
2100,-0.6158279028469701,0.37217582714462816,0.8296826338144218,2.253162425053338,-7.007059348305545,-15.782420947501123
2110,-0.6295127981308208,0.3265908847865492,0.7562317910439362,0.8468675433520446,-3.2624080755829343,-17.510371063776557
2120,-0.6020939526517436,0.39238376081407234,0.7294929945687572,-7.515377973680808,0.9092319796844905,-16.942495107487005
2130,-0.6344565209985047,0.4202196541508832,0.6532356197847963,-17.81152028629842,3.4338511076922495,-15.13638110568311
2140,-0.6411002238470355,0.41519723604552744,0.6093353316524225,-19.788475788499014,5.886081997939612,-15.316595423026492
2150,-0.6566876968480473,0.43180421556118487,0.6783190870598208,-7.873423853613425,14.430785831196246,-12.464544226313553
2160,-0.5816735836424456,0.6339361820025646,1.0981336417197247,-19.516459385603596,22.688751527838303,1.2043689333343546
2170,-0.5577887828028318,0.4518452912503429,1.0122675240648153,-3.39797841827971,26.094744418009824,0.14072221091660173
2180,-0.7059586711003828,0.336085383760608,0.5729995851121191,-18.34018372978756,19.29190700352206,-4.830144361463697
2190,-0.6288394300424696,0.3126312259040758,0.7669384220555849,-25.90928861325903,11.846456125929887,-3.3631989176828094
2200,-0.4897222026728547,0.31558571312274375,1.014611129831551,-30.581880797447997,5.608485735283332,-0.9034213288782291
2210,-0.5285335294628698,0.4046555938415324,1.007022020327695,-13.079184711616378,6.727275194960884,13.969464849259104
2220,-0.564873146361954,0.5194412631371648,0.9176331405126165,3.8593628629060888,2.7216013196796878,18.510905559872807
2230,-0.5747952306189829,0.3852262084904797,0.8180065415972334,4.389256490763902,0.02444976281583572,15.38665681134974
2240,-0.6253150211516577,0.2806261421729455,0.8129272042849964,-0.018674023518504335,3.394821544673062,30.176948011053167
2250,-0.588683895599126,0.21132540228177624,0.6666836461230652,0.6422552212870749,1.582880077359365,5.9714019162932175
2260,-0.583276663756034,0.3396014552914867,0.7497969533700294,10.352405530840274,2.4940359858432637,3.236767532835251
2270,-0.5857784785391199,0.4698774021409623,0.8367539502880186,16.745793592196804,-4.094840117838332,12.582695869890854
2280,-0.5950580113777248,0.3848411192508689,0.773645212015446,14.07249555262544,-2.0530828900935836,13.911875389849225
2290,-0.624433117243803,0.3495988980626581,0.723798261330294,9.290832404600804,-2.5505718516536167,9.387215120940628
2300,-0.5973183827103296,0.40356389343507854,0.7666763449795209,10.790276963425079,-0.7899686416338916,5.813740532207717
2310,-0.5877224472367286,0.39855042403838226,0.7751104706396537,9.215629874328469,-1.8205342196601741,0.2373097406746978
2320,-0.5920249519984657,0.40216285107479055,0.7686904443985805,12.598183793608094,2.1198119259258856,6.214137120944567
2330,-0.6196788970325842,0.36509235680846003,0.743518428458225,11.189625417820942,-0.05763454169218146,2.0944322756625944
2340,-0.5956560279187836,0.3100486817476229,0.7099866765305154,8.20085967319029,0.4393703464130773,-8.896577641060269
2350,-0.6556417748248861,0.4436883223375649,0.6772278646897256,3.417477868242965,1.106422170699223,-16.6999190993552
2360,-0.6658547551380866,0.47047315973729414,0.7416628719794672,8.065640853705823,2.6292595150694336,-17.440829811288292
2370,-0.6500217061124384,0.3578893808593675,0.6622323416242751,4.044589456585083,9.090372536406845,-14.257723881790055
2380,-0.6387085935901162,0.34850928220695093,0.6825718465981749,-0.21718837164554328,6.926086183026234,-7.330561151297047
2390,-0.6070814810147815,0.48174843624228003,0.7685194450178838,-0.8982977143526276,5.787160109494033,-3.5602667092751723
2400,-0.6759758121238859,0.4407132963449729,0.657730370367986,-10.526162091211056,4.338784768846574,-13.036946987339615
2410,-0.6089766264561611,0.39215797967984994,0.7231702908378873,-9.687767629556918,9.171138943882921,-9.466780371017235
2420,-0.5893417456497163,0.40023138495869975,0.7831213310263451,-11.381243567643219,11.471317243641103,-22.785597043243612
2430,-0.6196399518645581,0.4461951669045615,0.5821875946409497,-10.692390307783198,24.370544647876844,-13.780970797857778
2440,-0.5981650625988836,0.3876079776261733,0.7985853510573672,-16.16102540528984,8.844121576418305,-8.967182013810964
2450,-0.5687012093705496,0.3588202120534132,0.6786472738634437,-21.37068070958195,18.080746752922487,-15.404869025579726
2460,-0.6409856620287617,0.42920475887629894,0.6213544442470426,-25.431901541162137,18.191633185960118,-11.924614347282873
2470,-0.6829591435620666,0.5210089726452898,0.5954486803812138,-18.38449035882733,17.52445735842221,-0.5589477877674287
2480,-0.6725320899749884,0.5077132372051475,0.6195632442494823,-17.14296865856954,9.157244135121609,-1.692995515923339
2490,-0.6192277757984163,0.44124330345471247,0.774578007535151,-14.764578437978003,5.11426285067726,-0.02734163736108286
2500,-0.6153742122449376,0.37594572391701975,0.6738273336147682,-8.438177372651708,8.78937808373919,3.0861888912438666
2510,-0.6580079036386003,0.61762372948552,0.7308494211383683,4.955429766401229,9.099062453392056,9.850418774562026
2520,-0.5965155873603698,0.3151176302586968,0.7490947925730991,-1.956611035395443,5.236654509137169,23.047830601299115
2530,-0.5852634020628803,0.3399740563518676,0.772703240324293,2.705342974936662,-1.6716428812262571,8.918215702087567
2540,-0.6525995080723076,0.305046856045136,0.6679060068271269,8.178666832048053,-2.536216773574673,9.466201211086371
2550,-0.6107995929523735,0.41480736771230226,0.7220779654822819,21.622343529202062,-1.0348019901747239,19.960197014173616
2560,-0.5587386334774616,0.462936652128194,0.7740185496100027,18.78743324027025,-3.2786271871257036,18.04719733412195
2570,-0.5977766149747126,0.36086489526549853,0.7173707972924059,2.9136962502482247,-3.9014732143989086,3.0649674451514652
2580,-0.642155169486659,0.34205515326710423,0.7162671182480361,-1.0015504306079883,-2.279253495071695,-8.980726617334955
2590,-0.6226447037643007,0.38674968734272686,0.7281762214451283,2.2202330291263923,-1.650395344930851,-0.38921580016472757
2600,-0.6158522503974672,0.40444895578993695,0.7448297351485501,1.8974175474704436,-1.739598772935972,-1.06170156028772
2610,-0.645453675356666,0.37931890672601887,0.7036865866273099,0.12484238613021648,1.2645273304349995,-0.34586181105356695
2620,-0.5843374478092742,0.43153191601638174,0.7587325192477344,-0.15541282258437938,0.4945447446141026,-1.4793919412115581
2630,-0.6075409543507608,0.4050360640454091,0.7334132021494214,-0.9780798912759157,-1.9631098499394095,-2.9270693972797073
2640,-0.6256953612542844,0.39408972349869886,0.7191187945070175,1.710066281292031,-0.023730180830623754,0.07231528539294874
2650,-0.6266364373304255,0.39831522986051643,0.7213607289433536,-2.308784448501427,-3.5364304382009424,-2.9974736461850666
2660,-0.6112966089274402,0.4093025622049321,0.7341421235053122,3.1765440525067947,2.4085700789763265,3.2054632184901766
2670,-0.5965726982408558,0.42217338858866116,0.7485744432533714,0.3982542224930885,-1.466595682505475,-0.06918934205561733
2680,-0.6298307217090595,0.4002162471773538,0.7275245825167321,2.5726814826674453,0.5027643550158252,1.4669993283101366
2690,-0.6198165952754423,0.404884771431958,0.7386290364130913,0.4693281406857163,0.15606306747723758,0.14080718230582007
2700,-0.6272949316268441,0.39432950540653405,0.7248643141918469,-0.7261545208585299,-0.3826031905963988,0.23824431199595503
2710,-0.604753692513177,0.4157878443033774,0.7451450612727998,0.40732446704032155,1.370676747220022,1.509343490973325
2720,-0.6048595681569507,0.4150775906307941,0.7431593449086115,-0.4661848224379904,0.49832157247889874,0.28743742159246294
2730,-0.632682613870407,0.38576924986368716,0.7118805420432665,2.190225804076886,2.21075816364251,2.208843154094769
2740,-0.6306136223193259,0.38707516638248296,0.7132000697772992,2.671445939984581,1.602896795828677,2.4402814163863664
2750,-0.6196023727041887,0.4018395973414539,0.7292447959174997,2.1213322422301397,0.7108223237763645,2.5929727293791016
2760,-0.590576762568241,0.4392498733428949,0.7621061579865188,0.30154935396618154,-0.9834390982745543,0.8622610474128378
2770,-0.5747774141939046,0.453880246168913,0.7720015756543276,1.5927487579733957,1.2165171317450145,1.9566146403023985
2780,-0.6251003245684782,0.4033152416369495,0.7226968985246363,0.6615939937175517,2.4645677213154884,1.8662133070122238
2790,-0.5868325366171312,0.43692408870211014,0.7647241707887115,-3.796884576991225,-2.2860488655005464,-3.1154575729720233
2800,-0.6127262271366728,0.41243199963562394,0.7401624540525519,-0.8186977553625923,0.16517059241277393,-0.0949643317250638
2810,-0.6054928166347976,0.4226888785812352,0.746133849490827,0.16087997180169744,0.9092153763634487,0.7199360469927558
2820,-0.6070143947301027,0.42066900363772175,0.7440432298841415,-2.1948363711744734,-1.0514366018753663,-1.52669620603422
2830,-0.6336448641473162,0.39061304207783315,0.7178383872444298,-1.9415446643414107,-0.1886250473674611,-0.9251878723522139
2840,-0.6347711119452201,0.387607194429131,0.7148722527651572,0.25940138691465764,1.9245098017136253,1.1664436130239781
2850,-0.6202580655611575,0.402742985772777,0.725958817261443,0.5575672735802064,1.5534851309650421,2.051953676259242
2860,-0.6172341921795914,0.40201275468571446,0.7340179039000966,-0.2157717666110434,-0.3736961196122829,0.2125321984416102
2870,-0.6331215541007882,0.39584582254549455,0.7244234527004574,-0.38527772166075835,-0.38445437151987283,-1.4411918908737071
2880,-0.6144586060693373,0.4075444200420337,0.7278717647232767,2.0513082411036656,1.890195510424196,1.3797848756251814
2890,-0.6129624764531841,0.4098734188225195,0.729880205047026,-0.5372275650138818,0.08149014654371993,-0.08645949528539065
2900,-0.6149039344923367,0.411353775569738,0.7373300204918425,-5.527815217726261,-3.9315598540241647,-4.286692943736364
2910,-0.6172381815481871,0.40855536531524267,0.7379095320656958,-1.2424102410565279,0.7345669968934536,0.2015137514394253
2920,-0.5977679039939265,0.42685566875987624,0.7541821277727851,-2.460169789760088,-0.6042096240158266,-1.1283367926144714
2930,-0.5893471995774179,0.4375545892857466,0.763779609654404,-5.067293304593028,-3.531709441591084,-4.034695853327385
2940,-0.6310374025445117,0.39301139917680983,0.7186573025959082,-0.10876930625398845,-0.05780944793210685,0.13363206123031313
2950,-0.6163406465349284,0.4061443395609539,0.7338730127422022,0.4911622759966633,0.6211956939985519,1.058012889282905
2960,-0.5973342731552261,0.42751517559875246,0.7564782602805109,-1.3305653899756837,-1.2911148331202036,-1.3421746849009188
2970,-0.6132975480031507,0.4112160673543141,0.7372156660655477,2.2645002771927416,1.5823826228293556,1.8326051560946799
2980,-0.5899183879751384,0.4326165745004694,0.7597401319333161,0.11770387137139637,-0.5695630232922149,-0.3550189551957277
2990,-0.6205490495989813,0.40489144081542167,0.7316754801368864,-1.7503430288900812,-1.6663769341688228,-1.8596907623749646
3000,-0.5969109199364526,0.4292335431868562,0.7546483694064298,0.252179424354175,0.6069170594755866,0.07137854258698967
3010,-0.6049306989136785,0.4140131160004608,0.7428963757048898,-3.289169054586637,-3.537484371172414,-4.14336926635451
3020,-0.6385129676617939,0.38150406464362596,0.7135951936157615,-0.29475851520384877,-0.22999081088263934,-0.637008442251366
3030,-0.610678324690102,0.4081539436466437,0.7338465808395925,0.734925397260371,0.8749611181056565,1.0534010122889574
