time_ms,ax,ay,az,gx,gy,gz
0,-0.6265532893092925,0.9789246943042424,0.7996208703429981,-1.0480267301258115,-0.8435565669661852,-0.3978249005726955
10,-0.6528482169951038,0.9375535371900304,0.772835303061945,-0.4540638187002407,-0.40018708699510763,-0.9379091671152008
20,-0.6457248806801554,0.9465312099674057,0.7748966152832147,-2.5476442199778178,-2.830448194760295,-2.7605574617766457
30,-0.637098813141967,0.9534954602573879,0.7880585178885,0.9210076696434518,0.3455696839109008,1.0267928613989143
40,-0.6126207078557252,0.982914741069635,0.8131082532113488,2.314206468812189,0.9544954732883475,2.0711757030676714
50,-0.6415705620517922,0.960803309596533,0.7785641311012437,3.3973561359440714,1.5436463250307741,2.5018830403829035
60,-0.6498517059717607,0.9527866754368783,0.7678203036525684,1.1894512713395384,-0.0331167651098242,-0.06449201321606968
70,-0.6467325669390657,0.9520598214967656,0.775930764255988,-2.6748110464100576,-3.2833792970943962,-3.6573343095241744
80,-0.6100431425859684,0.986697702770902,0.8147593900395831,0.7959332700652779,-0.3619699231471737,0.559501623649084
90,-0.6288865450197506,0.966216906224289,0.7880107319721285,2.3566691901543058,1.2403448904333576,2.834080024218953
100,-0.6462116276400106,0.9560074320674671,0.7809687222289945,-3.7266797917330123,-3.643637833636848,-2.559195303637205
110,-0.6400817212366743,0.9623503667789972,0.7843506096564157,-2.6539587572051833,-1.5622962380658945,-0.9096398008263439
120,-0.6600640139058738,0.9422469397839435,0.7656407563859684,-2.211107487646675,-0.491832078212733,-1.106241041979838
130,-0.6379116901584255,0.9649970624156848,0.7951927250740414,-4.011050719886461,-1.2675194318643006,-2.8362382326405893
140,-0.6614418408556584,0.9379466740706532,0.7720617956168883,1.5830517967040154,2.3366369460200818,3.5660451121549914
150,-0.6397698849281097,0.9620770610707361,0.7908467878077868,2.5338549513478226,1.524217472179854,4.684959383930584
160,-0.6633213784832821,0.9519114396945745,0.7730307868136823,-0.3252501362038598,-1.5294527536799616,1.5619400013707843
170,-0.6606009434804551,0.9675041657128948,0.7859086689932673,-2.803819123714056,-2.0566300002028783,-0.00181716455194178
180,-0.6511242998008657,0.9792884291792364,0.8029726443982229,0.08728341841871226,-2.3158793129210467,-3.907054563442498
190,-0.6807003054532528,0.9958058810478202,0.7582918255417507,10.915589660569077,3.968336039825766,-3.599673466254416
200,-0.7150126674683015,1.0801750132880628,0.7406675271456578,0.05719858117151044,3.170388715091844,8.8445843514987
210,-0.7114952453445756,0.8751155779065785,1.2034642746506512,-11.106320415637741,-62.59721031090687,24.188884870192425
220,-0.5421216544146547,1.0211248542676818,1.1223785154605688,-29.313979192164375,-83.26270097862378,12.842967869728325
230,-0.32471063849542425,1.0449575724168405,0.9320835009791063,-47.72078195353766,-91.54490819012983,7.681566198255235
240,-0.10550592541263493,0.9686421068001015,0.7432682776327671,-60.57478028515834,-81.44680466843671,0.05328791183147552
250,-0.03440050904003268,0.9097619704622038,0.537223635973393,-77.34534563267519,-63.671646062525866,-19.512041709442748
260,-0.05872185877546985,0.8508115825331508,0.2927957401221876,-86.92725510812791,-32.94252245727007,-38.530584577838084
270,-0.8827871127020648,0.561526292508012,0.9090483033136473,-106.23575518029833,-31.715187456538395,-16.947433354389705
280,-1.565756560181005,0.6040981778239695,0.841569967997814,-29.134425758622893,-7.017727190232444,5.08688643708188
290,-1.1770996448551563,0.9245796457466203,0.19218713368410126,99.56276816757678,50.889909332672644,-12.44181445573715
300,-0.6585724423236824,0.8878027756958812,1.2507927419267728,94.32830488334659,55.20601146652714,-18.885837182458218
310,-0.8258510178398074,1.2803441182053237,0.6450311851642531,115.56872956192184,53.30642535441984,-9.019965217664527
320,-0.8822367559832632,0.8424394128615408,0.2674681092659491,116.42828385690326,86.74929383382639,-0.03896809418467573
330,-0.4382433061169011,0.814871445365295,-0.34174829420922886,90.17213991476613,73.09277954214421,6.09258079345269
340,-0.43066294967023194,1.0324977281665952,0.9179378646065128,68.64751134445936,5.097895920811397,-4.608150676908986
350,-0.385109163210882,1.1543747889595914,1.3778319029508013,19.11744774745168,4.18707667093486,-6.026875723441586
360,-0.498724885112949,1.062804579063118,1.005178208086612,-12.608196918835786,4.537725348543723,-9.702326120658865
370,-0.5236664956583995,1.0488576624960615,0.9229351252333821,-26.941180632697908,8.958352968965823,-11.29722504440861
380,-0.2480549205008914,1.1373886114073861,1.364652472382145,-34.53026378314127,-9.561115455387103,-7.377319794454693
390,-0.13686528105544682,1.242917802050374,1.4987163772260703,-38.980286607732715,-21.06231279569579,12.025254726411138
400,-0.4386498737576023,1.205213568576682,1.2725218105531784,-62.5479959848286,-39.10463249479094,15.662640192220383
410,-0.3042738901427098,1.1640612955922913,1.6985424817908596,-66.3846201485457,-72.570147086575,20.813198442639486
420,-0.16236432814868898,1.016647171549167,1.184234081514732,-72.84729121249855,-45.66344548194205,27.524183025320017
430,0.1139594989123718,0.7195275826962308,1.435717042947502,-43.983961595243954,-58.02865108439517,-5.230069522562539
440,-0.0308477860550937,0.7386169531297379,1.1898346811572635,-0.6398599196482717,-51.20647724866806,5.926709492875797
450,-0.5934145380918798,0.6726389438022216,0.8129335377271002,10.784851354286765,-45.065602014216026,-22.457921019461487
460,-1.3013797174207664,0.9886198440355303,-0.17461685547550673,-12.79578178954334,-29.926387874607077,-15.961181932645406
470,-1.1994369096187474,0.7341555722147673,0.2923366972079535,40.127952804101916,-7.612650492595932,-41.214190896049
480,-0.7977353876393244,0.46068483672225546,1.640614993086798,133.94615620487485,10.367951617556695,-58.79223038668416
490,-0.7108216867923638,0.920093681238477,1.0546039023771403,132.1629376091263,29.56174736656867,-48.44940292536898
500,-0.5999794854481995,1.6559674006422684,0.2463999193829881,80.0565791145652,43.03402974407436,-37.17788625038324
510,-0.3726288183707292,1.7631012737737337,1.0176845128332812,68.51742115720067,54.66810012853294,-21.568175644021036
520,-0.6259348427394479,1.5646431768957891,0.2244420876456288,-14.931165362169812,63.19153442443845,11.752990927303925
530,-0.5615311878578754,1.2852824788572028,1.466761959398022,-27.612030070245964,60.500034606180925,50.24186949422665
540,-0.8728702481319921,-0.9754433319990993,1.6763195161935078,-90.36245572001025,24.446873778941182,34.939422510486
550,-0.811072206241297,-0.4108762890232688,1.156771677990677,-74.44166347463025,-17.115659338367976,-33.76170936642961
560,-0.6330298654158145,0.48569457107155717,1.1218511640725883,24.161191586711304,-0.8014865555155526,-7.446121770480923
570,-0.7009585395866429,0.5701515582360351,0.894737545651843,34.67067048520446,-28.885286753777056,23.30552798007533
580,-0.3993505326215745,0.2916885206358412,1.4204789471692558,26.575300511658515,-51.45197893306199,10.043010450360011
590,-0.04734505726276493,-0.03189027198785193,1.685926272563422,14.14531582923166,-54.41154953021734,-20.884843551907146
600,-0.3108283192373449,0.16977979195599222,1.156228250830838,35.282378629009344,-28.920093759075407,-51.283990734658445
610,-0.6160975194071173,0.8238427200747319,0.8536686779951534,89.30384247113119,7.5710341743875444,-62.51047428922718
620,-0.4440879992777388,1.0724813567924296,1.1785310799311295,102.928896725631,23.256621075422103,-48.58169175282431
630,-0.6388294053663329,1.0835728204608335,0.9783543602414878,35.55037649868694,25.212070004382756,-47.55160323956485
640,-0.5922790209270737,1.488846985095016,0.6374853027258847,-27.728453369787168,47.690804075706225,-12.406572966707742
650,-0.5872410458590235,0.9646806237058995,0.4658927747013682,-19.602935334721018,47.27767030543238,-26.563350344193573
660,-0.5115566433090192,1.4152825876223964,0.7892745004623032,-24.881485247324584,40.3806731462456,-5.308442393104892
670,-0.6226001927344551,0.5159543165732468,1.2447316824969477,-39.912061127015455,50.796854769298484,53.68723681369733
680,-0.4486843997464799,-0.10758030497448044,1.748353048393285,-16.913769562125427,32.928992124756014,46.56524555276055
690,-0.4525535004724856,0.7737590071412517,0.832797583401417,2.8823717630537202,26.234303815396824,51.10638723609086
700,-0.65684956364559,0.7488588640184168,0.5217370045546099,-2.3826706382591545,31.79624519500001,46.23459159761504
710,-0.7503666425112334,0.4531599532478534,0.9024945963976154,-15.037174489684126,29.60046145496533,35.36217427321394
720,-0.5985690787726871,0.8535678839236502,0.9739325623606482,-15.989699477905738,15.187659692007433,12.388601631300332
730,-0.6737380995507278,0.5761429005135279,0.7810296560830925,-7.715015319952705,2.782132846579378,-29.561123843036793
740,-0.7025716310886563,0.8986054141989053,0.7514108786307936,-0.19102097675730967,-0.01980280033864812,-2.34112921269851
750,-0.5685812149828302,1.0933463763155682,0.7493630846677658,0.6420370232736463,-3.4758355005658803,9.197932936062896
760,-0.5183039028133334,1.0799013100405135,0.7757440612770862,8.873809290585756,-1.6388000537314242,19.319785421503987
770,-0.7252180417660982,0.9420064789182693,0.8331428048864652,-5.9515203766671885,-1.6191263242267195,0.11986615244244281
780,-0.6757986592199895,0.9099396425774453,0.7715225279255459,-2.0863768347715137,0.24197963474050954,-2.434588005687605
790,-0.6468046012380487,0.9085842910920379,0.7495356233173749,1.5759162757165563,-0.46252092931932537,-0.4628236717019952
800,-0.644855074743414,0.9483685404719793,0.7575863793637045,5.054786950561763,-0.18234762657590775,1.782963664450731
810,-0.620576494083487,0.9900173505170159,0.7950036723844535,5.477980571035883,0.4476666540430433,2.27199131035958
820,-0.6634810649644913,0.9449760306571996,0.7597119715397176,3.7211886931957237,0.29251709624281386,1.2172679172824066
830,-0.6646452579094448,0.9527931505933552,0.7607050461830446,7.200100054733943,4.343107429856376,5.185514615997894
840,-0.6584382861269662,0.9592133035918164,0.7635553548090488,6.063482183138113,4.1431143719976795,6.089117741597091
850,-0.6453718679212427,0.9904055473164549,0.7621476285162863,0.3941129614262555,-0.24930165382136282,1.7515616839882473
860,-0.6328971501610553,0.9997600310581766,0.7784983002240895,-1.5057942456337203,-0.40122817664717947,0.6759293083641388
870,-0.6391478323395515,0.973615835464201,0.7725738376830622,-7.196865972684049,-1.978841452148783,-1.5872102718512653
880,-0.649179765648029,0.9633315429970356,0.7681432299289525,-6.194669477208579,-0.9782922400078696,-1.4729394994825213
890,-0.635191356068631,0.9747097343410559,0.7763546492161761,-5.183590221988989,-0.6881102647989337,-1.368619710960072
900,-0.6641568335297129,0.9405273130149888,0.7514369352664035,-5.612162719752891,-1.6157027638158257,-2.0359632507074945
910,-0.6341657960472432,0.9693228906101203,0.784751968197918,-3.103492427504879,-0.7223618895129724,-0.9416801606986166
920,-0.6604284788932578,0.9506849237263817,0.7568590421775483,-1.171510803310884,0.37911098318452363,0.46361714599843584
930,-0.6783356861293195,0.9350463482421629,0.7385355330212685,-2.777812856533026,0.04559478305303369,-0.3982692835291499
940,-0.6668739346094199,0.9390018812755992,0.7551260340532945,-6.735014464370828,-2.598496363050226,-4.115630359385331
950,-0.6299093494035529,0.975989954123704,0.7962418579103819,-5.0951017009700035,-1.9671981589436331,-2.9510820257505133
960,-0.6540883717789305,0.9470377162707362,0.7630408410118824,-4.9805928108800686,-3.592476376368145,-4.280594578198537
970,-0.6797292668193541,0.9276814177038284,0.7383885117908612,-1.8446766986626992,-0.8682873352443854,-1.7612161444450094
980,-0.6218101755161062,0.9769600147630025,0.7895510919267592,-1.5714341950499102,-0.5733404516653109,-1.9387580692815032
990,-0.6510969201791376,0.9437504852857721,0.7720203846733343,-4.414258215881365,-3.7961335264680276,-5.471534700422348
1000,-0.651279265205772,0.9501941376264396,0.7715057665837943,-1.3493719859587139,-0.8959107816523324,-2.942558082592081
1010,-0.6321918450005518,0.971649545824188,0.7893117173182318,0.5839603444717172,0.2684609034148597,-0.4601622779642358
1020,-0.6575204812253422,0.9432672510290058,0.7627290519774056,-0.05068362992367041,-0.9052468819525309,-0.5104579258720907
1030,-0.6564189337121569,0.9449764378327553,0.7657575262172327,2.2547526109332923,1.4973833539712382,2.4102097358956462
1040,-0.6716804671298131,0.9302934781631532,0.7518594569266174,-2.076164414051327,-2.2740873208409234,-1.2874156409514246
1050,-0.6635264631451467,0.9356515945333714,0.7579403634121418,0.8529582094041663,1.8962932362685327,2.1361729834099408
1060,-0.6798714842543646,0.9237396813186886,0.74489087922236,-4.283259071033826,-1.3784982618243324,-2.2549315660739815
1070,-0.655576936846238,0.9438355312268231,0.770709527513527,-3.488896814098818,-0.40179584298521187,-1.649316838712362
1080,-0.644483444585833,0.9564067047330083,0.781011250513747,-2.742525835480739,0.36967684967847175,-1.142636227549494
1090,-0.6578996229957239,0.9414466894615242,0.7718502915734795,1.7004637998803345,2.8688297845214548,2.8043374730110457
1100,-0.6602988677921489,0.9376001161542948,0.7648320910164851,-4.239896160682697,-2.1851809992672866,-1.887541497854945
1110,-0.6436722117515331,0.9552612022327188,0.7808128257865132,-2.9932136477946556,0.06958659092406089,0.2691021809374834
1120,-0.6507040877463343,0.9477909125521186,0.7765126567120568,-4.849956128247592,-0.40740324740534345,-0.9296413042503999
1130,-0.6243201742541511,0.9705251698627744,0.8076452202834279,-6.223557550258556,-1.1690845198623183,-1.6045923389576124
1140,-0.658114457377332,0.9338076976566678,0.773269625364011,-2.3517763495075066,2.0038504352755515,2.4078434446208075
1150,-0.6637879016345646,0.9278343674140603,0.7636483079974768,-3.751433092176308,0.06640273278341269,1.0185388733386986
1160,-0.6721441954151925,0.9217414652393181,0.7568142035253134,-3.0416656257302384,1.8637888040945811,2.7728756398950356
1170,-0.6283978879978723,0.9685844053061796,0.8024706754508732,-6.83905204555551,-0.5134860865076829,0.2836360593405226
1180,-0.6466027535128201,0.9347002475355836,0.7796749229431446,-6.156167317212913,-0.420511851434126,0.8370625471731549
1190,-0.666987958363292,0.9213063175633475,0.7599809327796958,-6.621008117484925,-3.4827993965277733,-1.749691952042524
1200,-0.6338234038847731,0.9495447669115673,0.7999861319524335,-2.503327477787928,-0.8336619754187237,-0.08266903917361335
1210,-0.6581683104764137,0.924452463341328,0.7699625521153343,-0.9354200899497536,-0.04771975822743779,1.3207276357446125
1220,-0.6438099080304188,0.9422561350787356,0.7820878734701986,-1.9905305143603929,-1.2329562347785057,0.1039868215668553
1230,-0.6510983920124058,0.936785644940255,0.7821115534469434,-0.4465564630106946,0.9653665312652308,1.6716593451126038
1240,-0.6294037287621796,0.9567568760901601,0.8033151368178696,-2.9923134806507963,-1.8833721467955644,-1.211731596515132
1250,-0.6722273867189154,0.911093978589111,0.757758709257411,-1.9081487613358261,-1.5149443940423915,-0.2846138232605554
1260,-0.6434939430155338,0.9378888080217492,0.7877828456260115,-2.385185718259012,-1.6946174994779832,-0.3759228291748724
1270,-0.6304142069246019,0.9498474024785162,0.7995319205154365,-2.3643178200370945,-1.1682673366976104,-0.5706990056140626
1280,-0.6510939040579079,0.9298845329382893,0.7847730024957364,-0.1128929014465341,0.26450135908192685,0.39129895619494426
1290,-0.6593632567279049,0.9255527467059688,0.7749933573329496,1.2095233016622338,1.0733259517377558,1.4701193465893374
1300,-0.6408096952830961,0.9357797546758064,0.7978172311675092,1.5784157467262019,0.49331109082045477,1.7370911605807802
1310,-0.6196588407425981,0.9626307699115594,0.8143423816942277,1.3089397670051535,0.5560938132470356,1.9283175508771868
1320,-0.671050402878809,0.918336845662692,0.7545048460165417,0.26301612520290374,0.4478803310592787,0.5622288915571482
1330,-0.6366916078325203,0.9503078353326779,0.7955665452595607,-0.7445357753491423,0.020660559937261347,0.31435778952830223
1340,-0.6446939759608911,0.9373441294408421,0.7894384219638447,-1.3769094346253867,-1.2424840442827487,-0.45478784044449494
1350,-0.6443955809787052,0.9369919116025299,0.789193109103921,2.7559088120366733,2.2261080325944764,3.220587115024654
1360,-0.6386864357729742,0.9451721928663862,0.7924390953029588,1.6427526406646156,1.0723515438352005,1.987612024320625
1370,-0.6532152346745486,0.9354823505107901,0.7758409287370244,-1.8459305796992806,-1.906303979352673,-1.4615473437969277
1380,-0.6190986401742702,0.9753206761819889,0.8167334880693137,0.3081592060144378,1.2698024202400873,1.0273735508118116
1390,-0.6307883503138451,0.956580492873798,0.80552084652568,0.07365461642668447,1.6625882571933224,1.4938956066880458
1400,-0.6317033526102901,0.9453490682613525,0.7991680657707995,-1.4439112171809583,0.015106449209596438,1.229733486275274
1410,-0.6494719708948591,0.9324965815435315,0.7831761843240603,-1.4120252834813463,0.28039954108435383,2.457147746785478
1420,-0.6592164372867009,0.9231193269154467,0.7729207599966935,-4.2197627667058635,-3.0203919909950407,-1.3100224589027278
1430,-0.6600575057233085,0.9225878179581022,0.7735327165069608,-0.7203531265974599,0.8504825889922867,2.0147470130580056
1440,-0.6289170475853677,0.958773319517354,0.8095902926303381,-2.8417254405600105,-1.0365384715363426,-0.561955138791836
1450,-0.6424921531382951,0.9438347009916319,0.7971321631416685,0.7085558701228032,2.0273989837071698,2.1091358064934718
1460,-0.6467041636029026,0.9330171854829147,0.7876673066593848,-2.101351691300582,-1.5654364924474302,-0.8098188487184407
1470,-0.658064541384669,0.9182709333221778,0.773165722221442,-4.061423133165638,-3.419734907139677,-2.1565585041332196
1480,-0.6568603783858776,0.9229001751167164,0.7790731353889738,-3.3697837960356156,-1.8288062135970584,-1.4178865486505496
1490,-0.6451333929919841,0.9376007428430968,0.7955932452397559,-1.3597373858235817,0.28287637104175506,-0.2661324000923989
1500,-0.6548163187103386,0.9180165264398309,0.7841915079308054,0.41644379427371714,1.7191553349432531,0.8066153696264857
1510,-0.6530742639805461,0.9248556337248941,0.780053759707112,-1.0460798518485284,-0.11637427560754993,-0.5379828388397938
1520,-0.6433993567650513,0.9346617922297795,0.7909879996848301,1.0971583521589956,2.028692507008576,2.4251645495244865
1530,-0.6503169509838169,0.923240372760718,0.7831838767574572,1.3174866950533608,1.6174463060527142,1.8255922663813666
1540,-0.632548514063935,0.9485835965019587,0.8015501237256017,-3.3392632980685404,-2.44438873760396,-2.879307670609004
1550,-0.6447101924749032,0.9358375172373645,0.7924051756902845,0.31148210132461984,1.3638101635915534,0.46928981384364277
1560,-0.6426503668745778,0.938666123530878,0.7989474596359467,-0.7246332000438619,0.027021644014243618,-0.9727301257939959
1570,-0.637933688300345,0.9392960667579163,0.8035389794773654,1.4977219420024719,1.828906224804768,1.1539117064377948
1580,-0.6443855147573132,0.9250505368204525,0.7937224591214339,-0.3159823200042303,-0.7830473800215979,-0.523018786337161
1590,-0.6461771279566894,0.9275943576163201,0.7897446766753566,1.4518144841504341,0.6509241455714857,1.1591698825702155
1600,-0.6333407106993906,0.9531129284934206,0.7986136893887744,-1.5030632872633771,-0.8227409460900477,-2.470772756630907
1610,-0.6345961650724514,0.9465227265785389,0.7973251250917002,-1.8453078705800672,-1.4705882321229513,-3.8369600699392326
1620,-0.6577947856073636,0.9151576664817236,0.7834951260746954,0.14573907284778287,-0.531855225777888,-1.159223356363321
