time_ms,ax,ay,az,gx,gy,gz
0,-0.8408474211979802,0.43985089008676376,0.5122688928583795,-2.5663332972988053,-0.16987393525403316,-4.544972616486337
10,-0.8744597467604555,0.4025751512010674,0.48058535375167766,-0.9521292343863517,0.5979523854733675,-3.4407478926823387
20,-0.885877510418974,0.39311208435477096,0.4673810261710043,-2.0554455600208765,-0.8845759861840985,-2.4648858431063814
30,-0.8431633079371482,0.44067940179069653,0.5012958028900103,1.7600286081592225,-0.8500706102515877,2.9599090939685775
40,-0.8727183614406099,0.41863699295631973,0.4817948822488692,2.628900081216648,2.0047015843581764,1.7994696209665393
50,-0.8692872031782509,0.42408986355426687,0.4894078173319629,-1.7188641753048721,-0.9736449989040878,-4.814087850853147
60,-0.8719958872013487,0.4086314479504401,0.48108982788723187,-0.8756852078166328,0.7608436518836261,-4.5789009376760275
70,-0.8880371733400375,0.3877035109341441,0.469255888263007,0.8107080431538405,1.7180809836757662,-0.9462692245467512
80,-0.873892407273326,0.40589734860693427,0.4827194582324704,1.6814874781823965,1.3918960324195464,2.907083400206038
90,-0.8712842329203192,0.4221657710788111,0.48337560623827314,1.7197843630139555,1.8258300684895559,3.276085958523449
100,-0.8608902009616363,0.43166141178232914,0.49340538363890313,0.09671637089249825,1.099590285193124,-1.6574378094567166
110,-0.8782817687044869,0.40396965262031825,0.4760138762137216,-0.12472357838459097,0.980838682670983,-4.020642362263159
120,-0.8587933991213891,0.4206252251750947,0.5013734696376545,-0.2089369140875801,0.4911049975413663,-3.6830529188244046
130,-0.876494931537371,0.39764708357255807,0.4793531658208474,-1.8930655260773772,-2.6417970244889517,-3.00503558549718
140,-0.8853364750439225,0.39811795738931527,0.4653692746158433,-0.08138913730656716,-0.5527449190487839,0.37896018353132777
150,-0.8868791131625079,0.3966429774933083,0.4633848800838239,-0.6301379530965321,1.1912002959392671,-1.1951254425469207
160,-0.8839182498354722,0.4010167633324358,0.46765994617125306,0.8058624715752541,2.3582420623936025,-1.1122495770053118
170,-0.8808654092758683,0.39827985205842065,0.4683835474208728,-0.7144011396935693,-0.6729055603257186,-3.067090126971509
180,-0.8882184273455078,0.3924907092955097,0.46189278460596617,1.766185430970122,0.5418832689494689,0.9260128555564894
190,-0.8759491265827243,0.4088086454544472,0.48246393293403,2.5013108139906257,0.6643910823963232,4.050659920446768
200,-0.8898132475708803,0.39173670768918106,0.4711344007555459,-2.229607953281822,-0.7728975855518372,-1.9934044489305198
210,-0.8804993386789208,0.406510476284541,0.4767396481156899,-1.3376719865372908,0.6530429616605946,-1.893510266768977
220,-0.8597164840508137,0.4223414389372928,0.49411144562177456,-0.19647538325142355,1.3462432286350874,-0.26081638150667996
230,-0.9092911082573883,0.370885576676251,0.4406803027149471,-1.4295046666108933,-0.758245292684054,-1.159335237194994
240,-0.8872969232695695,0.39799452580672334,0.4651496685657105,-2.764153936921546,-3.5648182601538374,-1.8610663541268895
250,-0.8660292738665093,0.41464187598319074,0.4881206310597169,-0.6558976690399165,-0.9271095291246025,0.019167470558270616
260,-0.8824548433440801,0.39353728830787504,0.47877820698605633,-0.8321397704066393,0.3677271260494411,-0.6179101558554314
270,-0.8740207396316008,0.40626270239486933,0.48879262031883386,-2.6998278852010786,-2.6577766574145993,-1.717045643911927
280,-0.876214315101614,0.41034183129002527,0.4865920071795487,-1.9794483409743542,-2.0349205082579234,-0.8959090072122211
290,-0.8813209811420543,0.40515805752108985,0.4731112984135365,1.1529831354066034,0.6529835971433324,1.6966232250960078
300,-0.8587737278107365,0.4274722621074014,0.4938013458580901,0.9659358282624073,1.5251110338943814,1.1954452272114047
310,-0.8936674923130098,0.3896225542201403,0.45953046078618925,0.40346304559220536,0.7737454599389965,-0.21377669409978972
320,-0.8896906099209485,0.3924848867243107,0.46776293562724336,1.3769451935960941,0.1497867476750594,0.4716202999005501
330,-0.8829121228264375,0.4047868797783408,0.46785602345268096,-2.184561055397657,-3.9761111137252634,-3.1162524777099283
340,-0.8660566571266257,0.4185368759879594,0.48576645980831135,-0.2995987326757217,-1.2903158145580282,-1.8220722631897832
350,-0.8371484465191837,0.44436254699235345,0.5143617524204283,-2.2878569966097744,-0.8780741113477698,-2.967136843408113
360,-0.8758141422175049,0.4075051203613496,0.4785578298188215,0.12171665673285625,1.9203392088824247,-0.08206199478642628
370,-0.8662769641907728,0.4121671161157484,0.48911446094939837,0.42022261212661893,-0.25390881113730235,-0.2794178780557115
380,-0.8757851555835443,0.41311279794751254,0.48247647930150034,0.04412414356220218,-0.8775921743961628,-0.82635228721916
390,-0.857009669946484,0.42132262473305326,0.4917451971826095,3.351853529819172,1.6455863858636817,3.1612140435508533
400,-0.8858335293431144,0.4028807106592696,0.4683929387422734,0.5639475946223242,-0.6330786618329403,1.0903828035852219
410,-0.9158478284973401,0.3697933404043789,0.43630748375843653,-0.3182617411568974,0.1461028770498567,0.6078882505385524
420,-0.8599977398185249,0.41885341794598757,0.49898067193245943,3.0310867005148783,-4.674973144268046,4.186188790783473
430,-0.8683100586737201,0.4189612842493771,0.5096990300213267,31.84472158337462,-5.937441529925076,33.19448425299827
440,-0.8607418088313635,0.4583235250798715,0.536104702769295,28.127443246205882,-8.197405914708163,35.04744018799588
450,-0.9542801485384237,0.661990032078326,0.4721629881951876,15.63209828763759,-33.882272236529424,34.5624018591541
460,-1.1955239855073803,0.8273761788856993,0.4751938278800869,0.8310595709809514,-75.98995797844022,38.61743097424747
470,-1.2018508821586134,0.5996313837163485,0.6867217188546204,-19.75658668463085,-93.87597852256711,36.25029723393072
480,-0.7775247747801974,0.4518967488090445,0.5094084476405449,-33.48255676282554,-82.85692107206505,31.963765005480564
490,-0.5990980482705534,0.38849107682335604,0.4304425774762347,-32.2420822961283,-40.449894640661384,26.460048536265777
500,-0.67982095050261,0.4718034096370913,0.5315411858443332,-21.899206835947638,-20.429715294380156,24.017305046545673
510,-0.7016811495831037,0.5099266419161506,0.5351616493883877,-17.749482251679304,-5.2229723230523994,24.351744638939238
520,-0.645475761348815,0.5115120384719776,0.5346267624568287,-17.3373321722392,17.41298469300157,24.431496946413887
530,-0.6825022020787584,0.524386650569824,0.5567710084700186,-29.704892751149153,28.19322366902609,16.336519419777986
540,-0.8350573330497585,0.4590087058504608,0.4552901780478479,-35.856101502925064,51.179849253094616,-0.114375813004025
550,-0.9884516642560948,0.6509311572023934,0.12374950223186425,39.72363709166788,-25.79321765186499,-13.726559455649102
560,-0.9091312665923513,0.41705893357159146,0.46997006697373395,6.857606242513415,3.258386885674777,-11.816095015115152
570,-0.8564575298450157,0.4542004298468698,0.5317369814883268,-0.5492712226370613,-7.8145059033374995,-3.6258679270195637
580,-0.946075919881844,0.49954366860071986,0.3943117161831344,6.430665869146497,-0.39994864431240273,3.207349037190972
590,-0.9836325941008062,0.589213203478033,0.19094727501527636,18.211630605809912,38.20062807404081,5.8772240345944375
600,-0.8272614711284376,0.2809661404638986,-0.0077570249366049815,36.03566580708361,66.62663998645048,16.012699939143044
610,-0.6386832535600521,0.4943086336371511,-0.04898873001037545,60.49207467218247,79.9302994908787,36.70980429349594
620,-0.8621721741927896,0.19384933498124468,0.9637926503952462,21.04720957267007,47.404841456205446,24.7756207329504
630,-0.8069431216500087,0.18712642746634015,0.6602970333400645,26.260689659302788,35.88574710531325,26.79241017767141
640,-0.8879558526551735,0.44262734078021676,0.5597473925525637,8.553380083137318,30.788650244321875,29.495695406707732
650,-0.9105662934888386,0.41984935434184734,0.4297926942372717,5.037461576256175,13.042933600124911,22.21078223328544
660,-0.9493384039233965,0.545994697853552,0.7609980369362646,-20.0791073151091,-6.4339977387874026,1.381448797411198
670,-1.1194880396046987,0.4409811137049155,0.858479703095647,-39.34134544164359,-57.958713337583305,-7.384121571043624
680,-1.0646365544100438,0.3855571057042557,0.5653159154094273,-45.16141122051303,-94.12434972187347,-10.307827532547245
690,-0.7358267880700738,0.42333394845315303,0.37849868867296954,-35.43117630597272,-81.71691148405614,-19.261594973927107
700,-0.6238891758575954,0.4290690918789799,0.38954829988185746,-24.020609685480714,-55.124008971845875,-28.041200667040858
710,-0.6094935454461364,0.5226404795182408,0.44375413683727033,-17.38816192932258,-15.036318908081478,-29.50896530625865
720,-0.6588856820844267,0.6178595665185528,0.4022497370577162,-22.629275076120784,17.507854432386612,-29.59796780661502
730,-1.3069431323587883,0.42164960225599296,1.6161235621311474,-15.150688600108573,-63.43011606530083,-50.342821434926414
740,-0.5886303655926508,0.12783567047307975,0.9892848923382931,-18.550787390124583,-10.757063222721271,-40.79077502020809
750,-0.6373381153262684,-0.04960393831992168,0.18466776667575296,-16.585977349889223,-25.927637406950055,-19.851437984382038
760,-1.2740999529290897,0.514419035278304,-0.15569798782474792,9.899366233474677,-13.984469121636529,-19.200384423832528
770,-0.33234119463348005,0.6487422132698727,1.2147610781484102,-0.07297119229623437,32.82872938956434,-35.78232101587293
780,-0.7925225107474645,0.13675561204884648,0.523732506486625,11.226001642062846,36.71702288554104,-47.96017858816315
790,-0.9647720432699173,0.16353043278199034,-0.22753448110728072,-0.8662149848084548,21.2838236074936,-36.05010832983891
800,-0.9416381948264909,0.5174642729382916,0.18231525539825671,5.969202276591819,21.81968223132617,-13.154845438360182
810,-0.8034323589864545,0.5672729526900109,0.09220370052184744,14.192601522012765,35.889783752021565,-21.79883846154731
820,-0.9293144812505701,0.4300355332250412,-0.45690931887206865,23.079477325007485,37.46388608461778,13.567441458598411
830,-0.8633917604854928,0.32370703719175137,0.5023751449675447,-10.845999742368985,2.171010660446977,51.68009312113382
840,-0.8218235771512513,0.40926375662367825,0.536929967115565,-6.938824529963072,-7.666637012299198,39.91339346416466
850,-0.7958726833889289,0.007556304217104206,0.5451131630952081,-34.78916564778243,-5.614368357950388,10.907287551289029
860,-0.8430701519460798,0.07390099077447705,0.4353140462180579,-22.625461637527646,1.5776749286261156,7.0477355297463475
870,-0.8796202025880532,0.34827054436276306,0.49390232875560086,7.8645686614606465,0.7344497829697828,10.912505788093185
880,-0.8456351827443227,0.05071347830284748,0.3981433081975649,-18.65684332217493,-5.9474249778758175,-25.089554249052416
890,-0.9198246065661789,0.21270767996062814,0.6741724496380899,6.28509584059178,10.459811196168003,-44.26123998308512
900,-0.49165210523052705,-0.19541067695719544,0.22148903537669504,8.762733335476874,36.627839503429215,-56.36968463267412
910,-0.7869394231968717,0.3044785560416368,0.4243291343453825,30.711802365856297,21.2681086509626,-23.26732775855057
920,-0.8113866250471834,0.4239801047169319,0.2213498116459633,-1.2806271921973154,27.947392080999126,-15.40649717030599
930,-0.9288452823306219,0.295983562375125,0.16254607817895478,1.112449946863939,17.557842999150257,-11.81864808581989
940,-0.8965493319570653,0.5916791098683157,0.18095260037501476,20.79447693273067,29.47455976116425,-4.488439262492705
950,-0.8650187173742127,0.5800319489501015,0.5199173541512904,-25.230420528658236,23.87222860034827,2.2553807638611856
960,-1.0793849601759458,0.9034081645268369,-0.15337820519527978,3.6975596556469283,17.769476039895252,21.842442572102435
970,-0.9839499817941023,0.5750622771369109,0.6848446374513466,-66.06546303281687,13.114297210600606,22.708676913957028
980,-0.8358903603112374,0.7372197920860433,1.360287046955454,-68.86052154471561,13.918675380379993,33.95761428177884
990,-0.7483508628337465,0.6888564313831198,0.4855732068153735,-16.65234031628215,-1.0773975401692493,38.77113274373211
1000,-0.8252134117538188,0.07070578961381754,0.35572326306282986,-56.98166082283234,-0.49152382038861786,-6.670030862268849
1010,-0.9378351028405197,0.44515139248784935,0.4123272853792585,3.729678988308132,0.8406864603565939,-4.972198434648915
1020,-0.8850189099206663,0.3740196887869298,0.47164683213604686,10.695087550206635,-0.8476466246677297,-1.5524321736261342
1030,-0.8824947962068261,0.4347895415938218,0.4723616825647393,-1.1520079750792147,-0.05756980392706951,4.130523807162526
1040,-0.9021866637764009,0.43063367915043665,0.45563311338237183,3.6109479889747433,0.6082515508461739,6.389806547676586
1050,-0.8877750332828436,0.4520470149055208,0.4721221728606236,3.8178498124036806,2.2128918519922336,0.295508188815337
1060,-0.9184080434284981,0.4159553302114527,0.43646932603542926,0.8108659730251901,-0.10097252545050717,-4.81770730068239
1070,-0.8648590814178672,0.4710585455443931,0.4915531696548397,-0.1854563148542202,-1.1261396662597676,-3.625439438082765
1080,-0.8858363700458113,0.44698696390720105,0.4724211955843439,0.045027525965804394,0.31689194181126945,-1.7227743960106923
1090,-0.8951753884876942,0.4382207157238678,0.46294206996849546,2.8679682348808244,3.7182299017610516,2.1922255581149273
1100,-0.892400094605224,0.4493738006658122,0.46899471303984963,2.4817227123854835,3.395131371879746,1.2479596210013273
1110,-0.9017462073188675,0.4371553357180697,0.45631939762541146,1.2937355679184233,0.616546150028638,-3.7743624987849915
1120,-0.9048652575049689,0.43926176994699584,0.44372150734757243,0.3464433096478098,2.102762623010313,-2.5899300415604727
1130,-0.8855657758654967,0.45217585923553116,0.46773841281153505,-1.5189342642689654,0.6579326685217998,-3.0985483884260265
1140,-0.8985958367020079,0.428571098491068,0.4599953558735883,0.5405277928184311,0.14768368484207106,-0.7337387167875005
1150,-0.8838894231549332,0.44977387803200375,0.46801006928741673,2.606072527522082,1.4914610663117678,1.6892158351855495
1160,-0.8513822503643594,0.4756112864516523,0.501049916226971,2.359628088551597,3.4132341908244763,1.7726049952855976
1170,-0.8845791635849027,0.44777173739777104,0.46299441254746043,0.5314457410870251,2.11545230645146,-2.960188319394012
1180,-0.8783238454782513,0.45324501156000135,0.4743840356876676,-0.8875757870489388,0.6795693282625286,-3.7906373487182075
1190,-0.8432207867409737,0.48842149986498884,0.510088347844516,0.002294857413409457,1.226919810239092,-2.2961027231201427
1200,-0.8726394271001527,0.46390683623133183,0.482683722559402,0.9531811116444007,1.387299007201367,-0.8160839156445889
1210,-0.8745402353931769,0.45831900823431865,0.47930387268195707,-2.1601649929754254,-2.6305224092690693,-4.596807373425608
1220,-0.899406930307492,0.43237092880251127,0.45546694296632845,2.01897397280949,0.8317316153947029,-1.0774690685128294
1230,-0.9125083483516402,0.42245091328837686,0.44350036377086943,1.1990022471956499,-0.24309452914673185,-1.761655658240117
1240,-0.8862639109664119,0.44186779698597173,0.461568499581426,2.10573135241016,0.49679763113152875,-0.5925929883554362
1250,-0.8849422479674139,0.44292362699124876,0.4643627852342408,1.8748990509389993,0.1053558851879185,-0.4081294416751685
1260,-0.8663163245068446,0.4648760546152879,0.48598074856790824,0.20026221141232892,-1.4423140253018667,-1.8545519261625292
1270,-0.8389869503923589,0.4943562071954664,0.5128109443494018,3.1273454208943767,3.065071250642578,1.3351801912293093
1280,-0.8988184567393824,0.43523638144157956,0.46082989136273333,0.5815803689618242,2.7453424164668876,0.6432659701448347
1290,-0.8807321422471667,0.4497363995231377,0.4688170497537785,-3.2718040166018327,1.3606063792777527,-2.307014743525099
1300,-0.879534134228179,0.44648029573906817,0.47572322343852214,-3.5466586267297435,1.2182053249084652,-2.442397045767956
1310,-0.8645125699323368,0.45798176831515175,0.4823578965593649,-3.6079248124720458,-0.05685153208831051,-2.4618038038352754
1320,-0.8983377494955054,0.42100993745001736,0.44770070432586845,-2.2064518024353896,-0.23644079115429184,-0.9014525656725785
1330,-0.9001750397682843,0.4297040636516983,0.4462823950969653,1.4333143803765422,2.30245406253069,1.632880336206573
1340,-0.8933646867420318,0.4327789728054791,0.4517494377863993,-2.9844625880729345,-0.8567509117099014,-5.33865797562029
1350,-0.8750217333525285,0.44854541733013703,0.47270110461588827,-3.5157483067639346,-1.1866970097302818,-5.478083057936477
1360,-0.8612570414715182,0.4556777693637489,0.4871330696927315,-4.554527390665618,-2.0757801882636087,-4.6313650018593435
1370,-0.866706996629934,0.44429846912493276,0.48131019125080676,-1.7738821242808338,0.2437667467053516,-0.41514460578762485
1380,-0.8830629196185965,0.43646251384638457,0.4627246336162809,0.020221001859012988,1.199801180153954,1.6077748490901536
1390,-0.8934826842115635,0.4286860667039112,0.45086247528299633,-2.4858376610157937,-0.26055849063109343,-1.3044134063749042
1400,-0.8847813334800897,0.43122064234952096,0.45826133876819825,-0.818782959359612,-0.6998602576118051,-1.3928908931811725
1410,-0.8701559695807684,0.4460140294398412,0.47172079748481505,0.22787530866988326,-0.42277658641833066,-0.8666740212308816
1420,-0.9088548370084389,0.4068023228237378,0.4388016138272967,-0.5750934288486359,-0.917434058382178,-1.2386502656387164
1430,-0.8753936652644935,0.4437876841481624,0.477313101059869,1.632248527123697,0.13171415258442923,0.9063258170792403
1440,-0.8970563305566229,0.4267564302367244,0.45385532127837963,1.9213815350640897,-0.05197365912691326,0.6483352179627931
1450,-0.8972917732897663,0.42179789569892007,0.4526273184004497,2.523278937797026,1.242963753767525,0.8164896275790107
1460,-0.8899007705356432,0.42838376226201086,0.4613204743504245,2.913431219474383,1.9693854726560542,1.502969015741467
1470,-0.8840705690411969,0.4397858913488989,0.4625024894638771,0.5005132291965566,0.9136653882168115,-0.43353184098590725
1480,-0.8811287787765396,0.4420365810345962,0.4610523240443277,-3.041555517464362,-1.764800448817149,-3.7379876145951814
1490,-0.8906006790341063,0.4258037547289461,0.4551195861553971,-3.234954198307742,-0.5579068294937696,-3.847693318407055
1500,-0.8896976690760002,0.42196114538355556,0.45949416394893106,-1.7543362533287505,0.23956396431559474,-2.109640282907586
1510,-0.8681933587227699,0.4484827553327436,0.47183354567741226,0.07831209393770733,-1.351512122108026,1.1372459185801556
