time_ms,ax,ay,az,gx,gy,gz
0,-0.9314098586429106,0.3665698641523702,0.27737497356323837,0.8063081613613838,0.6314374234189705,-0.6123360720347157
10,-0.9426013334130304,0.3600089766967117,0.27056983601423773,2.9335983085749526,2.319219632768747,2.0998968698652676
20,-0.9235410539224908,0.3806136096975146,0.2867584143967998,0.5318090703303272,0.20667034017484107,0.6118887478133271
30,-0.9234773217066157,0.3812707201507142,0.289462761354357,-0.3137108662654353,-0.591502530359316,-0.2504961088543099
40,-0.9126572653337472,0.39121501255240754,0.2994396718391009,4.132054125086655,3.9815711336379707,4.217272777460328
50,-0.9454317729201548,0.3543687709378397,0.26788460438745404,1.45798613251541,1.4694447722801462,1.591074888922208
60,-0.9116514001371815,0.3938503218056332,0.3075540703770134,-1.5688864561905913,-1.757777366252642,-1.1187813391560337
70,-0.9245653401171461,0.38239658611093164,0.28742336030444837,0.4215623976801067,0.006454334143522145,0.5841516583944897
80,-0.9218292149516064,0.38806155679396226,0.28746514528029843,-1.8591224451692863,-1.4932092521164053,-2.203623426462742
90,-0.9073054325186825,0.3999896901656404,0.30886743251555476,-2.7913959150631324,-1.3601609421838585,-3.1681658231750722
100,-0.92624715049385,0.37298930429170324,0.2912762742237354,1.7159234158698349,2.916139141014566,2.4543027517520843
110,-0.9062526567931104,0.39409620468288065,0.30787142271813045,1.650171728503829,1.866212205775197,3.6558245602714026
120,-0.9190434159988848,0.38827134993361506,0.29656286893507966,2.6410590712482827,2.26321687645809,4.21565400932544
130,-0.9396464961793235,0.3710004916480955,0.2779821631829265,2.1482474346691998,1.0015120958378552,2.3706568203429956
140,-0.915752726225744,0.38952747378455155,0.2959402525000502,2.688295313164433,1.8390653265601962,0.9871374562416928
150,-0.9524987133343854,0.3586701970652445,0.2630847456104432,-0.4614769734500581,0.8989639671493191,-3.1983821520058893
160,-0.9576263421165908,0.3451616063704827,0.25986556132295896,-2.3352438966429685,-1.5595925587053074,-4.4215979404806
170,-0.9461910739043894,0.3530112291125524,0.26482789252515226,-0.6385079193579097,-1.5036188338516139,0.8720841605961878
180,-0.9366963295889433,0.37180902880287264,0.27569268073876696,1.549316086426734,0.5479055562410501,1.5561674838342525
190,-0.9602549241881545,0.35091624908709657,0.259080636926776,0.3982554664173087,0.8287946462526927,-0.7444437078875966
200,-0.9229813985067551,0.38349825388416064,0.29059470387406555,-0.22081725749709358,1.4022574249529502,-2.2144568207462907
210,-0.9292029917882183,0.3747509732647525,0.2862390488929265,1.02917541731432,3.1184410588308733,-0.8600993792909941
220,-0.9260072474967115,0.3698134566806817,0.2831152056935546,-0.12347435292886785,0.8451886879641385,-1.3865106611982236
230,-0.9101268325064195,0.38286164725146093,0.2981165293009041,-0.5813000381521484,-1.016544282256779,-0.4287942309981525
240,-0.9373534284020044,0.362395001220529,0.27363089250587613,1.5171662550312117,1.7340230157614753,1.748825444210186
250,-0.9178280161826322,0.38584725752524895,0.29567475273957045,0.7518886247034251,2.541010646185657,0.3306305474770036
260,-0.9221641224231574,0.37978117920143395,0.2914474442356672,1.2772484815652652,4.052044348242898,0.7240688408633156
270,-0.9213813358356793,0.3798164217764047,0.290640980686356,-1.9808129358473934,1.068310411574653,-2.1304986086158366
280,-0.9095749333007512,0.39150137363015436,0.302143393485414,0.12425270999437632,2.8746712718022014,1.0915530866385503
290,-0.9433495430544198,0.3588576254579706,0.2683187499051745,-1.833489517011271,-0.8977057713488039,-0.3585236249089183
300,-0.9286823210550651,0.3803639856634137,0.2794123762958225,0.8501783412618973,-0.39111719605521034,0.16713096307896008
310,-0.9221876164386075,0.388203014854745,0.2824530629721061,-3.376347081904089,-2.4133834290037313,-5.965683573139071
320,-0.9197623241746243,0.38439903404109577,0.2912487385016834,-3.4362185080959784,-0.9545773828176503,-6.627728533546471
330,-0.919552840654674,0.3781674376378175,0.2947953195211559,-2.135515187491251,-0.04736120584633596,-5.046524455298665
340,-0.9138688288367256,0.3766031438744547,0.29016291292894014,-2.502089133213487,-1.3183206611255833,-3.047097964760836
350,-0.9197639357104999,0.37104753257952516,0.285579184985242,1.6139391914831642,0.9977988165851761,2.7267354063543516
360,-0.9324955865258829,0.36217631551502333,0.27891783827181654,-0.8906759834167394,-1.4980872472767701,0.6327625872567914
370,-0.9496414530430065,0.34799361758456626,0.25791286984449985,-3.0422047219495303,-3.2867952359513573,-1.7852550246682881
380,-0.9211476416391066,0.3748776473737139,0.28782945502119706,-3.134613291805186,-3.5699848165905195,-2.3547594062661235
390,-0.9065628666085416,0.3914693481464525,0.3077101621121399,1.6544769456173032,0.4880188590314676,2.57424761822135
400,-0.9302477354984681,0.36642760622538234,0.28027137577565236,-0.4820124705796609,-2.8319542732686234,0.9649334166703012
410,-0.9384326802513446,0.362794681103088,0.2790035046999644,5.399457527243018,1.743736821053187,8.042967675246814
420,-0.913276544457447,0.39164209828708935,0.3088241997155531,5.079153614332803,-5.88207617690164,14.027030755600652
430,-0.9212964518608763,0.37602378106573014,0.29951412387211696,13.004075637140176,-3.5685613721258798,29.923053101874903
440,-0.9396759626916592,0.34151575911170434,0.27334155731174525,16.148226580581923,-4.215586074785781,40.520831397738554
450,-0.9402443612231597,0.341267259957323,0.28009754617177945,15.788900326964205,-9.387190405711106,49.180565748807176
460,-0.9315011166131671,0.15031758734395734,0.60767765387201,16.41623804988581,-24.750223861574586,49.56860063654671
470,-1.0098327866416867,-0.13064439238456532,0.9434257319280204,9.941966625981264,-64.92288870448509,21.84067778583511
480,-1.0795203363859878,0.1641973629104056,0.3432862779129215,26.95571170617626,-73.14273855922076,4.346211096635529
490,-0.6052559364855856,0.21195393643763694,0.2454418503933529,52.41147817392354,-77.21150468609237,-17.06086401626646
500,-0.6299403359397229,0.38750159573988974,0.26749586650999385,58.53243013894591,-60.81019616882805,-20.294061437508145
510,-0.7365307372855884,0.5430329523888474,0.31902741573039284,46.554547974649616,-45.77042307538209,-26.526118199101873
520,-0.8795497361474056,0.5446899866714185,0.3834553529903548,44.74225465506733,-29.146535678045723,-25.046880610657126
530,-0.9565453280658544,0.6613636007028022,0.531472679734812,34.065814513008675,-25.971195269736707,-24.69291042346474
540,-0.9627405415927396,0.6181705808470142,0.6075827182520142,21.025294874580755,-30.0648245607274,-22.57758060223232
550,-0.8147490151333355,0.5249758942674082,0.4969973478499973,5.056825324641975,-16.86957406249329,-22.88972071978716
560,-0.8252236662591828,0.41497021854481914,0.46673895603321497,2.068140845886617,-3.1882687614932372,-23.234563227160272
570,-0.8695150374216404,0.4169841434401946,0.5026616398633958,-1.6269511243108585,2.266743173582478,-25.403174624863645
580,-0.986497327688403,0.4423678654134755,0.48936626051312637,-0.396452120180941,6.767737508181094,-19.26897909624939
590,-1.0158205619144287,0.503315075717308,0.5243515898902295,-3.155035004604252,6.204495013534573,-12.08867480017246
600,-0.967649679192074,0.535021970289527,0.5339761984512329,-13.487010716076828,-2.2814704461939947,-11.499807111284753
610,-0.9621251370641091,0.36951049224329413,0.5107391921566286,-12.85639979452397,-0.48502987588635355,-13.95055490039844
620,-0.9734218081184964,0.22864672508183248,0.47242720761827517,-6.777227698099102,2.8525180241434356e-05,-21.33085495205742
630,-0.8748091189002383,0.38588066575678004,0.4377753484185449,6.150710143886679,3.205169132964646,-12.803338184153583
640,-0.799092766650608,0.49250078136804165,0.34909751175040016,4.163894652917659,4.193814925719056,-6.784611170274424
650,-0.7261737310626384,0.5414968985075685,0.34991355868198204,-2.5907046342858444,13.986062107877785,-1.987524357910862
660,-0.7942027894294382,0.5282213700330965,0.38684521355453827,-10.881988911551804,22.14101351089395,-2.830227320145884
670,-0.8244422982704165,0.5058153758126498,0.4594780518832167,-9.676947411777922,23.37465786457104,-0.6640261149846066
680,-0.9036068375918248,0.35983455809641907,0.3766136476729722,2.3595074278265376,2.4790767708441814,-9.03030980836746
690,-0.8679551720832056,0.4139726144532443,0.39692549958050616,-11.217097619755243,-0.38311951209971923,-12.108498957497964
700,-1.028476635996027,0.5653124734715267,0.14114331978399533,-12.961246994743583,-2.491506780596194,-1.4878528652380751
710,-0.9267000992399853,0.3136452949100096,0.13200631305868882,-16.771312042035063,18.002061869518528,16.150432559200517
720,-0.9189184153250722,0.41028152472734286,0.021575519487642567,10.830630775927808,35.40547136489699,32.54625060258169
730,-1.0449309780792502,0.32124516522716484,0.6121212648939622,17.919878712949885,50.407141337083345,34.52153408839777
740,-0.9149362479892064,0.15571797704025167,0.4259994045943182,8.004458087886356,38.65723290643044,17.245990225509107
750,-0.7741073763586724,0.4180673515497066,-0.1347053679064353,26.007667230341568,36.621000215553806,23.284813222247777
760,-0.853093827699824,0.4652065923735325,0.4726205746855741,2.3402335279591258,21.846920238558287,8.870244056435222
770,-0.9080344853208699,0.29797973379043374,0.6816079482402263,-9.638677505978302,6.809653606415048,8.589942288965855
780,-0.8726994850672025,0.2910510326161084,0.45591747100975144,4.198668820354302,-3.4487290126530743,18.476455717383466
790,-0.9084087227658774,0.3313809734702978,0.41833755242392306,12.824384820778967,-7.702702516696214,23.533173148909853
800,-0.9712031696474558,0.4449223858479965,0.32420557413575163,12.445786256569424,-30.216908806768295,16.57192187399867
810,-0.994823565512149,0.47102857928319064,0.42335376165527594,15.924653428047055,-60.86312573030149,-3.0705618293937036
820,-0.8224358397111795,0.27153465217299516,0.8878988615055177,2.787926718638661,-61.13982697792177,-26.801082473329945
830,-0.965418218433133,0.17913985706984992,0.4526523849957613,-23.222158777414514,-59.43594131093914,-49.938678062914626
840,-1.0768811813045693,0.15599826591130067,0.11869271056604881,-6.095018356128286,-43.004244567804946,-58.79808597681798
850,-1.0851906730876577,0.32172082659470436,0.14934314628709197,-0.7518304523550534,-33.52029050839604,-44.414972371513976
860,-0.8819584244498738,0.5092785334863599,-0.005780281687589239,5.511444694101946,-26.005464535540618,-29.107534032667274
870,-0.9576888811211818,0.1800208826392463,-0.23448671802395177,44.43650151580478,11.860389246562235,-26.464975664509133
880,-0.5051766469653897,-0.1872003474243892,-0.3420329253063789,28.404640202933308,10.742597608359354,-10.23010420504616
890,-0.2371935600205202,-0.006925256037031956,-0.19929395117890122,-9.150023709216677,11.620607281798984,-15.413007623145136
900,-0.8679666881340926,0.5442450989762432,0.16770342568636146,-4.2686775410034645,7.464958622777063,-4.137514598857542
910,-0.9403628064032504,0.6440641870356217,-0.10690453672762107,0.05674035054009452,22.72970237925612,-9.573052770174925
920,-1.025635330237754,0.5920603098964249,-0.07867341145948094,-13.959334204938145,22.004319580240757,-16.467926288498067
930,-0.9232256237740392,0.20635863520959044,0.4829719870309049,-25.52679932875187,31.870913036937456,-12.256831991472346
940,-0.8032907620194508,0.03448781555832551,0.392874845512307,-15.405164646370471,32.14677037220533,1.8715696050149138
950,-0.7994391941360214,0.15776622184755,0.2402524082142766,-10.853279351358617,20.42583542081743,10.086998577316196
960,-0.7308509295912247,-0.012823780076193027,0.5042041323166698,-6.4325495978704925,12.731144314863824,5.955526417695445
970,-0.7577881277376615,-0.2809013638212657,0.4825740128201275,-10.504177637020717,4.623842782193439,-0.8151101110447085
980,-0.807740242796633,-0.06532158366346533,0.3451785789796846,-23.975274331023353,-0.7702285108764866,7.733043655252657
990,-0.8682626183588223,0.04806306466795234,0.34609852428433846,-14.707089102920747,-6.65074948233101,13.767605102654516
1000,-0.8702235188097354,0.33033341849625364,0.4283872242027382,0.7281893122541505,-7.137261551175046,7.896499128730528
1010,-0.9036338532270497,0.26568091344931716,0.4001845723050777,-2.0781400701421058,-4.57516502820504,1.45591528469137
1020,-0.8933486710298666,0.3740038425948643,0.44936333364811987,-3.906456616092905,-3.2568625836116185,-3.2141974822242574
1030,-0.8741793887391185,0.25491034229582793,0.33680524959991787,0.3238367699868612,5.2746152574300025,-11.63550388273627
1040,-0.9232029654247098,0.4453425244191524,0.4279401340863305,-3.2304117184803056,10.659424729446261,-1.4136813077770278
1050,-0.9176967585144261,0.360323822953254,0.12815131801121163,-1.1840783478952135,24.969098286563266,-16.246881163940962
1060,-0.9494773157682271,0.3621072620698702,0.2516239380151313,-3.1331176176243067,29.572942775545577,-11.970706099656228
1070,-0.9373204484410328,0.34964565137392156,0.330138435446274,-6.422092885382011,27.84943745977907,-8.76633716708977
1080,-0.8877711666124967,0.43024146494887194,0.49254955163544756,9.209543713963527,22.306127792809633,-3.274257498572333
1090,-0.9708056741720754,0.15490524523027496,0.42940789968024007,12.402157528800679,12.971898151212045,-6.421025458019952
1100,-1.0422769579435445,0.3713601546663373,0.42133571319819674,12.056126580240612,12.431497437445966,0.748000239998627
1110,-0.887712403390703,0.10212614017370027,0.4977932227581001,4.8191444225490825,5.756851923757201,-4.002742261983867
1120,-0.8742068461892251,0.06360596136668155,0.6086408031625468,18.68843644475263,-9.48749303144309,7.996446137041772
1130,-0.9193754348431273,0.17488767035348074,0.3633181082464487,8.403011866458447,-22.542294498875656,20.780918965958357
1140,-0.9379428713457607,0.09751506175423964,-0.0040236352941274475,-14.408198766612262,-29.410562034153433,19.461970806114863
1150,-0.9327575875345256,0.11188406040797087,-0.05775759987963949,-18.03501961550282,-30.289235605265446,16.693184187787566
1160,-0.9207092703897577,0.02049313211566169,0.010844105457183591,-25.367722507949377,-19.721979402954137,9.448629713117612
1170,-0.9180515667944823,0.2884495154293387,0.45413790713114544,-5.611739854874603,-10.603488245891679,5.424456566559622
1180,-0.8818952364923426,0.17434859125915209,0.3041863832149712,-2.3096193099901696,-5.734532898270969,6.624625067041022
1190,-0.9125969274601942,0.3577687217960418,0.39472578061977565,-0.9392722430894613,-2.109715350525325,2.036013101500269
1200,-0.9187607751555509,0.3394666119335878,0.39106233966627196,-3.573082522411268,-1.5939445960296506,-3.376664330725295
1210,-0.9125311312320334,0.33047899013314824,0.39421273481850183,-3.4457080220892693,0.2060218672487392,-5.174754965500411
1220,-0.9045581862251046,0.3334340466885549,0.3973166034491553,-2.196879815255718,0.711420184221969,-5.785854623814929
1230,-0.925726145334834,0.2984864098230186,0.37686076962092135,-1.7604798883998254,1.0735249944757697,-5.675118802733969
1240,-0.8899131475866567,0.3345926575639163,0.4127706676981168,-0.08374926955304596,-0.19117199563243203,-3.628459687339518
1250,-0.9146725846538789,0.3258014936533338,0.3878670460179782,0.5759021053597886,1.3806764205652404,0.25440806375661107
1260,-0.9241906419754308,0.31646933649897946,0.3778752575158667,-1.9828441008359756,1.7224686105751925,-0.8467438406913286
1270,-0.8886295711997582,0.3469487961517902,0.4099378144303176,-5.717882949216998,-1.155926143390709,-4.653035553508085
1280,-0.9076368933513517,0.32035046248663723,0.38886449465371736,-2.9662096517440992,1.4691261476120006,-1.920539510969693
1290,-0.8991316365317362,0.32397286510319345,0.3958043827861162,-1.6906406155445155,1.0080613648072652,-1.050108266559124
1300,-0.9044242185643175,0.32020275873117604,0.3910386256221905,0.8541077735061884,1.482337279926878,0.986420177200303
1310,-0.9043622108627501,0.32102147080103466,0.39484228481555905,-1.5087090981497162,-0.2255762154878279,-2.2896392698204426
1320,-0.9121732446626766,0.3089324499416372,0.3903459407808387,-2.1183502171082873,0.4555069380826658,-3.834645225228687
1330,-0.9126083779068305,0.30503431774902295,0.38962823966777727,-1.1115270921122475,0.2250577060903218,-2.5701661341913855
1340,-0.9396837084376273,0.2781017028285602,0.3608940903043984,-1.062536132992263,-0.8560697951002274,-1.8636477403887448
1350,-0.8991140812238633,0.3219867093721944,0.40249804305112996,1.9816190227290238,1.930293758192192,2.329720326745419
1360,-0.9087855445836459,0.3201951735615719,0.3898303197343613,-0.06522897972370366,0.2752637377999623,1.2210128536018967
1370,-0.8932451179806534,0.3335433011890342,0.40817756783782916,-1.064400288098689,-0.3104366769474224,-0.552386949976578
1380,-0.9021369127582834,0.3156982291192205,0.39761381223494785,3.3394236167402713,1.7138539431925701,2.2174730902853645
1390,-0.9163772728795546,0.2966583994857999,0.3786559211062037,2.4888498661696934,1.2017436777996588,2.7032701503824454
1400,-0.9011685706145304,0.31906760834581294,0.40241823951637634,0.029249208469528623,0.2866728176253505,2.1760571167100546
1410,-0.898197709802491,0.322874211205444,0.3980410629843437,1.8352924700784754,1.2872771157364438,4.326779301912138
1420,-0.9270076419558753,0.297903950391052,0.3708892504426688,-1.0130960653725225,-2.0158262557817883,1.7892156241830086
1430,-0.9377420679778066,0.29865056451638344,0.36508862844131,0.7887851378884013,-1.0640607175064487,2.0040980978943512
1440,-0.8927623372201348,0.3381696891477185,0.4094048745093704,-2.573413505729806,-1.9649626639780597,-2.4899314523181326
1450,-0.9053527783343873,0.3179241920385589,0.39002771211131376,-3.87637022316693,-3.1158542025427054,-4.277363326526979
1460,-0.904158023957774,0.3223239592065325,0.3862571063947392,-1.0774292264295506,-1.3617400175197725,-1.7947981778209394
1470,-0.8983114472519449,0.3362153812499299,0.39876821138307394,-0.28868031476309874,-0.3722364613826581,-2.2348282551590493
1480,-0.9114285554809058,0.3232936621277318,0.3940612263333143,-3.603229707888655,-0.8952185401560935,-7.1032623451265655
1490,-0.9234310029850769,0.30451138058419497,0.3835379426170088,-7.758663850967865,-2.1509788095172873,-12.117887017188234
1500,-0.9282831836856307,0.29030569407885376,0.3755472564188016,-2.2105908372762766,1.2022557441828756,-4.783150017885016
1510,-0.8863628373456335,0.32430859539144424,0.4115539404812686,-0.6157402038010181,-1.83399816479609,1.049914024016547
1520,-0.9107553903172301,0.3068623398242276,0.38937304937800116,0.9298224171526673,0.2797103049818592,2.791726540997126
1530,-0.9029441227987864,0.3152261589681865,0.4005684754687478,-1.8624098161656684,-1.2455111270437356,-1.5806182041435601
1540,-0.8948068963667939,0.3226897723255054,0.4041796511509371,-1.1738959541118856,-0.15246968397094574,-2.5138116672606174
1550,-0.9194684951262829,0.30476136242359014,0.3805545844697409,0.5668447511181326,1.3518536306615945,-1.2350125160328027
1560,-0.8975551965923604,0.3103304313388595,0.3964414087416303,0.8793989234892171,1.6617731486668201,-0.11151476350020562
1570,-0.8813536821802871,0.32546163788671173,0.41365486485944897,-2.898082501416892,-2.3409848707755687,0.9110870549200047
1580,-0.9005796246478112,0.31395791526239253,0.3967580050911254,0.19867079711139463,0.04845175694730586,3.599030396115031
1590,-0.9110166732951697,0.3058979815055103,0.38717544348781596,-1.1121293704470652,-0.2751386684011314,1.6680179390740366
1600,-0.8899886551425622,0.3303122258067153,0.4078475195992447,2.420839213787501,3.0638814770900726,3.9409060434143255
1610,-0.9088172335046101,0.3100242812990949,0.38027791115676873,0.22288929321065154,0.5511415629206444,0.26498310385808677
1620,-0.9079347543203118,0.3142611301488629,0.3846340158184826,-0.7125665368218601,0.3421046318724331,-1.9015209979184549
1630,-0.8843298590754816,0.3294638387824375,0.40942604809039745,-4.833126713004332,-2.282638010257357,-5.729136673461548
1640,-0.9105245272297867,0.2950719687547838,0.3806211947973224,1.0024473217543173,2.79692771202502,-0.017862510187936387
1650,-0.8849678430872402,0.319945224067235,0.4083195247434332,0.8708129267968209,1.2589861533161537,-0.46696377182873805
1660,-0.9101021255423687,0.29442770932317636,0.3835723718549426,-0.1996282479781326,-0.029225635263732955,-0.9337847681719873
1670,-0.8953002384411376,0.30918042904103266,0.3952247870035479,-0.6168446222277884,-0.4814754105863892,-0.4902772423504172
1680,-0.9255072016502761,0.2802723330141962,0.36747046976923947,-1.4266185129538718,-1.410321049375462,-0.4875565569272322
1690,-0.901403497914263,0.3069894279997253,0.39371239871268543,4.604695072587184,3.9512542989860213,5.9900598257864
1700,-0.9134736834522172,0.30273973392683584,0.379546587896595,0.4465771095877419,-0.2953941262041476,1.4990855801516212
1710,-0.889700975358751,0.32921050548821973,0.4060984838243785,-0.9169265872945631,0.1448171352637037,0.04847730899630959
1720,-0.908440759021962,0.3039412346265214,0.3885551632903258,-2.3299605443084013,-0.730433624888786,-1.3811795110286327
1730,-0.9256949216330506,0.2804684964191546,0.36220871575244523,2.639676427157899,2.7290094624455525,3.942060422346258
1740,-0.904411029884738,0.30670676964750965,0.3867472142093523,-0.8796588049365401,-0.3899115678902263,0.2692299785948504
1750,-0.891214308344915,0.3178014787287882,0.3952997602139385,-0.16880139354158707,-1.189634517266202,-0.029464200928529305
1760,-0.8911929092252585,0.32551317687583714,0.40010157690833664,-2.2984644862918913,-0.0568973647869353,-5.626896684373915
1770,-0.908016837436535,0.2993979253347578,0.37803087158513066,-2.8766800840186235,-0.4507746538639592,-5.914534335188373
1780,-0.8916990196699236,0.3106742873643667,0.39610079524035324,0.11445299320244695,1.7643034792246088,-1.1286243320588452
1790,-0.9098570139942259,0.2907726005607363,0.3765786954249283,-0.686487396177557,0.17052762681859945,0.2114726200977899
1800,-0.8983374988901921,0.3037404314717026,0.39349174119249325,0.20308259715402038,0.018155498377640078,2.258883618975265
1810,-0.8867905519233148,0.32108215314064587,0.4114388806288203,0.018090917084742086,-0.3765031030449528,1.7489833050185526
1820,-0.9189382577739539,0.29121450292308654,0.378188617684002,2.1188148007285657,2.4404394591037613,2.578717303797538
1830,-0.9037065773514897,0.30674262339856095,0.3881259633184887,0.3972577149392032,0.6584611227694062,0.5915050407716697
1840,-0.9154108208017157,0.29711216556578796,0.3719102090795054,1.489391808118921,1.4922431948992858,2.6201967234404657
1850,-0.899670950194381,0.3127339386209399,0.38666556571606425,-0.8549682188136757,-0.11102133856389207,0.635709998524219
1860,-0.8965295594172435,0.31373656314261944,0.39448397908020055,1.2988055525692292,2.371584002431846,2.9071715417149386
1870,-0.8848102338251268,0.3214882614213961,0.4095112836682158,-1.3881490961740428,0.38098780869480814,0.6647559701170668
1880,-0.8958986511003346,0.3167730061761109,0.3920877199339794,-3.322060334204866,0.27542582734304444,-0.8394212994511414
1890,-0.8801700495851995,0.3386706955187471,0.41026962971811565,-14.723277399300565,-0.1521719552830747,-9.749126073839996
1900,-0.8824478928804728,0.33771247781293773,0.4032798439752949,-10.987316594281294,3.35815838695175,-8.905483419123817
1910,-0.9153235107143437,0.283945795220255,0.3635259036018326,-11.302930295044154,3.1371179028406933,-11.353311152939723
1920,-0.9015769345987669,0.2821853565242088,0.37996711199928407,-8.449369543863048,4.269514982220599,-9.520921376641915
1930,-0.8864862695510879,0.28723612740580673,0.3912624034207372,-5.565667840453298,2.107083836003852,-6.645333884079142
1940,-0.9052684235834902,0.2724541334803807,0.36957989750057096,1.7775226106549913,2.1909865217427815,0.3024513440118204
1950,-0.8596455568014941,0.3387456648214623,0.4179406258868058,-0.06891822037635398,1.1500734113357418,-1.7600383499692014
1960,-0.9146841974169553,0.27887286968336544,0.3660916453848447,-0.3411957781436117,2.696506152706193,-2.7403274623720146
1970,-0.8913277207468804,0.2909325938572219,0.3820536049822236,0.3736163441906437,4.41181302012325,-1.3386251172617705
1980,-0.9044604431854469,0.27281339244302527,0.36553141259053046,-3.879548400976664,0.4759838352326353,-4.237285549329645
1990,-0.9218328670210421,0.2588140920644357,0.3525352476318616,-1.0013132222378465,1.9145728682570728,-0.4594981595041141
2000,-0.8728291587385382,0.3105014394228015,0.40308338987050774,-1.5007115294603044,-0.3191934818247575,-0.6980513371588566
2010,-0.9130013081789438,0.2737923899203837,0.36310538525483216,-3.541030672728704,-2.279200643940561,-3.0631965147366036
2020,-0.9170054550279081,0.27846004625296983,0.36264914462772335,-2.477181305161995,0.08851137824791655,-2.6227954619499383
2030,-0.8926315076844797,0.3006679651538544,0.38645758437259803,-1.3732190016850172,2.2902002681262914,-1.985569264100111
2040,-0.917548232050287,0.26384240814392035,0.3565828587760127,-4.127022289005961,-0.5517561107457722,-4.654450481634701
2050,-0.8737947788911644,0.30363566672838355,0.3976765732398709,-3.760609824973903,-1.913771967495151,-3.1450925980817326
2060,-0.924456493588405,0.25046742101420044,0.34800672048833026,-3.5327574757928657,-2.744002906119711,-1.7420930232579894
2070,-0.8733342378682178,0.3062550834099158,0.4014592833726411,-1.8811341797860681,-2.202684379842717,-0.31396258052775683
2080,-0.9176888988271652,0.2591325010678549,0.34979733114092826,0.3189467005248927,-0.41827046808054386,-0.8112185650263193
2090,-0.9183266610862815,0.2543862575989111,0.3548169340214424,0.8008112251170049,-0.37859175930559025,0.06844133854565815
2100,-0.919308838062085,0.2656701800321457,0.3533757156572075,-0.6441868144891594,-2.6303745081019914,-1.1504620888184856
2110,-0.8823235874555483,0.3025456350401203,0.39731085314485265,0.7103139796090427,-0.5283336508101244,0.8585102297220786
2120,-0.8852643414465635,0.29876295428771393,0.393055208732944,1.3995390376168888,0.3818512887789255,2.432305433610717
2130,-0.8979225090154782,0.29119572200716143,0.37337277033620214,-2.746501494726416,-3.0773360269444,-1.724238674088458
2140,-0.9153493071948506,0.2667346186393289,0.3606172097200934,1.903774745372333,2.3122749328306647,1.902058499838674
2150,-0.9148520190451251,0.26280740468148767,0.36422256997760855,-0.013211246750142513,1.0964817977192602,0.6204595359977046
2160,-0.8875974329284919,0.2915889254444036,0.3911112116904723,-1.2690373333248388,-0.39471255939639116,0.4117517168088274
2170,-0.9409102291787915,0.23764021942166688,0.33289798182193625,1.0395825513810073,0.18210123407493628,2.6588332539123285
2180,-0.8743249417918342,0.30931097573492317,0.396930377343778,0.21944438700791125,-1.3481840018448665,1.0003411561472233
2190,-0.8849867096406625,0.30589537777790926,0.3902045371811742,0.4239294014053121,-0.17176010070680514,0.03541911020960764
2200,-0.8856510407055591,0.2987609408490804,0.3917854582844781,1.4241837542184963,1.282115284138067,0.6023835050676924
2210,-0.8768334031317201,0.3005305194458057,0.4025692031205867,-1.1636953195418334,-0.7425342688253023,-0.9032485550306711
2220,-0.8810325484271556,0.2945088439078948,0.3915635488734866,-2.8785402629137207,-3.161280602718671,-2.0548397318210547
2230,-0.921055869551706,0.2597766046007858,0.3572531329010182,0.012084368760550912,-1.159280866216994,0.5808394946784012
2240,-0.8895273724112716,0.29046650388151435,0.38220947798248667,0.1111099737845947,-0.7492986135478159,0.0013369221126020014
2250,-0.8927227102137435,0.30124321436407736,0.388817477413214,-1.756821676945993,-0.7074417248081388,-2.6688459688930686
2260,-0.8810515412362065,0.3074455122969593,0.399399702565307,-1.0787193984447379,1.2413198935961227,-2.8946025743574584
2270,-0.8911575734617333,0.2797441202671869,0.3782075604556859,1.215809386135665,1.6744026474131126,3.064449841153738
2280,-0.868962955192298,0.3064089046305635,0.4005708105066679,-0.34136132628378424,-0.7069221646700838,1.572597385168984
2290,-0.8963901384994737,0.28445356464892535,0.37599760374237123,1.8529468099251827,2.271439460004709,3.547624656534988
2300,-0.8950114592712568,0.27972179818388065,0.37797882063854865,-0.7224151029460527,-0.2730694575781122,-0.17812109707277035
2310,-0.8811882193219863,0.2940372411154187,0.390667897713361,0.4097862857074499,0.5181503632877831,-0.0025840980260537355
2320,-0.8917869509603082,0.2880430936601149,0.3791925584165233,3.4226741763523334,3.1944853718521347,2.0280765757852306
2330,-0.8850577153466207,0.2975220001476553,0.3856949995642662,-4.417135564148516,-3.3414932428888195,-5.609739992813656
2340,-0.8866433626920254,0.28933151943323043,0.37996092196278974,-2.634973308432983,-0.3909564550499414,-2.8097630140277174
2350,-0.8710712243032973,0.29706965788557266,0.39357602875952824,-2.5472774839456154,-1.0292416073134925,-2.0773091270853388
2360,-0.9027108670907201,0.26691115744025984,0.3656878362621533,-4.666726352730112,-3.893953737914692,-3.833983713697913
2370,-0.892804162253651,0.2794692538400681,0.37630858343934864,1.3797659116229533,1.952068656197259,2.271416716089891
2380,-0.8822206940927645,0.29005860287893115,0.38718327215091275,-1.8307758100545395,-2.058246518063337,-1.6479429335389058
2390,-0.8916670534252854,0.28404009564033644,0.3829866641042186,-0.06514949094563283,0.7817539531433254,-0.44573924658202213
2400,-0.9067502167090272,0.2636977856314407,0.3666105560904891,-2.314886650712583,-0.7727862719050806,-2.4156077121470276
2410,-0.8818800871181401,0.28834756418815005,0.3930478720118968,-1.636696577362842,-1.607328649109203,-1.1378441518524398
2420,-0.89827700474295,0.26990359890788274,0.3628265182498534,1.0781191262612186,0.04403675479738878,1.631950395362926
2430,-0.892696697084251,0.2799124808469813,0.380761624137386,0.5056184754416175,-1.081510766744479,0.46792571665071825
2440,-0.8868423741748047,0.2909312119292907,0.3903771277274279,-1.1052871849473636,-1.427564384426529,-0.7731897411501794
2450,-0.9005848235839564,0.28120426262512943,0.3768305733253491,-1.9827014212874574,-1.4342134906318975,-2.1071550331826394
2460,-0.9056344491967186,0.2656462227380693,0.35863471256967827,-0.9092927268781446,-0.2924213739418264,-2.72751540139623
2470,-0.9031423161478616,0.2654457397699117,0.3677793100905181,-1.7215956298560267,-1.4486432238545552,-3.30501238083213
2480,-0.9156497611633074,0.2495883565889029,0.3611363506291822,1.329891582094582,0.9946754419439705,1.052446084415027
2490,-0.8771897828430476,0.2856288037943228,0.3974987236506809,0.2724139203865548,-0.7434438759251198,1.3678230407283378
2500,-0.8986702685356179,0.2676535071502453,0.3747792390470343,-1.8312085637617252,-2.83735897227657,0.13281603980710655
2510,-0.8619466477731861,0.3071046717586057,0.4100191364095268,-0.06832055775653184,-0.7029323428179977,1.7991560250463459
2520,-0.9081691229500272,0.2618185135732345,0.3613132639752368,-1.4082289749421628,-1.2660789135491488,-1.4166412270681903
2530,-0.8642271597972155,0.3062407149417596,0.402858052523248,-1.7215579372310603,-0.9446440308404268,-3.1178059170361907
2540,-0.9071100343735566,0.2621405132458694,0.3572480695272715,1.5444814349481812,1.9866199597040444,1.195889868135471
2550,-0.9014341204099132,0.2687164904776294,0.3635915326094399,0.030083268361369375,-0.022102610987699833,0.8661108254991705
2560,-0.9220811001534976,0.2510876556308125,0.346484028196951,-3.647941034337909,-3.8870657843411287,-2.0465733006104614
2570,-0.9029693761154165,0.2728851394610938,0.365970721181311,0.4099113522160339,0.5206592842078036,1.3988536228864983
2580,-0.8944808536288138,0.2756477812811954,0.373337642627352,-0.4687524265682054,0.15734117283349897,-0.6121222951821577
2590,-0.8923845089253313,0.2716033119039628,0.3807528384032328,1.5029866350764007,2.1851793966735897,2.2147986212674873
2600,-0.8894256364435477,0.2731981422292225,0.37278316265184874,-1.1774008635069015,-1.5486418638626525,1.4043812214840008
