time_ms,ax,ay,az,gx,gy,gz
0,-0.47789077686827336,0.45861583331611505,0.8643776866430318,-1.552280155411207,0.19399818461401552,-0.6504445612514089
10,-0.5219129083045198,0.4137128209397916,0.824643344820877,-1.2561946758756841,-0.6845074055108004,-0.9798184012824434
20,-0.47752011720799814,0.4557038114502774,0.8643300396540723,0.375830418063304,-0.3975188249684628,-0.4508103557827384
30,-0.4910900990367819,0.44428554758705757,0.8520366256784365,4.101891922478976,3.6996426232032475,3.1641614298988916
40,-0.4834324685865237,0.4547774914437628,0.8582628959345445,2.344110994635807,2.1579797851381515,1.3070233036860301
50,-0.49967711717906177,0.4398687557983325,0.8400997668823911,0.9951957463859935,0.3847635883583457,-0.5426326852674951
60,-0.4903906633573453,0.4485475853376901,0.8521782451144541,-0.36078195426014714,-1.397885626641671,-2.288266865314248
70,-0.49092532056628324,0.44425471273964784,0.8496157621237783,-0.02389974578503873,-1.9800318688338627,-1.9170509418567812
80,-0.4889658882543417,0.4539902554681805,0.8637054123545758,2.4435248872322086,-0.14644638391504383,0.18444856028790824
90,-0.5046386863632354,0.4470640755368347,0.8719346163590032,1.0245733967147501,-0.5981694070449319,0.968683155513066
100,-0.5350757189850126,0.4499272355540606,0.906894678631557,-4.95285772466,-5.186258700470268,4.178613714774301
110,-0.5884632740511397,0.3936564098783791,0.9729594824900065,4.841914871812665,-11.252874916081858,7.507191057470595
120,-0.5679616063623811,0.3851723005837769,0.9608128637142822,20.097945520854886,-24.151269288182753,7.810098994410536
130,-0.49533340596296965,0.4063722999528798,0.8768518175227766,33.51854548013511,-34.617994856825966,9.846471372736147
140,-0.4545910684188916,0.38349670096268496,0.882380915706191,38.144468463330206,-39.49553336684305,8.106063391877283
150,-0.4562328358861852,0.4284908739295959,0.8837900328761599,41.95736095525246,-41.27808132482316,8.049079995112821
160,-0.3824631189104442,0.5199604691637324,0.913874993760642,40.48348624673238,-40.52534599352858,10.347014504031502
170,-0.3189698890984567,0.5560205541582826,0.9313046071446685,8.589742832691758,-32.853575444991904,-2.9484367048078197
180,-0.3330051980673457,0.5296073605132006,0.8613065518111346,15.207020682829183,-27.251218968936612,-9.004688044540684
190,-0.37813761302606735,0.5087684455864301,0.8485998148765075,-2.225292897330708,-22.7269052667342,-10.91236664698018
200,-0.40698322256799935,0.497541090147452,0.8788815148517397,-31.379834584034725,-21.261889276641007,-15.78834779457902
210,-0.4332014869165644,0.47040342977419736,0.8537303983971415,-31.74166892102089,-15.706554157187952,-16.603228865750896
220,-0.4370675320964187,0.49419422072497793,0.8266711937719324,-29.882676245546534,-8.461146055563827,-13.952141509295465
230,-0.4300405330362209,0.4446827085455679,0.8033782276303084,-34.55240440491171,-3.4074744753530704,-13.205368868261898
240,-0.854457255855417,0.4584138512867758,0.7592692493179665,-41.52061172697288,-0.21365347096863396,-18.397143805184037
250,-0.6435626751382908,0.5032841778453571,0.8617091228433554,-17.99106015819528,1.836832566954666,-15.393642564454172
260,-0.5442827212537583,0.5412594356325606,0.7951161772919789,-13.112772377280976,4.552136041813766,-12.83094113522597
270,-0.5900539834216709,0.4825639909334568,0.6935844218424919,-35.27243672877785,3.4047199285515246,-11.949319101945203
280,-0.591494776884162,0.394775364286998,0.825343451242757,-46.610579333408175,8.592900313985435,-6.444233801785994
290,-0.6316046869256925,0.3438842084588591,0.9374322549003755,-27.475519936581648,16.00014622559334,-6.555228644752342
300,-0.7212005950078926,0.5662538450062307,0.5314598448507588,16.041073395496426,37.032894416829635,7.680573817099771
310,-0.3814502624359532,0.5802415999891722,1.258330907517059,-13.221875804719026,49.48752223935035,19.50733930958545
320,-0.3934649459267308,0.48016164358685726,0.9628727193238654,-21.04633290160155,35.50949832776972,18.314578329699117
330,-0.3290842429133514,0.3315919058121588,1.072889980703423,-20.597027419188375,33.036738321215296,17.994057640358925
340,-0.4437880653731588,0.35496810030429027,0.9847391394258475,-18.30000789403789,25.49866426159341,17.54955824959669
350,-0.6175452932023935,0.530235033150505,0.7645145006626385,-3.809081537335101,20.29418698532912,22.30520664080455
360,-0.6681055888968895,0.6006783322869085,0.6975749275405275,10.04816247729978,17.902167467489072,21.794154791919297
370,-0.5589781984797988,0.43322566571684296,0.8588109649169906,9.571750089236701,5.562644666154644,6.156514042846098
380,-0.43039049831689513,0.40520554628648286,1.0948507155288558,45.61837945984352,-31.259252241539052,-1.9959109107422632
390,-0.4123311611995266,0.44863633170095535,0.9620582994857845,57.99414834242479,-37.43032104321466,-2.6099068510954906
400,-0.3556302061231457,0.48418713072655684,0.9449362790352741,62.403060162791434,-41.61961999788757,-2.22535604161701
410,-0.3964174227017727,0.5065636733767299,0.8294377817802803,54.78886039092552,-41.360515195505855,-4.268916931587653
420,-0.3849258184784364,0.6051778931524278,0.7945546068672973,39.04842150231947,-34.93118496704291,-4.966297995205236
430,-0.39010948996954764,0.6344610449447167,0.8243417042252373,22.456568669321754,-24.665098648071226,-2.118190924442489
440,-0.42071716593930997,0.5463133212430286,0.8649246133628106,5.200838326271915,-18.0247338868868,-3.507555294746595
450,-0.42945629615608305,0.4128850763355964,0.8195455972096057,-9.84935707834893,-11.995270245636728,-11.723297528826244
460,-0.4145843770620298,0.4252670683335353,0.8357243265259134,-16.803241330584648,-6.29547720695467,-15.832398934456737
470,-0.4041526722590908,0.4502943323582844,0.8998280620118311,-33.55696852271768,-7.888956655284531,-20.42989152689959
480,-0.5319918881352846,0.36555758186751236,1.0712446021456785,-30.353143438550397,-12.077949902420048,-24.475154195839593
490,-0.5129571165188364,0.3979747551018807,0.9964703535746925,-21.728923954333872,-15.384125871919062,-24.34014879113484
500,-0.48518091273723546,0.36298614609123786,0.8906437068836609,-13.293699519934007,-15.788830939176712,-20.016086708262883
510,-0.4329158216900691,0.3573506596707979,0.976866349863763,-10.18307932111671,-17.499613093893878,-22.761213429502433
520,-0.474163142821593,0.35391651508390615,0.9821754281980262,-2.573893965215,-9.331962963304957,-21.4679164864004
530,-0.48503812488913417,0.3649162154826179,1.0789172275053516,-11.736886084443142,-7.8668532101602,-13.070067792197166
540,-0.6281364399231393,0.4239824778278725,0.7844042546197598,-2.4853959165834385,-2.4283807068865326,-20.209314836560264
550,-0.5597999097435347,0.23710452695662523,0.5780098008327859,-24.421906963987787,6.834542621985131,-35.046042771320835
560,-0.4827836307952619,0.4523901897597094,0.9176705370962426,-2.8125370601266715,1.6984193392784452,-20.167129548464594
570,-0.48250439519490224,0.5809050254592802,1.1916351064851898,-12.78042235109734,5.147764285513997,-10.300591523040554
580,-0.5117691602626502,0.523238004577023,1.1822661614716288,-37.87900004903813,15.491797320129038,-13.149761806073965
590,-0.47162915984687315,0.4067536232161676,0.9830388195463381,-29.695705324287204,33.154805909956885,-9.618023832855814
600,-0.38195435125103083,0.307206496177469,0.7661977697718814,-9.995062366026795,42.3695772265003,-5.091895974434298
610,-0.3968338955578988,0.566961335389976,1.050273504793005,5.478107261980883,30.786895459272277,12.409204724659642
620,-0.5010566484746867,0.5023081286771804,0.9392626773064122,-7.390546265787953,17.783158058631706,13.118422182352324
630,-0.40983989413579075,0.4565705751451866,0.913578320299581,4.057178339127817,9.73407387160762,10.383334590400118
640,-0.4440524985415737,0.3432529139722972,0.8684538736200115,0.2735151252294201,2.991016602602188,15.409724385657912
650,-0.4332120088378339,0.3250181924202381,0.8764792148384379,9.999577861081296,2.0570039704817837,20.9216925898183
660,-0.4093088231242201,0.3386981778502533,0.91060918665622,19.081617513870597,-7.2262646214171955,10.766033568667558
670,-0.37998155041979487,0.40578147211008936,0.9889196035345358,32.09678832933389,-7.548016142170969,12.311178232853344
680,-0.42677677681861376,0.47860195159614455,0.8977654403961854,45.05598790426575,-11.13955201069898,18.463510044628705
690,-0.4450049528604659,0.3613201547052116,0.8335473644682325,31.634229674949356,-8.61805284097467,12.467186477396002
700,-0.5632851028655802,0.28339728633188116,0.7240053740456561,11.016480316190407,-1.8894731578146988,4.6152874390465755
710,-0.5083727108862915,0.3711886398800245,0.8169693357538913,9.191221345599974,4.371962929161401,3.8677211811604852
720,-0.4798233466635389,0.40843956217136895,0.8625403584242619,13.670805168424103,2.7227067470966846,3.2241178237821417
730,-0.46714709532422954,0.3446409653028719,0.8616506766263894,12.917329685188463,3.4507639510756927,1.6016226873888972
740,-0.5126973031200343,0.40912148532484843,0.8414598951255,7.530718224137635,4.219522304228354,-8.45265072516141
750,-0.6183082103997072,0.657354971128432,0.7877163146330728,5.581354651990126,1.9201734351887279,-25.151117538308068
760,-0.5315088060002184,0.15545335143300412,0.6229217490910482,-17.699394490792166,10.55932804799726,-30.53631448762217
770,-0.5783864194967657,0.2146321800201799,0.35001544761471076,-17.998733205966214,19.002020847575842,-20.000808642010874
780,-0.608495278342454,0.4996471270143978,0.6963631411592318,-7.797615713300658,8.489645722151407,-19.312936067794524
790,-0.6758448257456173,0.49422479560208477,0.6967597882830615,-7.19064355993331,13.697475377633788,-4.466449976943771
800,-0.5452156091074897,0.38067064778992266,0.7662835620061229,-16.81290594622392,19.025425356257102,-4.941481700421631
810,-0.416694014336439,0.3476559757922527,0.8655810655275765,-23.778023578778303,19.571223225285788,-6.995270041790476
820,-0.4724575602827514,0.3586310984215997,0.839872155016552,-27.688452222486404,14.6688588244538,-2.5217820703405796
830,-0.39490768232865087,0.3957859572577155,0.9818512517677447,-22.28721304628651,19.82980801935131,3.0519297761469155
840,-0.3790375686005193,0.5222832206884231,0.9900185203887716,-10.135187667695968,17.667333239550892,11.014150009089311
850,-0.3887550944648778,0.31104835339651227,1.010031169975811,-23.063651123531812,15.816684079685807,7.741892266584315
860,-0.35478457505796096,0.040721519191683236,1.0410600652607787,-29.622164971964654,2.2998887827981487,16.732871762005505
870,-0.4701217555382457,0.33967826782293,0.8528984432068886,-5.295707759015941,3.951382126212741,26.02005292983885
880,-0.49784077948511946,0.5542955262453507,0.8343577508484631,-7.141358678399624,-1.1771274222332682,16.82213124806287
890,-0.5084661295628286,0.36280869692892986,0.8997227266750338,-16.09774773908257,-4.162527922567817,19.499779953437354
900,-0.47204594546101214,0.3185005672021904,0.9205436540081198,0.7799481526751924,-2.9763309095354282,37.96371046219388
910,-0.6052979664442559,0.3792250624578916,0.6400981788856263,20.66818168500699,-7.00184153570673,25.68868721610964
920,-0.5224215297641703,0.4652329422575183,0.8198254088722458,40.2210221590943,-2.4186588219374894,13.046009096007664
930,-0.5239345211578403,0.3624439748943856,0.7543062014634102,12.43946662090356,-5.143883929141713,3.468139801504646
940,-0.4731768234641584,0.44945204324729865,0.8972413981163583,11.609643736144626,-6.147014314391184,0.5891830538046698
950,-0.5126787316289896,0.40970358409681246,0.8302813736637369,8.641148387692764,-4.000861443653422,5.337368785753939
960,-0.5474961858748227,0.3638069941537789,0.764170817392286,2.692436897800574,-2.4919430495004633,2.851255621928751
970,-0.5519332494686253,0.37300447317284635,0.7960998299464116,5.366137679287795,0.21770318434742997,-1.6131234719527054
980,-0.5002258018122469,0.4212687776502754,0.830484761620826,7.4165319656477475,-0.7496174337998681,1.4053538323798502
990,-0.4979917635364554,0.43527821856455545,0.8386298605943463,2.6442164778317423,-4.2161298049210965,-0.8549373192399745
1000,-0.4886083344598271,0.4479946984594742,0.8434898656520311,2.5121254574828327,-2.8888290985271237,-1.079668862500465
1010,-0.509629629266415,0.4231712070973116,0.822841553735171,2.386884747375047,-0.18279274114636337,0.17202486055365004
1020,-0.4857202619617567,0.4458256905023334,0.8526057003625743,1.2728136383031512,-1.3266730107997526,-1.3950076525436959
1030,-0.4977789506203164,0.43738847954139365,0.8471065366214482,2.865557109945972,-0.20764190810984068,-0.3582458249436784
1040,-0.4988473899990932,0.43648893284887774,0.8459406164896841,3.867246228803605,0.6004505503550785,0.646899964480711
1050,-0.48369864560201814,0.447306171093791,0.8567682470720726,2.803805766969057,-0.9616850292574055,-0.2277263487819703
1060,-0.5216149915468027,0.41424280930379354,0.8229614011276495,3.894985920718625,-0.1377509402103453,1.3546656131578183
1070,-0.4887683661707619,0.45132060571297977,0.8533459676315909,3.2605518040530894,0.880962427284786,2.121242290599646
1080,-0.4958774863162462,0.44090875117973166,0.8454269084378301,0.7300843018429877,-0.24999912626313764,0.2985947366712635
1090,-0.4913003843663838,0.4491844550019354,0.8510897174267441,2.075639049687631,2.366162562001817,2.230778784504195
1100,-0.49576626846114374,0.4413933863372413,0.8415322213411789,-1.0767937291399108,0.20218570729970248,-0.6210479967894482
1110,-0.5111628497427222,0.4244885192522888,0.827871437946105,0.625934573306091,2.402050603380466,1.533964290450838
1120,-0.5022523120037613,0.4347954878878018,0.8408641138212544,-0.4430784409327072,1.197677470140259,0.8310226874724698
1130,-0.4847956202984248,0.45106464066975527,0.8528752900868459,-0.5321607375337098,-0.15927455755054537,0.07758393212075226
1140,-0.48917074536271127,0.4512148724681666,0.8492121119988449,1.073760054957021,-1.6711485933218662,-0.30863804637398173
1150,-0.5061274792281502,0.4399259833196314,0.8309588841186768,-0.11320385443877634,-1.3004706520171072,0.14418616757567482
1160,-0.5001735999497008,0.4413519653708872,0.8335373425378777,0.6109214779715935,0.8394845024520572,1.5892252906923159
1170,-0.49880956620370354,0.4443667446113201,0.8439151331002085,0.24123407910271014,1.0818993461468458,1.2530575252137048
1180,-0.48189144983405763,0.4583371751172684,0.8591319124261595,-1.2970562116772313,-0.485807554070117,-0.8138006218758164
1190,-0.49330008731274233,0.4440234457498495,0.8436799616949082,2.9927008335337604,3.5897939651824102,3.1636044352330632
1200,-0.4834745197718682,0.45787441816086616,0.8573697028633402,1.3045223740546326,1.4888666165435795,1.4275146364480764
1210,-0.5086093880848759,0.43807735543588483,0.8345691497720403,1.6554276395631247,0.8612588790797392,1.2304896542270647
1220,-0.5076362303472093,0.42767241210140755,0.8257153271648863,0.756983494468983,-0.892615659047244,-0.04403341144119732
1230,-0.5068797633819292,0.43618607056228853,0.8389201761140759,2.2167162273193437,1.609049512348481,2.1890131016405747
1240,-0.4793050125184415,0.4655411247895136,0.8680392499502453,-1.2591858119650006,-1.7181703195354283,-1.5814964655662835
1250,-0.49719638933563776,0.44287137502982793,0.8445179204416141,-4.291288481615542,-4.809207898008749,-4.678864800051583
1260,-0.5091700381236421,0.4323965248785921,0.8296778364758632,1.7244963544363539,1.3991318800055395,1.4565011509788655
1270,-0.515623406001353,0.429580679475393,0.8211121932172598,0.07726164084663974,0.3508289311735261,-0.005192645298520451
1280,-0.4991233222805146,0.44286650134144784,0.8338713804077876,-2.948806869490781,-1.925174564058953,-2.645208229151265
1290,-0.4761694096497288,0.4617942358462862,0.8612789082705226,-1.724010797271966,-0.370025547054119,-0.6639087238959624
1300,-0.4958738327733814,0.44271652290245544,0.849398667191935,-1.467572870903158,-0.439634546694435,0.2499396489794039
1310,-0.4922193119162599,0.4465164161397129,0.8508842504408863,1.1844060498851257,1.3081852229460824,2.6878368805404547
1320,-0.49833659480124354,0.4441577317386081,0.8414920365522613,0.033961389074745996,-0.27753563857035357,0.8749293388848214
1330,-0.4880985880281597,0.4597082176242854,0.8558879594940341,-0.28890559144879413,-1.1247779672651883,-0.7054628380955432
1340,-0.5205565857184796,0.4268716221718686,0.8236323773833786,1.3296514406527733,1.3330160306399608,0.40812628930160927
1350,-0.4909299560129389,0.4528326503101543,0.8524417027208386,-0.8409186147664152,0.5501043846479174,-1.442789671779826
1360,-0.5226372607531139,0.42071317136384856,0.8273277656746808,-1.0108319646393267,-0.020644354442538204,-1.6167387635738437
1370,-0.48004237664238514,0.4580115887078914,0.8596893893800256,-1.2525345126582927,-1.3476239617211703,-1.9294917237626907
1380,-0.4877367330809729,0.452563569312443,0.8508096310541347,-1.4400242701611359,-0.3539732270689806,-0.33141168257545617
1390,-0.5159153019792813,0.4257319106564041,0.8254664908439987,0.6294083016292786,2.348116876159837,2.3919877749505227
1400,-0.4938993799585151,0.4480096031549103,0.8457667877082345,-1.15457101832377,0.42194317238974627,0.4455100424682229
1410,-0.5281136841331419,0.41457498533352716,0.8107085337245317,-0.4491140580941799,0.7554839930563276,0.3026139383436214
1420,-0.47811739345293663,0.464347815068573,0.8589333008132828,-2.602810101103111,-1.4719019483124376,-1.989377280028659
1430,-0.49755523868969903,0.44278650160690775,0.8390652673887282,-1.827307288459322,-0.6902677831770747,-0.47275220186226774
1440,-0.48681883752118316,0.4514947662905566,0.8573131529831868,0.2134473842803024,0.6915212025346249,1.4757216737058068
1450,-0.47512507553506916,0.46190337258135944,0.8631933362175679,-3.8283497687044927,-4.132144469714864,-2.8508988886200397
