time_ms,ax,ay,az,gx,gy,gz
0,-0.6667901620229203,0.9026389798293902,0.8837079343825693,-0.648903434152734,-0.5763947888128369,-0.7191823423898445
10,-0.7091542903860071,0.8533953178234311,0.8524625940655636,-2.0697586787857927,-0.007168218250435954,-1.3759126489951579
20,-0.670039532956764,0.8908598769009903,0.8847745666886387,-4.646985469897522,-2.9732619525373045,-4.312400901220763
30,-0.680997378460937,0.8786906362124308,0.8819811117160598,-2.1549711095358415,-0.03686321613338241,-0.7797475531259281
40,-0.6325153546483425,0.9292150432693659,0.9356624750437896,0.7333715264268186,1.795984455472425,1.950426318283004
50,-0.6740106301891288,0.8925940460025661,0.8925411916759525,-3.2488530194019605,-3.1296132988365306,-3.13671615040303
60,-0.6607570978389794,0.9059526319192427,0.9040660711713377,-0.5871350119735672,-1.0931112184491503,-1.5741452212778515
70,-0.6618389477475389,0.8994179972341433,0.9002006093765325,1.1319570656212359,0.38110683839245313,-0.05705339312048585
80,-0.6422156111843338,0.9158119357038335,0.9118542463854593,-0.6631377458730665,0.5041113936763073,0.421766289659276
90,-0.6695981516982463,0.891085517355776,0.8926811844319564,-3.5116232930402496,-1.6181309286452656,-1.6520907620970091
100,-0.6917364535722014,0.8746528206992908,0.8656231473667932,-1.0802648529483614,1.1057716267355036,0.9316023877340376
110,-0.6488145507674713,0.916276301324129,0.9113146176213045,-1.1305841950831204,1.3456749649088673,0.6833485383316382
120,-0.659257786751836,0.9058698840597905,0.9008375304386131,-1.1826433945693746,1.3525977990308597,0.24148363766156977
130,-0.6593012616387447,0.9070361589030342,0.896867858953215,-3.1119317346954687,-0.9285381657885498,-2.1099541045412025
140,-0.6901717830566235,0.8714248873714591,0.874232656848755,-2.859769800276994,-2.2123058253306245,-2.5868496327928776
150,-0.6963219516353958,0.8575859407878659,0.875484552208007,3.5733377563601008,0.740600779978073,2.106821471695472
160,-0.6916292158073337,0.843747460014498,0.9044104668338168,5.047542069231656,-7.065800911344736,-3.7080318406791664
170,-0.7482794111783313,0.8044731443372706,0.9636680333771974,6.187636679354587,-18.761082774631976,-12.52960571019907
180,-0.7757177864863792,0.8280145268481562,1.0476252654232145,10.369021925239345,-24.70239885261685,-11.147026451009173
190,-0.7377272609851756,0.7681775013085109,0.9848077322184279,14.935216429032128,-32.477314730715854,-7.656369937527838
200,-0.6376737105206653,0.7664661375028613,1.0172907593556315,2.2773902551598173,-43.04192629583462,-15.166568678348739
210,-0.5743678280466366,0.8274883710525762,0.9084584108267416,-4.964700604799749,-46.37852227296331,-18.45723232692864
220,-0.4698864907629068,0.9086950285749182,0.9044320071539756,-7.9799039618876435,-38.40660966150687,-16.123822056846542
230,-0.44042609691133033,1.1226820087849307,0.7384072860078523,-27.857663309964398,-8.843682021442307,-5.826545645359047
240,-0.5402876250763677,1.1321709197146204,0.8204255626225322,-36.91219979593919,0.7256520850812465,3.9054983471943676
250,-0.6112581126757041,1.0423560822052644,0.8797316729835212,-35.84255381914294,9.054410014551156,9.86320040770063
260,-0.6606145856243522,0.9205417034302855,0.8395054841696276,-43.55009081461903,13.679675390500138,4.142338223717298
270,-0.6678412613161534,0.9193467488055371,0.8860855128295536,-42.82952734736616,19.52935663857404,1.3588936776823761
280,-0.7115228981566645,0.7532710275851874,0.7970378411683313,12.530743162123944,27.631005655054786,6.066225423603048
290,-0.7036441367085529,0.8239780794464393,0.9098323692922334,16.13856213307789,9.417620688536934,5.433507289889566
300,-0.689956309033237,0.8894841441926774,0.8569808252845417,-6.976131681641165,3.301555277335458,-0.9126789374246524
310,-0.7883333615701704,0.7598417636369872,0.7253709452041419,5.867888782825173,3.1757002805985435,-5.066398710979926
320,-0.7926009539076868,0.8322012613324101,0.7455496279939119,25.080449978377313,9.814472658740314,-3.480707886938974
330,-0.8432418738369849,0.7340507597807817,0.4946251199134112,38.35157973517055,27.312616608543422,-2.921719242394817
340,-0.8488172382615549,0.6953563093177972,0.5696543275213505,45.509973461520765,34.447524207427094,-3.6024764948939434
350,-0.7412650457207717,0.850981109432753,0.8972016336730135,44.19367227790738,27.81299670607449,-0.11885748646397931
360,-0.6819976181274802,0.9010608339286172,0.8857857038697348,42.43243267094727,23.277634541371572,1.2151752920816425
370,-0.6091936077701455,0.8757640787476062,0.9144820385172084,22.66808117677529,20.981899401904002,-3.1185246690630035
380,-0.5838466457412254,0.881588439104575,1.0152679008420542,-5.896542369819838,13.92447479005865,-6.806681951421395
390,-0.6650085597414372,0.8549189323946372,0.9651562035041966,-7.27884524088944,8.261969214008538,-3.191836072505622
400,-0.6793592835775605,0.8849034886637062,0.9410181629646984,7.344663070013133,3.6347296680542476,0.03545184063733242
410,-0.6947656514800548,0.8358826736009106,0.9009807095105445,6.222410526783047,-9.78976070739477,0.2645862800043101
420,-0.6988988855664704,0.8481854081686407,0.8673076556275103,-10.05176748629041,-28.08732589920721,-4.8002183116294335
430,-0.6798549444129266,1.0606328004674137,0.8414014100215346,-21.897214174818288,-27.511748976774822,-7.784201579086934
440,-0.6481635135654741,1.0534788125810208,0.8039322916498837,-33.54355090117808,-21.197773094357164,-1.5445355046807783
450,-0.5612582368732734,0.9942180548234436,0.7871360940463963,-38.263162549816464,-18.52764076803368,0.3070330852120169
460,-0.5352269754068708,0.9688042932184975,0.7693639842305481,-39.13920444418409,-10.664058986876434,1.0141765044275837
470,-0.5798623294589165,0.8826811688642369,0.8168139375888167,-36.48566091195254,-4.054804341692263,-1.1567601469741027
480,-0.7045659396923906,0.6439390469113077,0.9493009553357578,-31.247691398236544,-13.886617845780561,-16.280689977472502
490,-0.5856993168798288,0.7261046949333924,0.9186353025284509,-21.169502638394192,-16.351356601298715,-21.045672666850134
500,-0.6415121423549905,0.865333964284424,0.8814616336460076,-22.53330615107483,-18.741027359365688,-21.503945013246017
510,-0.687685407646512,0.49731756967867186,0.8085232403561452,-32.49115212002892,-20.199617067778917,-31.401369214734398
520,-0.7593563376559355,0.9053754512463553,0.8116420320490909,-26.974479857571147,-14.966799483584946,-25.025906466364113
530,-0.6525967161682508,0.8383301291053187,0.8712428229313599,-65.5070766860221,-8.51859853528511,-29.350492340701223
540,-0.62944629279937,1.0343310851215484,0.9338520350035824,-16.34796785030065,0.05485315083060982,-11.5178308979238
550,-0.6851343150668967,0.9069538712145354,0.9643494559121051,4.9768129839669015,3.9925368950466926,-10.455556115329683
560,-0.7245675793121797,0.8926416858039841,0.8472261840032198,3.5723265740040833,6.149822490471538,-8.580468574307199
570,-0.7112404483219772,0.7856671178580668,0.8304020702761112,20.448154645723722,8.991422909894426,-9.384989256004324
580,-0.6372168920192165,0.8481183797827144,1.0552272110459315,41.15895371135803,11.567949584549352,-2.484295450881606
590,-0.5790574128170057,0.8551558002420505,1.0470835248600716,30.407522507468073,10.998129601454906,-1.9685628322305164
600,-0.693185032287154,0.8804209540582486,0.8514632421501941,17.15319067203953,10.08369584989711,4.33042515338763
610,-0.6924739383842741,0.9297282795480477,1.0438908706688923,13.447246603522112,9.248505274229267,14.197133170140074
620,-0.6100083367578852,0.9575645865802132,1.0163539560323516,16.928009306874092,11.860684033632221,25.388351198685726
630,-0.5772092801603901,0.9237243330158172,0.959230422636147,14.490586658383005,5.08928396345702,23.412604603214536
640,-0.5805155152474035,1.0198877356682807,0.8570090277221585,31.642806568738827,6.716925223385653,31.2590757600647
650,-0.5886668899490998,0.89125051936199,0.8860101171527298,16.812569188966517,-0.11045800586289234,19.003736708916186
660,-0.6403238857365682,0.662488083939689,1.0164780101375153,10.24337122030591,1.3087516963409698,8.672879626041924
670,-0.665339523658599,0.7905341167459239,0.9305441058583971,31.57457045560886,-2.3661751017943,5.146258230854366
680,-0.673586650078956,0.8768450228822227,0.8467862349436985,38.54656604109538,-3.598506415844075,2.316891142462974
690,-0.778804825405326,0.7441130976009529,0.7062714908153653,29.604664864783548,-5.429343789506407,-10.112325388476464
700,-0.6949072934558131,0.6287744127404404,0.8824849465503116,21.906206816747307,-0.7453697922861706,-17.760841709400594
710,-0.5716078853814481,1.0001820834422586,1.0085364185531267,0.9720514579172075,-2.341729925931013,-22.861425342175405
720,-0.5650000863100323,0.9295958396930485,0.9338420265120349,-32.6405731041309,-1.6143010949976522,-28.807129921134205
730,-0.6937550343633377,0.7891382032564446,0.8473727289703913,-22.471766505562137,8.789416657043912,-18.366392333089102
740,-0.7815647287170722,0.8559956420718771,0.6772084880776569,-10.230409083099266,7.236094676394771,-18.13466570263413
750,-0.7939040292560946,0.9412322354018312,0.599403670705398,-4.489809839649909,13.830953579583403,-10.572260007465035
760,-0.6966870962779611,1.0425341040193736,0.8881145227435631,15.324159167314722,16.403557418522762,0.3032671640478859
770,-0.6251289044618142,1.045042694933557,0.8243623282064809,2.7999900372592714,22.510784777931256,5.474487205216462
780,-0.6463531666637603,0.7792537157970505,0.840180753317833,-23.81948274012326,10.093165699115017,3.1468637637695007
790,-0.7096497424553946,0.4450589299673504,1.0693794471097877,-40.20238276832963,6.834617415823878,14.284944182144995
800,-0.6409264166514668,0.7771882408125754,0.8731639961940882,-21.248601905799475,0.06836591427305372,15.655959097251806
810,-0.6762637412275323,0.5778068939487988,0.9233160820698647,-6.990945180099075,-1.0891275959912075,4.11312152031101
820,-0.6576577227112821,0.7139208644212691,0.885598326784982,4.931131880426097,1.3698708327905107,9.262580421359226
830,-0.6812839111091595,0.6611863636331238,0.8346092868156484,4.282306012975628,-0.6564899338591432,6.453397216714549
840,-0.6989073057490877,0.764792798878872,0.875299422737345,9.211688005713889,-0.7253327051213662,5.727654992203971
850,-0.6595323238042295,0.8891838186270543,0.9199876776102465,6.352184558525332,-0.23982233936128716,3.5454560093431935
860,-0.6583043602234332,0.9013389807925869,0.911617164528277,1.7675460055371235,0.2784118936978437,1.032636702835585
870,-0.6901035579441578,0.869255228321053,0.8700723868007783,-3.1817353053740787,-2.952869961621983,-3.3518938508103178
880,-0.6924460655516432,0.8645538533476069,0.8697351134639129,0.39607842805557447,0.42898358245275836,0.12742377694540874
890,-0.6934418990244092,0.8527271681118539,0.8767110413274029,-0.40328365793397736,-0.18190733211212295,0.0933444078024126
900,-0.6853573636983059,0.8527965297483433,0.8847530123291523,-0.4426478101913909,0.16674677781888114,1.4621991735200384
910,-0.6867129442960355,0.8525905933957295,0.8787452573925881,1.7090391440613952,0.4657762416376823,2.7729848403503103
920,-0.6795521139406122,0.8690477376421514,0.887794764439128,5.918368862376732,2.9158859998219344,5.041086020456285
930,-0.6806190115426626,0.8791802033148142,0.8897260842766118,-0.7040490773091141,-0.7236581073165747,-0.4987717188040161
940,-0.6879269930544747,0.870883556187149,0.8749239966721127,-5.065152533551689,-0.05772161836311995,-1.9524443512451435
950,-0.6849765811804742,0.8626369799022907,0.8745489622397778,-8.112669019823507,-1.1199673157311683,-3.703144662571171
960,-0.6620534555537898,0.8745545492754135,0.899254374037021,-7.147582901186773,-0.6753251333065134,-2.987409726214146
970,-0.6597045223394628,0.8730364354833035,0.9082332571111627,-7.1131353406817945,-1.984593304709249,-3.1293580046390566
980,-0.6992868511879001,0.8422273316890425,0.880267148929513,0.050614121326396644,1.0858498484330534,2.249112897562362
990,-0.6648570180104622,0.8713874558240701,0.8943373326507915,-3.7017398064208353,-2.512996998881733,-2.030909667156681
1000,-0.6611761586020325,0.8685884241495794,0.905569047381683,-3.2993012510702866,-0.7259007311502633,-2.1110192582294918
1010,-0.6658709243580544,0.8739159114321773,0.8820256799945997,-6.85252443479386,-2.3271647726700593,-6.7726370016271416
1020,-0.6606998903500317,0.8703199046849966,0.9022189745156503,-2.756479705696382,-0.3212697693708416,-5.897240935978858
1030,-0.6759146693523584,0.8518751162662287,0.8978194768696087,1.946808999736482,1.392518526067199,-1.882748790916207
1040,-0.6615552143012338,0.8641732302689831,0.9047277398527926,3.0542518743763027,-0.3898006618033879,4.14411933197503
1050,-0.6593372020962921,0.8750798014108295,0.8954637174182862,2.2344161179861057,-0.34835776555148157,4.873483358506931
1060,-0.6558829116279701,0.8869846455892308,0.9069326222674811,2.8254163703987714,-2.0763868097918903,1.4916635112638121
1070,-0.6730188268522428,0.8846185241501282,0.893481203599658,0.9432557556118639,-1.0179827480698247,0.2631173510401157
1080,-0.6691396021293327,0.8814320070505584,0.9025524673956645,-1.598360918565645,-0.06955488594756332,-0.23485512961361846
1090,-0.6542879683069149,0.8838409338850778,0.9146495471880504,-2.1509435683876257,1.1916615292377917,0.16280343506543238
1100,-0.6758686595902669,0.8560501531250511,0.8917958068253002,-0.5223931977075031,1.2670418326284196,-0.0835081596237246
1110,-0.6997821080631621,0.8371637355484416,0.8674775799901404,-2.6180680611902263,-1.049713341237405,-2.3003911318358568
1120,-0.6754642868556491,0.8553064765838206,0.8860369992677586,-5.200830759694542,-1.6925199824671129,-2.8440271078324515
1130,-0.6688468082998196,0.8568840653658971,0.8972475749523429,-5.045444306577572,-1.6445499619224329,-1.7710754521841985
1140,-0.6678817949599162,0.8613874405725235,0.902919121609301,-2.340992606125113,-1.4388755395931965,-0.19008046698728354
1150,-0.6366454576339404,0.8992634056269047,0.9338753997735312,-0.28975709220922097,1.4694800981685843,2.5112476893592572
1160,-0.6732449865769413,0.864893468464527,0.8989111772247831,-2.332848408960611,-1.1068101388075946,-1.5761031849667706
1170,-0.6927182468741763,0.8419593632854299,0.8740920806361461,2.5210280416909696,1.1426926167160096,0.11461409694423941
1180,-0.676996147832449,0.8532610405834908,0.881744363436426,-0.44661972255012883,-0.4324292454187287,-1.032889513683802
1190,-0.6734270356700753,0.8579067923597261,0.8914100992822818,-4.814319588710859,-1.9522485248914796,-2.5692382902928204
1200,-0.6596002892449262,0.8709144124311483,0.9114905762683538,-2.411416752100817,1.9182965342058667,1.2408074100833237
1210,-0.6857724911670343,0.8311867977353888,0.8800851708035827,-5.2879733638872635,-1.229141622392277,-1.4944443636771394
1220,-0.6378762172307362,0.8803810459184045,0.9263930523211945,-6.277287180746395,-3.0101254867081413,-2.8041327899531083
1230,-0.6660299117213629,0.8558026719686471,0.8980443388238505,0.9703745923019017,1.6676762428314906,1.405973069649469
1240,-0.6709094669326827,0.8625418735618325,0.9048844042695378,0.818396907686985,0.3653956374160034,0.20383634578866772
1250,-0.6921747124461347,0.8409750495756005,0.8825822367795159,-0.5135474817998011,-1.0644003313466734,-0.6745584511913157
1260,-0.6667409688091552,0.8534417808133746,0.8992726253224038,0.008698587395848723,-1.7326929658395567,-1.0557505827364722
1270,-0.679033835132769,0.8501480845713763,0.8859534998061577,2.742379618293771,2.278677995800598,3.2151070765553196
1280,-0.6621854635884739,0.8666101773043965,0.9022445385217706,1.1814013204524096,0.9242628789654477,1.2796204265677815
1290,-0.6816307265470026,0.8414501428781532,0.8858106002794622,-2.277965273281879,-0.04560355829798146,-1.0152984463670458
1300,-0.6793886691253102,0.8522195889735847,0.9006257181201291,-0.852860153031062,0.5804750094961791,0.7643390262737558
1310,-0.6688629831402689,0.8608809231999799,0.8992168090273113,2.3684975122599083,2.010877708562445,2.5808724284884774
1320,-0.6535556754402159,0.866310685883229,0.9113303128496449,-0.22631301557924022,0.2650584423031348,0.7404737827712848
1330,-0.6916557751450749,0.8344314940995657,0.8743233526067258,1.0363274690385056,-0.13981982225039002,0.43982669588935996
1340,-0.681620100308988,0.8460446358769734,0.8917250204074791,3.3583228665325673,-0.18643407857231203,0.8236978712194261
1350,-0.6709356519185513,0.8624446634656832,0.9057284459966837,-1.7847587216863237,-0.9626144533690696,-1.5836991455650706
1360,-0.6921374056097358,0.8349476033833128,0.8751447991890188,0.1114617930899573,1.8900331765223,0.7199138399210532
1370,-0.6927782585897001,0.8342122584403757,0.8739540428771401,-0.26645237976429836,1.7547916143143403,0.8306816917153442
1380,-0.6777001861923876,0.84691800672032,0.8852550331275948,-3.8334361233066927,-0.48831698933599504,-1.1439635003067017
1390,-0.6668104617917952,0.8602735508991076,0.899667507143635,-1.8215996704762327,0.40793112341372273,-0.3758700366358487
1400,-0.6853767681816919,0.8448288778188898,0.8867763228101313,-2.082778073110805,-0.9518280764029188,-2.0303310747807477
1410,-0.6768989801765096,0.8472443315434958,0.8927189593517705,-1.2735661330758288,-1.2694990047797912,-1.7407234835735146
1420,-0.6722406331320143,0.8458809763440354,0.8932597744038183,3.994851386520248,1.9395818039700274,2.677478232885316
1430,-0.6902785228101658,0.8320349682368908,0.8752987083011968,2.3870003366053236,-0.4085100265852732,0.9040444972574796
1440,-0.6904756996128223,0.8394621728982519,0.880631198319372,1.9441332190879579,-0.30267894239264054,0.8569177573911544
1450,-0.6722853379258004,0.8594543768967969,0.8994840036647721,-1.261478170313567,-2.8068430118468686,-2.0646148443111563
1460,-0.6657179826759316,0.8639223247242228,0.900456688944597,3.053329556538209,1.9299976649825514,2.19460608922844
1470,-0.6919766092289243,0.8373016435617764,0.8807868532982854,1.3594028681942003,-0.5388477967642444,-0.44581562822783016
1480,-0.668801250120739,0.8648450072455016,0.8982989619399374,1.5620774481986293,-0.4581464100926359,-0.026216843376670962
1490,-0.6603964785481206,0.8741153215200198,0.9063382977255563,0.8947749038203465,-0.7685053432168126,-0.04395364217898101
1500,-0.678023872584008,0.8540850759378708,0.8847150172564999,0.3071667879064801,-0.44939885525399054,0.04437203780139565
1510,-0.6768673267025445,0.853616856320188,0.8957860372002144,1.926149714045217,0.3247581003634972,0.9447682576519509
1520,-0.6918071819505534,0.8483902043340248,0.885818999681288,0.24895263172978288,-0.8887305118168504,-0.43192373979515064
1530,-0.6913241151304134,0.8471287484943268,0.8800902728182556,-0.32488950248498527,-1.1751716797392255,-1.5981330581612287
1540,-0.6438098302243077,0.8922671401406433,0.9252872903180123,-0.9066411354354442,-0.40429525392639154,-0.6774103418215842
1550,-0.6682887130664373,0.8617217672113423,0.9006250505308708,-0.1342610172615617,-0.7691985944698478,-0.0461702985325787
1560,-0.6890564524732861,0.8470482575532505,0.8788306068157137,1.6736634697541746,-0.05306150129590781,0.6376420219715476
1570,-0.6864409274152911,0.8438965061359547,0.8710505174602199,-0.447756818485913,-0.805416949357983,-0.6864716448751436
1580,-0.6923474802014689,0.8436553668733389,0.8750218018996998,0.6633314513543146,1.836358687646721,1.6150029569503497
1590,-0.6764579110498048,0.8708703215304936,0.8924082969301725,-1.466335760033226,0.059169372864278036,-1.07792455509891
1600,-0.6639347431629263,0.8723461664318305,0.9001436142668658,1.7115525537364547,2.5792799830275146,2.910841238126933
1610,-0.6650894029460523,0.8653663805212538,0.9008309977362369,1.6169776290281506,1.680053500183484,2.377167317650927
1620,-0.6660992256871949,0.8619667374708413,0.8945991562586311,0.29647332680592686,0.4893348418540881,1.2447031754648172
1630,-0.6565117000864803,0.8740883390364361,0.9164354955954797,0.45849798022194177,0.001736142682760372,0.8277766280871709
1640,-0.6825223643375458,0.8561265257959438,0.8928612220303547,-1.8481387397555904,-1.4189372636996995,-1.3474290838614802
1650,-0.6828795352098923,0.8592884150336705,0.8870308709256606,0.09167206250846505,2.1492856303801426,1.8917376890961874
1660,-0.6804171422678975,0.8527797098476649,0.8874310883043888,-0.9362042068560421,0.8807883599409971,0.6727699397586147
1670,-0.6611586216130093,0.8686159536673165,0.9072123029330706,-3.021190317452516,-2.660904098290418,-2.6356940205153507
1680,-0.6824160755096093,0.8500376786495342,0.8867150622345421,-2.6849344155401975,-3.3105226754647714,-2.9176300653671965
1690,-0.6978301656584828,0.8328481524146392,0.8723803791944837,2.2495771357102776,1.1955128492497338,1.6667701496291165
1700,-0.6739901190437874,0.8581158219418825,0.898043668613236,3.320249654480415,2.3038090487583567,2.61551126967234
1710,-0.6726973755188272,0.861942981178441,0.8971512249633714,-1.2044885035858832,-1.5328188689872722,-1.4811345701793417
1720,-0.6799292206163653,0.8526657597535456,0.8860431257912679,1.123381208424087,0.7338015584328487,0.6682520843286792
1730,-0.6684255586615261,0.8634620577033785,0.9000320816419742,2.8396585947456856,0.9874179783155062,0.9089476721983603
1740,-0.6751701497150342,0.859475251752161,0.8962267588782469,4.133163653584685,2.2790303606381785,1.9863377885137727
1750,-0.6920588402126353,0.8447461112084352,0.8823378966180943,4.411353506179256,2.590703622284352,2.424082360385303
1760,-0.6692199752606779,0.8621216857549561,0.8995861776253296,-0.23988103716706044,-0.7016987911471154,-0.8886996385796921
1770,-0.65251932476408,0.8826347431578289,0.9167764779786347,0.3925313564087807,0.39611478096202835,0.4323368258479658
1780,-0.66682420198385,0.8648005044300712,0.8967523250034887,0.13286018252757348,-0.4983819327516641,-0.24519107032821696
1790,-0.6424074054870429,0.8958529543505096,0.9226690615398309,-0.47624018011546115,-0.050759118883379806,-0.4663664327674193
1800,-0.6904115554870321,0.8371632232358135,0.8743949707024791,1.884256811686905,1.6387494286912518,1.0446970342606727
