time_ms,ax,ay,az,gx,gy,gz
0,-0.8035926965302884,0.45895346232651296,0.5086054932313273,-3.8085383629796317,0.03211825807105115,0.2186283068575342
10,-0.8407971752848992,0.4126120698359088,0.45481380666798105,-2.0396840965967797,1.9044274833735593,2.4561627392436653
20,-0.8197575931190217,0.41070402517184945,0.48556744789359646,-3.376924054690502,-1.2954576109187688,-4.7219968451660534
30,-0.8053784638101518,0.4224292686605189,0.5012165351277624,-4.480823484761119,-1.0250116440930561,-3.751191631262459
40,-0.8142215346863255,0.41485535021939723,0.48623390460960675,0.2199047654563704,3.95760038987651,0.18220989952095934
50,-0.8030580257310207,0.44378283265569274,0.5137395801014166,-2.2699919976807337,0.3798931905127698,-1.9404396385531086
60,-0.8093896714552005,0.43741292220814565,0.5056379514279424,0.6803967624686639,1.151647245949476,1.4577467011544634
70,-0.8256595771262726,0.4075937693896793,0.4747751088585638,-3.9908109214622725,-4.357248849800919,-3.6222134513870086
80,-0.8105245658748731,0.43189796267968916,0.49676670088596275,2.063384288340796,-0.6542805431347825,0.5765414568924407
90,-0.8019485770424538,0.4357841802843336,0.5089877264559585,1.4208045024566858,-3.0331065915397697,0.858051143707552
100,-0.8290788244396159,0.4094236924817987,0.4710811115926588,2.8627883529012976,-1.4317202473032724,1.8441885767987976
110,-0.7893775868900427,0.44691530827733017,0.5003224958917031,1.5242836136973992,0.38188415179323637,1.4325344957494681
120,-0.8028784486366555,0.429162527360547,0.4869419288752043,-2.878577786411721,-2.1468333451885195,-2.5368797005647297
130,-0.811789445879344,0.43526395340719726,0.5026203636426421,0.9323282878544927,1.804322216564795,0.825385907425236
140,-0.853335850434611,0.38977324124562224,0.45422048787487684,1.415152128114975,-0.9820023813051857,-0.12760303843613785
150,-0.8169393090727817,0.43680220259462404,0.5119591328610829,0.1868791185216394,-3.0683278216566103,-1.5720857699970965
160,-0.8272980276963823,0.42694014107405004,0.4907714313973542,3.0089352017891655,-1.3696433775737156,1.4101542277290224
170,-0.8159230217191842,0.4214306283548135,0.4968554949449095,1.4157489228595155,-3.3778088313168917,0.17624739625778618
180,-0.7893422353354864,0.4266373959370607,0.528332531052021,2.650667587193473,-1.196425001958126,3.884762554163488
190,-0.8036584627299445,0.41328110273238905,0.5324034503408301,2.476806167294492,-0.9858102507998354,4.186161955852943
200,-0.8077741318377882,0.37166287200266585,0.5526143949366932,9.163411241707408,-3.5474177322804126,11.023621930053924
210,-0.8808061508799834,0.3698140910432857,0.605745006746133,5.376693166285866,-12.632639669504224,11.28307818619239
220,-0.8443049939972134,0.3891619690800061,0.5944429814673239,5.803723867575109,-17.139127385188157,12.499021175571691
230,-0.818955112326064,0.48285370221969115,0.6913480600594266,9.355732988170313,-14.744152537946205,12.007496722608126
240,-0.7842030705433287,0.4831178962754631,0.5759042991291939,4.6039706953753265,-27.91345586383416,14.535160546500165
250,-0.7081942553537055,0.48323423045730424,0.5907723853660765,1.0371934711566104,-19.10520472646821,15.076562613748932
260,-0.7455228947656287,0.4057897024144924,0.5987877658325176,6.864915265316613,-15.910442517475301,0.6691825354168981
270,-0.8257708371598638,0.3726784477626565,0.5373965274461397,21.624153132626443,-8.762358978040007,2.338405364903104
280,-0.8327135114672503,0.4161084249552043,0.5149123018357621,23.963830206025435,-10.896848013144862,1.0333319139836679
290,-0.8122407506713614,0.4586716240087406,0.47413377491645076,19.831782031047087,-8.47241480742307,-0.2568223411143953
300,-0.7363634711503443,0.5233773764821622,0.46067751405342183,6.736864360588451,-7.674745153467654,-7.631359752207497
310,-0.6740027957765475,0.5287666038147183,0.45734417856758625,-2.5672246026097203,0.5828641292506556,-12.496470495241693
320,-0.737788386712557,0.4226228973340974,0.4518127208832958,-8.644513746294187,14.130298405602073,-15.10288559238956
330,-0.84096266765359,0.3891682062243628,0.4375485698280605,-3.6854465089869883,19.364333207378365,-11.468075274515929
340,-0.9360492169772119,0.44127428649291117,0.46186485003317235,7.447248825636754,12.10659339447135,-3.4286976646048104
350,-0.9589744767955464,0.5464651655528664,0.5331937545174289,7.789543284314903,10.851873485950575,0.9012315424086597
360,-1.025172317352899,0.47957794715691954,0.5438209422285815,-3.8693192144276893,4.148201212367871,-6.610304429853185
370,-0.9356299150481087,0.43426800979444097,0.5778121715495552,-7.7795251583902845,-5.451399650805298,-8.405615879102722
380,-0.8370399571023724,0.41356325505303854,0.5787486595816055,-5.573692377685943,-9.74254793573649,-4.432538686111521
390,-0.8642729175337853,0.4383459334822091,0.5522532256622428,-4.288914117587268,-9.855507742261782,-4.529712094756334
400,-0.9186622422430887,0.46869333657123835,0.5445864124159842,-6.32291722935214,-9.88198367360806,-8.615160478502421
410,-0.8969042427216858,0.41904704405076354,0.509788129015203,-1.9990538786369352,-8.535406102294438,-6.308816864117695
420,-0.7963958370506297,0.4160555594086727,0.4842316866604228,1.7878425256466173,-7.653118134321352,-2.823630233782921
430,-0.7424479269187805,0.4427804409060987,0.5153591985621637,2.947815111775988,-2.514269623902963,-0.30795611992091265
440,-0.7814911719082771,0.40040824257061436,0.5077340351429089,-2.3417460446231173,-1.9830939811622195,-5.073508728136943
450,-0.7388440387920369,0.444751075858931,0.5705060008833388,-7.286205654090539,-1.3372184244657412,-9.42471988050202
460,-0.6737241250982907,0.5030433395823106,0.5702294650061198,-6.153890189700798,3.3583572934820642,-6.697717891422582
470,-0.6523878936051838,0.5440083428718689,0.5625011006178027,-7.096732534524195,4.150254416716029,-6.570902914564979
480,-0.7570689064286338,0.4600992076258309,0.5328481291692113,-10.218623781143895,5.312756171370901,-9.591593227309076
490,-0.8624584363980226,0.3409905489497052,0.5489287819569773,-18.005090985521562,2.875690314198441,-14.045025649758912
500,-0.8736239165707728,0.3635637449971322,0.6081858784613542,-9.313831861005267,0.6835698605924186,-2.89534982606531
510,-0.7935839628588728,0.4094801180205422,0.5296737151328728,0.8841392337017461,-4.35054639880443,9.742102380135407
520,-0.7919597403801695,0.42207674730435457,0.5315861401790855,0.40488662503433703,-4.2039746062909575,9.56181301901928
530,-0.8148201137249648,0.40006654753171955,0.5075730715445249,-0.43632133000615336,-3.8522834771673264,7.2793568066259144
540,-0.8053699526975729,0.4236588273379403,0.5153391330720065,-2.3024901015285244,-2.2076574839441108,2.85958114956419
550,-0.8065507313012521,0.4261114997400421,0.5177861896499679,-7.336559523721179,-0.8161164988788905,-3.7821690688709912
560,-0.8380738216576328,0.5083000421132702,0.3981353929399828,-0.472113888154549,6.48305962046543,2.5379116024206065
570,-0.9038408671561267,0.6392983831797321,0.1645549905266743,15.312851316866,20.133897837168277,23.18772547157296
580,-0.7912100084669501,0.44901778460646435,0.5382679985069673,-8.687451402545767,17.31874409869396,15.869963544506994
590,-0.7577349245864271,0.3563817101238441,0.6924098077168228,1.2138781702532924,22.44396299656296,20.159017938957415
600,-0.8362410567034697,0.3646989876338279,0.5206570381801945,3.656997302405825,29.643924983113557,20.789934997288064
610,-0.8000797797784072,0.37054013812131353,0.5194365594746173,15.498047775912678,18.02300285004116,14.115578489819669
620,-0.8669421692434979,0.4672542293383185,0.2694285493001999,1.355409746903085,20.351604880711516,13.325327996066802
630,-0.7839477685725909,0.47991010152944347,0.3818609285773039,0.5842724956050649,29.840848795257976,16.01974845299133
640,-0.8397619287425129,0.5051306990261407,0.3387510743530464,20.50266714679872,15.735806745175582,15.560344619352485
650,-0.7676995190581695,0.6020917050385672,0.46253093292700787,1.7368996330852962,20.500860550367072,14.133423959267231
660,-0.7639743364326042,0.39895051311960694,0.6179556886605528,-12.069788708070776,9.482975537416083,-1.1605625920796308
670,-0.8525185886036527,0.4196977146975097,0.42925428792206477,-5.628637117101811,0.012752161232715498,-9.163932409141564
680,-0.8559315853328534,0.5403052436677763,0.3027520347756401,5.107554303571637,17.753139685285632,9.202162077088184
690,-0.7997553870908379,0.4161000566135098,0.501627983497454,-4.484982633909881,-2.5048625143012813,1.3817743583017235
700,-0.8181873416281384,0.43000335725467953,0.47913491154043586,-2.599629566699895,-1.728036812965067,0.09711797814868489
710,-0.7961130414957468,0.45271411248378984,0.5069815499786917,-1.5946004359850865,-2.266595534523865,0.6238941048032992
720,-0.8372743132031097,0.4133647907521627,0.46254295998049444,2.2409839887938485,-0.24052316932488815,4.453305254261754
730,-0.8372590533407828,0.41726059659666037,0.46011569072426955,1.2639570335615464,-2.402732569633891,3.8399577754892604
740,-0.8278191983750622,0.42468836214623634,0.4646986511748101,2.4367816968000193,-1.9723175310948182,6.381173279061194
750,-0.8017338871362136,0.4619994676952056,0.5041588341556561,-0.5212065003032316,-2.2716720538521638,4.15047095648987
760,-0.8099242381837436,0.4084714722620636,0.5332485377608972,-8.1472102700856,-11.01932051162278,-3.5230640700646854
770,-0.8436991624251055,0.47609693543321585,0.47254734741482857,-2.699272652282252,-7.753234353925614,-0.10577836084354086
780,-0.7867702868522848,0.3709765397733267,0.5591173853253508,-5.374247871397424,-11.385341512243915,-1.9732892449716393
790,-0.13454602853994366,-0.30256851092001447,1.3408761199804877,-39.104545604627326,-46.7978759276476,-40.499018665535026
800,-0.7139821803865746,0.4447901430337215,0.6368677891531661,-27.393361820682646,-21.257519556103045,-18.0348715775401
810,-0.9012204974842248,0.4050430127987884,0.287868856771071,1.8890066741600273,-13.301184064672842,-6.8231055161200995
820,-0.775978435910871,0.2735997475021184,0.6443333287705479,-4.334527038931371,-7.141392442815438,-8.762546718141843
830,-0.6449426994484475,0.2623275549221915,0.7833600296904994,-13.038676659317657,-25.041252578036286,-17.948354158907048
840,-0.819828685306503,0.3876350571695197,0.5256893858226963,0.13842493943823087,-14.854152960871655,-2.4581199986645883
850,-0.9542008016718115,0.5096547088430751,0.30529707533245454,25.023137666843237,-13.43967553354247,3.983110158815927
860,-0.4569071636200283,0.3084428016167763,1.0309531783089312,-32.19548999296625,-24.90867280708308,-14.91636455713566
870,-1.0997198253998595,0.9746209096783339,0.1358419702957952,9.8662388552447,-17.97363590058735,5.785920060123149
880,-0.6142008167454251,0.174208368373662,0.7792910250589536,-25.412870565001516,-16.350118437480084,-23.423465604513964
890,-0.9079312323872417,0.7621639180345102,0.6688833002968908,-1.5658423110709623,-13.740627023461187,-23.395728304791177
900,-0.7798839335452566,0.46092510426719396,0.5472037588656863,-5.6823745416689775,-9.407359556113075,-10.277958710948596
910,-0.6980238416178431,0.16444409075769315,0.6014113916556256,-8.206296863263457,-7.9610300788749555,-35.5670395768719
920,-0.848848166299351,0.47046242751044076,0.5203423322701399,-3.757092844174108,-7.171316125201524,-9.5611251916489
930,-0.7024417304586394,0.22553423272926737,0.5991047970022878,-1.3415057637553518,4.440855082588678,-11.740907729363773
940,-0.6778398997551576,0.0459949628270539,0.28302750209084904,-15.170582115390266,11.765837074875918,-23.21749476247302
950,-0.7868468431479319,0.2869004766219642,0.43884396485958094,-15.357753484032337,5.09306076811842,-2.539487248505952
960,-0.9308312352573969,0.6378615053526565,1.0581140909322686,18.775647826666475,33.18350281093229,-36.97854584145153
970,-0.8529817152195108,0.33329987937689376,0.552067239329625,18.172932066991855,24.179318454479876,-15.943705943211949
980,-0.789414233890743,0.4535148257142343,0.4775233858805049,14.168213356563129,26.342458241753718,-12.230588516539704
990,-0.8367637699603543,0.4250993823634703,0.3438484937609447,1.2653462187980073,14.853639091215888,-16.33838339353295
1000,-0.8041157712748974,0.4250580971012704,0.5489944453102692,-7.44149603963322,20.193575327746085,-14.881695063675693
1010,-0.7736740514423672,0.4108698517379749,0.6633397480180877,-8.575709807816477,17.290626944373667,-9.255367997451065
1020,-0.8340253387508465,0.4570612915342733,0.44419867049135175,0.19729714558102573,19.782316173554435,-2.3523046688990847
1030,-0.8377789798277167,0.4080657404583051,0.42617171154666805,-2.925039011893058,12.4028007568997,-5.658162066548982
1040,-0.7203253190196298,0.3103192094430149,0.6435493150398415,-5.713572257219079,20.096057595803842,0.8007097253007649
1050,-0.7592694758838244,0.6239590236217136,0.6088422299994057,-20.26156075762293,14.349276364951567,10.684612150551555
1060,-0.7984415713303635,0.47048594518329795,0.5177059311322223,-37.45744535774598,5.761591175092931,4.713989960618668
1070,-0.8372091870298287,0.6486467903626492,0.6060560354763493,-18.31707786123386,0.9769739977492076,20.49279104898991
1080,-0.7522003718985305,0.34658119084198746,0.5904083557709496,-21.656903281827393,6.345197152034048,-7.9392833945357
1090,-0.7629546532997395,0.23532110827470676,0.5456897604957471,-25.986053784197225,-0.5940752090424478,-7.525352246684115
1100,-0.778322723229415,0.577988152281149,0.6330270589091505,-1.9666356199293782,-3.4738192035375333,12.415894315180049
1110,-0.7473365941399684,0.032209709587883016,0.41545654243142927,-19.29180543030135,-5.6599315852463725,11.818939886503006
1120,-0.8111045414528805,0.04711956917058375,0.42489157884565504,-23.01279937020769,-4.768444507502115,16.069930656333888
1130,-0.7990138699950942,0.324531115593171,0.5356059518307394,-0.3209273455676919,-2.109270559788785,6.929044274194794
1140,-0.7701132264161868,0.3407690204790799,0.5219660088326513,6.028954781140077,0.12179388046304487,0.3762645157285117
1150,-0.787269130626419,0.37364015570637393,0.5123763063943064,5.483876149207845,1.7403513419624324,4.2205151371315015
1160,-0.7947115396529889,0.38225503994141247,0.5082263162533478,3.209649625296116,-1.3887409302778915,3.070943622594668
1170,-0.790694189039405,0.39533171718570137,0.513302129387923,5.835961730470618,1.4310618282348888,6.636510622375408
1180,-0.7770378103979068,0.4100363510595525,0.5258407430047881,2.8084592983672265,-2.288433202283659,4.064746299016655
1190,-0.8094624581772726,0.3775654366112543,0.4968371821381559,2.1134264915731586,-4.25402581323308,3.7808033430690955
1200,-0.7949265436049084,0.39762194973536075,0.5145282959214503,5.200598666809708,-4.549011677983539,7.305790819508885
1210,-0.7999455695986495,0.39018479938333767,0.5051571213552308,9.141253415925132,-3.2744333045052096,13.546131494200846
1220,-0.7967573526335255,0.39069175580397575,0.5060814252430557,4.146932073355702,-7.572880979398122,10.657340365869626
1230,-0.8180210277385515,0.4712627458623783,0.5853396190768451,33.501334060272825,-1.5287354272022888,0.7334015878172471
1240,-0.8038782294932534,0.31669715741005083,0.338131385003063,39.84959535483571,14.569879653031252,-14.207566033979251
1250,-0.7748560602466488,0.46042523056894435,0.25265327871954335,18.693373025554614,23.23281789804973,-9.306520061841924
1260,-0.8742251519522299,1.0199466034531548,0.6612338854140039,31.915937473835932,22.9939149997392,-7.091463029997127
1270,-0.8767355335851026,1.15774048321349,0.6030626507862409,9.644995273519577,21.76093311481973,-6.769216894894344
1280,-0.8557608155353991,0.9315526090042062,0.4485663603933574,-18.697125062489956,5.824700817960146,2.1463700858408905
1290,-0.7929045297028752,0.4624593828830591,0.5364303019167439,-11.274751514171555,10.889524788463389,-7.9857301941930405
1300,-0.8422102251071357,0.34164220265638406,0.41794610132191456,-3.580424140556926,18.62845124283038,-12.864413881908048
1310,-0.8393455822964501,0.3824677079160846,0.35746590077018253,6.912730423019466,20.868918292893103,-2.6249427613378744
1320,-0.8229069539747855,0.42283375806170015,0.4296622034659991,-1.7148955049736652,17.92601171153501,-6.379303095619722
1330,-0.8202526764443081,0.4510951174734783,0.5953814177337016,-12.637834175930864,14.104614700486371,-7.945877464259295
1340,-0.8121474911391995,0.4519178564547547,0.6572815493876597,-16.302460547321743,15.185111485307932,-8.55059567137186
1350,-0.8403286372944279,0.36476940658740536,0.4216674451310516,-13.591259086568344,13.147783741204407,-5.471586036090105
1360,-0.80208689966084,0.3148709955624065,0.5430968640160811,-16.801448797233892,8.89250622749334,-0.04382974785781829
1370,-0.822855747034187,0.45119680307274174,0.5193618419866377,-15.174462770651326,9.521883114115937,9.120039960421067
1380,-0.8006263256343826,0.3427690353068126,0.4187833697802116,-12.584780172321286,9.41706140704061,19.99914851175197
1390,-0.7553643144573451,-0.04852643252227039,0.6097064739841583,12.45829770204474,1.625680119534885,2.333596621101699
1400,-0.8086022516483932,0.10601184699828328,0.4923365926948227,3.066227843340956,4.477760923153969,19.407202107030095
1410,-0.7766676884832561,0.07468458435671557,0.5822747236097514,-41.357249652488235,-0.6303429842111408,7.355960151667194
1420,-0.7506710619181608,0.2001236100116042,0.5884047614608481,13.50282739998302,-9.369606700719086,10.405067104272677
1430,-0.8061002662801291,0.7964403197564132,0.6631195258963944,-32.93963144648488,-17.26483888427285,38.020613729619505
1440,-0.8476574193552857,0.485945440982169,0.5466718539765052,6.90178021080757,-11.745844668027699,6.324703867815343
1450,-0.8065896151622598,0.3209748768047028,0.42512196622613635,10.278179707190525,-2.999200583904633,0.25383661916282807
1460,-0.7996140564592347,0.28660134263797177,0.42947226609364625,2.398292581916701,0.5277551059480277,4.161135497215996
1470,-0.8482474098071908,0.3737575001596629,0.39077403190183535,3.8758414046835195,0.04895792638525043,11.858088011233521
1480,-0.8318184773052566,0.4377060032371494,0.2552836877570786,-3.035000309289149,-16.920930562610405,4.440579004099995
1490,-0.8038615197456896,0.382514516918409,0.4589594927712408,-3.5923229230158675,-18.82398238651651,-3.278513751668889
1500,-0.7336685677634736,0.4225209407252547,0.7710699921827202,-11.014087821062425,-25.041278639020746,-9.567522067935808
1510,-0.7860582670248464,0.30765383560497245,0.3419984455463175,-3.0927591949341826,-31.61857297280673,-8.208149178926327
1520,-0.7044194923506667,0.34275092169339244,0.4809318463573848,3.930679184207642,-32.154610909818885,-4.318455846529892
1530,-0.847007275234057,0.3790911483716007,0.25857919049104194,5.3318838112447535,-22.065573763584847,0.07218149174799299
1540,-0.8190009814937511,0.4009572685913935,0.4364188879340694,3.3333724675958454,-10.987805773484252,4.059003305872521
1550,-0.7935720156492385,0.3315559245800935,0.5607996005084233,-4.371177664999221,-8.281861773927437,-7.400434665348459
1560,-0.8259608206506776,0.3769386784097719,0.47637300300128327,8.365344539699935,-4.219275028424662,-0.8494347507629061
1570,-0.7983659848873533,0.40552415159471406,0.4633808579469843,6.399519945333266,-8.540232608148282,-4.277613642397823
1580,-0.8147481129889894,0.42467295501783264,0.4831895626570158,0.9541883083863181,-1.642287147229499,-0.43008710631737157
1590,-0.7943301918212887,0.4042834926954462,0.4988923735494017,-0.9932188785753078,-1.6635502045174473,0.020627167999987428
1600,-0.7779210922883565,0.33692861624408776,0.5508156736060905,-0.27708510640165174,-4.946439148818333,-17.76217087502519
1610,-0.8036544820710272,0.4563722325319706,0.5174598374294974,-3.843988209328646,-3.977407314283906,-5.975404040412939
1620,-0.8125924433673166,0.4070448250706865,0.4858145709973098,-0.38826304298109504,3.2261791664446307,0.43485468817806544
1630,-0.7864180703645907,0.42850611380045645,0.513314889769272,-1.7275040504405124,1.4194956416535003,-1.8206986383260255
1640,-0.7764527257163102,0.4370680185651469,0.5241323969143296,-0.3070437797785225,-0.09678585025095021,-1.326872910135902
1650,-0.8010150109777389,0.4076167639998092,0.5018892533445098,-1.7088605770715315,-1.4110905187522396,-2.850811195677328
1660,-0.8080036758875262,0.3980845234663927,0.5042519061556443,-1.702994215381378,-1.3285348264273233,0.5133142931275361
1670,-0.8170279457620292,0.3783845196463516,0.4928400889257146,-3.506508895285813,-2.313040820112912,-0.9031010999677551
1680,-0.8149304989166529,0.39418123232674174,0.5011193741703897,1.340800660655138,1.5098719313688487,3.037111073870414
1690,-0.8239874282096538,0.3894093489267514,0.4795259018095455,2.1465441982557287,2.8705472283867843,6.2939591756133275
1700,-0.8342017158832911,0.39456406506796093,0.4465840687075843,5.854648097025343,5.523859747375944,11.847417948166665
1710,-0.7846077199404066,0.3620651071395601,0.32591334944405786,26.60499838369215,18.71618567356119,22.56710265085022
1720,-0.7092804660693283,0.3928922668550333,0.37990157955399534,35.774978696441266,-21.397159595196225,12.291989414493214
1730,-0.7058306035542162,0.49420824757387505,0.4810699501084496,33.14369729332753,-17.761376840451597,16.46817463822837
1740,-0.7312889428264815,0.46143838050429226,0.5199959341317542,18.17328270445534,-15.331317119703732,5.875295862867598
1750,-0.6969495317612964,0.4990191557925324,0.49602958908235895,9.203868888524832,-8.065251182795398,0.29222202699347943
1760,-0.701160353260384,0.5433674841146365,0.5351072216319078,1.0912292220568818,0.48425311577392893,-2.713866777480442
1770,-0.7781696534253737,0.5043319927814248,0.5557586022672428,-2.3709649711371883,5.956935517161761,-3.408792748741985
1780,-0.8138274716738161,0.42785747672641017,0.5162529895029472,-7.475936821489435,8.372799191390571,-5.708165925852675
1790,-0.7806350227142094,0.4437413939325412,0.5417151140011986,-2.80599498559663,10.189586665604104,-0.12783519096908913
1800,-0.830618088955046,0.4029859290180421,0.4989021796510282,-2.3139742733162354,6.84530673593968,0.059599701092910906
1810,-0.7910706720315711,0.4264572135039147,0.5125767379568855,-1.9255826970347634,6.785135083146761,-0.4672772275568311
1820,-0.7855444273742666,0.44536552557569503,0.5152651804153184,-3.701941159900598,6.034734174034724,-2.345162410481808
1830,-0.788154990125803,0.46780250997503914,0.5393938542021944,-4.787689771797595,6.121812726500175,-4.217393863574274
1840,-0.8332874281462427,0.41412433003256877,0.4893847913149488,-4.50129822702337,2.8587074942802944,-2.0686173904938463
1850,-0.7987327484176886,0.43204963110794736,0.5148979383950678,-4.897234373795566,1.9684955473598402,-1.209346983985754
1860,-0.8138812171546291,0.41050051423162004,0.5085947633335827,-4.642177931357441,0.547489398246185,0.06534768371211319
1870,-0.8214476587496006,0.39697001202071497,0.5219017488183082,-1.4522790658569174,0.7890034607263712,1.72729715760008
1880,-0.7985909081832692,0.40435817656203393,0.5176159626268305,-1.7644503339242785,-0.13028538156436303,-0.4376708268652602
1890,-0.8044158217423434,0.4043276561665642,0.5020261286378297,-1.3141938160647442,-0.06778677005566847,-1.9658838307971025
1900,-0.8025348557291382,0.42994320427002775,0.5018706367853688,-0.42596584007797494,1.2669254009042037,-2.857742026917633
1910,-0.8138208418578046,0.4306020920901961,0.5020922469057387,-1.531312400653543,2.0403371236519274,-2.871778563807389
1920,-0.7937366897574636,0.46143144614995046,0.5319937194410985,-2.449969533568205,0.7193819623264617,-2.547933373154996
1930,-0.8177801854264772,0.42015899048808936,0.4951041365651399,-3.060563438554547,-0.2806797610964339,-2.025995740129807
1940,-0.7926253457977701,0.4322651203897541,0.5175366259736528,-4.1786211734286045,-1.4953633024137045,-2.5948270131296747
1950,-0.8266514125925679,0.3959852529233181,0.5021664715440638,1.0487559190571951,0.935833350418082,1.3103837749134182
1960,-0.8102107189729917,0.4173292652292611,0.4920606200627113,0.7958887443673888,-1.0054229359215527,-0.6839962570070408
1970,-0.8049193590305251,0.4503473076286979,0.4930174005033751,1.1570081125717657,1.5043266942153877,1.0468626467031765
1980,-0.8150082634273201,0.42252827218748507,0.4819992166479181,-3.870145452964083,0.7271855672201626,-1.4808459180015618
1990,-0.7995793414945556,0.4153280542478485,0.49476621313034824,-8.387966512489943,-1.108190756647983,-5.968938754321343
2000,-0.8137735350201801,0.4094193593005987,0.5207248664883692,-5.289695254011521,1.4186864900510043,-3.447434448310877
2010,-0.8363421403567902,0.38367406607145055,0.5069838649697364,-0.782339257324308,1.9871776796648641,-0.5778369441744045
2020,-0.8083946313443071,0.4205105179923396,0.5023257347055063,3.0768834228580833,2.194754432736152,3.0815179532758887
2030,-0.7791354022395075,0.45588888860066373,0.5135046773220622,0.388292689513712,0.6972078341378811,2.0815509531298306
2040,-0.7918433924749269,0.4439825661565561,0.515275166903695,-0.2969732216575698,2.348416910584817,2.060747500053808
2050,-0.8262547475154647,0.4014204407924923,0.4848462353273748,-1.0870901826810584,2.442599786815409,1.505081088292509
2060,-0.8182676923267714,0.383653657748574,0.48774653515468,-3.07745696374824,1.1019849984031374,-2.4476240475328326
2070,-0.8103032265426389,0.40178967760159434,0.5120112259196328,-1.189395766577632,2.130218581151497,-2.303743276956653
2080,-0.8090327648854607,0.4299008838588614,0.5179748385063563,-2.111315370744759,0.33154298693603057,-2.9523623745539194
2090,-0.7901124172361227,0.45543751688844863,0.5203004512337549,-3.0078963150474483,0.08492387051135031,-2.132705856401728
2100,-0.7933928070572676,0.43308017859412223,0.5018822143331463,-1.7849520372696763,1.4099206248747205,0.5233034802376724
2110,-0.76860164241476,0.442198199582878,0.539923571224537,-2.1366392560801715,1.8345023112291565,0.050000120244306195
2120,-0.8240720037709499,0.38857048748020845,0.49499408879550577,-0.07508590118264657,3.798457728159309,1.4043148107785337
2130,-0.8085548122010195,0.40595322546583207,0.5182787843609957,3.4093794517763207,3.994728021094863,3.9565910144139926
2140,-0.8252180527558847,0.39851561583135586,0.4901208104599126,3.4113180010273467,1.9861378043066138,3.284326434253126
2150,-0.8293205416136489,0.4080430122023179,0.46636997862119856,0.07047189821667987,1.864216958112955,0.7750719872621343
2160,-0.7796648600833491,0.44711379585392913,0.5219099727175767,-2.670842880629467,0.9502315749165675,-1.3421454985968175
2170,-0.804434639573566,0.4177260358682584,0.5139786719545301,-1.191249436795687,1.4239354138548024,0.5622320660400246
2180,-0.813067494232081,0.3981723672008741,0.5056482987810712,-1.5822929495339042,-0.0519441757682044,0.018955563401313463
2190,-0.8253747059783838,0.38705390911877907,0.4882531920115342,-0.5459924080374532,-0.5520738965490408,0.4069290444766996
2200,-0.7827347313074806,0.43354047456898936,0.5123647324881921,2.057384508127967,0.982342056533587,2.4754184144980496
2210,-0.8010260616578734,0.4361296317612405,0.48875391557798403,0.07903070718011651,1.4125100207349495,-0.5523827494999209
2220,-0.8101979493149276,0.4156444125590811,0.49841274482753534,-4.580017729163361,-0.611524406404161,-4.01851153708863
2230,-0.8047756054016303,0.3865028984304893,0.5034226146335329,-2.121775498850051,1.1930064276403631,-1.4450116212060324
2240,-0.8019473471092952,0.40031961208575534,0.5087079412356191,-2.8861783549493767,-0.3767340368167582,-3.408461738120244
2250,-0.8070224136283675,0.39200505365086913,0.5144093328036002,-1.7307574041505536,0.5317771227293473,-2.0455559641808563
2260,-0.8047287153042856,0.404586448390066,0.5054581824573386,1.9159168867089926,1.668135466792291,-0.49603236503098924
2270,-0.7962897477288368,0.43672668457217806,0.49572566418675035,2.024890215473457,3.5815712732389042,3.423527126478995
2280,-0.8008610182643522,0.42617794738445025,0.5032640273287284,0.4814451231529706,2.4431505018728394,1.3773994586210865
2290,-0.7937753743485169,0.43005205267297186,0.5300075153248023,-1.2013741707048373,1.8355488761233847,-0.16707931391980124
2300,-0.8099952658323805,0.40721192566569875,0.513743096442791,-1.894898041326106,-1.5467063680810427,-3.61907172010328
2310,-0.8501614152185251,0.3577390414917875,0.46258537543729983,2.8506148323050398,-0.8004867890680711,0.5266184074411302
2320,-0.8095557938538671,0.4006731535935692,0.5066129861458435,0.44819301210802065,-3.929437891829859,-1.158823585652463
2330,-0.8064264504518367,0.4367790299077315,0.489811298016328,-2.5311138597432827,0.821618430138937,-0.6044335613776392
2340,-0.8140576190227355,0.40231497692041335,0.47603246614209527,-3.763862035681582,1.6509076252192936,-1.3406738409242938
2350,-0.7972102482021934,0.41224133898502985,0.5076801487250936,-2.9094847965623147,2.976269366680766,-2.5528672395384335
2360,-0.8163505276520704,0.37382779006200206,0.4984721781644153,-1.3336458075724351,1.0993894522064276,-3.259347105344629
2370,-0.8076214770237755,0.39393814837020863,0.5002788858703695,-0.5098839070604042,-0.945057210688426,-2.591140320937694
2380,-0.8224129061270354,0.3832870298074718,0.4999415169313533,3.2437746160835053,1.333167284250917,1.69289706802271
2390,-0.7825260944318339,0.4470477036675626,0.5064177824718055,1.6097788766208592,0.3553507957994624,1.2211987183550215
2400,-0.7757076569696048,0.44221892193954043,0.5126628374203257,-0.8723328213050062,1.2384049967889004,-1.8367455364629528
