time_ms,ax,ay,az,gx,gy,gz
0,-0.9399346616024998,1.2195869885152626,0.5545200736507231,2.2081675351663157,2.360742247511368,2.549061471211891
10,-0.9775093599512221,1.1930137169602113,0.5206269503588361,0.1800584071836746,0.18738161987518964,0.31929596338228317
20,-0.9100682348475615,1.2538791352424354,0.5732935505413268,0.9410124919694023,1.3917975461612175,0.5986032188722281
30,-0.9333141131275374,1.242503044804328,0.5581607184006221,0.8566804976354983,1.099280193676837,-1.1268559176392188
40,-0.9649694053945512,1.199272093041974,0.5363408461485885,-2.149257416279325,-2.0820974418281764,-1.249486995419437
50,-0.9274704970440201,1.2330439843298566,0.571339330163937,-0.5596148308395084,-1.078201166585559,1.2857306591701272
60,-0.9500532113394321,1.2149528339395002,0.5291990961369074,-2.251446370673287,-2.3082478217758786,-0.8951222367414171
70,-0.9383292148948236,1.226045073383905,0.5516341800068681,1.2978407119585504,1.2068063301212004,0.65079250807656
80,-0.9325711778395857,1.2278981702224612,0.554324899429856,0.630599930851127,0.806901525021595,-1.1483542997658271
90,-0.9369360182699369,1.2189657108541712,0.5523773749478453,-4.3183699260522515,-4.155519496091765,-5.873683335787301
100,-0.954939129243124,1.2086139192929097,0.5395537702891592,-2.432938436663678,-2.183322462689486,-3.0620951991313845
110,-0.9693479482954118,1.1898502553044055,0.5194097615135187,-1.6253937519377466,-1.2753816510175549,-2.5724720594670742
120,-0.9398201817506865,1.2171877012634795,0.5460880724184957,-0.29775342597336796,0.09242015018511973,-1.1910672657230903
130,-0.9448119680829627,1.2155775778138638,0.5461944914407149,1.173815080111332,1.0079333549061265,1.066742759165099
140,-0.9217066472266896,1.240875738032832,0.568467835073148,0.2917479456268401,0.10930063789595469,0.4086320206587113
150,-0.9418527972427985,1.2206498491620033,0.5493332019716007,-1.018567580884335,-1.2110435703634868,-1.1103434323285764
160,-0.9604598034651399,1.2296687836265932,0.5616211030789483,-0.16723429459921713,-0.5291063044074409,-2.859740287963554
170,-0.9727192547954016,1.2557815362676656,0.5735010808639778,-5.844841137405839,-2.3836257476058558,-12.992455027320675
180,-0.9488574840662368,1.2398492964486365,0.6083107195179264,-17.3427756068198,1.276456523510158,-17.73269904012532
190,-1.0515463341449884,1.0777474806289036,1.8828782239110682,-43.824527585156744,-50.136718833490214,-36.20074790038335
200,-1.2363526744965874,1.481865098323587,1.0411828095968607,-48.24957951783831,-69.98580511001782,-55.60789052165311
210,-1.4717291971767341,1.4952033842940287,1.1195873651832489,-46.421167186185556,-90.70461892459075,-10.570484705112817
220,-0.293483949593259,0.8579668795670942,0.5961766237207267,-56.81807179639461,-92.71430452442722,-18.49226508806279
230,0.0777148553313339,0.7431837615688717,0.509986450219867,-52.810494895036875,-60.76839622342987,-61.13660314153033
240,-0.1540025824255395,0.9325430340987699,-0.8678472305295074,-40.72505587871271,-21.830084353863167,-101.86877746435066
250,-2.0422872297173944,2.220083930456478,0.7354263646868432,126.50960152033396,46.69170209813937,-0.27904805412620215
260,-2.160837090056734,1.3450637911405605,0.6525944467385598,-26.071665210086834,3.167737366084338,-11.23674689719505
270,-1.1711772972793637,1.200497343183179,0.7057941453732014,71.00814539387535,26.97359235225805,36.913713608451204
280,-1.2343398968942394,1.0390434317984036,0.3871988378465513,92.7567657324404,35.57001067128465,17.404559474221244
290,-1.3240769791601856,0.6116481190891438,-0.4737476929882786,-5.063860480795731,48.9412647301145,-44.91552865889697
300,-1.21574434307424,0.8030006931843916,0.4782620612436869,34.289390091137804,58.83124559100243,-43.70670890918014
310,-0.7759052159138524,1.128224258458487,0.6321534945221556,115.91243556463213,68.24905651733708,1.0057410930686776
320,-0.6982038008017688,1.3346997995767338,0.27378356428707584,85.20745526645315,64.51076469104822,-0.5241926967391006
330,-0.8245040787720946,1.3738166438934198,1.2916615779762386,60.85857916786384,46.507132316716365,17.420700411393447
340,-0.9239301239086617,1.231090905485814,0.8910436026891773,5.340366343386975,13.513184897322747,-5.183358988491957
350,-0.8147041162129887,1.3818350183759067,0.8759021869450041,-15.387787909524837,4.648737609723513,-8.480805549930162
360,-0.9637134110758384,1.2518254135020686,0.5929189444436465,-79.44037590065312,7.969293590456113,-4.863031798617932
370,-0.9242299172391905,1.2909325544848198,1.133055140125779,-85.65827335141388,-10.746318274261233,13.813965805405017
380,-0.8090518535124107,1.162126932553898,1.4539545769949198,-56.164562140446975,-47.33441777301587,24.503204083373102
390,-1.2507790643112917,1.0695198354237774,1.3197279657142587,-107.39469202259266,-74.1997009200936,7.1100010911944915
400,-1.4315567860993668,0.7675213920798964,1.279059413304392,-75.69424610618437,-52.656569134324016,-12.559986694594588
410,-1.2666429364891447,0.6966223362008218,0.6477865520320146,39.09746406500532,-5.232513481965366,22.274808655566503
420,-1.0295073029292372,0.961172759446554,0.6050174800373149,55.47914652129894,15.090144073174704,49.602413851164876
430,-0.8347600932315682,1.3738591330407084,-0.05080038687827658,49.47958606649066,6.6237450811882255,51.24015293930023
440,-0.8471448581398295,1.3237789261847988,-0.26923496651235157,68.40661278440153,-16.84128812682361,18.956120964703153
450,-1.0663186061746182,1.539924395990868,-0.23895270238792496,85.42180978675815,-32.37607993956402,-28.76654189876169
460,-0.8522288664689692,1.8197054563967516,0.0303302942807678,118.66925395679905,-1.447872963199066,-29.179487445278298
470,-0.6093715353351096,1.919982581535551,0.4471664369674673,92.49923792348501,13.071348050506657,-12.164799483249013
480,-0.7322680694595995,1.729411425882995,0.779434707397739,23.47715240236338,11.032410852315437,-9.839527994351316
490,-0.337820159824796,2.3263165549666,0.20679522918995186,26.299768547720912,34.68460961142128,35.0331525215374
500,-0.7849781930375739,1.763532080029077,0.6441761164841602,-5.949863757426344,53.00224434789001,55.24957610909464
510,-1.4356585875997534,0.8961269293062148,1.689221951974929,-52.599858819878506,45.754174236619235,40.43353186834318
520,-1.2275385783615096,0.8708145518090289,1.2302316320262074,-25.77518151563461,21.823855057917328,15.951726668230013
530,-0.9824559622487095,0.9933376126352698,0.6291387127271728,10.372571552652497,4.766049225855716,12.570828854112321
540,-0.9339286081288011,1.0715730751125958,0.690595274992177,27.482087665357632,7.248359581989869,35.92207993466699
550,-1.1515524572748168,0.3789500165543225,0.892243497990268,17.535580424897013,-8.292893313985987,5.409914426620743
560,-1.275640330645431,0.30499712493431846,0.8385024578693807,115.39638527794722,-37.912239127066556,-24.04105968445396
570,-1.225808253481856,0.9754995147418767,0.409479932171725,161.28865986688808,-33.182355596801585,-22.557198819007837
580,-1.060873206531975,1.3797458420850872,0.44878006608379684,124.10658008980606,-7.852097409348259,-24.122906168166065
590,-0.7667027685589024,1.7872620892682682,0.42863917259581036,83.30035698769534,13.858294567906547,-22.246845356241312
600,-0.7537760809462283,1.8153869589467444,0.2772171258895614,22.606408891320708,17.81306819010127,-19.24615058661499
610,-0.9306839172439392,1.4892228884607641,0.5646511312760798,-18.16475935991151,28.947198615775207,-19.17562735848814
620,-0.8485681991428069,1.4896830685793687,0.4841644388988389,-37.8398024740755,42.67285169946149,-7.7811430706310425
630,-0.980541714565516,1.3413647679830427,0.6897506332373115,-73.91692319784353,43.80006109714203,0.10781088285066698
640,-1.181215288222262,0.7893759252173602,0.8515755409139988,-75.91572231286769,32.798475373366,-2.8525860763985915
650,-1.1233929331540145,0.5908843112864947,0.42178729318529884,-27.427476577675346,5.9739569497298985,-13.74462413253966
660,-1.1123851976594734,0.6718169904567988,0.5387320215469082,-15.819187829710552,13.770979461537548,9.8652444241443
670,-1.0870701208559685,0.8104651546065104,0.6319924853134364,-8.2305317749918,18.300232771165845,34.116090974932305
680,-0.982919403319865,1.1405958771271905,0.5558055308744628,23.48202733460528,15.298984987636707,34.446198332757795
690,-0.954921389790119,1.216386284611493,0.5417950343938557,21.59161048566585,13.815164932303617,33.98349337688214
700,-0.9593744964648989,1.2133981468890376,0.5190059495758879,9.58257354684325,2.699693055707732,12.386183617516002
710,-0.9310649831433657,1.22690879765329,0.5546459989867071,1.953226408334324,-2.532022950384982,-2.970936115798893
720,-0.9473512399571675,1.188121811165088,0.5460908957488134,0.34863515948472346,-2.1808219708816976,0.6834939253127523
730,-0.9569056631834038,1.192524517459014,0.5388250582914274,1.3073866694814398,-0.36718883529830526,6.681014471723142
740,-0.9686190361370748,1.204316554325063,0.5202672018004969,-0.5574940562497464,-1.1961403815195517,5.729961207604784
750,-0.9429293911177128,1.2434993425201457,0.5351233943722076,1.339650804288406,1.99249885232936,4.417527535601444
760,-0.9572373130579168,1.214575019471113,0.5162792219425084,-1.9668347839261953,-0.4883308638057714,-1.0205403870511611
770,-0.93438700817868,1.220889937672558,0.5479223885352109,-1.8467480311081315,-0.8513786717955908,0.05434019091107134
780,-0.9437327843795955,1.2144409618767718,0.5472986382228607,1.5170609872801593,2.2164572062074006,4.584268185934622
790,-0.9609177598869361,1.2021297479649284,0.5266371601483909,-0.9556500889641268,-0.24899346684759305,2.091101867158561
800,-0.9526314409776165,1.2139787754599987,0.533189816601375,1.4723401673741328,3.05812713554839,3.0748454225136843
810,-0.9446799461757996,1.2223796234740776,0.545240177498038,-2.2298527592702735,-0.8622593788727804,-2.276367144459128
820,-0.959331287686799,1.2066309650696554,0.5246946501620818,1.553607965659282,1.6612285655714956,1.7217017883816572
830,-0.9577910986161923,1.208676696807302,0.5339006473302197,-3.1335411703987424,-3.556614625651002,-2.041319237660272
840,-0.9543145705792315,1.2042296471438618,0.5341653789738809,-6.206419684819551,-6.352170112471994,-5.634397493998376
850,-0.9564335739135663,1.1970799124662561,0.5291986584073893,-3.414581179893368,-3.9011886547196153,-3.01892002034607
860,-0.9805139284403679,1.1809324148092175,0.5149575190923377,-2.0810374791084194,-1.7296004478235445,-1.458054408094942
870,-0.9322810875494124,1.2238982018607594,0.5678369703347301,-0.7128763337679016,0.6620677192469453,-0.07540722909823483
880,-0.9294399222779378,1.222366044923966,0.5717255433868627,-1.4793769388553293,-0.46976000540523055,-0.875661706861198
890,-0.9389867112951374,1.2203364145202988,0.5434914876224631,-1.6623205209761034,-2.0432856237160646,-1.6945570782689034
900,-0.9404236874392647,1.2194152727140293,0.5460469632591172,-1.658285959656745,-2.3043420568822235,-2.467568401946913
910,-0.9259220898851588,1.239018260209552,0.5717417884675281,-0.012010412971787093,-0.3670632492107961,-0.9033090801828888
920,-0.9330657112024748,1.2205540374353303,0.5583639633131776,0.9604933501302797,0.8910245324959467,1.0580787555515918
930,-0.935116543653287,1.223971668549757,0.552609052746236,1.8373419697065776,2.176342372300334,2.422058722661916
940,-0.924815290952229,1.2331408974724978,0.5611854533864804,2.44615114174669,2.909446561234999,2.7507479147081377
950,-0.9537738463487101,1.2101962132436688,0.5325166104498955,0.5904763635393521,0.1465573335901231,0.03316253606073595
960,-0.942750125682917,1.2209295585874351,0.544327834170427,1.7741289933921158,0.301424861870909,1.268283751783351
970,-0.9707002110834755,1.1961932933094377,0.5172580802082986,0.36086999759297705,-1.6715597869858068,-0.15580506923460158
980,-0.9639467655753033,1.2028254607528817,0.5257383966188162,0.33113620923430853,-1.7582605918543344,-0.723911063725958
990,-0.9141996083553625,1.2478182670330973,0.5740898433931271,2.735111276801514,0.5766457426406424,1.5872217741577646
1000,-0.9557603957136057,1.1997209774427915,0.5275717472504946,-3.0398214518040256,-4.756551598303035,-4.2058978172648125
1010,-0.9418169495559476,1.2148249354775311,0.5545166882169837,-3.1360874178386915,-3.535505691604353,-4.592735590309406
1020,-0.9619589046160969,1.1915071945797406,0.5298611448542385,-2.017828738714268,-1.648264446670048,-2.1846806564671355
1030,-0.9168555316931313,1.2404905329000058,0.5694271116225222,1.501107281203425,1.9563035851705788,1.5977752162077914
1040,-0.9420928021261643,1.2170000415943214,0.5511455897006672,-2.903202027496428,-2.4167533554738525,-2.599278950775437
1050,-0.9338908753531425,1.2273065875970472,0.5587300036563766,2.007153412756679,1.4630262577368405,2.818775405482816
1060,-0.9344387764451578,1.2288276750740783,0.5541925799967301,1.9115506286877744,0.9084058648510098,2.725752530425011
1070,-0.952518126153816,1.2060551543057987,0.5412510915052261,0.8757789395933802,0.5430561823453603,1.3578062323620053
1080,-0.9482698086207793,1.2175274753768583,0.5465839829794246,-0.7641371043887721,-0.8255600023588581,-0.2825203345716083
1090,-0.9592851046684228,1.2029845999131,0.5247005894319741,-2.1878909548438843,-1.6404619049311349,-1.0883194092917938
1100,-0.9300508807963433,1.2299303875868504,0.5635437848159878,-2.329280991776466,-1.9977682564219643,-1.3301656121691532
1110,-0.9502848350176706,1.212042820672779,0.5455434931980966,-1.3863004278851305,-1.8452367961040221,-0.6688859675673162
1120,-0.9419258889673335,1.2186154825572244,0.5526459257338059,2.1074789208715528,0.99362636745256,2.9453461159951297
1130,-0.9147676005084718,1.2438500362389064,0.5705900270920423,-0.44660523954793907,0.24294268554048315,0.9948339831422153
1140,-0.9723460226888694,1.196542543503692,0.522350431577693,3.712966880865113,4.452043608122896,4.337452071586094
1150,-0.9183014534737585,1.2426889451530783,0.5761916319453056,-0.6451061015963077,0.3166308589318164,-0.2963607279549588
1160,-0.9349392510519351,1.2235094109669944,0.554896759265732,0.7037815558692262,1.020036515182881,0.023829167934937945
1170,-0.9614971388694563,1.203834737778679,0.5315190546569732,0.3785896082776484,1.0097649902653956,-0.21190797158014407
1180,-0.9508565600847431,1.202526710945758,0.5311435096541696,-1.1854297143573154,-1.39944275652751,-1.7000683925508193
1190,-0.9406728589121865,1.20900581011693,0.5714427717238396,0.13958664610923854,0.7367932553296674,1.20147034325972
1200,-0.9256455059121257,1.23440653356662,0.5581662900665708,1.5881351331994156,0.9611046388579095,0.811191548982104
1210,-0.9488151218442653,1.2148478906892237,0.5488309761540767,-3.1933176299133987,-3.25069666174293,-4.274720380567456
1220,-0.9587367805015231,1.1958196478384338,0.5365147987432577,1.3842062336733867,0.8302616344104794,0.17644990314961195
1230,-0.9468677826983085,1.2093135065535727,0.5447505457627888,1.7765591935884304,0.66121072834877,1.0915934598798798
1240,-0.9497901398347259,1.215263977738661,0.5412515163462438,0.16210533267274185,-0.6328856819380907,0.23925365022200107
1250,-0.9684604783572647,1.1850223922092809,0.5188441842106871,-0.28701585727091816,-0.6398990510776666,-1.1324775025029523
