time_ms,ax,ay,az,gx,gy,gz
0,-0.7668423268840643,0.8421083442607271,0.53407740337547,-2.587842764225295,-1.5997937455000497,-2.057659299041341
10,-0.800438448961448,0.8151698199016791,0.5063467118173287,0.049797264777768524,-0.09147744873392483,0.6781463281575586
20,-0.7739537853825105,0.8405334655700396,0.5309054693220961,2.155169628619126,1.6433694831616994,3.3023937179494203
30,-0.769360379682809,0.844355585323923,0.5301149388669059,1.4794672341688448,-0.06188746901041303,2.3166185984250025
40,-0.7809184761802407,0.8353485126827509,0.5171751560105946,1.0164002514065094,1.5174414657044148,1.9089360777814979
50,-0.7816749856316069,0.8322400628423446,0.5175306824692931,1.1451863353315008,1.8394798823176948,1.844464624513114
60,-0.7839382768350514,0.8256407146039577,0.5143140367615329,-0.24116134727893707,0.11500741347803178,0.2454313891744574
70,-0.8005036689175284,0.8165314400655448,0.49559422824023236,-1.6178767445464413,-0.012512076506414505,-0.501401763116712
80,-0.800114485044154,0.8166735006256471,0.49741141192796795,-3.0151739867431697,-1.7212153482330002,-1.9792404236539374
90,-0.7944727581933184,0.8220948530366012,0.5031835735285595,0.7635026289483691,1.0283671257237044,1.197204119185287
100,-0.7732313529520648,0.8464358698716493,0.5274104905896898,0.6172166904855101,1.2727028364907533,0.621069008424632
110,-0.7782981911108813,0.8391644725171855,0.5243975310051517,-1.803433487190285,-0.5337013205031984,-2.693120722112832
120,-0.7869925532495404,0.8291052345684667,0.5186782093741061,1.4807860324568505,2.4646224279410682,-0.20692289276441134
130,-0.8051562129636005,0.8130110573454524,0.5013096333715831,-1.5709121311972365,-1.0181637905761094,-2.85721646469766
140,-0.8065166529325354,0.8077386089188976,0.49752563059122495,-1.3126563099702315,-0.5207775151338769,-1.3426523696681323
150,-0.7785458931914463,0.8304005054111937,0.5288042159806157,-0.5847567053634799,0.10298437562991579,0.33031537659738075
160,-0.8582034808439218,0.7977164060065499,0.5608526756051261,0.6868759395491949,-5.463621064903787,1.9113589389880774
170,-0.939976361373295,0.741435047252184,0.6078616956425453,2.0870305321648255,-16.213942338174775,2.657561449514242
180,-0.919617054545756,0.620286140714164,0.5037696324954335,-6.639469189993206,-28.495801724622947,-9.04637805959644
190,-0.9686678918838683,0.587588359284222,0.6093398850317816,-3.2002594636537633,-36.79987702109187,-13.23525350406254
200,-0.8791559952643848,0.6818578903992562,0.6250172534939177,13.369588444713065,-41.32543661208839,-15.670076935479537
210,-0.8013640615375425,0.8152358184387123,0.6118915976253521,9.515698286732786,-42.56174260892464,-20.87110352535502
220,-0.7485044639925517,0.8156484982904371,0.5734727408495498,10.559867262479674,-35.99235964987898,-15.298212438905445
230,-0.5358560194930521,0.861770592905856,0.5554999344202987,23.363123641923874,-10.030896021539402,-5.200610648195682
240,-0.5550291657712244,0.7918570410907496,0.5655451426723143,22.520380860086288,-4.505890602255156,-10.828094242566461
250,-0.5790430600077499,0.8533489233920913,0.5218020227660357,12.32580207441084,-0.6035111065190861,-19.460539090537804
260,-0.5670919814132049,0.8612550550046325,0.5393271088874583,14.477825619210998,6.12268151935299,-18.561684274116775
270,-0.5662808648765828,0.956037738573367,0.5550929791031903,2.488716458747931,11.00640131994641,-18.425326752898705
280,-0.6128064596559866,0.9274767377277737,0.5511702812998182,-8.76569930404475,17.67138393524548,-15.09563192645966
290,-0.8770026239675104,0.7643744396739875,0.4864107322646106,-32.36953471174999,10.367076542583126,-27.920950174182828
300,-1.0289745683856542,0.8509759570480263,0.5521420520040617,-34.025951583496905,-6.457099307364441,-24.963117379410498
310,-0.9488610932908094,0.6904475119389353,0.37861573782755964,-29.151966852046602,-10.199913867338797,-23.885375724100953
320,-0.8328333960406984,0.7939661947120914,0.3714756473307539,-17.824611875535084,-6.380624523358626,-23.435751913559976
330,-0.8346356764598362,0.818511511977372,0.4225519339758638,-17.575002409444295,-1.8369702321002683,-23.462547337013063
340,-0.848870447594872,0.7966921998081369,0.40468758206987804,-26.609773438817697,-5.06057853809695,-32.133272509199905
350,-0.9210846825262018,0.6890366549473221,0.25582834132926097,14.216059638591037,14.109615661265167,-10.853029813571235
360,-0.8122214268867686,0.6935288605390564,0.20062846871217435,55.322165133154535,37.63698112094489,17.990420894049937
370,-0.8251179725799719,0.8441208729209113,0.3951354187815452,59.384087467162736,45.987614078158025,32.10738136579501
380,-0.7566025462727941,0.9523850435589091,-0.15366415089649657,47.007377562672986,41.23337803534386,24.915325185961652
390,-0.658425924109084,0.9161369447374812,-0.3468146621539387,39.96729384966661,48.957011397119565,22.63462979219239
400,-0.75232974896964,0.9327442749971929,0.43917742532690024,15.124097408520436,38.05942650554128,14.730038348390297
410,-0.5750245125984982,0.944132771232153,-0.21854166707743117,11.065110787441531,21.52285143139524,12.294498293639311
420,-0.72366656401099,0.8745440624471007,0.31889219996440354,17.073183221163127,13.781482081762494,13.301683788301755
430,-0.7197815809570042,0.8134286028184692,0.40511150565929094,-0.6873577118456013,11.584706049798879,-0.6566706768195958
440,-0.777834653905204,0.7863408130915182,0.6039584254326256,-8.379078243632458,2.518153455225647,-4.890288706104066
450,-0.7904288866098339,0.747019933444694,0.5352584545486139,0.7267371961739043,3.0116306677398152,4.123752905907439
460,-0.8255930943815172,0.7512487630667669,0.5241034980920297,2.704641911595425,0.2554663123727845,13.18069181171121
470,-0.8434447689795724,0.7673984859868928,0.5743578369539607,4.156902056039648,-10.554200971798462,25.5590307967798
480,-0.8428170368678994,0.7216936714583371,0.6312470240082713,18.23052947402295,-39.78005226231063,42.272172694868694
490,-0.9461119516911058,0.77513235395253,0.6639641678894127,7.164270279065072,-45.045948892394186,29.136907529431756
500,-0.8857560761809765,0.8081750489234136,0.5296547163305614,7.531182471781284,-50.76178018447183,15.85368791960876
510,-0.737698954708749,0.8423051919543137,0.5325557746958431,-23.166004560562076,-44.36603112073207,-7.81477772397931
520,-0.6881124384263989,0.8574844954061643,0.5310968011894708,-40.67472772371783,-38.70360799940023,-23.209955437383726
530,-0.627839679800858,0.8979252344885955,0.4724170829325648,-44.051396962150655,-31.968506990811765,-26.083416625787375
540,-0.5535401418756901,0.8509876869861454,0.44606036279004985,-38.03032561585753,2.846427137807266,-15.346498111321235
550,-0.6220242191566316,0.7592804402587608,0.5256065465305518,-35.76315488137844,16.616686055039352,-15.478824490744021
560,-1.2174309066925886,0.6670866727744352,0.6325193986973254,-37.644772621337445,0.11571016002792243,-24.288028477429876
570,-1.2473190615501915,0.5883896819766307,0.7002301308924054,-16.782893830581198,-9.157326219802831,-13.778799817447558
580,-0.9484974409301793,0.5773133167509631,0.45943006505730044,-8.120991896615983,-11.682587644464938,-13.22550356481211
590,-0.8668066004102943,0.7726532305535415,0.32817427531928317,-1.6907336174469827,-10.802794535173895,-14.621658657775274
600,-0.8227878941263379,0.569943738345621,0.6420372806398446,2.5554230259525963,-12.384120632237009,-17.73174030132084
610,-0.849570496246487,0.4682016665446133,0.7947118085571426,7.297523992507093,-16.215052388667456,-15.794230481647354
620,-0.8348987664320296,0.6577383459875596,0.469438533423457,24.08466242821602,-12.938855796718421,-11.579324231250052
630,-0.8517036288251352,1.0096941985030792,0.4066945341362782,73.03564366387558,-4.800806619840221,12.088934036421964
640,-1.0252139898632966,1.3276865746355795,0.5523284971582303,106.36611483209923,0.809707403765262,38.19068668467671
650,-0.8428854641823079,0.838739806525472,0.35104036699549346,55.65946886915602,3.2708449447735384,4.4730584356074194
660,-0.8063546050433263,0.6118087283423407,0.23713162812270533,12.799585231974156,3.3870152861405867,-20.80218330408347
670,-0.754628119780887,0.8182230630151816,0.04227837565317877,-3.974457762018977,20.58727722735432,-19.19584967617041
680,-0.7761759355098607,0.8887927667053541,0.1740997424956443,-7.353125118495752,17.754970428842203,-15.274526248581438
690,-0.7609946080833879,0.9432542343420572,0.7737666109210481,-4.254709733752056,21.837503286384184,-7.781148267966547
700,-0.8023032538643684,0.9485760833952375,1.01862363793791,24.41332184389607,23.078843796421197,18.994464327906
710,-0.7873890455133933,0.8617877865358298,0.42448070512522473,17.05347782390493,16.93440318476204,13.43640897135762
720,-0.7039312241742908,1.0828361113928882,0.2716876118366249,28.600829146293275,21.915829170732543,30.99996535354378
730,-0.7780329097023129,0.9202643809214855,0.5812687983560608,-26.607734232203537,14.846297471154312,12.07776638272672
740,-0.5689764166157202,0.8265839522687053,0.5705330903209267,-0.5148909551049479,14.84018528070646,25.76450454375919
750,-0.8355676391263651,0.6620528672550452,0.6561711561244391,-31.127854220669686,6.521841428247027,5.800532810909019
760,-0.6808859435740507,1.100736126811722,0.5333667597672006,-20.44761943997204,1.9256393610500502,22.50748260728245
770,-0.7554283029856163,1.236204770955105,0.39071822640570575,-3.646127751534173,10.05242201574825,32.75873493454723
780,-0.7439356032347705,0.650563084097951,0.5982938497531369,-15.600793876805144,1.5556340811991565,11.166630105039058
790,-0.7926338629580277,0.6162456684102128,0.5757908010470865,-3.765355616518994,-4.514695654000248,3.528387947162625
800,-0.8033938557907319,0.6315611902073307,0.4808306066861437,21.513476953557944,-3.762652751001198,6.139529186742342
810,-0.8230592432856952,0.6791281687937899,0.49169003598510874,35.76667502109032,0.19072974152145594,19.501291264928106
820,-0.7946678332060146,0.5992821494581193,0.6288828581552642,17.898746176436703,-8.77178123005247,10.535392456838565
830,-0.782315822714581,0.5960175566440523,0.5666685101594922,12.446601032453422,-9.199058221795791,5.241287805696466
840,-0.8006077086033067,0.5587535944106339,0.4015599301861186,25.735098543042355,-1.2735357804770477,6.221590873977176
850,-0.606755308028317,0.8949838944614614,0.2635183948713589,27.858696468600975,-0.2010390680611901,-11.24369051989487
860,-0.6320874340585815,1.3118463709833184,0.39082514957760883,53.629918355559845,6.244337154235903,-7.062103783402822
870,-0.8415991983129745,1.3494886951319451,0.6457524053919301,76.42885277527219,10.862481587343018,16.34506115821759
880,-0.8030005299612102,1.2289143199989627,0.606758625589117,54.73254579951972,8.827573536197484,18.177341644997078
890,-0.7999662044996296,1.0179965623128444,0.5740891055688166,37.94176428057214,12.200016807196299,9.872566455401632
900,-0.8008607012553295,1.0124459371600152,0.54342373457268,32.55805988237133,14.592364460208199,-1.6997683793683411
910,-0.7561382195453707,1.0811861149805115,0.6407279489450163,36.558259387556475,20.309390126023068,0.3337741827065176
920,-0.8173674193699507,0.7952201109095809,0.5100092555192315,-15.832160009750872,13.072379050454312,-13.893527693569332
930,-0.7753177586239,0.8840387097091593,0.5728030187268603,-26.833994473318604,17.183941048965213,-1.7001727780909575
940,-0.6881544393907539,0.8884918925746086,0.10725033035104557,-18.296227483895848,16.868180485772797,10.051137449172884
950,-0.7203223535313192,1.1841122149430492,0.41848436756430746,-41.23289897426894,14.811143296794775,13.560555581361653
960,-0.7930076214328712,0.6943382496692209,0.23999941744045272,-1.283496013790955,-4.143700258609012,16.708023777825446
970,-0.8729547650077527,0.7329568570598387,0.8450003959358138,-63.28683956106542,4.333514005927874,-3.8374041671302477
980,-0.7220733629394734,0.75965168832921,0.7108370080614745,-58.940987952352614,-2.896743358481574,15.563484971583069
990,-0.7031582087411927,0.9454790412551627,0.4406379315962237,-59.56249901047424,-12.291696822487246,-4.252167846272375
1000,-0.7612530765524429,0.6953170398344952,0.5637841910695395,24.260313669697464,-17.072054929688047,-12.323301780343806
1010,-0.8153155045651845,0.6858816428675185,0.4715663243178627,-5.985458191090602,-7.607170036393848,-18.04397857448769
1020,-0.8207249281417162,0.6730484568335722,0.4365385216840666,-7.046204756320206,-2.972130197407124,-15.049469302489953
1030,-0.8190753815051276,0.7206647466396601,0.45988725622361104,-7.785918679458724,-6.943061535404102,-11.742643139985653
1040,-0.7895691115140561,0.7720941289786185,0.500643190302446,5.032174666626089,-1.4548422955595703,7.0994837445365935
1050,-0.8176186638319439,0.7481879585307633,0.4725703100021127,5.309317782168966,-4.750186585121076,8.368673281214884
1060,-0.790192515818453,0.7956523720860237,0.5041871026379092,5.187859754715434,-3.4597881789908476,7.3205416339541145
1070,-0.8233242821042239,0.7701588683331825,0.4802655184610396,-1.9872638975843853,-6.546690699729033,-0.845771491177066
1080,-0.7936096517094956,0.7858335357279282,0.5052143499444364,-6.167873230695046,-7.789868148164477,-5.285000688936422
1090,-0.7882430390411669,0.7805818314969655,0.5088422035479471,-6.35597695777742,-2.9491543856269784,-0.8515378892046215
1100,-0.8076368186425916,0.7666157086170409,0.4968684377040587,-10.804760125696209,-3.1266038491925063,2.745133236503553
1110,-0.7823843907364759,0.799680665566107,0.5244257388162687,-11.827326657779551,-5.16447071048653,3.923442358214225
1120,-0.7797921490303049,0.8008922978909304,0.5295760465565889,-6.4461797859918795,-1.8547581577316699,5.103239089424178
1130,-0.8111710188388046,0.7694860524085938,0.49940874337709046,-6.320338214244385,-3.604627961212893,1.347306514407331
1140,-0.8133582577117178,0.7704082159395026,0.49382958186142667,-1.0266837504015938,-1.4370676403754215,2.6961107561406923
1150,-0.7914395588415388,0.7879503640838994,0.5150177359414795,-1.725779475023165,-5.191926599773475,-0.09838638325556026
1160,-0.7884906967257219,0.7936863108351155,0.5092905711162523,0.9639371152899618,-2.3100348359361975,2.7173690059200912
1170,-0.8062422388228553,0.7615454799727625,0.4976377827101964,-2.560192611105387,-3.1074677650431046,0.13242671450939658
1180,-0.8337971910188997,0.7274673720282157,0.4768223753883667,0.9538427811300392,-3.1432957959636183,2.4781953447487846
1190,-0.7638625506466026,0.8034610531078608,0.536563040629383,14.106466655030026,1.3602621860663024,11.498856841934717
1200,-0.8066902632629118,0.7445316865681846,0.47925443919833405,23.530737951245076,1.6001393043501257,16.572913797847914
1210,-0.8252750685518382,0.7776099859951051,0.46024864213371675,19.506243088286336,2.150573084913562,14.331376306750528
1220,-0.789958138758633,0.8057415448511458,0.5156315056836113,4.46308166159805,-5.5314517524440605,1.3687960483454287
1230,-0.8161285963011735,0.780423036097397,0.49126715799415926,9.04446993116249,-2.0520918793171385,8.572763278560027
1240,-0.7827139049440027,0.8300458678656493,0.5152057668147968,1.763129320278043,-3.051116498844508,6.248005217904481
1250,-0.820612470067031,0.784095397262297,0.487195678577403,-3.896189392146859,-3.561635938262355,2.9264025285181883
1260,-0.7918693839340435,0.806670180147204,0.5138423586611486,-2.2944840488202356,-3.116427450841693,2.9561454904931774
1270,-0.7940362450367437,0.8040991615785955,0.504533788678819,-1.4282669149101321,-4.821770142210271,0.7048431407751905
1280,-0.8085296487778948,0.7910464019457467,0.49618271391248775,2.076261210658085,-1.4778160268880778,3.5676798491032717
1290,-0.8082239236187977,0.7861979566922828,0.5077202630567865,-6.254654921411658,-4.343453111608912,1.0495026034505603
1300,-0.7910527941899187,0.8045999226166831,0.5261415708332458,-3.2573314513050025,-1.7922360682351064,6.002116676188752
1310,-0.8217725307124019,0.7724289338590432,0.48355144504026026,-4.075785569908765,-4.478079087804595,4.356752758649289
1320,-0.7975914318668542,0.8053221901338351,0.5039752168503128,0.33279945989053317,-2.640286197856564,5.472194979131459
1330,-0.7677544508625839,0.8498782529297806,0.5369157307414105,3.467861520956334,-0.6008703025049487,4.836999777704995
1340,-0.7917706535957033,0.8304673514012078,0.515677110249861,-5.668650587687304,-3.545699709191785,-4.294284629129887
1350,-0.7645501138847537,0.8344714853756923,0.5430697821734264,-6.285883632761411,-1.8422327719274123,-3.6985061380915107
1360,-0.7614141307879023,0.8158387340062935,0.5459193808362519,-1.6915588224565536,-3.0253086843106276,0.8259964856618983
1370,-0.7842312347625034,0.8039248320637177,0.5276001507287145,2.24176566710256,-2.146614318642412,4.405696782585034
1380,-0.8101261654196902,0.785100846009005,0.5052357950277396,4.441339095301531,-1.3869129434199812,5.487751665957101
1390,-0.789003698490516,0.8184688656798015,0.5304881951622016,-0.3663660465359828,-3.1125919665205006,0.5876219477082381
1400,-0.7961573564972602,0.8128578648197686,0.5214352328914506,-2.832278469260597,-3.065173015124079,-3.268052209059843
1410,-0.7921293585537339,0.8144542542654111,0.5274503697155026,-2.869508122002823,-1.7868144643626653,-4.583425098671089
1420,-0.7980743523691078,0.7904032941351252,0.5222493377596013,-4.850351147877632,-2.094531932634227,-5.525514520554701
1430,-0.8021704457870871,0.7871229249758158,0.5191416465210483,-5.599084926514328,-2.8681839596157443,-3.555462234576701
1440,-0.793790771993164,0.787141074031561,0.5196269054736257,-6.771737171360423,-4.367299369088119,-3.4136836837840097
1450,-0.8120346291062774,0.7799099483928269,0.5162823947215732,-4.943187418952938,-2.3103316178545934,-0.28967009626866924
1460,-0.7812676496902937,0.8071698704340108,0.5398752438822934,-0.8901920917192374,-0.8333080616086606,2.353367890147444
1470,-0.7891775602038545,0.7883298856147968,0.5304718565356817,1.9697517615990914,0.07442083649514286,3.67275112977761
1480,-0.7935067493375404,0.8051657986589235,0.5349170627758092,-7.817334936845446,-2.079840494295326,-4.1876102750245
1490,-0.7527878016277495,0.8215578870372025,0.5693856505295192,-11.440506680241601,-1.2353871030915717,-4.467717038984868
1500,-0.7892449754713966,0.7817877486492667,0.5361395397944532,-5.589362263394931,1.1151842831547036,0.7515005778092072
1510,-0.7970200088188547,0.7727931635359071,0.5281353077438102,-0.07545692901641243,-0.08721386058357439,4.238347598535196
1520,-0.7980428047929072,0.7832079148089637,0.5254087614613009,1.2046724954018655,1.4035530927826054,7.081807962806586
1530,-0.7996029070940254,0.7889652624290323,0.5230306291315524,0.7546577324387931,0.9183675136422653,7.102357406793267
1540,-0.7664090891613975,0.8361217449827242,0.5551206326540318,3.262572350898557,1.2208018090501924,2.966411712340318
1550,-0.7918682812938302,0.8114162764964099,0.5316317927069141,-1.5610379920702553,-2.102624691556863,-5.470726305620724
1560,-0.8161179016073484,0.7853581022642305,0.5118418904658143,-1.943188487984422,0.6455822154899467,-6.105976665939771
1570,-0.7633667057249022,0.8305303868056123,0.5611256976680018,-7.448750676797827,-3.642647640471501,-11.764651827072207
1580,-0.7961035613249225,0.7885339863790227,0.5238073440872334,-8.127706348858476,-2.5314920565232417,-11.501770721592155
1590,-0.778074495479149,0.7986551051454567,0.5430353836770144,-7.345092747434217,-0.5304067783878503,-9.234301041591726
1600,-0.8116113146397009,0.7586158992457608,0.5106047953618839,-5.9814714576467045,-2.067539539342016,-5.22009490247135
1610,-0.8183820857245389,0.7496609853175639,0.504907975274289,-0.576086554894718,-1.6114987412193988,2.7492368325749688
1620,-0.7852888760446488,0.7851282136146249,0.5413092020866886,-0.39196144330507526,-3.0401466202322505,2.306776347093116
1630,-0.7844320104149912,0.8083478374622293,0.5481393665601594,-0.5107290638429252,-0.3437680280834634,1.7076783595530258
1640,-0.804846925418544,0.7900158632601543,0.5334305271606677,-0.6732811072125593,-1.1519658342770567,-1.0290548783582167
1650,-0.8081506851913273,0.7738221161449286,0.5267855636825116,-0.4351272065739768,-1.018229695986903,-2.61415259558252
1660,-0.7938767973347783,0.7767667549130244,0.5316985227123519,2.234684488054765,1.423166701461786,-0.6737557360936415
1670,-0.8098827133193925,0.7638054541052112,0.5210809978168661,2.8910676830233246,0.6102313617695625,0.5153220741156219
1680,-0.8086807750965265,0.766158184683147,0.5206309790531103,0.7893624552547407,-1.2187856012936094,-1.2595074474458512
1690,-0.7866150348530092,0.7939701867435701,0.5462530070647771,0.19628691472449655,-2.4358270109722913,-2.3081682692575
1700,-0.7803451467919359,0.7935284671389781,0.5486652270383662,-0.2176965286298026,-1.0169826773109751,-1.9864833989220576
1710,-0.8061173520240821,0.775893151660741,0.530866673099895,-2.238231496729793,-1.6473270917581821,-3.5861245504608954
1720,-0.8033260756884609,0.7670315729747776,0.5280228281694184,-3.462418754052922,-1.4989162654151145,-4.17870908668516
1730,-0.8119925537607151,0.7601788658136557,0.520793899256669,0.5704611713586765,-2.615500666207727,-1.9111725791980465
1740,-0.7915989561928654,0.7895138722313785,0.5486765166296464,1.4775593912981402,-0.8789481454501981,-0.1698102330969865
1750,-0.8040128618795195,0.779067363128344,0.5338921000131084,-0.7234107074586921,-0.6441600459863298,-1.3852097523474742
1760,-0.8094789046878599,0.7654841900904668,0.51871733480583,-3.823109720900736,-2.532260685108241,-4.000885656506158
1770,-0.7710650563424758,0.7919507675204691,0.547677353117776,-1.3662844307304938,0.03944017838984226,-1.4315595951889342
1780,-0.7812797349953785,0.7962944601010856,0.5565608181680465,-3.5056627105513263,-2.740590854939986,-3.257878459909281
1790,-0.79552448757179,0.7837934073556114,0.547465437537284,0.9952370299755819,0.5151063442855267,1.7655749508846605
1800,-0.7812805054688213,0.7906211992672098,0.5578149290778156,-0.576700509459313,-1.9028715123074362,0.09348986626137767
1810,-0.7969294597485982,0.7743687727969023,0.5369716453560684,0.6094112892138996,-1.7153490340893889,0.7805436271455366
1820,-0.8185154441770108,0.7535276402149118,0.5125290311448671,1.0464671477398757,-1.741198147321329,1.106211141335681
1830,-0.7943589876264286,0.7790608294362884,0.5374019355736305,3.444259153490149,1.5790972582997442,3.8672265292065484
1840,-0.7982957255735994,0.7774235553428135,0.5329396282226764,1.0477049623017507,-0.673237894294663,1.0959444225277282
1850,-0.82631874571841,0.7495546143569585,0.5059901488174285,2.3706618985821124,1.6058009926880235,1.8055814133785935
1860,-0.8052691018342285,0.7683078287582598,0.5296631900545905,-2.641879865742607,-1.0242489709998164,-2.7656976472692136
1870,-0.7643141431654839,0.8036621121119627,0.5712516541078818,1.0911335467622172,0.6060099943196977,0.8249845485489384
1880,-0.7965279117788463,0.7715883518398793,0.536753209098532,1.480207646011618,-0.6846775325488729,1.195510764705924
1890,-0.7897499643168763,0.786355341353067,0.547564439543697,3.760887604761405,1.090560461193629,3.930342276332703
1900,-0.798375699921049,0.781330911699367,0.5403013440529013,0.3576255568726361,-1.1325225558588519,1.9873882701395298
1910,-0.8079196704520938,0.7704327277891325,0.5226467202640384,0.16736067487090295,0.4462718052915931,1.6497905255497942
1920,-0.7965243349435615,0.7713909725114106,0.5381185143204277,1.8017982271311304,0.5470140734829285,1.5303150814580253
1930,-0.7798888205442978,0.7904271541577852,0.5591411087195922,2.7839588081067657,-0.016210590304969186,2.5229439473354764
1940,-0.7611024097551272,0.8093555165091046,0.573304520463373,4.754286971176394,0.3862838387252143,4.704672240484961
1950,-0.8176613687872041,0.7686775970005004,0.5190529070082941,4.132737532669294,0.9102432675955676,4.641527925076945
1960,-0.7862416697426252,0.7967308304395028,0.5482516235889726,3.0806353473706984,1.9048588657934067,4.563888751351328
1970,-0.8066670820769696,0.7728127053230117,0.5230562720127079,-0.8964023335485616,-0.7127448849668753,0.3664759083411788
1980,-0.8032388613656604,0.7701354530798522,0.5302567749205988,3.4125504315274604,1.725152057350675,3.2878995069400796
1990,-0.785137026072998,0.7924484948588667,0.5447686455862817,-3.695512512657049,-6.040564307848457,-3.67494811118085
2000,-0.7976031036719118,0.7837833404974907,0.5366874036804136,-0.11939436707069517,-1.2969302795392519,0.6941820388315234
2010,-0.7798443313848622,0.8010318873323632,0.5544737544974119,-0.9861405674328693,-1.1795058235364388,-0.03579767403041556
2020,-0.8222044145151131,0.7605203194253412,0.5110970399049155,-2.753039920956975,-1.3765997382617146,-1.8766058090643343
2030,-0.7940440944939731,0.7871877120504532,0.5371596365681819,-3.809424521024116,-1.2465727797778177,-3.1443340218255083
2040,-0.7887855670570053,0.7865708274133804,0.5441763507166091,-1.553317421806,-1.0412730344307077,-0.43818921190570914
2050,-0.7662338180521362,0.8079106582043181,0.567309143451979,0.134453106746942,-0.24056225600063336,1.6977414371812574
2060,-0.7506633684068988,0.826676918097264,0.5822154519096657,3.256710710406659,3.8966840721134153,4.724676249610998
2070,-0.7725696490594514,0.8125193496203085,0.564075166007536,0.6180876522136125,2.48103742955866,2.1025166448450476
2080,-0.7862051063715323,0.803293175407817,0.5549194927942898,-0.3125788358545676,3.2927846398894087,1.248125311701564
2090,-0.7830538214194126,0.799825665554303,0.5544373410058504,-4.0918240842509315,0.38375689867924556,-2.938448435774828
2100,-0.7921315735242536,0.7835515616584061,0.5401768629869385,-3.2996331039823072,-0.8927207043815556,-2.6510653773759687
2110,-0.7952449702897156,0.7803226754783382,0.5420620680692457,-0.6213580238492692,-1.323313210526607,-0.3499731220766904
2120,-0.8122560492758936,0.7697027706376597,0.5271883404776089,-0.9513021427943638,-0.5859955511005155,-0.7164246020896377
2130,-0.7912342750407225,0.7887622375264387,0.5474857186226253,-6.255591861396143,-3.5042943831896345,-4.857299157810611
2140,-0.8210405942459095,0.7573338251625659,0.5211619584793559,-0.5263269943663627,1.5830663590812049,0.17583764689474934
2150,-0.7794288169770828,0.7910458664506742,0.5598942078896552,-1.4094955401727352,-0.09465970476033732,-0.8762623608868596
2160,-0.786445734288864,0.7826310916621527,0.5451186102907465,1.0204817209803112,1.704829642095139,1.7881922740269298
2170,-0.8150079014662551,0.7600274250602381,0.5252124945908621,3.8197949415073698,1.9746817361590272,4.463554706352095
2180,-0.795603775140444,0.787206612065951,0.5423046500214427,-0.3155015849684353,-1.8017891598321907,0.5226376620494975
2190,-0.8124095947683758,0.7766529723637191,0.5266394147447545,-0.19680913471963954,0.33911884751566,0.9306159157974434
2200,-0.7816105714745967,0.7931018629089858,0.5560433153165711,-5.637856214182867,-3.293068662685386,-4.1230562885423305
2210,-0.8064430968656982,0.7774106645557771,0.5343819962517776,-4.436054520123536,-0.2765302474340964,-2.7978761837786577
2220,-0.7636789917870623,0.8092695374504912,0.5738029432967423,-1.7681110345909232,-0.96195247467625,-2.7447997956716934
2230,-0.7786398132102927,0.8012302190869683,0.5594032216301639,-4.555057771522995,-1.2607901885158133,-3.759058612989108
2240,-0.7947474108210059,0.7813132672419133,0.5426244591321224,-4.171081419905008,1.4375338104900455,-1.27494623976926
2250,-0.8070073364562284,0.766630897092306,0.532173654631525,-5.307332188067725,0.08695236113598301,-1.9759726441467638
2260,-0.7967509439057668,0.7705411197592172,0.5443990640059436,-3.723737840676388,-0.9762703444286267,-1.6849957761474412
2270,-0.7960691795637254,0.768458722415313,0.54042847851788,0.6552517872135046,1.6018857853677724,1.9181467985422507
2280,-0.7834017214879503,0.787020888168522,0.5539229750451564,1.4969423234579067,1.835220752827029,2.6426855940750427
2290,-0.7815777790122604,0.7954874428375563,0.5593331012864827,-0.799522853472386,0.05084835762296391,0.6882489583149831
2300,-0.8216747218472055,0.7528284581038719,0.5198554335343218,2.0097859163905976,1.8586075616196092,2.680847978135536
2310,-0.7814880055855291,0.7864620965702738,0.5577558192335794,-1.7969466520801654,-2.8835282885079625,-1.9318374751102454
2320,-0.7905334295310726,0.7804252823410526,0.5465136245094886,0.861524531308417,0.8258656426494879,0.7672806961390584
2330,-0.7917225906308528,0.7854922800634011,0.5460608105412557,1.851434551514198,2.902132337014195,1.432272867613708
2340,-0.757072948946955,0.818010792749483,0.5829152638212196,-2.122561282468585,-0.6894148670052697,-2.9182338811495185
2350,-0.7865256744423417,0.7857418889915195,0.5532372744706098,1.3798706813234771,1.6560088471853835,0.9032278346550151
2360,-0.7841019569133544,0.7877626343576869,0.5540912473189383,3.0162265064245557,1.312635310962585,3.92803768396575
2370,-0.7864202744384063,0.7877480875010445,0.5577486418783681,1.2057022196242833,0.03220105803441657,2.407429428423273
2380,-0.8008993195534465,0.7722642590848013,0.5384657205163569,0.27431863180688504,0.31496655984134503,1.5833186076404822
2390,-0.7976330290855577,0.773636255773898,0.5362004145363827,1.2409473523818417,0.38003929108568485,0.6772834809405545
2400,-0.7748607941100134,0.7979061760795095,0.5624703557525751,0.08192106597659021,-0.8906535754986162,-1.1603292002066512
2410,-0.76810878775441,0.8077519851903167,0.5728098975725008,2.0174504750182343,0.37212297798025157,0.5856011066011613
2420,-0.795038969822442,0.7746942361231562,0.5422326315588251,2.3389131451053666,1.3951242919065447,3.268720878963706
2430,-0.7791197342362401,0.789836068152018,0.5484867289090756,-1.232630261664398,-1.279065242639539,0.22575540809395145
2440,-0.8240116275425785,0.7588297775850297,0.5206427947581367,0.9725265403994693,0.4499514918456914,1.54330562873082
2450,-0.798921726942901,0.7804097383945644,0.5340977650074413,-1.1461334288882428,-1.5393337023001785,-1.0873621372360516
2460,-0.8089078566729333,0.7661462837354202,0.528696830807536,-1.4205354960126622,-0.8700647300118187,-1.1825363742749702
2470,-0.7889723706538069,0.7842095973613229,0.548307447285345,1.0564233445013351,2.2513473509886377,1.259925357584005
2480,-0.7968157712634345,0.7795892003315191,0.5430435301087019,0.782614703214267,0.2345036551139929,0.4345044229546817
2490,-0.7680978806434265,0.8066197731188738,0.5735671009983533,0.7394034728440683,0.2613731610286539,0.6540837300582686
2500,-0.77717230241373,0.8018070060514654,0.5666972803984558,-0.3757808537889782,-0.3679520711572624,-0.10689570939267168
2510,-0.7933831240343772,0.7848219793686957,0.5468121334572593,-1.4632776780110008,-1.6306910837258464,-1.296824807452067
2520,-0.8012991730118983,0.7673827720342465,0.5392155303585535,-0.3054787694046069,-0.3886019273968826,-0.14017967806615653
2530,-0.7709783037580937,0.7952805037130498,0.5622140196643048,-0.014943096718765023,0.3046126133387463,0.7081701452623229
2540,-0.7686773475228057,0.7997296209667553,0.5639974524925532,-0.31983277019586054,1.2471092666432986,0.10643110358917851
2550,-0.8166681301356541,0.7550598573373046,0.5253211389876121,-2.005487150100353,-0.20030366887237666,-2.8734656899416486
2560,-0.7777121644564633,0.7942594994808119,0.5641076854994289,0.8738730268817162,1.414554261252838,-0.7801026782407197
2570,-0.7744390080068885,0.795214049576773,0.5643756054902072,-0.622784801824062,-1.1618755927527686,-2.0310125614715795
2580,-0.8069840430777575,0.7621176151248984,0.5335671699114264,-0.5513816519570358,-1.9058469681923285,-1.444393498009056
2590,-0.7975310640233682,0.7696100423901943,0.5409591252606997,1.9949463606200994,0.1541966757412473,1.5363119718077307
2600,-0.7948207971251907,0.7768750267607833,0.5438073242588037,1.1136015394137602,-0.45813581809470993,1.3767640649771744
2610,-0.8303088236040042,0.7437741435298747,0.505968192416734,-0.37147888990915096,-0.9771389778386586,0.056797202164181715
2620,-0.790652099170783,0.7841260411921654,0.5451061868826312,-0.27646673416435497,-0.841175022162704,-0.27094847129040583
2630,-0.7652466486864382,0.8101077055227676,0.5768078494722182,-1.138804149081753,-1.7389134348486783,-1.4049573155285595
2640,-0.803607890416955,0.7645324051453302,0.5314651776979665,-1.2622735489188137,-1.9120324516655984,-1.6835476860745566
2650,-0.8014649215172134,0.7694838582144601,0.5295177941935534,2.473850499540111,0.824175867371111,1.9948252286631232
2660,-0.8233996298323908,0.7459129084153802,0.507789987240888,5.310108839557123,5.669267825240008,6.077242706391453
2670,-0.7865433848217562,0.7889424749359015,0.5500491465803848,1.9065776356196067,1.4914920578737147,2.1191255734776258
