time_ms,ax,ay,az,gx,gy,gz
0,-0.6331787092698128,0.8849008209914586,0.7886454679976393,-0.038695702650835384,0.09822407587059616,-0.46966191992242845
10,-0.6191749160895225,0.9007673142700724,0.8039823807026225,2.410379201816678,2.699025950676476,2.0768504946475854
20,-0.6294380915263927,0.8872144227608116,0.7939325703433581,-0.9822937897976076,0.19326315772806069,-0.9960395461392383
30,-0.6086265173489598,0.9121996803100504,0.8151968484854052,0.21387586835613326,2.358479450030999,0.8584934418704261
40,-0.6060962204662637,0.9149597023072331,0.8150505879795253,-2.2955873337961026,0.22879509962615246,-2.6891581206262885
50,-0.6439928900835501,0.8763900247628075,0.7798387728024426,-2.3817354162504407,1.1868976045348505,-3.2667367769716757
60,-0.6273404920300099,0.8909654536501093,0.8018766804629568,-4.798286742240958,-0.9267687099178905,-5.835054669785202
70,-0.6234476518970732,0.8894707204842883,0.8056939418011877,-3.2914420947118708,-0.724954025813054,-4.6687867231425475
80,-0.6131678688433566,0.8962249092541839,0.8124182089220195,-1.508555156666353,-0.026664456848020213,-1.9463070701678795
90,-0.6221386963645861,0.8870434406375152,0.8020911303124453,-1.1997529890232177,-1.4277021389518136,-1.5151422604953126
100,-0.6464454708186823,0.8680281286803558,0.7819739607600761,-1.6913588340561305,-1.8790527352396384,-1.0328190713805887
110,-0.6101123725052473,0.9020577293272548,0.8206408811700757,0.005572836096610911,-0.15857306675365312,-0.38852710827382775
120,-0.6439207944618007,0.8705452293698166,0.786516817800898,1.8769458170992253,1.9816364626438243,0.9739312543715986
130,-0.6192843969689951,0.8929310789134559,0.8080989872208896,-1.4622377123539883,-0.9980985147143956,-2.628278027208881
140,-0.5979963524837412,0.9145862797679998,0.8299092122194341,-0.30145543130792535,-0.20047763472988295,-1.6545750481953565
150,-0.6246902467402763,0.8894285013900199,0.7996746721418999,0.18789140364532592,0.012053133105307062,-1.1194849308099797
160,-0.6412921991533096,0.8724372271279552,0.7783575907370328,-2.486924983448849,-2.258575385874034,-2.946348218761271
170,-0.6400273782768788,0.872095973066157,0.7804161671300653,0.0918403852892912,0.3227118190592665,0.5213444221069916
180,-0.6265727593765871,0.8850825289582345,0.7970293218971408,0.6596230845410151,-0.3237463083476192,0.624322907466095
190,-0.6139238566288954,0.8986198269444992,0.8125296304850428,-0.08704788698323918,-1.121233510126877,-0.4737212749972549
200,-0.6229414375732006,0.8909391427247181,0.8039482298588898,-0.9052429595560769,-1.5300082184812558,-1.4518278509378917
210,-0.5943997855631399,0.9242525118031845,0.8323852469448065,1.979230577787128,1.6277552894487881,1.2001134308869377
220,-0.6315497043523249,0.8811802408497036,0.7986068195757774,2.245016579611175,2.3757078998054553,1.9181305318586008
230,-0.6150139333489555,0.8991505027357143,0.8122285200271796,-0.3005108402551373,0.2485844383652609,-0.09010129138419165
240,-0.6251517087594706,0.890605492008204,0.8015978933614425,-0.2428141698375974,0.2682651219803563,0.04499968784876546
250,-0.629484510548958,0.8861582560444158,0.7974263067774434,-3.1127212966098,-3.0297349176128248,-3.1745342601519466
260,-0.614142866880084,0.900537326149837,0.8099804376002004,0.738121885971943,0.2603461227754358,0.2780668736312231
270,-0.6066010980024761,0.9061075862613888,0.8169849166390905,1.6618878579867662,0.5409389471111166,0.7939891359433722
280,-0.6251072306285717,0.8849403471051619,0.802772860395431,2.498493089965703,0.4739293164139974,0.9715678542050145
290,-0.6259612184336707,0.8837318679105075,0.7949261586347346,5.258638682536302,2.072006412759445,3.265334210216456
300,-0.643826074111877,0.8699030469091634,0.7733944477136462,6.218628422947907,1.9756064964839861,4.832341223555253
310,-0.6289678814403755,0.8945170354835231,0.8044892899762156,8.696250932450887,-0.6089411662564602,3.8496237153802526
320,-0.6246685355355172,0.9147534996607057,0.828986879350098,6.787428444218687,2.2059089407008297,4.821559666370563
330,-0.6752713633121076,0.918387151206592,0.8748076932319623,-13.145867722064022,-0.09580587023715792,1.4842471508495554
340,-0.7406454666969358,0.7834457367515069,1.062609356725935,-20.694212140427467,-1.4083291147571906,5.37393061761449
350,-0.8022670270196196,0.6707686352810097,1.1064136427558515,-49.37892906256625,-33.745505036239834,-21.91401175830368
360,-0.8272774234604392,0.7543273433426753,1.1379896052346632,-55.237449798739,-65.94024189710625,-35.76261962158529
370,-0.7141557747468685,0.8568424986175636,1.0795040745465356,-27.43358297311709,-84.93191402154675,-19.04445739165334
380,-0.37863294071222553,0.8043802524714034,0.7777094872054211,-2.894807964471164,-92.94424060887783,-5.977666699326546
390,-0.3203479281752899,0.6688263046925481,0.7379730537608389,10.66182137556376,-79.78424705193282,-16.37982586511599
400,-0.2655322416037087,0.7710708998143374,0.7345061614977301,1.6813546937310015,-62.55078193298079,-31.584647320301194
410,-0.22767380639369303,0.8918714248597731,0.7714516772657756,-20.481990971049044,-52.25735422122874,-45.51808417324298
420,-0.21601883919351578,0.9745409054622635,0.7486726334029179,-24.88550055794746,-37.269143187358296,-46.63274357931945
430,-0.1755471634657465,1.0304028094814313,0.6712227242620183,-42.131170551303896,-16.8537624092205,-44.76250081467602
440,-0.5604631161393152,1.0375464990596763,0.9404942681987555,-42.74338730465598,33.36433191166341,-35.24252176590576
450,-0.9971510987293088,1.3635659907443178,0.8942266766809683,-139.9675331918224,-22.266243441299093,-23.429725390366105
460,-1.082375316587735,0.9949540526906243,0.5072798912259736,-137.77664376278813,-57.722169441427695,-22.15241203618123
470,-0.7291499573054095,0.42801983341224376,0.5446136922750652,12.95802567159663,5.555665686375779,-21.62315394678305
480,-0.5678650484315079,0.8467944215871426,0.8375267209471822,35.121607002802754,14.841079732112881,-14.846454166937164
490,-0.724251443648961,0.7201826398743014,0.783988767881669,-24.535146345218283,5.064488536712653,-9.79338456474322
500,-0.9082578285419648,0.2807859061735495,0.9523426647074476,-0.06466179064055272,25.304201628760122,7.225065414488499
510,-0.5115725003520725,0.5453352003882699,2.215625830095984,209.65352153029502,83.95868966119397,15.05612925733994
520,-0.5027122311850429,1.1225052977766092,0.9013691980037082,219.65768132561047,106.7071291745753,41.01555876312746
530,-0.2574478707295069,0.957047160796986,0.9934178465698827,178.96807694583364,90.85329591115187,45.90588044833858
540,-0.45512470377156283,1.0238201712836863,0.48624142517485835,142.93016004066936,76.2624898011793,19.102135900963013
550,-0.32400869056634135,1.1464924712505813,0.8948999243848095,66.16777308346404,52.43670174681675,13.00167977252019
560,-0.18380142425467066,1.0486204456756922,1.536574132364953,8.256339020149412,29.229246947851678,13.977712441059294
570,-0.405171514646403,0.8834934470291023,1.3510411319258704,-7.075849485099404,16.971359541098007,8.74505292801007
580,-0.4231526961140705,0.8991800100712908,1.1942674320203313,-43.27133746739628,-2.841234318240487,21.919862407866177
590,-0.2595811495775269,0.8578970416708948,1.2912675928581543,-68.1781428957841,-38.722450535620034,35.167518997750705
600,-0.21322489070401177,0.5411360072951067,1.7354636841745796,-127.84615411157927,-96.92417637453599,-0.6297873820664903
610,-0.22143109390243398,1.4463123552273949,0.7845431482456461,-93.72533386253328,-118.89300481956178,10.165480631126455
620,-0.7410994615455836,1.2511141544244266,0.6021097857317813,23.811294193544057,-112.16666343932692,-10.794719626641246
630,-0.15375415398218262,1.418164572643833,0.19368144415766397,94.01354762853192,-121.40985858869111,-40.55912606767185
640,-1.0253067051411944,1.5288445900640808,-0.5363720137153498,27.91053443397694,-53.71140867266377,-19.042159784591707
650,-1.1998595138763573,1.2129743144436747,-0.15724471150879848,-2.0086889381008026,-15.390066277444166,-17.387935249354683
660,-0.8232727386335639,0.5496084591040026,0.6980688705018563,21.443336788010814,-10.56298494881414,-37.01593061367173
670,-0.9799710983204765,0.024197806224337284,0.7020850045555083,-0.2978870804331395,1.2075255262041404,-68.54138139894202
680,-1.2452386038518926,0.19997454511186546,0.06914184220538513,-15.323665771874335,12.805955789253314,-100.2690618215981
690,-1.1357379727523567,1.3184536352064915,0.31546739798703555,140.86173691292453,33.353014296578124,-55.84532000601425
700,-0.8385247882429652,1.6110493500622927,1.445487487395328,202.83796652018648,63.172936037405826,-49.24701245431308
710,-0.0456427286576771,1.8149851795891652,0.5258828568167766,-27.65619877329884,67.60198016138965,75.11465071241007
720,-0.6185717247087892,1.1048966956625976,1.6722329978788986,17.501337495779367,52.23902941448448,75.40820425060713
730,-0.8863585531644429,0.8373263536994591,1.2498506172144561,-23.609621820604374,49.79500303451444,104.39607940112714
740,-0.47103869488686034,1.0676238587032039,0.28924129713610386,-26.383936524418704,37.93644499830383,102.03029297889117
750,-0.6013990474962477,0.5607661249722171,0.28286099774420204,-56.28314538840406,9.521522636466196,32.597535651949244
760,-0.7893599887147315,0.21513422437396978,0.8099735609925958,-86.13117155931904,-2.036736222875654,-4.045885417387106
770,-0.5725986158730785,0.47150565338670264,0.8310313543553064,-79.42266545358142,-24.427789735568908,-34.77191986564085
780,-0.4689456939135686,0.48884843631154534,0.6025422277111266,-41.23529455963669,-71.55292815097125,-130.23756143632932
790,-0.5520939957344879,0.7413858593068345,0.9084433184139178,56.65169929311899,-44.74914736348432,-131.95393733736822
800,-0.4035554356552362,2.656240658651056,0.9905050702593858,130.6069049865705,-11.407211894307654,-100.01353771212764
810,-0.6894407483575091,1.9113327623772494,0.25419679554890307,146.11961689288796,25.385376416059326,-60.10049619367009
820,-0.6685590914855033,1.2469687664864388,0.5106024521897601,94.63290630078103,51.35662054694186,-53.98974650444794
830,-0.7118664805293355,1.9559578034691918,-0.050707789853855996,79.29876240442934,66.41382633652668,-23.14911314447098
840,-0.39355376554340016,2.229836726592455,0.2578910977294674,14.606491814719313,78.4028746084085,54.423752807407645
850,-0.03844361095873169,1.8188178863078341,0.5061444562660884,-48.14644461818979,68.6320603962824,96.60919614882667
860,-0.11768067203913557,1.3274836110960178,0.5807644297928545,3.7638265046098898,50.86683604778855,79.17919093307279
870,-0.43597520077632823,0.6782660739251423,1.2122779776848003,55.19972733679661,43.17153347247515,58.206664207157885
880,-0.6592545640374579,-0.2822547660608118,2.0515657538308845,-33.58918496752171,26.421354138646308,50.67140456025503
890,-0.9312651025577954,-0.28260559536428687,1.759624076672544,-22.644305699890786,13.617541247886933,27.606218710569806
900,-0.9826043453461268,0.3348166174515922,0.8318439190402834,-12.260038281147644,17.30341163034242,30.017746794354878
910,-0.6512022488637098,0.8599334974025463,0.7434588299157786,43.59864805525111,8.24818613244437,39.977658389449694
920,-0.6410722435663716,0.951776524805299,0.7498647422735923,52.60224946010953,7.697691718093425,47.686504993023725
930,-0.6372665479046125,1.0179736802025285,0.751084415978259,38.560759500396394,6.271210179242459,40.332469012984504
940,-0.6512309605592393,1.0326624416413017,0.7356780484128527,18.453811726543073,5.703650529035752,25.08239158397234
950,-0.6395572653951472,1.0317280184127395,0.7421932616751393,3.3574332226374306,8.162969503268059,9.844053030232017
960,-0.6427468175301089,0.99636936952325,0.7340967915564633,-4.869445369238579,11.98806654847154,-0.01064435174159506
970,-0.6339003880136812,0.9759598997100116,0.7367924207094021,-11.082013295814223,8.42150515555173,-2.480840142884248
980,-0.6392205137245328,0.9558431310211356,0.7224138434187395,-8.034787767034848,6.1290517595138105,9.736828545958158
990,-0.6339881377932147,0.9716676572733908,0.7320307438464267,-6.336930683061728,7.445336982407059,17.340497393955005
1000,-0.6497668177979931,0.9831209181105364,0.716917968694834,-10.384202264518215,10.473573053309053,21.149088892602382
1010,-0.6389933427049136,0.9988860811981545,0.7338301671444688,-17.548253239010606,7.896873221276782,17.727371241943448
1020,-0.6398653693797519,1.0149444264849445,0.726864825960845,-27.68336706452643,7.061917950400863,14.63441272978222
1030,-0.6647043722948021,0.9810618188029088,0.7030370063616591,-38.181932072560656,0.20429943528949976,5.551783701573937
1040,-0.6345037703469616,0.9812793571691734,0.7421669064397007,-37.91191644361615,-4.667952696562605,-2.5731930407479453
1050,-0.6143320586491087,0.9739542731584372,0.7680708453262577,-31.164349620604305,-7.7583603815965505,-6.466834355292464
1060,-0.6189373086061563,0.9628294634038985,0.766077512969268,-22.296640611598626,-8.397399460783182,-5.686553187589642
1070,-0.6389005987913111,0.9498307748326134,0.7449936932939344,-15.793952319674842,-7.810873889012668,-2.646167900680051
1080,-0.6334074188657317,0.9537427828338375,0.7445424678854867,-10.131790554177073,-6.299466462018202,2.5772527054667718
1090,-0.6285445488187357,0.9453374390552073,0.7484834585113608,-7.9030677358162285,-12.185642587704395,1.599323076158882
1100,-0.6158839531438803,0.9574043054488774,0.7676354375215924,-1.3676680849434082,-14.227254005688637,6.309776811417733
1110,-0.612150858200222,0.9731584219392109,0.7883597798560718,1.2352744990143825,-18.80043564106556,13.63114060633487
1120,-0.6234369028650383,0.9403176372587956,0.825676416835951,-2.4158750007578047,-14.007584313189184,6.757075554227241
1130,-0.6086128571454309,0.9901432987126019,0.8066746213467099,-8.802808031502334,-9.611314324474527,-3.9433509249186582
1140,-0.626076614654125,0.9768456807601502,0.774700141187586,-12.479909078666118,-4.36588375655805,-11.094349896007685
1150,-0.5770590702212745,1.0026851758363426,0.8174733246986322,-15.006076330757239,-1.7158012186781095,-13.604841716781593
1160,-0.6319962830093178,0.927209938915908,0.7598038013388706,-13.28700306394881,-2.642576398429783,-12.60156548137325
1170,-0.6067968706489284,0.9514155932715871,0.7886206394186396,-2.024826980774254,-1.6644704283242808,-3.892840182015161
1180,-0.5997583785833576,0.9712030295333515,0.7997313964496836,3.734740576498874,-4.180335153541713,1.858198617725269
1190,-0.6151702528840293,0.96239064646908,0.7869424182112758,3.732082621833432,-1.2401651965115692,4.9289460389634465
1200,-0.6137190935383462,0.9565768334820433,0.7858151505296125,5.599879247392491,1.0360547592227445,6.858360237998862
1210,-0.6106213653840867,0.9673542431449879,0.7856658167672751,5.481369208247401,1.4516278358486085,6.429770821462693
1220,-0.6161270699739626,0.9661510550222332,0.7836219164329487,1.6017116183951021,-0.7581138880353909,2.9750195360156297
1230,-0.5964078264246795,0.9868658346900276,0.800518201782361,-0.8337037613532168,-1.2542089362772522,1.1183404365026963
1240,-0.6238958641698651,0.9471928533145118,0.7763693233746601,-0.0072971868932225625,-0.47130790266436406,1.311275643282615
1250,-0.6570271244529224,0.9120646340360239,0.7445796011622223,0.15868922500932267,-0.8775108602786448,0.7548424689709746
1260,-0.5945538807686784,0.9770988963185564,0.8046349398575949,-1.3587009836498098,-1.3951608717565436,-0.03917610531029703
1270,-0.6141155553865816,0.9590323781574888,0.7831875392929484,2.243846022055833,2.921225244323069,3.7334265549881342
1280,-0.6057303203618366,0.9698642651502123,0.7906055259076573,3.4365760290315883,2.2444159042572585,2.869069047815364
1290,-0.6293884303513316,0.9428949336688316,0.7643743346079116,6.430875345294557,3.0448562182042482,4.437361813570673
1300,-0.61011260953028,0.96615075248988,0.7864993434157469,8.658947267717949,4.004024192179363,5.4860950718109915
1310,-0.5983545131078415,0.9848754088999575,0.7927555272091847,1.9623522300738112,1.6071255879986874,0.28851376159126985
1320,-0.6245765360292489,0.9569018613040222,0.7647095552636761,-0.17379887988922932,1.2353526831642276,0.8096788137099526
1330,-0.6279348085922133,0.9585421486806442,0.7606280287101627,1.0207113993164905,3.253893895445514,3.8410858675086903
1340,-0.6218956682830145,0.962716664374869,0.7631383133735264,-0.30727989696223734,1.3208156142539638,2.259174773582081
1350,-0.6265669992470019,0.9518834651006728,0.7604178594353234,-0.7582828485595057,-1.1002038274000503,0.0084756827117487
1360,-0.6164441220475954,0.9632832259575043,0.7764990547582225,1.3225409093153622,-0.24085863191902473,1.324401359521753
1370,-0.6282684907580978,0.9527730692427254,0.7643248019075884,0.2451188637986181,-0.2373921935077927,1.2082840735266616
1380,-0.5957112816594093,0.981492957732501,0.7905041087084399,0.7211373969137507,2.585708820771162,3.0688628991795253
1390,-0.597324713419654,0.9858996017539697,0.7898514890964144,-2.5589436427166015,0.14024635804657415,0.47013461364322073
1400,-0.6070058222933766,0.9701851230438593,0.779891667322291,-0.7982572457259545,-0.1448918907622897,0.33826943257258113
1410,-0.630736352608715,0.9478218019096566,0.7517347473686185,0.6451781279146054,0.5561642172978154,0.5594794202046596
1420,-0.6037824171141136,0.9821541519410548,0.7845414791158406,-0.5437491971976274,1.4019863667654386,0.11900208959748093
1430,-0.6234345574362499,0.9651821886463218,0.7733018030171569,0.7553328768600902,2.556807014805362,0.28599364191807536
1440,-0.616905701603075,0.9670612062765644,0.7797358553019496,5.408830775307523,2.9499702605228704,2.908032523567303
1450,-0.6467805128275933,0.938448201301271,0.7474438444675152,4.752846993323406,0.7468925835854108,2.682503102226383
1460,-0.596573190252124,0.9899174855721492,0.7962126960235268,3.6433358743984727,0.47972194110213684,3.059449446579342
1470,-0.5844824357551232,1.0020215210984063,0.8069745040514973,5.413700827295736,2.793163780936439,5.10494219757622
1480,-0.6218622747410404,0.9671715362358602,0.7658915805023578,3.532166779881731,0.8623375619685417,2.173853810187942
1490,-0.6126383624364258,0.9770708550483826,0.7712632190574195,4.022884543881585,1.6491500457564137,1.6555831093350566
1500,-0.6085251133909426,0.986604447475317,0.7858539170501729,3.5426660871704563,2.688282018843922,2.1850086484811246
1510,-0.6288790237328215,0.9678173023636001,0.7645351194302312,-1.9587721115198025,-1.6538410732561633,-0.842896814164668
1520,-0.6148046094653139,0.9764860594752783,0.7744547029789312,-2.2069899051132396,-2.280811809442745,-0.8044938796182193
1530,-0.60915903690953,0.9818084725868484,0.7761773697759012,0.2737391704142407,-0.9531114000127936,0.18970932535270024
1540,-0.6165886109773011,0.9696266438580393,0.7653221196868156,1.617924340076504,-0.37904824791666686,0.30415132304125647
1550,-0.6200675820054357,0.9700857005542634,0.76588073581311,-0.011343164954088492,-0.3951752847629017,-0.0434932905553953
1560,-0.6076571973410966,0.9830767543033109,0.7795531722945759,-0.6057503018709259,0.7700385156634622,0.6898449403910916
1570,-0.606651104036526,0.9804601869526309,0.7783720436345207,-0.537092804069509,0.29968050236789257,0.19344678849958974
1580,-0.6237995581898444,0.9642654634952215,0.7610368848528489,-0.08506209375034635,-1.1997760818398768,-0.9239002588948313
1590,-0.6183566336400834,0.9701689545779354,0.7660802553272684,1.2510453413947276,-0.3978089889837032,-0.4823241275397452
1600,-0.6011100853446764,0.9893119992940741,0.7918860420140845,1.805975832032842,1.199428874374225,0.8265068008943042
1610,-0.6029410051623401,0.9878960241591145,0.7825546153809587,2.984513778729417,1.1502706418194488,1.3213563323332411
1620,-0.6264798438073463,0.9670460030033109,0.7647324388955677,3.5196558771423376,1.1634076195443483,1.491524937790886
1630,-0.6078966452822844,0.989218855775377,0.7798616412938298,3.2286334157226833,1.591225028809231,2.037800585957041
1640,-0.6441043366791955,0.9524508988651691,0.7390976625076686,3.0796672729894947,2.306582768396801,3.1039442045058125
1650,-0.6323240110878956,0.9644194608078217,0.7517800751931593,0.037461833642858045,-0.5843577708040233,0.2048928747090013
1660,-0.648093309661592,0.9488915355399816,0.7362735750426848,1.1756403037638126,0.7285892622071584,1.0456094908732632
1670,-0.5912435500629087,1.0064451663542917,0.7923851457512299,-1.3138276430103517,-1.4796152340962236,-1.490247082623503
1680,-0.6084523578295632,0.9894979059355407,0.7760851582469538,-0.15323475878007514,-0.5009424275888221,-0.44665537040913184
1690,-0.594533447293338,0.9995110552592266,0.7893783711318723,3.298370335758623,2.507535811996964,2.667853300052669
1700,-0.5969738314090193,0.9953412764519923,0.7880446471572392,1.6187183452055218,0.5618039906621264,1.3710081154970195
1710,-0.6064277629869603,0.982481091704579,0.7762623844561827,2.053716413132597,0.015283000838128558,0.608711651153997
1720,-0.643997027175087,0.9502241702151504,0.7335937013052397,2.9464340855867834,0.8378109427755157,1.1918011991759978
1730,-0.6092589893973321,0.9904250461106106,0.7711498058409778,4.340720465088376,1.7762307362284484,1.6058360378091332
1740,-0.6245416265672914,0.9796833839443259,0.7576568469465632,2.2178908432747555,1.1086022352924993,-0.03605122949688566
1750,-0.6207868444496908,0.9807832753335237,0.761852525880384,2.390490458150184,2.359482135306907,0.7358642019465033
1760,-0.6228211556735629,0.9765347516345302,0.7596460298155244,-2.8368025973135307,-2.0050334706432262,-3.31539355021906
1770,-0.5982860512167754,0.9996935754211466,0.7815908022491839,-1.0455429528660984,-0.14856839168255284,-0.38020490921690586
1780,-0.6056457100308532,0.9910468867447031,0.7725665008997352,0.95782916744266,0.8311255184332056,1.4838040197606894
1790,-0.6491841862108834,0.9512804574222236,0.7338224237182167,0.6663313078931583,0.06835242391821172,0.39203503810931345
1800,-0.6297811399854936,0.9672982399887184,0.7530597343533487,-0.056817332033286094,-0.9550246047135645,-0.26577450080160736
1810,-0.6106203328917662,0.9807206910456396,0.7729718184745371,1.7718332113532196,1.3741769758483915,2.1853286135606527
1820,-0.6206926311626066,0.9745286310919328,0.7613182935520049,1.3283606464448894,1.4899472916285579,2.0877699355464285
1830,-0.619037064723753,0.9792733144315149,0.7653933097185577,0.06899179607954053,0.082021148542758,0.6521184156386076
1840,-0.6358900117490813,0.9608536076232045,0.7460779391885495,2.2733673098255704,2.0564841029518033,1.8101436031074405
1850,-0.6166597269801611,0.9801795671889371,0.7612823635822422,1.2843622535310826,0.7445499608072813,0.7354718876679127
1860,-0.5805299109880061,1.0162412048508027,0.79840955721177,-1.1117585707332078,-1.2410144997914478,-0.36374184624616124
1870,-0.6436226472321078,0.9535698409411947,0.7370609128276746,-0.3417478155364082,0.02415488992758022,1.496162754684588
1880,-0.6257731373080706,0.9733194292156973,0.7551777660490003,-0.16156040944649847,-0.15176003341479377,1.0561445759200994
1890,-0.6138958103818561,0.9854021400568279,0.77158678093347,0.8399267129671805,0.5123992873436672,0.6044677136733828
1900,-0.6226180323859014,0.9768432724303796,0.7624017354439696,0.5731082526011537,0.8889731694468888,0.573815089118208
1910,-0.6157129313179394,0.9819965181029824,0.7628468675864003,1.4298326451420607,0.7638646624445308,1.3436542221671697
