time_ms,ax,ay,az,gx,gy,gz
0,-0.8308379600484207,0.4086024989491375,0.222728137981009,-0.4747551483986788,1.0014071150254942,-1.003772527309429
10,-0.834633825006548,0.3988528726373082,0.2142726400164045,-2.3114253479585245,-0.7417919734266692,-2.8650951561273788
20,-0.8133961176818121,0.41797607375127355,0.23573893453789282,-2.923706600711964,-2.5080252175917535,-3.032970844398029
30,-0.7955454629334667,0.43725042097275485,0.24881866072036501,-0.6798135268483358,-2.079366880494303,-0.786038597560134
40,-0.8324793817943273,0.4082351868454471,0.21612365126646985,0.8902499094728921,0.3125542188666153,0.28576024482469864
50,-0.8453586561169295,0.39514774841382866,0.2072374432052724,2.7720441955313735,3.63864931554045,0.8686169880270405
60,-0.8343891088852825,0.39841329460433805,0.2154691115463562,0.4459364252128254,1.7513153413273777,-2.210190747965344
70,-0.8297862118819194,0.40015920676809547,0.2165516811712623,0.2988468595343078,1.4418621711569208,-1.5713069194332279
80,-0.8101381030057336,0.42129569301187725,0.23913317426264888,-0.08579563438779003,0.661273182154827,-0.33553430367520465
90,-0.8222914496387167,0.4118271699654544,0.2335133487785071,-2.1666979925071326,-2.4185914196618112,-1.6541749278487292
100,-0.8233212865143806,0.42234310949789483,0.23282374493777633,3.3363189637586337,2.252725947023038,2.6917179359805092
110,-0.8024199318955026,0.44100873217294817,0.24569435596662892,-0.36628656067568865,-0.21375592113133263,-2.932865830145125
120,-0.7931106097288191,0.4326917323907403,0.2499155065129862,0.4924132818082543,1.2045611252535053,-2.2714548273223194
130,-0.828307814688136,0.40340930066022795,0.2190741011403264,1.8172317961192135,1.9321563515600562,-0.845513767502239
140,-0.8504031410699087,0.3783462192147725,0.2022121719364277,1.1801672331658355,0.5739645383486318,-0.28955014914194477
150,-0.8253885863098428,0.39905276590031874,0.22135807838761593,0.09309749480110241,-0.9140333280391433,-0.1025588757859236
160,-0.8070141276998855,0.42935965037371887,0.24267061608563092,2.0305592533210977,0.6793105513313005,1.593128699832529
170,-0.832565375799015,0.40411550307100663,0.2239206846197951,-0.5999917597128799,-0.7280491919969108,-1.8683775303641532
180,-0.810222196472881,0.4215909699884921,0.24682099901198865,1.0891116312662865,1.7733188498803787,-0.46749713871816767
190,-0.8323386626548048,0.3968001410886355,0.22092197874711686,-0.1899707662101482,0.3582664460474536,-1.6337765012884553
200,-0.8010859278278559,0.4293553991757957,0.2483664079136903,3.630283058172096,4.096202572781981,2.395007476727329
210,-0.8333377904401336,0.3986769077326851,0.21426112911539963,2.8959482199530937,2.9794138655977935,1.9792890507179361
220,-0.803910818626966,0.4255714137979056,0.24464469752607185,2.241650252192569,1.0786260096168554,1.1223367263695718
230,-0.8330145018042242,0.400733040456246,0.21619717985313242,1.222182775489357,0.11388659781710131,-1.1240552929022423
240,-0.8078087518118057,0.42869089460218474,0.2479358505444148,-1.0148797407057777,-0.9337406508716025,-2.7207513951699176
250,-0.8332158391864141,0.39814077375696416,0.22009549264242484,-0.7354970004567725,-0.7052822965635279,-2.198742428112283
260,-0.8430317400768867,0.38477001415167167,0.20914442511743975,1.0357553163645323,0.17492310931945854,0.16026024485311918
270,-0.8343721609136773,0.39824475943588417,0.2158191632339856,0.1017588150644737,-1.2754274228555535,0.08853624017331449
280,-0.7902621512120747,0.4420899482032924,0.2630891979835419,-0.08957492500874525,-1.1822695845447952,0.6610394629347749
290,-0.8087061816992747,0.4225510275633324,0.24287227312037762,0.4789563983794465,1.433086586839489,0.3106927881835686
300,-0.8348077885980923,0.39499700944837457,0.21466080208152336,-2.3892380018127177,-1.0268443827186238,-2.582395285416222
310,-0.8166406618893621,0.41156181451272267,0.23396196237149652,-3.525216563849613,-3.007100335227011,-2.8320600186867333
320,-0.8123495133388079,0.417842038106792,0.23865190272652678,1.174548991184358,1.0267066804408354,2.2788006966784873
330,-0.8467036656683291,0.38672700620695605,0.20400897887605676,1.1789904859472444,0.3931750706743939,2.0364203630364948
340,-0.7905226281715687,0.44236761857650425,0.26169643202302334,2.7337732036102067,1.0700348375858095,3.1676135328531116
350,-0.8139381740376853,0.41750630842563075,0.23779270235138156,1.7885126778559628,-0.00459376230229902,1.6303039036553126
360,-0.7996582895682379,0.4277211632448883,0.2545876675913633,0.010488787285679646,-0.5751243750471562,-0.13797225848678285
370,-0.8435776544321782,0.3835594901096081,0.21671648633034546,1.3298459599721006,0.919598290888434,2.4364228899751827
380,-0.7943497686872972,0.43234175379385276,0.2628118937118613,5.087043314488001,5.263087628525177,7.499349182358724
390,-0.8093065128288317,0.4242393253785546,0.2483195931386185,3.2292220884364697,4.504375664963193,8.22928303750483
400,-0.7941049347897535,0.43786427527638827,0.258847027358988,-1.4418332432373844,2.4870727911677504,8.608357121365273
410,-0.8459556764794384,0.38976708237348867,0.21297641617275848,0.37555242395679334,4.004099734920963,17.729159717765548
420,-0.9311311924794209,0.3011517305818173,0.3949426952634605,-1.7001190586914026,-13.201701207791228,45.29217828468356
430,-1.0479222493286615,0.2498482858646757,0.3097891968401486,13.548431065204376,-65.24767005025271,56.38890965662004
440,-1.042709171532989,0.33061332370018315,0.3019385480937331,19.078160964185614,-94.5710891583743,45.72894292313451
450,-1.0027338097245582,0.38191418335821303,0.4106793871101394,10.11490133666683,-102.8047443957704,36.91597022130426
460,-0.9309542524434642,0.4489876553559959,0.4207551385092216,-4.124650190478525,-129.14913414512552,29.984486990289234
470,-0.8624427633813267,0.5450547906531282,0.36910058237279625,-18.16918592694449,-133.62698453379357,29.142663227337987
480,-0.7612433360948827,0.5467641494819011,0.37836162264851714,-30.576808371569065,-122.2075220237252,18.026545832716536
490,-0.5849194066234988,0.22322742343209914,0.3288441030195379,-32.069364704775985,-67.36353494132334,-40.24157865123419
500,-0.4070155955075269,-0.08165193490031136,0.23675049727113326,-16.814553408821677,-42.85125802720323,-82.23520230588338
510,-0.7863142520425903,-0.03716316821205738,0.4073898183545653,9.09386530552579,-36.17029228944791,-137.47928484907715
520,-0.7296102821722734,0.39360072189630846,0.30742194047791294,23.641811311068356,-27.435237525245427,-140.57081391236815
530,-0.8120921413095198,0.7903344251274436,0.30360209381252057,3.336490490078253,-11.675392549529516,-91.79388970893874
540,-0.8403763412459271,0.8875586122418074,0.45667823141418995,-23.170952772568597,-7.126973429539296,-41.08869785512959
550,-0.8037987766363911,0.7541654989394001,0.589230740785064,-19.378447520627276,-17.566111313273396,18.50510857416299
560,-0.8959456781465149,0.5151338101800836,0.6509109869682869,-18.671895196207988,-28.15159363425966,37.58448566615967
570,-1.4006480785319586,0.2701496322330281,0.8410879895986869,-39.01066186111335,-39.48005490938911,1.114980578178789
580,-1.5042363576427968,0.19118579428521892,0.75279194663548,-33.48559463626806,-38.05153847856472,-27.052928903496024
590,-0.7368077930958722,0.34599092487206956,0.3668992650324546,9.83365683608142,-10.276941149156073,-8.032863381427553
600,-0.6798934214759508,0.3166621461519189,0.5046807889832283,-3.936086979306695,-11.058859598757538,-14.454092016145669
610,-0.7311451892730961,0.33490832850287433,0.5618069445316486,-15.801608214672104,-11.09938114035888,-13.930134579085248
620,-0.7836943697688478,0.3124969083123288,0.4711961615839976,4.698285685844703,-21.03771271296129,15.182148467102522
630,-0.702658313366771,0.3389030056344676,0.5425318004944003,7.023681537866465,-22.491868815004075,13.1178830901599
640,-0.773949248780064,0.5022901885869775,0.5447788378303133,3.460296791803843,-18.904427584697757,13.172539231335632
650,-0.7603823494013908,0.476585002615146,0.5382783881332447,-6.9931996791877005,-9.313104405869497,5.785949098890628
660,-0.8858449948667829,0.48683147866827925,0.1148367876222874,-5.784307369534806,9.18513366304621,-1.173641507689636
670,-0.8950076125277675,0.21611253472575237,0.039416641632754004,-7.394471924574566,39.99877130861547,11.140394852253381
680,-0.9482767959432035,0.40239177902422085,0.1288776868224627,-8.438899030407804,73.04042508699936,30.713225343798513
690,-1.1084751610822505,0.3415445212676198,1.0836766326899547,-1.7019028357560868,112.15608409985182,34.78648890624954
700,-1.101699430477047,0.06230252855184904,1.6981092881220792,-8.315657100792272,118.26428619489705,23.36735804027886
710,-1.0244060308476912,0.2137256504043556,1.1811998070871637,-33.82113013661986,89.16410451922098,13.97332212309735
720,-1.0724994963211323,0.3939069261930131,0.9397224580327493,-34.6776598235069,89.06371481188351,17.363328841232246
730,-0.7746092355129656,0.4630484587837423,0.3185477223786451,2.6170439399116505,94.03330909101528,28.159007760997937
740,-0.8340165872660036,1.0145232735498224,0.08348321451740626,14.05905086248833,72.69706498424473,32.47503661243759
750,-0.6290495942139911,0.4380691020510782,0.46967153642837295,29.463169494234698,62.46160954876589,27.603276093450837
760,-0.8410418857594884,0.07645912902056312,0.9503920381587793,-24.903238656246145,13.014923740145498,1.1794671036238404
770,-0.820098625237619,0.20935027052201396,0.6739869351055895,-15.333963444938512,11.154904212021224,13.59199352289594
780,-0.8235813051432871,0.2906888821863804,0.47703535801180724,-3.077561325581445,-3.4856902263600427,24.182370344013133
790,-0.824849221701181,0.3860988298454716,0.34345591641017503,13.202862452506583,-8.782001524016952,41.45705929647074
800,-0.8114339819613476,0.46480466915012136,0.3312025226648822,16.37473186253991,-16.780511503502453,54.79290858054397
810,-1.0361876379724044,0.4657681470197489,0.35293683398951925,-9.703022781000724,-81.20291067046745,24.675470662159867
820,-1.1470274295494396,0.5746320590960369,0.41801212593273535,-27.024811438630227,-132.19293473149597,-11.36186282445183
830,-1.0563141911376466,0.6084815676043458,0.40688641271414205,-19.019011487822088,-127.43023753328258,-18.172086553199364
840,-0.8373820071862131,0.5802121611945501,0.43011068682654674,-16.45493850635351,-118.50489197399133,-17.291846822541377
850,-0.6486266412744965,0.5588233159992219,0.40084591114336615,-26.83227578768555,-110.67903254648591,-21.269128300229017
860,-0.5991699580044367,0.4643549951924019,0.40968584258802665,-21.298072224464082,-93.05849324525214,-21.961620329749667
870,-0.5333047978929434,0.44013716746626647,0.41475099032929136,-8.24009323584009,-84.14466018566837,-27.731561504285125
880,-0.4684050361527052,0.36960502186207483,0.772983377566754,-9.713109026549814,-43.24323890518454,-39.49770902379355
890,-0.7191704735296734,0.5876528356990454,0.3932500746108396,-9.442597429438559,-40.34498618821658,-60.394669821208474
900,-0.7547679385749446,0.6930808636035123,0.32744815000619004,-21.632277812569992,-17.29208298054494,-36.52811551339517
910,-0.7517128714260656,0.6176913714725094,0.3853653931019296,-44.4895351230992,8.660513350637997,-23.83529866409884
920,-0.730546069473178,0.5535697505708844,0.49121088375572486,-52.09371407813208,23.55953461967894,-18.518068625051704
930,-0.7458672086237927,0.4326164650598685,0.5276807820677195,-46.8469549210727,29.777278892538032,-14.033610525912046
940,-0.7619813532125139,0.3582551232997886,0.5730078868069953,-29.21734075170796,9.096757961389168,-9.03142673768211
950,-0.7489579246395256,0.32004593508078605,0.5976268801226767,-11.04247995785205,-14.989554916228956,-0.8117096533089991
960,-0.7092335343247148,0.26487374460693114,0.5884459285487906,-11.482884386666504,-23.033239180893077,3.3762868608823506
970,-0.717275362832708,0.19998006628018788,0.5630367393143967,-15.841188375096657,-23.949364906615003,0.3199330604766373
980,-0.5920832247881653,0.41827618396202354,0.4880990952466056,-19.7071181286107,-22.24897536322238,-22.32567765304593
990,-0.7889111738486384,0.7754786786757081,-0.23481007939933538,-6.531263396412489,-21.308936120421883,-30.079263506238146
1000,-0.7540532806906524,0.4070313777127401,0.5945151399860272,14.624724021223164,-2.7984972919402944,-17.899126549808436
1010,-0.89481836218335,1.137535598030891,0.906496177706519,66.49587173988263,33.61602054954063,-10.519591885786568
1020,-0.8911663095480338,0.8681509401679908,0.5480478308298531,37.37670646645287,33.282520452152276,-10.358640615563218
1030,-0.8868861281561925,0.49546058922547803,0.5004187677357541,20.907707907545017,30.051177750268792,-7.106650129167594
1040,-0.8220009168713192,0.44017391292699776,0.7053178520277043,1.7412096909467647,25.680395592289646,-4.361934766265295
1050,-0.6909937796185587,0.362547647421835,0.6071817625532281,3.053156701406562,41.19590659004106,-2.7767023110138154
1060,-0.6818393843919035,0.4442395691561919,0.9032051086853099,11.892025461884646,54.434604701262664,6.836346457509995
1070,-0.7152192243248886,0.6035518741158202,1.1487301102680836,11.768751537994302,58.73584261781649,19.096704500760566
1080,-0.770353054119102,0.3952212854547878,0.8688817150782085,2.2493178077716878,51.40836395817062,17.000256940318135
1090,-0.8591868086878888,0.25423197475472115,0.6989471350387975,-14.092225169707993,44.429747269354145,9.56347042767452
1100,-0.8396089169282394,0.8442205533301317,0.6088612943896446,-19.791315875548573,55.885091215873615,23.31291398735166
1110,-0.8442221963941896,0.8094504504520252,-0.16322672198385765,28.676395042857322,31.3208881694619,45.602929013708504
1120,-0.822498300888214,0.9793763877013941,0.3111796830671774,3.411171337221777,15.71982434105815,43.66991497755283
1130,-0.606456885849801,0.27626970880849827,0.680898528015563,-19.255877457993194,12.262771555566822,49.73843006428587
1140,-0.6921110951927996,0.7730661413362115,0.5115345231017321,-29.034408836473652,7.178373321795138,36.32771771530599
1150,-0.8024861290828968,0.8932327027983057,-0.019480302619622112,4.906402559416281,-9.37891949910654,46.102920675053774
1160,-0.7267745156270644,0.4917329847062399,0.4289680757315084,29.562209067484265,-21.17918000115106,26.93265304227488
1170,-0.7876514145973618,0.3909026749539529,0.44625609010485745,10.658603174514406,-9.761168479588324,8.017409869646528
1180,-0.7964441701429322,0.5218909955805938,0.44553982947071646,-1.6864207645912455,-7.8200679316970625,9.16274731942376
1190,-0.7850261821203743,0.4824521867082617,0.4815511417246243,-1.4344267469324168,-6.667995688841917,10.063846589234645
1200,-0.80796877200382,0.3373219795723262,0.43552544849439634,7.040993779588131,-6.74985482546005,13.001313152731068
1210,-0.8347114927611112,0.20671639132307315,0.1834297987183257,30.102364935064184,-4.8658276745589735,5.189093129176234
1220,-0.7816115018926477,-0.07313786948887646,-0.20107232530054323,55.78690210974848,11.478952699040018,-34.2804493793855
1230,-0.493079822984747,-0.18348597374811507,0.1030215162728427,80.32303131112405,26.448361102999794,-22.9959954975023
1240,-0.7933118563037205,0.26844374240144103,0.3272622810116488,45.826016827416396,11.831482850098716,-6.314480255478431
1250,-0.6934549919366844,1.1218594402921458,1.298428224143856,96.29187434402671,41.413306671618756,-30.215356043377636
1260,-0.6256746225753744,0.8455581432919959,1.1335872682920116,50.15218418123793,28.278249188172346,-28.480255447297054
1270,-0.7972536064542911,0.5144632417576258,0.4838189732281028,8.45551060512458,14.401714758640114,-14.414406070438831
1280,-0.8179715296865522,0.35204447080279344,0.526466848129318,0.8737599920694682,20.061900843356533,-20.306460278775756
1290,-0.8297919366221962,0.4457570060502239,0.4228634148021108,-2.6429883038544535,33.62984170149074,-13.469885932999937
1300,-0.7300194394065993,0.5288754240040568,0.4222239862179024,5.476252800522542,46.17812260203631,-1.6256960335887471
1310,-0.7691214612290016,0.4898437060555251,0.5125898540607725,5.161552830562931,46.52464968762373,-1.478818879200222
1320,-0.8070349270886489,0.5054771971767692,0.5077942589038036,-23.8434753124262,41.86509554849018,-10.83730328627506
1330,-0.7229074206110236,0.536540395618349,0.3479303755813568,-35.95039541932432,50.33973142309768,-3.092828985020396
1340,-0.7396189367213822,0.2745945136425542,0.29789899778027973,-38.622274701187095,44.228646509005685,1.2525760574804639
1350,-0.8789622089798979,-0.07676417426722165,0.5824864551034776,-72.69496506113107,25.80244380585237,-5.055343044016277
1360,-0.8004774878979206,0.3332231831576216,0.6176459138562352,-62.33762896664075,33.758431525550435,18.887790912423
1370,-0.7379382583910646,0.4454447109935211,-0.011550279331240101,-26.57765816317646,32.46732891093597,24.96137419603263
1380,-0.8093673293882391,0.37270071944919353,0.5861414191906903,-49.245919222523874,-1.4545743654059295,21.092588160877472
1390,-1.0631301611247002,0.16269062225596864,0.4542695667182751,-70.01386566902252,3.5104833058489198,7.03626397750369
1400,-0.8423793569058791,0.3521126794538848,0.36417237784873857,-15.014786479147196,-1.6859999486507222,1.924375016780538
1410,-0.8329695120134486,0.3856064860051725,0.3093802639619737,-4.80064796391998,-1.7755596118979797,-4.174897389709256
1420,-0.8205528996067799,0.42429346266979406,0.3302420834722005,-8.013342487929354,-4.355281649178236,-8.088310433788724
1430,-0.8279681497159137,0.48835114819436704,0.3539368856110611,-7.243063997276051,-7.014208411394335,-2.568515166000263
1440,-0.8179826027198246,0.5349725714945918,0.37369903274165106,-6.883710832729309,-9.449070802557427,0.4996079795017121
1450,-0.8084530758670003,0.45425564473663355,0.34972242641949525,-4.990149074206804,-4.168007653873326,-2.224622264301705
1460,-0.8442284505180141,0.34331539398616967,0.2894706876240176,-4.125766052776371,-0.12760536299926156,-6.572252447395838
1470,-0.8300661854048872,0.42251283343545615,0.3174608275250294,-1.054119874730647,-1.2830917758858198,-1.8891187134102703
1480,-0.8246094712527468,0.44510149960821344,0.3226158084720991,-4.572672829264903,-6.302437566265213,-0.3474888178401103
1490,-0.8120626981784926,0.5402100893059838,0.3421288906376214,-5.020200069486517,-9.87982649343533,10.556112268263215
1500,-0.8014771469375848,0.31176907653251207,0.33384009149086874,-9.273497872847923,-5.607210088281931,9.88417032920696
1510,-0.7423961930936491,-0.4283596275494174,0.285027704157748,-24.93476480599235,-1.6708367742725603,7.672736459480019
1520,-0.8196673107008836,0.3080094678470463,0.32951323071176075,-4.91150709532719,-0.5219617035920621,-1.0516914281762126
1530,-0.7876345026114091,0.4484665773100132,0.3614942152617813,2.299201555868352,-1.1757683630258011,-1.3697635527034295
1540,-0.8108127616831434,0.42767604986139096,0.3323544143230412,-0.675408317757959,-2.1920086733288056,-3.804969025235456
1550,-0.8168025710186605,0.42097447940459953,0.3280683185151288,-0.22183038947542322,-0.2438817786601295,-3.080536579700603
1560,-0.7845212811641652,0.4471154617038761,0.3591687587542824,-1.1782629371887323,-0.7437802318456601,-3.932560226815767
1570,-0.8181913861096248,0.4055271083822051,0.3300214767714564,-3.588870623643853,-3.651793508434361,-4.926864276224766
1580,-0.8289985932201094,0.3937444380196901,0.3248590228544856,0.3018910897369347,-1.805395652093644,1.0878601165241861
1590,-0.8065822585341194,0.43089370621750245,0.34473571066729036,-1.7160428652845172,-3.154760268353918,-0.9278586130386163
1600,-0.8158911467593443,0.43059698061648777,0.33373983923172823,-5.481402451747684,-1.6035187106869149,-8.317408089723349
1610,-0.7969130745165482,0.4256592209560067,0.34527432749810055,-3.8528717293517034,-1.2858307573633772,-9.373436032672856
1620,-0.8307294174641007,0.3893374799661952,0.31225210147699495,-2.0687928450397925,-3.069609711479032,-5.618568347121694
1630,-0.8376461944294966,0.38377245255873527,0.313110033055615,3.3342265419895414,0.23751396144531345,1.5995505218976585
1640,-0.7983065206488423,0.4306787804047528,0.3473149185890263,2.4054882516097305,-3.066972088608433,2.3579057786573094
1650,-0.8058290628957363,0.428473574328803,0.348335553005816,1.1753842496660747,-0.9720934738888758,0.43363808868789955
1660,-0.8085659537213227,0.4174365487569194,0.3394587404516021,-4.38903910075968,-1.878835686959391,-4.204279097965912
1670,-0.8178876138102,0.40191826138615866,0.32871671789331025,-2.8230667210500293,-0.30646464142802077,-0.8436109413114238
1680,-0.8105134626447844,0.4141919378750691,0.3367389724159289,-1.2249175857851822,0.43985314435129197,1.8404038206621482
1690,-0.7921728087258291,0.4324988525525078,0.35393944018163037,-0.1155128622861819,0.09295950430223315,0.8605531672029267
1700,-0.825814758067421,0.3965912753997122,0.31904213123387754,1.4323313328157063,2.0842341875267345,1.0416301775888483
1710,-0.8087103989870846,0.41502841722092226,0.33746105868103354,-2.084989592055874,0.2807676226324445,-1.673134116159285
1720,-0.8086446371425821,0.41454080890468153,0.33978807037930836,0.8340079447386645,2.0099982506956566,0.040578513995593424
1730,-0.8008148464250218,0.42730218445343743,0.3462377361131931,2.279956251903756,3.1863199880747066,0.37128657677153143
1740,-0.810090786414546,0.4138359445183665,0.3369143274255202,-1.838457774766031,-0.7550138729782352,-3.391023118283907
1750,-0.8154863241725631,0.41405237320056454,0.3261940247242863,-2.358191069393343,-1.3645442381763675,-3.5680714718864976
1760,-0.7936230931014813,0.43106227193118624,0.3461589395116667,-1.5238295946688383,0.4676793843708432,-1.4534738401155778
1770,-0.7918635431529423,0.42938408004479,0.3524194076416206,-1.365103163205787,0.1147545383866071,-0.3140966460518857
1780,-0.7961941143335693,0.42304785200828715,0.347181922149871,-2.236960904678445,-1.882025508017516,-0.6384859025645553
1790,-0.8353879364420136,0.39333406538407584,0.3094733313520046,1.1274244472864026,2.691896651741748,-0.19764246426102527
1800,-0.8134281320120369,0.41823159432111073,0.33530769894275086,-1.9342896380775338,0.5875574007415185,-5.101096623951182
1810,-0.8339878871072895,0.38637312895263126,0.3123573169757072,0.7135950510440705,2.0872237809359486,-4.095778475520687
1820,-0.8050913899991513,0.4106830983542658,0.3332199480152519,0.4950456258440197,0.9873325539652555,-3.900481543298008
1830,-0.8038531008773651,0.4156124674306395,0.3332324265411759,-2.5872359864889334,-2.180532348520488,-4.9635310621446855
1840,-0.8181972210841371,0.4005570569299202,0.32622044235074404,-0.3758505622414133,-0.6771185415344955,-2.0487147761360105
1850,-0.8079784875560619,0.4122336330684231,0.33887655883829176,-1.2980887331911175,-1.1525669253343986,-2.9247253415664782
1860,-0.7936173281064247,0.42476336485532556,0.35201894597713396,-1.529654911199871,1.2799990554752791,-3.7811554592191796
1870,-0.8119256570385656,0.4003514255671704,0.33028372917287074,-0.3715874472849171,1.496941449364619,-1.5789007050082684
1880,-0.8197172032038441,0.395783580263702,0.3248113012119147,-0.6410241032129073,0.315524758833911,0.12781329517985673
1890,-0.8566112333543654,0.3547658173585784,0.2849538715403242,-2.1757793489106723,-3.3353099525651593,-1.0093593071617792
1900,-0.829815203886245,0.38682962497036416,0.31112550001499834,0.47490965960215964,-1.1865157424934079,2.0767394394149363
1910,-0.8173091747776398,0.40220588125622647,0.32376054230061124,-0.3978540857955473,-1.275393259460885,0.24416381767342277
1920,-0.8080963320573027,0.4045072532499928,0.3359154308474386,-0.0365520137723499,0.4988667306249434,-1.1281164481690267
1930,-0.8290870965338071,0.3775975897252605,0.3129035040599001,0.8172634222121927,0.5115242785044914,1.063468250682664
1940,-0.8274734763714073,0.38347669992665134,0.32010515287941343,0.9747066146158487,-2.010352576202969,3.5729584317238365
1950,-0.8058803968819507,0.41252589021924935,0.34349611076552117,1.163809955228939,-1.9910203562952167,5.6280609602249365
1960,-0.8217562209378766,0.4031103031753924,0.3200218087553277,-1.996608446606503,-1.7556384863042134,3.0451466241040146
1970,-0.8397135685379563,0.3912439041883842,0.3028983454649585,-0.4777457526308915,2.8129126257542776,2.6671624351278336
1980,-0.804172016522244,0.4224588948557159,0.3408650533801625,-0.9683307381844521,1.7765215112185808,-0.2547842053614996
1990,-0.8266037882880934,0.39449846684323814,0.3184779703408225,1.7291959945205466,-1.684667343944291,-0.1718926968436839
2000,-0.7880579192375723,0.43094983788941676,0.35932405048893773,2.4711425689884092,-1.1752176993935293,0.6699864189123356
2010,-0.8267281624676374,0.3961074633265649,0.31509636816166775,-1.5100855187288866,-3.7825131614700953,-2.5406145943632676
2020,-0.8149251087194057,0.40273107398501146,0.3308952146862434,-1.639546264440238,-1.3875133875528225,-1.3942435724292523
2030,-0.8092452771213541,0.40491836501314793,0.33677946998978797,-2.118902263256059,-0.9236912066713995,-1.62461353059525
2040,-0.8067907407566588,0.4076995667043495,0.3367037415539336,-0.8480667208291754,0.6940880970180044,0.2221939158707839
2050,-0.8318989790619166,0.38594439396586966,0.312510390182402,-3.592439783240649,-1.7165760343908667,-1.4726857950077563
2060,-0.8106837904749714,0.4093705708210116,0.33605788272194753,0.11867910252938785,2.1467678559016456,1.5818694084243847
2070,-0.8058867744762862,0.41167861488784885,0.3408784342937168,-2.2019631464493843,-0.13132261042267512,-1.4677559117405705
2080,-0.8256042806866204,0.3875961609131881,0.3182400420086908,-1.2011119277894076,1.190752538695167,0.03599589149642257
2090,-0.7873894070050557,0.42514086984434024,0.3570259599352086,-0.2911252083927822,1.9541855857602946,1.3223436414496146
2100,-0.796049119250225,0.41909554358975315,0.35389919202209363,3.125993040815394,3.8123428149686314,4.747848829019052
2110,-0.8418604602272888,0.3754332366845814,0.30284020123504085,1.1100604247774308,0.708164927649128,3.1548555610366193
2120,-0.8221109352471065,0.40256846986333633,0.32598444038646374,1.7140927224826776,0.9508401133599865,2.4266738808239703
2130,-0.8185330870956927,0.40410141412674094,0.32408216317308,1.6962915959604956,1.0703983371826304,1.112391703423626
2140,-0.8163741269224494,0.4076372917697186,0.3239743082923049,-0.5671680402836659,-0.5510562329486698,-1.909734746445839
2150,-0.855642971739518,0.36561159047514025,0.2904204773408692,0.47029240184552157,0.527126541984971,-0.8226080704988575
2160,-0.7890506187040799,0.426770762932057,0.355816595952729,-0.17930584703449168,-0.4580358388721122,-0.698913973123819
2170,-0.8251054439664454,0.3890256643341964,0.31770837671351576,-2.677115717536175,-3.7330484357922313,-2.67592781682923
2180,-0.8186611059821775,0.3982747567560036,0.32940700410688734,-1.362842921268967,-1.1434506199141032,-2.2582334747224824
2190,-0.8238387670024351,0.3934515053457142,0.3239980476903627,-3.1049477104687293,-2.964690878667028,-5.188706680923311
2200,-0.814960499995106,0.39774188184916637,0.3268139004466946,1.0823142778415114,-0.2775618066716191,-1.3059796028803445
2210,-0.7898708174042205,0.4203871539129686,0.3510739572586095,1.2416396801184144,-1.0013101643968556,-0.83060089228965
2220,-0.8141017148828946,0.400439524699401,0.3308376087629487,1.256752623537646,-1.602731988512546,-0.36521016580124754
2230,-0.8161918704262867,0.4029201516282472,0.32881024295286365,0.023343298082492137,-2.2209773160524375,-0.8291561233436081
2240,-0.8126910357825647,0.4079509027338453,0.32689584541383465,-1.1686844300767338,-0.7274581463191276,-1.3719599540865486
2250,-0.8256159656013212,0.3841006870365034,0.3146413697617929,-1.9993170887327611,0.14443333854990648,-1.5330951247098294
2260,-0.8392565272123157,0.3716229167647491,0.31023905177425093,-0.4889421055755968,-0.26625100458157525,0.9117374821348506
2270,-0.8066350917731323,0.40409612106639226,0.33574146877478406,0.4217252674812805,-0.3705295623106655,2.16043509474805
2280,-0.8071863584496047,0.4122032980922186,0.3370241534827052,1.7011515470847467,1.3609278772719446,2.984352005512799
2290,-0.814964609694371,0.4053474584785268,0.32930794701097094,-0.8377574427083554,1.0528410505858776,0.33041285853356367
2300,-0.8081343240030072,0.407756550927931,0.33808860692577997,-1.6688583675443665,1.7446257816020592,-0.7425501313945869
2310,-0.8230611239279858,0.3929150916865981,0.32227624509224084,0.546655031548464,1.8976138514465672,0.8195099455993545
2320,-0.8147629755499347,0.40372841774079715,0.33108846190331453,0.13310576537407415,-1.7529203243756968,0.029761652251118376
2330,-0.8120605227473758,0.4091221458413503,0.3334307855174705,1.9089713151756256,-0.44528920562364416,2.046070029331096
2340,-0.8205799072670025,0.4008763897601257,0.3214026137018006,-3.0751761131977897,-2.6867426514370907,-2.8243364994124223
2350,-0.8070894323380764,0.4079065927052715,0.3350689519676712,-3.4928594373990216,-0.512578440374735,-4.013756503710598
2360,-0.8130095725563706,0.39873791784941987,0.3261998930772084,-0.5388091896314956,1.6231959772321316,-1.8161906961887184
2370,-0.8261865160031457,0.38349805530070713,0.31713203149471236,-4.908067236332744,-3.307379670565811,-4.316994895086298
2380,-0.8261450289949571,0.395794324917544,0.3158266668093537,1.4750186906723928,-0.6628972060237458,2.6850022023299953
