time_ms,ax,ay,az,gx,gy,gz
0,-0.6775714762009258,0.38906582139017487,0.47718837479330956,0.04822879203182623,0.7767584170140913,0.8569342531291697
10,-0.6759236397181936,0.3854992255834389,0.4849614589495111,-0.06638039864161671,1.3781726463768458,0.8224445998765598
20,-0.6608505900256452,0.40474106548570454,0.48738720066464325,-0.2635941927117553,1.209772560481964,0.35375343403130666
30,-0.6838167458913632,0.3820375083015268,0.47134625123522966,0.8156786380156231,0.939707827006709,0.5922156262848434
40,-0.680889351333898,0.3853374988047718,0.474626610821897,2.124943847011201,1.4849882313386873,1.6834707026434839
50,-0.6633841679520243,0.401113624761995,0.4931582738481095,1.0120613379337067,0.5291842188016351,0.7088764591337762
60,-0.6610583831204667,0.4038620129382,0.4919000805347476,-0.41515357242719186,0.4374587191216891,0.08151045762306675
70,-0.6658562178126586,0.3928076654157337,0.4838889195486892,2.1641604365107927,2.7215692059610497,2.926190446955707
80,-0.6459427597502787,0.41499964636578096,0.5127779977112452,1.6297823116592922,0.2981847024267016,1.8830409438551552
90,-0.6951752033869482,0.36795637863509495,0.4607375146607832,1.8758302668867413,-0.1992965155050246,1.601571306826418
100,-0.6741584538109954,0.3968168020941784,0.4823713277693986,2.636923167830892,0.9581095088212668,2.116090664150564
110,-0.650881479024312,0.4152159772468431,0.50613736976169,2.5397281525495807,1.0173378463237401,1.209425123567685
120,-0.6733428167756805,0.39386509535523934,0.48621897936999464,1.606167530973804,0.32191675774658646,2.0918163275878747
130,-0.6806005352088595,0.40344712719559706,0.4873471301201648,-2.2572618460909233,3.7225510705549567,11.164797203688583
140,-0.6381939459333806,0.4146978832678224,0.5534291017417567,-4.343634631316844,0.023286663204775904,11.368094378235686
150,-0.5903441308408129,0.3436841396615576,0.7823484608271919,-7.653796783870843,-17.347531306794128,6.820904599067641
160,-0.7374514541217932,0.40177545868402487,0.5538132225850483,2.3297762943893097,-15.626387864769988,8.864319141376503
170,-0.7087302610318283,0.4386735690186875,0.6255302224014664,1.6681183838806382,-21.26428523924844,10.648373392871964
180,-0.6971224116938631,0.40540450363244923,0.5900875235389454,6.207106850423713,-38.50717051335939,8.036266985578893
190,-0.5453228263260251,0.40906065122834434,0.5110291450640015,7.994839583870292,-38.34457790120698,7.9732129792221285
200,-0.5778864777654004,0.43506621602638956,0.5252758827827367,-2.2764612467254257,-34.82071293081758,-3.918326933059155
210,-0.6046494859619158,0.4564349883537164,0.5355420666752679,-7.82441048860093,-27.042713892610784,-10.275537855695429
220,-0.5899460163899283,0.453881096825557,0.5471590304338956,-12.739731845578874,-21.838116809751398,-13.715873599430637
230,-0.5869493535220733,0.3838070915813467,0.4955529845011298,-12.63363013539829,-13.042981489054084,-17.815565927438755
240,-0.6417438070317485,0.37673061593849544,0.454946395583959,-22.769962765042767,-11.700134484585995,-30.109813073783748
250,-0.7762132099569248,0.35622734911368137,0.36537649507419756,-52.353870997321685,-27.14236034937374,-43.98111822872048
260,-0.7879623253366439,0.4739371905087995,0.36591660500425566,-26.49821287213664,-1.487066598163636,-32.19912740101552
270,-0.7321634386783562,0.38878629051689456,0.29660355226256097,-22.351517507977015,2.1091095840909517,-22.943718654874367
280,-0.7340019078451354,0.38974855088702914,0.08770288864648118,7.218910788220203,25.114293425088455,-2.576495968067681
290,-0.6892109881804278,0.3386953860193981,-0.09233842204346636,34.439304905592095,46.785576937205605,16.316993028082177
300,-0.6048834129692447,0.18626152288612663,0.08910579761122359,8.999323112022156,52.64570572924309,18.994686212075383
310,-0.5633998128717631,0.16041893282614697,0.5102736849038405,-18.455633050654356,38.189925852990896,5.335994746416347
320,-0.5986826348176384,0.12465910988629689,0.46013145038561637,-28.64247953463737,42.59437414812672,10.33647269099826
330,-0.6229262812864994,0.3792187006937209,0.44097006772020975,-1.8580316615439454,42.65997906350696,20.66038768858648
340,-0.6785995277125746,0.4260889537457486,0.36347132810772204,-1.2647940601636771,18.44549390249741,18.406764394285698
350,-0.6167113522074513,0.4104384854589888,0.4146407880231351,0.06093162335098101,19.7782746806128,21.456900350654397
360,-0.6631903197856391,0.3712933468606244,0.5532054883770623,5.972307159499604,10.641408596967313,17.942252048105107
370,-0.6586848989114346,0.3761734920588362,0.5519499311102041,7.146394049007075,4.421012100860564,17.13763263532524
380,-0.6781763820294787,0.34870958506989586,0.5944782880132242,10.051610584383273,-11.978763334029578,9.234998255845268
390,-0.6769604737654471,0.40051702952101365,0.567786042754557,17.24460001689612,-27.875218053117354,7.170086519874194
400,-0.6840548955182182,0.4481386272955449,0.5522694239732937,21.793500499344727,-35.67230417382034,10.782458169991495
410,-0.6492598326822537,0.4594779110556861,0.501471112372784,23.18131216730262,-38.43154871984159,11.319711206632347
420,-0.6202951633106872,0.48013205486417687,0.5075371901482821,18.376402716209434,-32.588134060131964,8.706049983540929
430,-0.6334354465418833,0.45691637871682256,0.4853572647012444,-6.159838442148859,-23.112431950329565,-4.8914741640681445
440,-0.5978492896589014,0.45509768178734644,0.48940326441735477,-16.543322507781607,-19.928288748060172,-16.534017522002248
450,-0.607412224134232,0.4269618048479259,0.48151799994191924,-24.940109939115455,-11.464794196435072,-26.753796507022972
460,-0.5581115554891581,0.3638739485768911,0.44627040714321886,-28.589997717985273,-15.68045592299416,-34.833132677687786
470,-0.5638213316367141,0.2753479206532393,0.3635789731485092,-21.893435658990107,-33.8179121426176,-39.49182177950168
480,-0.6189945341732129,0.40051586806218514,0.47412368892444934,1.6744290072339814,-10.361057910219703,-27.809635647755226
490,-0.5784361581725534,0.38732754779606915,0.4970986909764195,2.4240681773860233,-5.401143990914801,-22.658411300235773
500,-0.7464376669113792,0.50590893202525,0.42980268959700185,-0.14768756552489704,-8.67116812890408,-13.33318298700791
510,-0.752158530990743,0.4815161493505087,0.3273304492969623,2.439678113064439,-1.5912130802558417,-25.530301282621412
520,-0.6797077512651688,0.5401915255973457,0.33531970978040204,10.013453730239721,3.132037116462493,-31.28709093540859
530,-0.7706981748986211,0.6326810256875715,0.2594508254194085,20.526166617856447,10.017796051706721,-17.700514724449405
540,-0.5870890992186233,0.4624069113219152,-0.15484878454155243,-6.803167644259832,25.059857095262622,-15.457527876135671
550,-0.6339687875664772,0.4271411278869029,0.16133407195483526,0.3154133313193337,22.794021024246366,-3.6175649132546486
560,-0.6741101911444635,0.582034154883886,0.6684389512907751,8.396077077850713,12.161690005125857,4.870734139965825
570,-0.6739809863639604,0.6404783063369448,0.3143192861042414,5.55268126760566,18.042396600356103,10.288845460027167
580,-0.6585195297295042,0.46588481402165,0.40231542142498444,-13.337834683287573,13.762238509877676,9.71878363879856
590,-0.58424779726319,0.29968617680399895,0.8253362817499242,-16.9577807680936,11.573150396541978,15.906906049337222
600,-0.5987495795357701,0.2745692906983134,0.7522290640912407,-9.920483821301692,5.788597455170033,16.639339152858
610,-0.6446312295399546,0.20748772595989645,0.5996919831345234,-4.894161005129391,3.5199781894658044,15.075900463888956
620,-0.6478894010624731,0.4303871661216001,0.53857431040772,7.447952813432882,0.18242579652774887,22.52913259122515
630,-0.6778266194472723,0.29263971538076583,0.5074159662978395,8.777669949261623,-1.3929500334806812,9.472056251622302
640,-0.6556556840763956,0.23967001393571763,0.4767478928369695,0.7974876906120452,1.8815190014845604,-3.266002478347965
650,-0.6568691410632825,0.30341694376851186,0.49936044712974675,1.9971464624152269,4.695161050429972,6.489360067008974
660,-0.6432314221099281,0.31994045317404435,0.543157019655962,1.9719626688932417,-1.65833176735232,8.151525368515738
670,-0.6368305990333389,0.35249648841355546,0.5690877347599916,4.260933808456787,-4.526309530036922,3.2517532961031685
680,-0.6625589362488327,0.2809127425450373,0.5331015710371801,6.678611598786431,-2.0943957682556764,-4.140697120921978
690,-0.6255081208230949,0.2837303630837684,0.5428624973944757,3.606967375720421,-1.684610789971332,-15.112471658165573
700,-0.6363319061613516,0.27936085381375914,0.531776677218632,5.109942220800645,3.336447489130591,-21.9421393902809
710,-0.6712855764894906,0.3411571377784082,0.4569745767466281,3.8545609711331474,4.79372398593817,-15.415868801562128
720,-0.7724771874722189,0.4650145009438654,0.5755681188279868,15.535334545352537,3.9165810754718087,-2.965647593066613
730,-0.7152091191970164,0.3578084592952439,0.3159148294395098,27.35658168450673,22.176200594540298,-12.391778639095651
740,-0.6831042831425974,0.513202519860369,0.3188855831721068,14.943428590034971,14.316113214641417,-4.8131843129982155
750,-0.6625299754310418,0.6006795096372654,0.5658184130462295,0.23359702429807463,8.55780990994656,2.8169559685737386
760,-0.6754845861251206,0.4318788670140099,0.16786607640507673,-15.670545555884786,19.48907410674407,-10.089613507060005
770,-0.7015157739360569,0.3939685287097637,0.2588991973139807,-14.960491551397068,15.116322643284546,-17.47622590244367
780,-0.6760623166346069,0.30008764087744927,0.6495583770277124,-21.340536139782895,8.209693072978975,-11.89749335379483
790,-0.6704521024296176,0.34773886449580443,0.5733659396738082,-20.71287402543815,5.4698081930000875,-0.8023047948947379
800,-0.6453297484188583,0.4216524858068341,0.5948722263350597,-11.408095372972845,7.791572962523471,12.205791247845443
810,-0.6800983904347038,0.40089009254108937,0.5971504006220719,-13.846478452364382,5.3579519454721884,19.01021874418825
820,-0.6411145864768554,0.3718660931022124,0.6071477855718952,-14.468202897601737,4.309527275807346,19.789587977725592
830,-0.5894711708861472,0.2203572439011019,0.6533166194645396,-19.143399896333033,-0.13613774882538088,4.107316570185144
840,-0.7322173492479513,0.15210643716603378,0.4037453567501158,-28.07949407607582,-5.849705928202058,-2.8531327137410916
850,-0.7078441190331215,0.3066425841391075,0.420925202336021,-17.471102542889707,-5.02650821704127,-4.040453171492816
860,-0.6277826503049843,0.2838679631519471,0.49925136334109504,-13.144515751181052,-1.6205351435967887,-3.438759757485487
870,-0.6587011731157761,0.3689728612397197,0.4788028444796255,-4.1225049211066,0.24106232578177256,4.681093966871556
880,-0.6747477436670873,0.41418566052420014,0.4457137083227634,2.6441899291468625,-1.1864814445417926,15.94938762412753
890,-0.6505941750361496,0.2085362060205175,0.45832903159697724,-10.799673935137413,0.40148823031553615,2.101566585832906
900,-0.6612677546936924,0.27665425072231137,0.47724689077413274,-8.738238359607813,-1.5960007522544388,0.13127498483283395
910,-0.6883235038727372,0.3845740594025344,0.46939726247393776,-0.9620418292952186,-4.367177970360096,3.1116618274813574
920,-0.6589502155933545,0.3874314000960972,0.48827315735518995,-2.7329292643892273,-4.901241918765682,-1.9207871786125463
930,-0.6569552088475534,0.38742054952164506,0.49755885335482375,-1.3680197090769366,-1.5252578541137818,-1.1744019129251946
940,-0.6564872414117789,0.400202662910169,0.5080424013611761,-0.5385101638747919,-1.2461888140953545,0.9338822685433208
950,-0.6693409318156431,0.39413618723214094,0.4948717894041094,2.568713011276955,0.43946453127156626,4.917429464168506
960,-0.6559148229502988,0.41617638505708626,0.5067859967127482,1.7632533717064893,-0.7665856773354955,2.3487645029045634
970,-0.6695833646234103,0.4061034047586084,0.49362987325396535,2.318512782917022,-1.1437245146493802,1.5161936049829408
980,-0.6644785661846662,0.4092428738252475,0.5020577301019797,3.593991978657751,0.5684072677484117,3.165659870042243
990,-0.6611882458491635,0.41538757506562257,0.5036723500335837,1.4696164128487714,-0.11117375800811657,2.4627343149887855
1000,-0.6815295255234076,0.39218233617677645,0.4789960800718257,2.165410129643572,1.0495390326451113,3.608754983757355
1010,-0.6981958385656337,0.37362374125310854,0.4616439073128439,1.2847660283631224,-0.8036247897057012,2.14903777818344
1020,-0.6753043833961403,0.40641957076818996,0.4889573915105424,3.4095880967084624,3.2839725025146853,4.216841119174493
1030,-0.6655140364910357,0.41475183185352366,0.494823563781707,0.8524142802861525,2.3528884902156353,2.071717461675144
1040,-0.6637148564260325,0.41423038103334886,0.49863530632238623,-1.2655114685351103,-0.29537756566092965,-0.3389779080291746
1050,-0.6651570905471794,0.41181952522894627,0.4963991523758834,2.271401726592633,2.780801813878344,3.308301747093176
1060,-0.6615039588694895,0.42016720849800576,0.5001807442461335,3.638567902597365,2.767205277770659,4.188332296432257
1070,-0.6896420989275474,0.39554350553207995,0.4770082296130123,5.024741706216396,3.148266814485872,5.488209018283689
1080,-0.7047789860487051,0.38141837579622806,0.45751736316928554,-0.6018539662246842,0.3759621305495653,0.06897886067336667
1090,-0.6851802618094627,0.3993663408716194,0.477287692583662,-0.4847370374768605,1.4433635563433083,0.013981687534824427
1100,-0.6752305350662285,0.40372890184235777,0.4835766192983185,-1.051184603623091,0.08849227412642999,-0.8215902209434023
1110,-0.6866248283441244,0.3913758638318276,0.47591191001119787,-1.0888304365224712,0.010765988688960781,-0.6278238702276777
1120,-0.6935693097473787,0.38581691900594184,0.4658708518489866,-2.431969319365261,-1.5884535713253451,-2.1901668919653803
1130,-0.6710598706621923,0.41002676531488114,0.49070369173216194,-0.3383718576780268,0.4523982159031556,-0.1555251702235907
1140,-0.6745168393794819,0.40915970122767265,0.4957254828575171,1.9534385972698893,2.386914323601345,2.240945973210739
1150,-0.644059695188392,0.4427557819923624,0.5184594771450465,-4.553085252517915,-3.254323662302206,-3.053745943272618
1160,-0.6384918141445091,0.44316103946823815,0.5239809368866147,0.5341054142388169,1.7380255847783566,1.3446214373435603
1170,-0.6850784211256978,0.3974299355467937,0.477700535066526,2.2015712862071917,2.962401595659034,2.482667761717387
1180,-0.668321992571331,0.4095760877470074,0.4904383932068462,-0.17270104267947106,-0.2694963691517843,-0.08100845469641238
1190,-0.7025144074058796,0.3813055652863197,0.4554402449939073,1.15510649152255,1.5769557867803248,1.1397707453831167
1200,-0.6525506332476804,0.4306524405279761,0.5115582607289515,1.5968278806846619,0.7345179682711107,0.8887780807492328
1210,-0.6910032076192071,0.394178524213851,0.4719380266446914,2.8579102246257913,2.03357002268694,1.9886323401046764
1220,-0.6487544216030062,0.435210796924744,0.5125783767210301,3.4757035947004957,2.7649545910103654,2.73059322549224
1230,-0.6808987166464932,0.3988915893079835,0.4755731372168989,-0.3113267300560105,-0.35913538271318457,0.36956622852515086
1240,-0.6895139127350758,0.3941842450334223,0.4763811761408645,1.657666620670292,1.4571327674777073,2.2742922497416664
1250,-0.6858816934599421,0.3991813214872279,0.4850399002791901,3.27207043455816,3.191824692266354,4.018319603150809
1260,-0.68245428334353,0.40399406519880876,0.48091116068740514,0.056783598231007315,0.5832038193777471,0.19705512296929556
1270,-0.6875688648911366,0.3970525029636823,0.46579393396100177,-2.842943715655365,-1.8307651732165717,-2.390512975726584
1280,-0.6519410472205613,0.4315909103040491,0.5112270334958454,-1.0280416472254106,-0.49832749964228656,-1.1321396409236002
1290,-0.6827071645322818,0.4024281970944751,0.47920092480363047,1.6879011065486742,1.8444617097687146,1.4241471855317098
1300,-0.6599848935452918,0.4215914497626998,0.5028932942146245,-1.5794921335749392,0.07602650560866112,-0.927492355513668
1310,-0.6786274306823277,0.4000599536599512,0.480605455068478,-2.3370078870308104,-0.41877865601078557,-0.9700232575955893
1320,-0.6661795323803438,0.41711647380822475,0.49618279445116387,-0.10876982507981259,-0.6796799481807139,0.07224052199916242
1330,-0.6879344542894535,0.3963950283701699,0.46806212511372525,0.040490287661572255,-0.6282115060234461,-0.07722035812652983
1340,-0.6626138968803056,0.4260458007069593,0.5002216685513287,-1.2416077197182327,-0.43048515681169597,-0.8071536446866632
1350,-0.6876440493627177,0.3996167389487971,0.47655159304311523,-1.8180017335171537,-0.30672044854677133,-1.6241249940375377
