time_ms,ax,ay,az,gx,gy,gz
0,-0.9193067046384222,0.35441518437307906,0.36401767446978633,-3.751309172587345,-5.153325191522184,-2.4718777823427533
10,-0.8966422872327814,0.3771871085827892,0.37606048659197966,-1.3018457596447774,-0.7620161648631515,-1.738241498433705
20,-0.8992689042973069,0.3686228297089451,0.3706245668142111,-1.5673814404543753,-0.835162016508278,-3.5463127890243173
30,-0.8887853015373264,0.38035708026837656,0.3801518054589042,0.433913884230541,-1.0583950902219406,-1.1875168464146608
40,-0.9237174100830308,0.3496539139066894,0.3445652698721199,3.246464589899277,1.0492636006763094,2.7291902871038043
50,-0.9030639483519574,0.3690715317951776,0.3627505947365394,0.745989443842664,1.2583706811182602,-0.6657513833504441
60,-0.9400822117154364,0.3240176464150005,0.3263585579969155,0.27401410084727074,2.5581783358657164,-1.412131383055911
70,-0.9031747869202217,0.3590738012917893,0.3621238575281172,-1.4895350387454642,0.14428490804499278,-2.484155498715923
80,-0.8978485687123728,0.3669024489488128,0.3687676935695212,1.0358893007295897,0.8862590353665606,0.7244254232460967
90,-0.9260911931242153,0.34712694983868453,0.34301207349461327,-1.118352567959895,-0.6902469134588272,-0.6052255023196941
100,-0.9113821150271865,0.3576214120540807,0.35929479598886205,-1.1103865601593026,0.7390044265497898,-2.2548255941109896
110,-0.9181702017872156,0.34546875939191785,0.3538154511526243,0.20621727788875333,1.4083297258715053,-1.490239767145267
120,-0.9322275311214733,0.3280495485138481,0.33865647458823955,2.8441380294938554,2.4538144841527467,2.3030348984951257
130,-0.9198264473009388,0.34504144914908275,0.3512080765800889,0.7068868549925245,-1.8872616712306207,1.4206646619474324
140,-0.9077057733421217,0.3650233139477915,0.36379522107506235,-0.5175833484747503,0.2540170527860184,-1.5326352066739855
150,-0.9145138673084583,0.349416811278511,0.3492104144758682,-0.10423116162894552,1.4654704177801863,-1.480281416491307
160,-0.8766817975155191,0.35159581972015164,0.35206777698800273,-1.5797138539156008,0.7413139667623372,0.2071242065698965
170,-0.9352923817370866,0.3260772187878566,0.33714055027423356,0.2356396056752756,-0.3245437220796409,0.9142686623787117
180,-0.9430812176045126,0.32357973774854304,0.3338250665382501,-0.4475874625039882,-1.650310037757813,1.3361589584215066
190,-0.9333330526884134,0.33110400225282716,0.3430523059142127,-1.0741558637464867,-1.6437109961638319,0.019677193768527168
200,-0.9409293523289713,0.3199115655561318,0.336787982412559,3.3194751425179727,0.014542414127704184,4.485185044863481
210,-0.9138801136595721,0.3558750416613452,0.35618776452697204,7.5011115983528995,1.3282913865103716,9.157695553810795
220,-0.9328146345139894,0.3460538479436998,0.34511306668267294,7.58272053822779,1.826279993221185,9.022684699416345
230,-0.9201336486994682,0.34230385175625244,0.3623873975435715,9.368674976272109,1.8094340426136708,9.246694511582922
240,-0.858272560179905,0.45050982486816077,0.44189163020224587,1.142160886139934,-9.8169950700359,6.046058558204578
250,-1.3095898470254814,0.5401580267452518,-0.816084038719651,14.633891517991895,-45.87263094499769,6.685845563630819
260,-1.0432635292958112,0.33915224937803773,-0.08695384237474875,15.036667604185173,-56.77424381340649,-0.1516942073102565
270,-0.6726031407395567,0.02433337966413872,0.9188761382002514,-11.079895715802005,-49.50506800105542,-16.131469672411367
280,-0.6038509696579518,0.2258309164258022,0.5573728840260821,-23.43775055517254,-41.239732587176995,0.3456610841756862
290,-0.5576697711844589,0.622272372038263,0.6128479154314642,-27.402222768032598,-71.60213115789037,-3.56973930600955
300,-0.8763765059571125,0.30563632516411676,0.3167513813025347,-51.659475884801935,-55.21164598919989,-9.281462053047767
310,-0.5078008249096798,0.21865062649111458,1.0086414592688069,-13.862650120166325,-39.73144668500896,-9.552202398881066
320,-0.5572866800718645,0.23636305567768026,1.0101990133247816,-12.681413723251463,-39.94970856576626,2.56645363599014
330,-0.5988054339109732,0.13164173449619543,1.0292157096445924,-2.877381445025625,-34.9078117771469,-10.79007639890663
340,-0.632489620612597,-0.4167581392868869,0.22760562714143903,-21.641165849907555,-32.50734687135251,-4.297831798043682
350,-1.137589107401972,0.5478526207286881,0.8060380962740966,44.53831395519347,18.064938271162,-25.7050130095447
360,-0.6922370495091321,-0.0072200237552664595,-0.6797814379066126,48.42639461113406,14.60637281312679,-27.525513285233146
370,-0.7906042423106792,0.5573331640695205,0.5575176153030438,64.74048186380114,26.254738304167414,-20.818085333440067
380,-0.9354320491052218,0.8041163234962385,0.02233084523680432,52.00949947696963,23.910772984889704,-11.73303733684785
390,-0.6273630143944756,0.5674053477955046,0.24483690372693356,30.88399581732992,27.807242460775853,-4.594657324062595
400,-0.8502601668423923,0.5254210051662043,0.3655120438041097,3.383548935309592,42.05143380179913,-17.083813897617706
410,-0.9442750376987256,0.49844162187267815,0.16195278482400513,7.915605512259298,56.63373387668336,-15.173725820632015
420,-0.8878946307322974,0.4190741339170311,0.5050874463497793,26.60741669977644,55.01737100981054,-0.24104878527388107
430,-0.8600278709363961,0.4903850557684493,-0.08407291272626755,25.303874354102927,48.26904623799808,27.25521790790214
440,-0.8677527596451218,0.5648450518180994,1.0902016184900178,3.7663351721578495,29.127176841812517,32.0843263339522
450,-0.9392004946553419,0.6141448186735521,0.17662142347933882,-16.533776125035242,10.68845728468564,51.9366013384123
460,-1.236976310285818,0.4717340732251288,-0.3461112740569221,-52.35996599715549,-33.07079641065515,45.64674949991408
470,-1.2760508480236972,-0.377732808457389,-0.00583221553225649,-73.22345381744604,-49.0646955508733,29.693412625663914
480,-0.695708472131194,0.12736671738585234,0.8322115824669355,-40.2961610478048,-16.219521705630424,4.787052404785294
490,-0.9046228548309523,0.5511441569525235,0.22761979880374447,-26.320323258873323,-31.83476301289736,11.65891049225586
500,-0.7916744955572212,-0.13300406026684966,0.18791362436840317,0.5489189578592208,25.644510862087422,-24.678507401775548
510,-0.8944621843560693,0.1975337052261594,0.3921383428682222,37.02177186489618,-21.465991770016362,43.513252276003065
520,-1.0962844483039373,-0.0336587171988517,0.27331829747341807,32.21805163315691,-2.5475982553044902,11.357266792197894
530,-1.1221898726293522,0.1070312372193605,0.4609099068363009,61.762983902672104,19.961911171837507,-13.460187458122796
540,-1.1777010222773132,0.25539806449953084,0.589881439265295,68.5266392587612,45.37005292368402,-18.06532566337029
550,-1.1356082506656944,0.5135024657922663,0.3672978216280799,72.46199703643778,37.425689058685066,-18.803140889417378
560,-0.8999010931721806,0.899751509109485,0.39258690097618354,41.65777649803212,33.05989230871658,-0.22549248320714793
570,-0.8404141097751242,0.2547636013647012,-0.6215355216535174,24.775559720230074,33.09328977973976,-2.631634328143793
580,-1.0163502904587927,0.69229156107123,-0.02346055982062006,26.366355289246133,67.39649738670383,-15.19752062447027
590,-1.1692519231057126,0.6615044986086245,0.9107043284973741,-25.998237404120736,46.13341497873776,-20.799742555354996
600,-1.017188140368928,0.5016739165060198,0.3067201966799674,-21.710276074580676,42.62704689999671,-8.744301531545611
610,-0.9846870059118545,0.88596360144347,0.6597350976328946,-28.518740768325426,23.23475935812944,7.524834743344397
620,-0.9727022900360988,1.0083026797148222,0.790873079043115,-43.75610546120974,5.063859529535302,22.948093310050773
630,-0.7614590781859595,0.6346990337237057,0.445779597459945,-67.45893079576386,-13.913693049473059,30.617022488447457
640,-1.0715845053356208,0.2240099924570895,0.3876227732834114,-47.8448381710015,-30.95357610560423,29.22575636592124
650,-1.0871325394881635,0.2922985369623035,1.05117742428819,-35.38168560363153,-29.919806939515567,22.358837822396232
660,-1.0735340638822535,-0.31503952183549144,0.2517199886058221,-45.981901400436854,-18.401245379105738,0.6749373610769653
670,-0.9224243017663987,0.2892824362018883,0.38594526231053783,-29.583085570903872,-2.471412120124961,-5.501196187493715
680,-0.9496484782875776,0.35039099578848787,0.3825809420281829,-18.645158174298576,3.422048529817859,-15.458253445354018
690,-0.9272255241327169,0.352573154721489,0.3774825593276102,-2.4778919260604746,-1.179886551506204,1.531386154966965
700,-0.918626477855775,0.38800338487618513,0.4059656765641152,-0.6941154399836386,-3.5529160095475056,4.808605256449825
710,-0.9036630198403417,0.4184770576226718,0.415383754746874,2.1851786850939443,0.9868128254972048,4.431236074614485
720,-0.9172309057794793,0.37555196910314503,0.40440319133252595,0.28802876848349235,1.242190111421214,-1.5213178186517553
730,-0.9207860871245631,0.38573206302102114,0.3975378920601474,0.04581937624369942,-0.9528416296054628,0.387815635030051
740,-0.9405521887057213,0.37029282798099705,0.38173911478010275,-0.3795191329342562,-2.05991319766619,0.07817033757126185
750,-0.9168810081987704,0.39594633706860044,0.4108819441682141,-0.4537689980620373,-1.4404452274643282,-1.1016757417748404
760,-0.9121585569628691,0.39739675029501853,0.41233586586327625,-0.3406491755393881,0.21843667596855315,-2.377907610484693
770,-0.919111408049624,0.39073481468921656,0.40387016711279683,0.11434900125587592,-0.21539044661987675,2.102177471984932
780,-0.9006833333336678,0.4096055396072757,0.420439247868847,0.45094625088602713,1.8777401209130573,3.0898384290945238
790,-0.8718277645743988,0.4331589261587154,0.45099030387810624,0.6418095762633426,1.203693412214626,1.9014988781356377
800,-0.9166688426149578,0.389345360617992,0.4127231371322979,2.016898909141283,2.8461829361473434,2.1625949108997244
810,-0.8914818321875506,0.41744952951217823,0.43514413461881324,-2.219275137837772,-0.555666360354216,-2.115101290485444
820,-0.9070636480689344,0.4008430852126528,0.4206819921566589,-4.436111722737925,-2.7826900413746465,-4.748994840810077
830,-0.8895816523746247,0.41152550453820474,0.4375931846402445,0.03020676322664695,0.225763203836018,-0.2585415871713066
840,-0.9407631813558635,0.3622090183197904,0.38728118354158314,1.7827831257355817,1.7392640729751974,1.8919334981283908
850,-0.9160644894522073,0.381307333130946,0.4133066488563158,-0.9331609550316062,-0.293932469731104,-0.674458434538012
860,-0.8929417231699832,0.3985538304676717,0.4204568505633262,-0.23357784034378737,-1.2091225785629727,-0.295020074459895
870,-0.9295178353149564,0.38266637101198314,0.39050182495168245,0.6000795964163459,1.0725457090044777,-0.17505814498599426
880,-0.9078225401391479,0.38913032351577465,0.4124290920792816,-0.3124161407688557,-0.6751954528830438,-0.6152917517234834
890,-0.9247114433248916,0.371346611277744,0.3965412578765857,0.9812473120822736,-0.7007216762426641,0.8058792935864604
900,-0.930725682204418,0.3701015093993853,0.3913058702010449,-0.1489683098634872,-1.554626209628093,-0.7038265189850041
910,-0.9290690197105744,0.36875136326959185,0.3994280279661897,-0.2346513401540159,-0.8113026479970581,-0.5011266957531828
920,-0.9319680351634279,0.3817162604185945,0.3977635829027795,-0.5581231621079712,-0.7433791487145427,-1.230995675888073
930,-0.9154981908906479,0.3679322718858224,0.408786110801221,-1.878907504002901,-1.3217251525285434,-0.9240416722057949
940,-0.9037762570322863,0.3849550762312742,0.41982330820624203,4.602927051338802,2.2018499096063633,6.118379942035668
950,-0.9069128720510611,0.40036415962533783,0.4240704708905864,1.397982047868248,-0.3155496298165559,1.7735591406566371
960,-0.9004716238778676,0.40837157474604824,0.4241456315570875,-0.21130210234158575,1.2872313830035789,-0.8325586164941978
970,-0.9202488104897543,0.3716822440497578,0.39739659527716215,-1.74109911814099,0.5200863293316568,-2.6205210321646555
980,-0.9085374000534774,0.38445563359239165,0.4115942782298092,-0.3856068805366899,-2.236843830667951,1.2281040334536795
990,-0.873958152741816,0.42953768222622696,0.4475736081042721,3.6015088851347405,1.054407392023848,4.882637384160775
1000,-0.9005970776385092,0.4107327167280785,0.4264393345699026,1.7408592540353987,1.1066477108214663,1.407928932562707
1010,-0.9229838498297122,0.3842006311322332,0.4084797002101197,-1.9112042372979656,-0.04564236211924737,-3.5971792063801895
1020,-0.8716222932855541,0.42223019811869794,0.4508355404075997,-2.8892747742458607,-0.2961961573156367,-5.12179010811512
1030,-0.9430487027217459,0.3522422940597501,0.3804743021796915,1.0256668941385219,1.7773052644315106,1.0219278628349406
1040,-0.9426812655898006,0.3584772607506672,0.38317346367503224,-0.7425049055949918,-0.6807374216139992,0.17154956528512466
1050,-0.9222992453436595,0.37657420674806624,0.4040311780349465,0.4370410068960898,0.31421887115959046,-0.2671800503039714
1060,-0.9160987524796903,0.3840238230176375,0.40425549865823573,1.9280234574144017,1.7434850383886078,0.6578305458345752
1070,-0.9037308803442693,0.39745022297994753,0.4164696941267596,-3.60665395194418,-2.096136085925151,-5.470633921561051
1080,-0.9159194317239587,0.37536552693318037,0.41010976070929217,1.5478483545729156,1.0269091945774074,0.33983384125960203
1090,-0.909725051169453,0.3995293829963951,0.42241352920582353,4.870998287951682,1.3322790357416945,5.810752441625503
1100,-0.9345603460555761,0.38280693455858483,0.39426526111229676,-1.0246556021613402,-0.2832662608770355,-1.1398850864579388
1110,-0.9227606864129947,0.38298191153636574,0.40713854914207653,-2.9934175949984785,0.03857320980641876,-3.9501937684561237
1120,-0.9254441410556022,0.3708260455166254,0.3957435883615292,-0.6363287254968164,0.87207973481918,-1.2381218226409831
1130,-0.8906004698218591,0.39707628672589956,0.4301674959704407,-0.7204990289654188,-2.2501124530914907,-0.6368336870989909
1140,-0.902396866838625,0.4123234741151596,0.41842043467620693,0.919822975351985,1.149892461133297,1.2154024798221905
1150,-0.9143471106067786,0.39314500915643713,0.4095277644249303,-5.834563178886841,-1.868154323232037,-6.966524556455484
1160,-0.9324565342255959,0.3603531106079539,0.3917310600383402,-2.482644999035027,0.7257940763630542,-3.412823460870591
1170,-0.8952245819461789,0.3967106979340572,0.42789631492058955,-5.313805351604286,-3.711773022804401,-4.519074470100327
1180,-0.9314365553657511,0.3618481662746289,0.3979454403828688,0.09577930999230712,-0.04509504415742582,2.455869639117202
1190,-0.9247384491236703,0.37472487775436014,0.39777433760869024,-0.11567765321344692,1.802818736840706,-1.181779247123993
1200,-0.8915983894340913,0.407769505902702,0.43205025599514174,-3.748354662394526,-0.7382363800057007,-6.507611386274482
1210,-0.9118723150651257,0.3811398921038246,0.4088493683215617,-4.669287008842091,-1.3980174663525737,-4.847686563003384
1220,-0.9213371107971726,0.3643390122515088,0.39934359661168894,-3.7563425351544826,-1.8616881006341708,-2.2963112218674384
1230,-0.918643660426863,0.3708232720749328,0.4048107227192776,-3.0961538775925725,-3.1298234849589206,-0.9245795889798665
1240,-0.9167556477622961,0.3741775897484165,0.4049662703485912,-0.8355347321160785,0.045517010074532516,-0.8312501817604783
1250,-0.9389187466514063,0.35376195253423354,0.37941885233248973,-2.572708961328947,0.12605902638949884,-4.2444809216303625
1260,-0.8983504390521159,0.38981215284977216,0.4226952293868232,-3.3755230074428457,-0.8531988557992864,-3.489743909227977
1270,-0.9019254527607332,0.3789075135091197,0.4232155059771075,-2.7931160733539935,-2.2138414504919868,-2.194224572506098
1280,-0.9134333623324185,0.37154152873607227,0.40338420295678223,-0.2658097550788363,-1.4132555201098826,0.9609988357471935
1290,-0.909016803001614,0.379914127056927,0.4164924537388267,0.7063976790088482,-0.315239661020564,0.7756335368268523
1300,-0.9089956354182352,0.3785131753436338,0.411577315246042,-1.1991742423868161,-0.01018821068646203,-1.6503955389569145
1310,-0.9309671082541304,0.3565611126182639,0.3956224925305549,4.722344023179848,4.999776303977083,5.779809992599926
1320,-0.9017934099595329,0.38297544666890515,0.42432283005156773,0.10786645827990093,-1.1423552907111227,2.340031895577835
1330,-0.90816262904387,0.38145046843834424,0.40869758868812756,3.2664728797755385,0.6361405791907733,5.6177521618492055
1340,-0.9105613513637957,0.3942706733811061,0.4110553854749089,4.3261151832317255,1.808930377108482,4.593343956792227
1350,-0.9002086648826777,0.39114425711316564,0.42385044276809597,-1.539540391044605,0.6564910884378001,-3.1581043153797363
1360,-0.9518315350907252,0.32885217831360836,0.36626835082532494,1.6730710564437288,1.8061157802074201,1.282043393646976
1370,-0.9245028252281409,0.3590347845633819,0.3969526450601644,1.6138788086220441,0.2736048609060149,2.298649788321777
1380,-0.9124574002690273,0.38099549385038994,0.40971164149322753,0.5463672326379212,-1.1152720292561185,1.5140475636476687
1390,-0.9019556544266821,0.39729118410605113,0.42442103460091407,1.0787938727202475,1.0013326411761592,2.351907311570576
1400,-0.896360291784001,0.397587903622079,0.42792829650045733,0.9384120000554075,1.8120704535971108,2.4048378034092988
1410,-0.911615452029692,0.3808961943162433,0.41315983808472334,-0.5197857033357849,-0.4788163616274276,0.8829285701270846
1420,-0.9282300538817931,0.3587581062825202,0.39936890184148083,2.3078651565836417,0.5344558454558739,4.24512533587817
1430,-0.8933573847033304,0.4066509434009958,0.4176411766683904,0.8218054237806776,-1.4240641772496843,2.645575319838113
1440,-0.8939545704339915,0.40837866351256413,0.42565284052934144,0.41699448458439126,0.03383450043904268,1.1445118536238896
1450,-0.9378955468556731,0.35623666830438866,0.3846460867411292,0.9699721893371669,1.6085969885237748,0.9586766964232217
1460,-0.9216639506755778,0.3726852940612132,0.4000683953169553,0.9722442738294311,1.6867874978680988,0.8296059972066244
1470,-0.9360924933469423,0.36280146388000195,0.38649074396289734,-2.095591109390215,-1.494050705268308,-1.954017024193929
1480,-0.9201556960483038,0.38099596979751243,0.4031400610625286,0.6795175726547921,1.215455720580665,0.49777538358330686
1490,-0.8898994755524858,0.4075718738204654,0.42609436108863297,-2.864098916635036,-2.0506710136197395,-3.1439526375803855
1500,-0.9224570917288019,0.3764975460153274,0.3970737244592518,-0.8768682228792732,-0.14496782449166087,-0.8206564841754931
1510,-0.9094322887214356,0.3938407479785968,0.4125651545014088,2.2558614027015764,1.8841617513614917,1.8998424784587435
1520,-0.904881931466547,0.39560892119071817,0.4121943673315152,0.4768145278965892,1.1203017959855033,-0.3602155839319219
1530,-0.9174751779725006,0.3758151760798885,0.40361368262200814,-1.7007140481211551,-1.2739900839562792,-2.46010900351886
1540,-0.9232249693511976,0.3707901820041737,0.40493315046608236,0.9208688786785779,1.130169423214272,1.7298052767643417
1550,-0.9314648965719876,0.36583406866635193,0.39260552353780903,1.8477857998749707,1.1038024795268528,3.611480600353205
1560,-0.9021080574763992,0.4039734723464624,0.42355641136322636,0.007632424569597673,1.7425826943247102,-1.3294083588047905
1570,-0.9389609651630811,0.35187359953458025,0.38198990049173615,-0.01968150828524462,2.162205942952391,-2.388158267316558
1580,-0.8870771760663924,0.4041813978966411,0.42900489383588647,-0.6803040348361539,0.3060166646720833,-1.3470091796795653
1590,-0.9209018376911552,0.3725012480319797,0.4006270951223175,-0.8797308700401933,-1.0295741611180442,-0.6346330038245906
1600,-0.9241381560905774,0.3722201561356217,0.394928378400284,2.5489531056986796,2.0153488786345477,3.0254159328502626
1610,-0.9160633117758933,0.38238856248226494,0.401165118556941,-0.5148016106351093,0.25221176066499973,-0.4230159172965642
1620,-0.9155612875318453,0.37265756164610414,0.4015427179443751,1.620657985114008,2.2758132734075476,1.8578550148143584
1630,-0.9070680006855395,0.391639498895928,0.4166231266568238,-2.5890297588192914,-1.931223384865916,-1.3247216093947747
1640,-0.9091344845913117,0.3909332661570181,0.4173169811885672,0.024212395880378212,0.3513540088788288,0.022192966038873635
1650,-0.9208339222990494,0.3763972484453842,0.3989949873144804,-2.8127239065335266,-1.9456317334967035,-3.9409244014758196
1660,-0.936030909406257,0.35624095153588503,0.37857254510638033,-3.0282954564795177,-2.281166740428819,-3.543811647854212
1670,-0.9296406089655049,0.36685123914162715,0.3869201708177149,-2.65944594242632,-2.263832761875618,-1.666406161431681
1680,-0.923475662264111,0.37937117376032403,0.39560261401298846,-0.9674138277882747,-0.010055241948172339,-1.5696417785633117
1690,-0.8991964597601246,0.3934678814320845,0.41699493654018716,-1.5362423419251063,-0.41829573483227817,-3.7890613406066165
1700,-0.9103892023538712,0.3750037679683608,0.4153524157608381,0.657247313272012,0.39799833877450114,-0.8354893458275918
1710,-0.9112927359936791,0.3805460466693271,0.4058970300321063,1.9437028184632008,1.1059213276870588,3.160076428779294
1720,-0.9342217855300392,0.36753503995363423,0.3886379745950713,-0.2716572092328211,1.6166611065908993,-0.6762012957718084
1730,-0.8916755193903847,0.39779242759319605,0.4262564873731335,1.0154659431288722,3.218271463682807,-0.7194667848757317
1740,-0.9085365235662971,0.3806937580987509,0.4080642607511129,-2.7084175985978076,-1.5393075959391986,-4.160678824887807
1750,-0.9174022186473978,0.36937506083220795,0.3977938394207913,1.5642139443653809,1.0927025952202745,1.6364313705927438
1760,-0.9113347478941861,0.3878394177162738,0.40530400039049086,-0.2055295631728401,-1.4741511947575883,0.2534863439607846
1770,-0.9183403466800505,0.3675048371015498,0.39939695944678455,-1.1261959976204388,-0.4349897737366848,-1.757505303208619
1780,-0.9051043770121419,0.3760376228215705,0.40352220864822685,-1.3760262929428828,-1.5156356611097024,-0.6405730816917292
