time_ms,ax,ay,az,gx,gy,gz
0,-0.6538482063454718,0.33512986491619956,0.5398266684218405,-1.0916743673532705,-0.5513900790659564,-0.5732585152014997
10,-0.624624223474181,0.3617521127388531,0.5696110571724622,-0.2963129284890783,-0.6083931936072983,-1.126434795501679
20,-0.624565937943897,0.3590154275980746,0.5667353475710786,1.3275881562316278,1.8535545005544667,1.3375833235647816
30,-0.6298365569410029,0.3527752268478293,0.5637238316890203,1.028187469528672,1.6220675675891842,1.6719152357191203
40,-0.6372062593192277,0.35057850161961196,0.557428734817795,-1.3031330464763948,-1.0773198337579604,-0.8407900148815874
50,-0.6208127997919335,0.36582300377592397,0.5742433240035487,-0.09962449671599166,0.730136076340129,0.4331146453694579
60,-0.6361978535058216,0.35333410039624724,0.5582594074317515,-0.09295073537999937,0.5359012232445204,-0.4544030408586403
70,-0.6524686434734854,0.33752240129158273,0.5392869550813238,1.7160308141300569,2.7468311093875215,1.4191030911581433
80,-0.6231257399493493,0.3659349930934096,0.5713293118597678,-0.0574470459547185,1.3052157199258132,0.14758738326495147
90,-0.6499081067371449,0.33566022572064863,0.5443622975370351,-2.6326947884704994,-1.8011702298919192,-2.602124415706868
100,-0.6251879577067444,0.35886866509748394,0.5669026040877378,0.5602901102810698,0.3521749213994051,0.7215949749420776
110,-0.6054841512776062,0.38071683745866003,0.5833142369439536,0.5578925386984694,0.8828530962733632,0.8575249235446136
120,-0.6239993208506507,0.359266912817066,0.5713426275409873,-0.7648563118780278,-0.6160571093776501,-1.481496167702479
130,-0.6350760506304985,0.34782407749734867,0.5607183342799313,0.6211084657242033,0.5788440630302236,-0.4169478667306553
140,-0.6259970482236725,0.3577584387277582,0.5690041291491162,-0.2733887219052893,-0.5032438997832124,-0.8973508159988076
150,-0.6371736005632438,0.34655266207016455,0.5502605747121391,-0.7922057709880762,-0.28413325065754136,-0.3403025633913619
160,-0.6250261673161808,0.36026200617336324,0.5715894241954781,-2.853547324656278,-2.262150585597791,-1.8456214086382614
170,-0.6825623984995701,0.32352268573343834,0.5443633703329637,-1.138812729676246,-0.5946769724025576,1.8521756558243962
180,-0.6719681711916832,0.3425741326550993,0.5758328932190582,-9.370689742730564,-4.217845461278859,-0.7460626985738243
190,-0.6760787102086414,0.344811087452834,0.6002216481268305,-5.206151300020964,-4.1936779571313885,4.922893531376956
200,-0.7222885604701739,0.30769112470320575,0.6511057560766363,10.041107017951148,-17.858136307182882,8.774011230681594
210,-0.6429112069943093,0.28318543128579143,0.6362554945577105,31.080918265842392,-29.431677938368594,13.207868269703868
220,-0.5205085031442853,0.3618575872573633,0.6538514445019705,35.35627118431735,-29.899009229503392,9.05665490117514
230,-0.5400950862287051,0.3946921675400968,0.6205431220378763,27.25454351158576,-29.33943757970429,1.479872053848787
240,-0.5215586808458517,0.45185741223579534,0.6120799559173129,18.829403142548944,-21.991093649990205,-0.8864157585136478
250,-0.572187347905228,0.45707436536121865,0.585426901658966,5.137370659497723,-19.615120815548952,-10.750150014726302
260,-0.5796173708687161,0.46761691906478847,0.6466935398688839,5.826335886947075,-14.354499179043357,-9.682224204336489
270,-0.6029054786790685,0.3911017448683192,0.6313809060673397,-5.572788970925377,-11.240848260286572,-12.3274208985964
280,-0.5568622098018048,0.42352802907316134,0.6199000037880236,-22.712503280887066,-6.414326724693927,-22.476264443329004
290,-0.6023658602308699,0.42720309392995276,0.5936065743303692,-40.23824487067663,-3.293516015832419,-24.263894323568366
300,-0.7416441750317341,0.35664989192006674,0.607953483881378,-35.47970416334141,-5.875971119281248,-25.284033255300656
310,-0.7522055647510105,0.3819211461417786,0.4776821491113203,-8.55037236101828,1.6059766399001165,-13.349608044692
320,-0.7267962935384146,0.3657869771841205,0.47412589908054326,-33.85202801645233,0.8013110389724165,-21.934155689436086
330,-0.8221298047132787,0.07560804276632574,0.5316065664413887,28.075661180813295,44.194797008228754,14.519615147191736
340,-0.8193270781634432,0.21810093946890435,0.9196510925508092,3.4026896815390026,49.95181615106554,21.54065806818437
350,-0.6384983859337656,0.35361702920384136,0.6376727817701414,8.808156255240437,34.38149385949428,23.818222855337936
360,-0.7220586356637477,0.28022697959590814,1.03444056362146,-12.854972743739348,31.243226197353398,26.309708995921497
370,-0.7936909155659648,0.12222737008510529,1.1858236007040368,-22.67754429343605,39.281601457161045,26.578366548647253
380,-0.5969130334017192,0.31109183173899774,0.6455102288124158,-3.6203907080732947,12.083209769538943,12.377237270338332
390,-0.5506885732155433,0.3400673960725228,0.6601646802264238,16.726187441046278,-13.465272274658574,4.919023135925547
400,-0.5245907342567357,0.35829776721051987,0.6860398774657944,20.907395410151885,-17.273061950046053,3.4092325907815657
410,-0.5767018226353344,0.3448424802562903,0.6371588009053808,19.036689408039823,-21.972563999536963,0.2462795371334081
420,-0.5956542219195691,0.3825062867983003,0.652802272857562,21.769510108050948,-22.309829775762076,1.642371872945151
430,-0.5953468524162514,0.43994132787359425,0.6358695061951318,22.79402235852848,-27.2199146841723,-0.028835201463688065
440,-0.5721387102115214,0.4880973640911855,0.6466787317497393,9.916173958713301,-22.217591245999987,-1.0946742719846452
450,-0.6061947005036624,0.3927533719139586,0.6067797026091846,-5.047125302897099,-19.133187902887684,-5.126000762290255
460,-0.6239043949887502,0.364097018494501,0.6504669452214077,-9.180527868793657,-12.125351652720283,-9.561369311137955
470,-0.663027736602366,0.31302864209871595,0.6436400622363948,-9.88221162620777,-15.095299159514843,-16.19350352118891
480,-0.6023778997846081,0.34187493422448934,0.6654994384137286,-9.787324841288456,-18.843609260368176,-19.111601850307597
490,-0.5924249097663018,0.33000759203367597,0.6134281077831528,-3.2905859223440372,-9.34963029970547,-13.625389542754142
500,-0.664418421429871,0.29627996407649704,0.47326510795743343,1.1431671498138782,-5.569375877610242,-20.597661648342154
510,-0.6424774495880261,0.2322009882272658,0.5649643391875944,-3.354252652912091,-3.417384129874936,-17.582718553607375
520,-0.5661404174414639,0.31825310440932875,0.5498652868334734,5.566303933031623,6.878737636089484,-17.732411412454173
530,-0.5721611968043235,0.3716370649308659,0.6538130998342833,5.838870966090943,8.745814636333483,-13.64519774628296
540,-0.5938992638433298,0.38903775402987745,0.6605256860797195,-21.846195917275622,8.868563813737303,-18.572697864070673
550,-0.5255245817164153,0.5271491223364527,0.8194786896455875,-12.392947550455533,26.010427603357126,-5.890992156660556
560,-0.558918866213232,0.5335581161957704,0.7208468492953255,-1.9855780141271049,23.704274096262328,3.2140867153351733
570,-0.6611582987052855,0.3898698071774279,0.4982647177790613,-7.125432445336066,15.40426588399485,0.8612398631754974
580,-0.5784380519090508,0.3467350391959331,0.9040800830464231,-13.723642281209168,10.37493306886037,-1.7486360874857376
590,-0.5910400112553312,0.40958371673980065,0.6404794537989192,-10.84126263418153,7.840581393021808,7.659624584746793
600,-0.5973417502517666,0.23912359473123854,0.5146812800819485,-6.626409169454416,-2.1469174094440295,3.672246943746124
610,-0.6288316434260836,0.378871781796331,0.5405184126895088,4.975923827995909,2.579843847202732,15.830471751870604
620,-0.651688217120962,0.10794693350242875,0.5356728874237248,-12.63024146849618,-3.099184126690869,6.30782274754275
630,-0.586697836055361,0.321651380449827,0.6910821913025158,-3.4157153664507423,-4.610094554588297,10.464518530102982
640,-0.6155090411571594,0.22905188080418024,0.6119249789007846,2.1269113253561973,-2.0217498595245136,4.228480395606816
650,-0.6023227029944717,0.33740445354496923,0.6341173607818418,6.949598378087867,-0.14375824889975353,1.7808337245273258
660,-0.6158516429772846,0.35469928552495245,0.5883000055960838,4.6424891764272385,-2.2887851196691233,3.3771430508169535
670,-0.6270114911954081,0.3319711496265494,0.5842881860053056,7.507126495106329,2.120133435646332,3.6737211288017866
680,-0.633703857615149,0.3273161501698723,0.5673989649687275,8.515941862023052,-0.6938901753392118,5.2950142570217125
690,-0.5982945802831913,0.31022636975822865,0.5965619914775091,11.106653086754969,3.9042726434212964,4.310842819960426
700,-0.6194314880968165,0.2874609809246659,0.5764914233017918,8.734737558057562,1.432460274770244,3.7438343629945496
710,-0.600083732190816,0.24814671378964043,0.5692521749044482,3.244126667586693,-0.7184956583605229,-5.740261299685367
720,-0.630559373510365,0.3868881847593141,0.5776169114071628,12.599882228653291,3.2460718424569213,1.686247292755133
730,-0.649482087713661,0.3466750183615501,0.5429909440774793,4.980778553313714,-0.28407773926601765,-3.2977203930167214
740,-0.6092333650324786,0.3175874904991279,0.5538404623562664,1.6792450898775761,3.027055980728159,-11.946834866723943
750,-0.6614416568973672,0.4386870617973451,0.593961924879572,11.52688362131676,2.021309601479677,-5.112131248594384
760,-0.7371221906332923,0.5045349178578313,0.7061313016097145,2.390520437026969,9.828135847412957,-7.038197602216535
770,-0.6482976912925569,0.4312876922538588,0.7321369526648767,3.790494387682378,13.255032445168936,-0.6676794624655598
780,-0.563282465294007,0.33506188871994197,0.6487863858686388,0.050632880498768795,13.98381716254848,-6.504326560377345
790,-0.5718459379293969,0.36155159553140404,0.5595451945098956,0.9733351218592181,15.011977021982734,-9.867692256027357
800,-0.6137410279632777,0.31129971219895114,0.5689114073528857,-10.051595582630773,12.610880280874417,-14.81218267129389
810,-0.6259435100846876,0.37442558831512485,0.6751620604963764,-13.664716661520547,14.402040172648762,-6.497005961196902
820,-0.6351792893229888,0.28545412115776797,0.5961722571821143,-17.227187698577094,13.778309974120035,-1.5563901717234043
830,-0.6199749784780056,0.26522633591099143,0.6301806420776334,-19.021000841569524,8.634856732412091,-4.835271564918717
840,-0.5911620020229428,0.354134343125502,0.7435915141790089,-21.013486700997102,5.785125785249353,-0.6162943732668882
850,-0.5921763210725038,0.28839752744722574,0.6696843456200966,-16.16194662448514,8.800396253865957,5.661484533451775
860,-0.6513301514801423,0.40577482099434636,0.5657133096586974,-7.453171127746032,10.680319057671591,10.756598144714252
870,-0.6114512513069572,0.2557481978954355,0.5419174964621705,-5.926572542129825,5.220204865152285,10.44370609961355
880,-0.6389454847374018,0.36810171355935484,0.5820921233015277,-1.1578229812059564,2.694266061217743,19.18365901167121
890,-0.603354931425191,0.32072366921287376,0.6782837130293905,-8.54334869181641,-1.498048692502226,17.609871501822848
900,-0.6101843167173406,0.27129941563758014,0.6435702469742702,-6.014122956125835,-5.64762842888024,9.419327486069989
910,-0.5710102105015468,0.26062580143625425,0.6490186272515885,3.1243524758744408,-4.218484451738508,14.010761806367771
920,-0.5789022059339501,0.3955694530365038,0.7090835173634018,14.0414366160066,-10.303184249918512,18.63978634135269
930,-0.6529653703776492,0.2792964278859907,0.5480843962491595,13.773426453474933,-7.336303871092073,5.227075952069184
940,-0.6294913102898517,0.34236475388373117,0.527063931927494,8.598607434092441,-5.834695461001126,5.314994448854565
950,-0.6143208364965688,0.3955950525179296,0.5786259968728493,5.129740267631947,-3.549587556363993,6.885158298348229
960,-0.6475815892985315,0.3219044944488927,0.48995393615277577,-0.31994578640676863,-4.84445722984123,1.8926758781523956
970,-0.6221914511853575,0.35106970973892837,0.5605960644148055,2.204168858238413,-0.8238283409102121,-2.2559995414269363
980,-0.609231558484068,0.3602914572564201,0.5783046502799503,4.322944802665518,3.067765186851961,3.3348786450577292
990,-0.6394218927958537,0.33699636432679664,0.5528273602545708,-0.7813886465602394,-0.3102261656762896,0.09986274331920053
1000,-0.6043312041133471,0.3742628889278572,0.5944194614620171,0.8320780158057335,1.5536300439322563,1.9483692254812515
1010,-0.6324866617817628,0.34447399299491666,0.5675689522852779,0.5106353805706314,-1.0882329712561343,0.5320571587973313
1020,-0.5971027158095107,0.37463680718221615,0.5968627982021717,4.301818240235732,0.7534569698940252,3.4534140383108793
1030,-0.6196259511180606,0.35556725196860306,0.5704249359366288,-2.1655592024133155,-0.2461630039156737,-2.4113179727551253
1040,-0.6280293364481733,0.3477161518481797,0.5665300814225681,2.117497039476438,1.9714966526889102,1.464041057426459
1050,-0.6132857519187733,0.36403588640306866,0.5804211661725147,1.3051764606155496,0.3423506448482102,0.6459770858028258
1060,-0.6203041155554914,0.35896625989305075,0.5712348254221034,5.869248449186815,3.8870021828729913,4.63757335748588
1070,-0.6381773381787721,0.34528265175994444,0.5506912316021999,3.4793538597239597,1.3155855734843913,2.803786407208373
1080,-0.6356101128404794,0.35141131843635887,0.5564785894352078,-3.0432559531101697,-2.29987104242632,-1.4323355042217134
1090,-0.6073209009498773,0.3722165603061113,0.5866062309949663,0.2885265900771352,1.7786669402207047,2.477254116688399
1100,-0.6485327108135772,0.33330217174612514,0.5458938633246044,1.079628318089178,0.6332776321970821,1.4282214731110199
1110,-0.6192407545625584,0.3601499854233277,0.5760702596372154,1.9191673382289978,-0.2710225866893956,0.8587072226984376
1120,-0.6011540462948668,0.394914600637281,0.5955787984891973,0.6235313360223258,-2.1117594109161715,-0.743240008756731
1130,-0.6257988171774158,0.36682270392281846,0.5693293558252277,-2.8111182710296077,-2.011605886384756,-1.9188320596217165
1140,-0.6173286270358405,0.36816544986642935,0.5823148845154348,-1.369871676162355,-0.15898997355867558,-0.8673492878208866
1150,-0.6227043164513594,0.3627135192603693,0.5776043084197242,-0.3323378741569258,-0.7210696327511552,-0.48924353371328366
1160,-0.6150395111768434,0.3708035207731638,0.583923211138596,0.9745637411449656,-0.5081853245936876,0.46209552388568265
1170,-0.61921772059609,0.37552521291366714,0.5776299977629631,2.1021899808716498,2.6054535296471353,2.886246723074681
1180,-0.6533738427078558,0.3398170650991873,0.5447865053854279,-2.8987294437901,0.09198904111938047,-1.995996648826274
1190,-0.640366047463561,0.33667344453419273,0.5561356286143074,-1.5977854314072886,-0.9083800856364017,-1.1281083695682022
1200,-0.6350127881487725,0.3448692465229389,0.5599899015483295,1.5531973524319427,0.17526417488647605,1.1872718910488773
1210,-0.6161104867317293,0.37090380259612554,0.5715874754221113,1.0295025825146191,-0.31706118285577767,0.9334532918125055
1220,-0.6424474829373398,0.34256370150067555,0.5460236210540858,-0.25559080510433696,1.3782030051760576,0.9199853319019655
1230,-0.6212341773282835,0.3596145575335814,0.5724962523932597,-0.5961626267145209,0.8506121645997035,-0.030809779460446274
1240,-0.6332013171536727,0.3540747325692198,0.5639547008177829,1.8101982997275188,1.013301229652633,1.1356399950241671
1250,-0.617893879756573,0.3710931626944222,0.5743506070178099,-0.21072361831205355,-0.6934223100505533,-0.8577612968842356
1260,-0.6335831232155226,0.3526652180454083,0.5595421770002558,-0.6472462550193625,0.2995584094591681,-0.007242957919754434
1270,-0.6269845925455045,0.3591182261549666,0.5647955175929633,-0.4896845872072708,0.9762298339337899,0.46213956920469323
1280,-0.6038611682473564,0.3834733783360457,0.5877470324878147,-2.609659720069718,-0.20102912504615822,-1.4230190343534561
1290,-0.6161522684189722,0.36359562512135263,0.582629423605028,-1.9672741884031726,-0.213483398032446,-1.3925281718045033
1300,-0.639259800539307,0.34252795314508067,0.5568466587779035,-1.1512837682384218,-0.19092067599561924,-1.1142216172411694
1310,-0.610203693383522,0.3722470370531473,0.5846689299977949,-1.672459033585448,-0.7197311395448083,-1.3054815561706796
1320,-0.6750959764781906,0.30942568154152816,0.5194353461683351,-3.896775997943923,-2.9625866922923656,-3.48096467198166
1330,-0.6277360006608965,0.35560195071028494,0.5668073591683394,-1.856804155708173,-0.9520157452946332,-1.2047984617901402
1340,-0.6364810969400059,0.34320218961563026,0.5568462426392343,-2.3844992177155713,-1.9436874075900914,-2.054089579728004
1350,-0.6236194826573646,0.3583028299816584,0.5698209957506583,-3.459700293143128,-3.531608165463918,-3.892938307582778
1360,-0.6381462597115676,0.3407900695828285,0.5597305963585493,1.44117895325179,0.9841202706590806,1.0406408104282763
1370,-0.6573935902025378,0.32723352944548123,0.5434932840210867,-1.1905943165255468,-0.9250550718997639,-0.9835722462180687
1380,-0.5934994388683829,0.3850476005133303,0.595337714209521,-0.279176411773727,0.9797155814811686,0.778362240836381
1390,-0.640175545202753,0.33978799097097295,0.5536849730687334,-0.9694749789884395,-0.2977962642762301,-0.6807601920497305
1400,-0.6263356242105543,0.3537472489421701,0.5685431727371975,0.211281294205535,0.1304099103600856,-0.40606372320300876
1410,-0.6312663826452979,0.35212652760856644,0.5640208544423777,2.6175561985018865,2.324395611891395,1.720832466397397
1420,-0.6451715355405774,0.3384251224504967,0.5495600674166523,-1.7447203589876925,-1.5034521432184498,-2.328472282567592
1430,-0.6173271965868787,0.3631301145767352,0.5764976280176002,-2.1290530789476683,-2.171547505992442,-2.5374312277431335
1440,-0.631840512794348,0.35071708019278963,0.5626521884415098,0.998993810064164,1.4166070385766676,1.069026046039905
1450,-0.6219419931290426,0.3586580269759845,0.5736190752566777,-1.7259258395524046,-2.2860831477818713,-2.3329035513467926
1460,-0.6119660406855356,0.3617815563643193,0.5823766154790306,-1.9776072327053753,-1.3727984197624212,-2.446224191389379
1470,-0.6425689166469546,0.33888384954930784,0.5499266580303402,-0.02014621837161598,0.16454339371916615,0.1748885775553003
1480,-0.6269141691122972,0.3560106837360787,0.5641103776030478,0.6717169456715457,0.6621130008110654,0.6343481419269225
1490,-0.6329214550842209,0.35136501366519945,0.5640070155693241,-2.2746915862239176,-2.014487901637194,-1.9879978338979294
1500,-0.6335114430000275,0.35013053221333423,0.5595876531211873,0.5602186371791323,1.0723306788050797,0.8014141329942623
1510,-0.6353747545341812,0.3454801915215761,0.5611387592830006,-1.3437335845051726,-1.293463248656476,-1.4933343453461185
1520,-0.653255271418674,0.325972121170487,0.5386889218658731,3.4701524647539093,2.679687920082166,3.211997486101715
1530,-0.6273284709797012,0.35698215379905834,0.5709016549773868,0.5833795589207784,0.7388942718652113,1.2321294363015758
1540,-0.6284465764587865,0.3512142413860024,0.5662649218029135,-2.529821352338967,-1.292305692848891,-1.8687619992003974
