time_ms,ax,ay,az,gx,gy,gz
0,-0.686001886537732,0.5365532345105113,0.6607741147071762,0.8737701699640992,1.4357699343871972,0.8525639766788138
10,-0.6739602259312396,0.5461956305461099,0.6713010393021743,1.1022913393971787,3.0360239177685795,2.1521511576552985
20,-0.7047360821359038,0.5115997406860254,0.6445439599784472,0.16654922890870538,0.46310862353982335,0.5009648378620675
30,-0.6783453220968425,0.5359080931520124,0.6670712418654937,-1.1261836703464898,-1.5105073793956467,-1.343849466717376
40,-0.6743324787156746,0.5401985135009332,0.6736951371829418,0.18395086680418818,0.1639836497292712,-0.13994079760259376
50,-0.70115433207225,0.5166276182042064,0.6440403315957953,-0.6807822327632541,0.8570018356405519,-0.00631784607392033
60,-0.6857039751066873,0.5286866969498518,0.6593372520657529,0.9095280260468956,1.5572900991283987,1.6702008178753598
70,-0.7011233313639985,0.5125079355198007,0.6399795874761939,1.8926021909106767,1.9568178790191204,2.395406067709116
80,-0.6940636028440347,0.5253346250916899,0.6477796475328734,-0.5536871006314731,-0.40657618332111656,-1.0587683926672198
90,-0.7148234041254612,0.501881419347085,0.6266912404042947,2.1627339298094963,1.9195123828117122,1.2939367022707096
100,-0.7025138815234833,0.5138626289004887,0.6386264765245162,-1.3485014096978807,-2.2584603348322934,-2.3422594844932974
110,-0.6910859216561658,0.5276103045530278,0.6508799548130201,1.2879136088558312,0.3125295274616599,0.4786861250624087
120,-0.7079737515171468,0.5106500295580506,0.6375974379062233,-0.20662964526350935,-1.2102723376460145,-1.4623075803898815
130,-0.6953609681747368,0.5410444207191658,0.6964864876269349,-0.23101500668694497,-0.9966998186686715,1.8466427975635042
140,-0.7346428816844566,0.4834904372235356,0.6610295526374734,-9.17991558260098,2.245435691299239,7.727724847581526
150,-0.77679066264023,0.4330333846141966,0.756975623152994,3.996252463568893,-11.17499833224918,8.314799635918327
160,-0.8312001205630557,0.47552724723740636,0.807084155763032,26.376598352696004,-36.577146411747854,12.982673552319053
170,-0.7071276629958125,0.49035421611784274,0.7164893748478193,41.41871287123894,-43.743118187555325,25.747200382911668
180,-0.5336399876640694,0.6130041140366769,0.7066756298287518,26.044266556640654,-22.32027805890959,24.180934561455103
190,-0.5390215313705439,0.5985104654575282,0.6831695517866974,13.794083017449964,-19.520529387686373,10.829146748777713
200,-0.5620289844613712,0.6114892462932862,0.7042264500736989,2.1404593897042687,-6.825507697092483,2.742730191636987
210,-0.6524618436264594,0.6087324147859501,0.7483903837877653,-6.671754869488004,-4.070798095504678,-5.1451595025743835
220,-0.6753527776152973,0.5690256153090769,0.733268466218995,-2.5764558332932617,-1.2400074491331083,-2.1115889113401844
230,-0.6452016888470413,0.6092244131586176,0.7046663478087289,-11.380498566944407,-0.5451232958700747,-7.2742819797798735
240,-0.669489669383029,0.5809103261230569,0.6650548171259665,-11.01815920993984,2.457734089578918,-7.865558057388013
250,-0.6628312618866112,0.5628944443382292,0.660469158294622,-12.40288526607207,4.485037340119952,-10.404922288648761
260,-0.6529711365330614,0.5840952062784659,0.6496153839841169,-18.674011632984445,7.04939362467017,-12.627333876219499
270,-0.6809906691764194,0.5741729666811165,0.639615900098064,-19.4004214512494,12.706809167297763,-8.88836635067118
280,-0.7529055564165802,0.55492485122737,0.6995288730237099,-15.168672711494018,10.324889907104472,-8.40779306863634
290,-0.7537821746829667,0.5373194110457139,0.6380679444806305,-12.105248959955825,7.522328177221613,-4.601523313774511
300,-0.704822949141351,0.48153864844927846,0.6003075404635843,-9.544948799332293,7.219811265902971,-0.9164289313220904
310,-0.7437372456027973,0.47394200444987084,0.5490935055549868,-9.881173616441584,3.6626017041653136,-3.506018451360771
320,-0.7891434981455339,0.4606456741935798,0.47761695938584003,-21.084522480424802,8.888489616136674,-9.844625665842646
330,-0.7644744418094525,0.5128603205531514,0.772180181503205,-9.066663484837818,27.087831585610974,-1.3434070771652935
340,-0.7606390971205341,0.5862836581836439,0.43990970299399235,-17.334329679791836,29.578590727457275,-7.799467714763544
350,-0.6604705570412902,0.6848845414111138,0.9853879890867544,0.8134075807182447,26.363753170750687,-3.7284016903832793
360,-0.7202303516950153,0.5097720500403757,0.511022174710905,-14.327795531779197,18.468247081112587,-5.67337174151972
370,-0.7117268658435434,0.5443429820839751,0.8553031465754253,-9.499413512367067,21.217521147026392,3.9524473858701836
380,-0.6569874355680081,0.39860000901937603,1.008288417232533,-4.612792475799356,8.54835693588711,-13.358691315605434
390,-0.5922846401945677,0.448794177605705,0.644654442608912,8.381202436690998,12.958838792155124,-4.661961137702511
400,-0.7133862145408467,0.5922721845697405,0.805184411286557,21.07702175769345,1.6935759237366117,9.905844874035129
410,-0.6117812580803598,0.4385841733168774,0.6723449517824731,19.62109468165061,6.363991455106571,5.104296471086761
420,-0.6742870399566273,0.5270845265875722,0.759116099771574,10.248917293621671,-1.5018600812327123,0.9604959682917324
430,-0.6553969667715377,0.5032664191720254,0.7274070295933976,9.222953919991223,-2.0073041753051126,2.0545643379530265
440,-0.5946388349109181,0.47977188357764444,0.8548122910854358,19.14345846965457,-7.746531367981016,17.259491871048848
450,-0.6505273274584729,0.42616086581824014,0.8906799046439485,41.27358376598654,-22.37946453047124,21.869276831131685
460,-0.7169620008971932,0.48581729589699757,0.7340176046552549,38.96605593779522,-30.925334393433225,13.894518348796904
470,-0.6582394223514499,0.5648358686560832,0.6900097564015052,22.45324217581523,-26.058632189143246,7.843181687587411
480,-0.6698278492206376,0.559762431305145,0.6671397453442417,7.235820993034037,-19.496862927089996,2.2093655095486917
490,-0.6771953344703121,0.5519822785206923,0.6659793105407614,3.0715508974424623,-17.667515502888005,-1.2153364505007647
500,-0.6901728710537215,0.5212514728838656,0.6232951158487987,2.972203350353815,-16.70152767784864,-2.7735123748824018
510,-0.6647603811901267,0.5393163554991951,0.5953768950700827,-2.022683613001663,-14.490730083340083,-6.4632065969439285
520,-0.6749548161427021,0.5684512280196172,0.6446910125601174,-8.99971291044955,-0.401910607130914,-6.250320238059283
530,-0.7136504333109467,0.5190824498452807,0.6958896434960725,-14.921303549908849,1.7904839158222647,-7.618548816705956
540,-0.7718571021126284,0.5103079458680418,0.7257085948867376,-13.580837305169002,-7.938451421984369,-10.758815201310885
550,-0.7130640874399511,0.49400128060179443,0.6158914230821391,-1.4307817640693326,-7.91101115228509,-8.087863994659632
560,-0.6274757069141083,0.47290046843415545,0.8055434594226702,6.586255867594926,-6.8408180560835214,-10.647422198896242
570,-0.6335826859710687,0.4357833930781617,0.5969732925567287,5.147117719573913,-3.197839607676691,-21.465474682906272
580,-0.6107192599897197,0.6152067169556008,0.43182543977546617,-1.3160833281582764,3.705368493284178,-10.59452157653304
590,-0.672395284559098,0.6269056120470442,0.551323211617087,5.299016250325362,-0.8898837980283983,-12.670190234804815
600,-0.7341304471094063,0.6726714060180237,0.7659523167029357,2.590136251761482,-1.2033532067043278,-13.369994917932557
610,-0.9289947749654064,0.6500207190822035,0.8446576661930942,22.444564297030904,2.3336060481412937,-12.377766986593397
620,-0.7932745910481273,0.6084626952761684,0.4731675974477084,1.8599233985100114,12.435095064040766,-14.36145752455397
630,-0.761071200715515,0.5459148747809328,0.6237869057125873,-22.244535668890123,2.69871665114003,-7.2022964133322
640,-0.7088435790833412,0.6385750969490883,0.600093234126097,-4.49180611215615,10.31771653012353,-1.9955444081867881
650,-0.7029997019211,0.4285625607067609,0.34084051010364413,-5.240637163675755,14.182135690659134,-10.078069404107028
660,-0.6678990710765688,0.48303089869722404,0.4593351517839791,1.6546611101607485,13.718706788197654,-4.988543103083339
670,-0.6922811376125929,0.25565084350718775,0.7895970641112446,-13.097718767656247,11.479740466669043,2.936244330594856
680,-0.5550259302383568,0.7349479919408997,1.0160832456650766,6.196347951517359,3.293391462935272,2.08486493864352
690,-0.6304380490836619,0.19306104309534494,0.914836529323893,-9.299451770887249,0.8659812130432216,-4.453708572056092
700,-0.7029723257773078,0.42922121936565855,0.7697294549753511,-10.667793482523892,5.798736257538039,13.259514099141153
710,-0.6538281335244599,0.7097459955371187,0.4564823321352918,-2.197411762399693,10.283626243294057,24.808080768853667
720,-0.7044501882913159,0.3086057472624321,0.783563242716047,-7.840021275035491,-3.9494351980426665,8.567645389705572
730,-0.7185765359735021,0.682524111448057,0.39550272839529715,-8.21674492685332,6.6518762519365655,21.56578522795157
740,-0.7069880442855017,0.16793947244015314,0.43472744754485354,-15.562333223756921,2.3852913942883944,-16.044769019881674
750,-0.6859142256858668,0.653835185380883,0.7617945220901478,-1.3400336407094535,-4.122357633271916,3.470033599151999
760,-0.600726765348333,0.7928846694167792,0.8888732665420235,15.814414764698098,-2.7007100697460973,21.632633297772603
770,-0.6775447394474166,0.4407406874079542,0.6810013662799927,5.358688672846927,5.4494463936248705,15.279647136827792
780,-0.6409967426446898,0.3013991937732039,0.5649440674147241,18.435524314328,1.1076521429373232,-13.872813800903222
790,-0.673332397161527,0.7868606687423187,0.7873703962953605,28.18056895777012,-6.308283924405355,1.4496821717561392
800,-0.7858691925190107,0.4276962580353049,0.8995729576045938,22.638905523613023,-13.703857726215674,-21.85380719254006
810,-0.8803001852140296,0.5054121486035743,1.0266410640303247,45.147032837994054,0.9826583183326014,-19.961680780794477
820,-0.9436538951548024,0.4264296034060467,0.9056220652952445,47.624080262186865,-1.4984436391120124,-9.70781601851808
830,-0.8650869873535342,0.6625345039576931,0.5990727100497593,6.884856556297623,5.530079335648854,-6.8680965101566285
840,-0.7979861586656665,0.6778172089712826,0.9689871124813639,42.24251910702352,21.587141599731943,-18.247277690718455
850,-0.6961630936878552,0.5801688695708108,0.8657018292385397,17.177921627073324,8.523703672869045,-15.200970020520911
860,-0.6775599012124656,0.47233208058099024,0.5843355550293801,-10.245475813812053,13.40953467160399,-15.94652480336485
870,-0.6609281637650452,0.48522744381556493,0.6703261147485645,-3.8306464863784955,14.61119815712886,1.66196871616513
880,-0.7326746726718792,0.5658606321321147,0.6148842458783498,3.934972766393149,12.944817575923334,6.634255135044231
890,-0.6965795699325864,0.7305946458786736,0.4208509451051332,3.3199679754653513,14.778869410674679,7.3868258509400215
900,-0.6993654857745373,0.4691305612127094,0.6923918055129228,-3.260777249477329,9.835690607977048,7.240619052218384
910,-0.6612704578995561,0.6999268289223908,0.7776581262574399,-1.8131472873527517,3.2868661739734986,14.456100647533587
920,-0.6512366073386379,0.30380276669734124,0.8824110198685308,9.443597548774415,-6.348985731509142,-0.944310425246986
930,-0.6842381329968398,0.22967277564995467,0.6606250160962942,-4.1680436704191575,4.063281086273384,9.826044112851672
940,-0.6930759454248874,0.7416445606877846,0.46114264549973133,-2.3433528893274636,0.7793432853576117,11.374370885489006
950,-0.6886379100213863,0.490239206544896,0.6856106230735678,-5.031192634572534,0.17217317082117678,16.64056316198954
960,-0.6351644992806404,0.5517757963814676,0.687815605055997,-10.895859783344424,-6.7171374754951145,6.403071209727417
970,-0.711220181955887,0.6083138678032329,0.5306766244933778,-14.99843516294068,1.0933149797102013,16.11407729446954
980,-0.7039044644031756,0.6012298958470266,0.6746114684798952,-6.795573335224247,-1.1806468599451998,-7.167314656286058
990,-0.6925989172415419,0.4439627605730895,0.5970288747553292,0.04124037451930829,0.4089323951629803,1.796054898233424
1000,-0.7067963782609671,0.47986101777121415,0.6145161058406059,1.8995236874091306,-2.4852832249608863,4.820536879974457
1010,-0.6988175335875855,0.5086566897915951,0.623550351448044,-0.5988741808544176,-2.8648612193808853,2.2833514646956057
1020,-0.7097401269768001,0.5085241620150087,0.646562056989814,-3.6417915526925864,-3.9600512072552174,-1.0797509131698468
1030,-0.6917657231309474,0.5153199619820866,0.6484386302276659,-3.514653848689291,-3.6080548308016724,-1.2345492456914389
1040,-0.7041481402511219,0.5042831601094376,0.6470254824030177,0.602334894013711,0.33496931252809836,3.141546247555403
1050,-0.6873160567459932,0.5194139649835348,0.6535958642036911,1.0619544381288375,1.0588229563205358,3.841599017160649
1060,-0.6757237416664733,0.5393342989819423,0.6588815189571577,1.7256053511571356,-0.5926214753134303,0.643638391121804
1070,-0.6928135908435579,0.5355068096604887,0.6477442775131768,2.6470001456802934,0.1992336313606291,0.9829689015898364
1080,-0.7095513091810305,0.5033278213086237,0.632182897358003,-2.27394461551534,-2.3832885018782703,-1.4876514397903386
1090,-0.7057905331115213,0.5019554121912687,0.6358960574145726,-1.7836300114885737,-1.4215286717055968,0.8171421482529574
1100,-0.7095751458973201,0.4969916339509655,0.6336395335849876,0.5445017324517504,0.4515527753232387,4.472808336386406
1110,-0.7261300497585614,0.4938876321298492,0.6145642332919458,-1.6062368910678138,-2.2988779964630917,1.4537528784079399
1120,-0.6834816512268236,0.5439321548191629,0.6545087467905021,-1.3044238116318827,-1.298035211844897,1.8955839484685053
1130,-0.6873643185624984,0.5327249439683203,0.6570665569063759,-5.173165869613932,-4.520356943989417,-2.8570335574402494
1140,-0.7050191555057637,0.5159052671286399,0.6455087046355524,-0.9957000341832369,-0.8136854298166549,0.41152063260517735
1150,-0.7204248975633811,0.4979256565683279,0.6276432432834931,-2.001567621020735,-1.992889178034273,-0.22418269986264416
1160,-0.6760880161910688,0.5524990585286061,0.6690302378278719,0.37897934016684265,-1.9845083290945429,0.22890942024537841
1170,-0.7035615926555381,0.5236261789081611,0.6416452326239781,-1.3532682514308514,-2.0044971490930408,-1.888580868692193
1180,-0.7174843478757397,0.5032461582032147,0.6286322610405919,-1.8960539891196575,-1.6630936651448267,-3.1876714435719
1190,-0.7027097809800836,0.5106884034572202,0.644700875310789,-1.0145644428221372,-2.208722429611247,-2.0600996832884695
1200,-0.7026316019911846,0.509758234948854,0.6458052875817545,0.8780021930282975,-1.4656293993920102,1.6814861557389589
1210,-0.7101292592944751,0.5147164024206996,0.641417378565225,-1.5876782209123144,-1.2098122320418228,-0.4890490058939626
1220,-0.6983304955714372,0.5251821028505012,0.6520907554877786,-0.42935325028709537,0.6440113532505773,0.2525114330903809
1230,-0.682798745246855,0.5377827217329137,0.6593361114703582,-2.9505878708314794,-2.5448915438974904,-2.912307293481462
1240,-0.6904593358750325,0.524010380839507,0.6514152912233684,0.6883114573614121,0.026178957792247187,0.16196942858040167
1250,-0.662599907022128,0.5496776859438168,0.6761061224241596,0.6210426283695493,-0.5684548000963967,0.7991272419888701
1260,-0.6945329483474355,0.5211463701527694,0.6481385022191285,-0.41408526779279087,-1.0581395209305624,0.27128221976607114
1270,-0.6995798875567684,0.5194828316477297,0.6446453155030117,0.9349935964046133,0.2833633999808184,1.369652808804791
1280,-0.7294276351968484,0.4912084555188643,0.6148611712983929,2.3442510536588284,0.32734490664683336,0.634782636513168
1290,-0.7087964784313563,0.5063466143085834,0.6302557338867101,-1.419823012476487,-1.540212232955943,-1.7910800524079282
1300,-0.716728793080501,0.49915091851658017,0.6270980384672546,-1.5003888656589206,-1.2796144744953426,-1.7112049929371875
1310,-0.6946093486058177,0.5222805109715012,0.6472713023755837,-2.3665221355974033,-1.9065868339296541,-1.7206867994626958
1320,-0.6921439243622194,0.5294136412990864,0.6511362003321105,0.36064467144014073,0.9334285595431031,0.3792211713071966
1330,-0.6977828647697722,0.5219416332374903,0.6474372572057597,-3.959167938815942,-3.3875509965583555,-3.629421698191874
1340,-0.7027512183052776,0.5199024607332239,0.6437970523202711,1.2496393915316517,0.4059233384788836,0.6171736724514356
1350,-0.6968316355591858,0.5219095268504017,0.651520883196463,1.665917921525712,2.31945979731703,1.876970125144708
1360,-0.6671936104922912,0.5506658873691438,0.6801887640409094,-1.8574390068639124,-1.007662242921604,-0.5877136122865568
1370,-0.6865278843979836,0.5289399654599953,0.6628240773196145,-0.06970887866431297,0.4295442802085538,0.7996272093120682
1380,-0.7020325250602881,0.5192603303103511,0.6442530682058768,-2.008585871712541,-1.5547887957829898,-1.0121773075835212
