time_ms,ax,ay,az,gx,gy,gz
0,-0.7743257078029204,0.27414499364715916,0.3453786216687297,4.168829941940836,4.430504937264243,3.566874180905839
10,-0.7647497038088105,0.2812537915896849,0.3550060922137371,2.0462697706339177,2.09529512762874,1.819608281474355
20,-0.7399545491180682,0.3067623947483762,0.37653686336787257,4.636633337213505,4.550742741701425,4.3464736195258595
30,-0.7420627615288933,0.3016255323728929,0.3795749729020101,-0.18014272751773586,1.0888412141059904,-0.32296311001678824
40,-0.760192260999722,0.2796770929240917,0.35969834239014253,-1.5824781703414332,0.3366002724480609,-1.379497787311415
50,-0.7643958191872293,0.2780296867835783,0.3486641219406961,-0.705821091722539,-0.1774220306693403,-0.2650216452864546
60,-0.7667778376970857,0.276214267036221,0.35029897461885695,-0.42870770541955233,-0.9464498653933766,0.8362022533882868
70,-0.761826491746253,0.2872405556878733,0.35685972759210777,-1.1112825689022365,-0.35074419027547193,0.8157614042899871
80,-0.7682698096605556,0.2761294786959343,0.3503918901806661,-2.3092988713450016,-0.8900839961533786,-1.5315373359952398
90,-0.7755457363288237,0.26061532416926986,0.3387139789011053,0.058716397448387525,1.0039574485186613,-0.7359838706316515
100,-0.7465768433868585,0.28978214431745686,0.36798492805662697,-1.5743655951919053,-1.6730949425814812,-0.38540230468640657
110,-0.7760231514559548,0.2646754070295925,0.340138984963561,-0.2612935348138147,0.513846998154106,3.2886847061837585
120,-0.7760812720464094,0.2730216680590749,0.34422713140939154,-1.7860523222658342,0.5505767774459478,1.6477466791092112
130,-0.7749913598348196,0.2685036540744613,0.33961725740247317,-2.635019110511873,1.4616838749142478,-1.1362756502402271
140,-0.7367504546486205,0.2692373218063526,0.3640518157813266,-21.54918066775207,-3.8196889724922642,-3.982138827331348
150,-0.7763104112190288,0.23651969379190577,0.34570182510522784,-18.750377532619318,-4.879936199888915,-3.2672028043726593
160,-0.7480804456579191,0.25667177209004705,0.4091126110937269,-24.153563047536895,-4.9353823362526175,1.2298162466474252
170,-0.7661419030741338,0.25821941614508875,0.38271580929425053,-22.179248065274244,-5.61533043043197,1.869497987495239
180,-0.7233042138695749,0.5415318146084255,0.3315952192856114,63.209039549007585,-7.403144123509225,26.27901102779686
190,-0.639792392275646,0.11310716568109684,0.48785950776355785,-4.567459592506678,-67.30266682221853,-18.092442331326748
200,-0.9427773390251248,0.686180020537303,0.3618163488245304,-14.25661475235055,-43.126110090014734,-7.297561028211983
210,-0.7721430522582386,0.1667196110641594,0.320397209964099,-34.756817705080294,-53.549557961123284,-26.709195086706092
220,-0.5833319069852425,0.00786516525538226,-0.09122225544035202,0.7053497905652206,-40.22258751144497,-23.793714496222915
230,-0.3040775062613786,0.05070508068710172,0.3709608935602844,-14.506878017425247,-39.595594680459406,-23.413678879409794
240,-1.010082007445316,0.1433390258955503,0.6969488637180729,49.54020737690533,-33.36934033899331,-9.63954947291617
250,-0.669630373964887,0.08758765411117764,0.7048487319197552,47.008922365070504,-26.37212564373134,-9.045792060522682
260,-0.3237273405474225,-0.1292317713235084,-0.03204697282315537,64.40000946784751,-4.845068593930272,-23.243528052063642
270,-1.4437877125414647,-0.12921441044610113,0.1409768488067637,91.95599524644778,26.731691170207082,-35.669178003839185
280,-0.7366285821281435,0.270731498823078,0.13471047691862598,39.73200262800098,-1.2999278465540454,-18.20397514789371
290,-0.8119908170688666,0.6790230080871231,0.5406720997686791,51.84066634201858,26.342979582932912,-7.216793650684681
300,-0.8030037357431402,0.4819170169073696,0.46827605822573687,31.871996210145845,35.954448805390676,-16.5246186381143
310,-0.6808579953565127,0.21167306098027336,0.46632409081520076,4.034672030089769,52.46008229236858,-28.4986936358165
320,-0.6277128109042557,0.17161874775757865,0.8692696495318207,-19.62714459160628,31.861823562035006,-19.29948497816484
330,-0.8258972531064577,0.5781447232440245,1.0358237408629534,-38.80818011547201,59.061871113147646,-29.21526765943856
340,-0.6975606621238909,0.2675589735140656,0.511689854164168,7.773428917803062,40.33240730946096,-12.527181799905499
350,-0.6619548569723405,0.4048602226581929,0.37836784890087133,17.398211679404216,24.11102356452009,22.399310230927412
360,-0.7087241221703693,0.4130842427314754,0.8100629717630053,-7.635434742865529,21.8058933302191,8.553292764097817
370,-0.5368553290958881,0.09030624649186368,1.0563199646901051,-57.563710974042294,3.7057169562428776,22.42131142702606
380,-0.6947424770769567,0.28788683326962716,0.436373973878321,-48.78387939326088,-16.107174627473235,20.89248491407976
390,-0.8126012716019468,-0.21311252954879237,-0.015491741395498287,-59.06332864527742,-27.35910311915328,-1.0441880363910236
400,-0.617361561302204,0.7714179916148288,0.6075141349683568,-20.38326967266765,-29.229556245545822,20.015618712636762
410,-0.8427049397281487,0.3659115953248507,0.39142802620655864,-26.549253475847394,-21.22422844276417,3.0954316684998937
420,-0.7757134630173869,0.2818688230320245,0.4080062417514686,-5.785026598155097,-10.177646816213128,-1.140047018074413
430,-0.7262173656128511,0.13266828489775603,0.39211393700832003,-17.71153017058474,0.03042695957417843,-8.48050633307096
440,-0.7517106780040961,0.18307248847108343,0.33023945562129775,-3.2092204838903173,-3.957086598133758,12.969969135114368
450,-0.2876955390784551,-0.1976466293603416,0.24415623812299259,-11.25381940158152,-7.454940014470591,-6.524528389773296
460,-1.0233659693321375,-0.09894130736967927,0.11897306511287165,33.82689735875006,8.55104073072124,-14.301963442540545
470,-0.6379527720046083,0.15959226199687176,0.4029498863459547,31.35220672001126,24.490980902278096,-2.9954165120724783
480,-0.31604053592035114,0.16218431248121334,0.7923192822762913,25.039011202026696,44.70833947653933,-21.448750764087855
490,-0.9529867222963162,0.2602125088147779,0.674066286661777,85.63767017003732,43.873278206766564,-19.375332325493442
500,-0.9623038212630174,0.29562330762277167,0.521849709818274,41.456580196303996,57.158619456830266,-21.648330226893282
510,-0.8065799095321862,0.391726070261334,1.257649882772236,19.670366983453032,50.50294797226913,-17.869584207847783
520,-0.8817398208183552,0.38695308805209216,0.6899010357194209,-1.7884241638836682,43.759351715521724,-20.95976305171154
530,-0.6972600510981977,0.5093696384900391,0.23200605515381448,11.047984332005644,70.6519773270998,-10.671258974173151
540,-0.5568807076749068,0.20003539460764017,-0.4063789796521218,32.13004014707661,46.302610924589565,-5.3078291151301
550,-0.6963989242302873,0.408635741076643,0.09714942302795188,5.2951397801291185,11.966868689716673,7.536014298335925
560,-0.7815414959233515,0.7365583814650409,0.4313813864663456,-35.54194261975553,-12.121602993213298,40.967277811178576
570,-0.7213207739992088,-0.21301897006956885,0.20833614435643225,-107.10832454033799,-31.281279120781917,13.993439271601464
580,-0.7391291373580341,0.11508005889947052,0.7361920900894506,-73.34486211453616,-32.345499964044656,18.44903412585371
590,-0.6463536110557812,-0.42834000577861764,-0.3051536892268587,-14.914500095557795,-57.10177218967337,21.91367928637943
600,-0.8070110462720388,0.3152781862878576,0.32708250965565666,8.187245157191612,-19.7806339124263,-0.6633616364650585
610,-0.7363184095873513,0.11559571158821637,0.03499554621143877,-16.053300942924924,-6.5555158445664095,-13.381233563847918
620,-0.7504330561344936,0.13786291269493015,0.15554715279346928,-2.761623100057178,-11.22453185256202,-0.8712527587997687
630,-0.7466962333513392,0.32977206056488106,0.4314955788831029,-22.137696880294268,-13.345561944397733,2.9431041285577257
640,-0.7609344232359729,0.1581186265163911,0.25616637900798855,-17.97457961633623,-21.271064195542905,11.39222031124688
650,-0.7870037727556792,0.25136904611777533,0.2936846672461366,-4.459499432703602,-1.8118102257826103,2.3892057288563375
660,-0.7550409382088724,0.27651838536448675,0.3464842998322652,-2.1278610412607635,-2.684065271990805,-3.9258316416450696
670,-0.7592517549962817,0.2631344302120721,0.34157676543917015,-1.708572774434764,-0.7094707376493692,-2.4849336116576612
680,-0.7149558325387482,0.30271364010984525,0.3854041783862655,0.2956239854613398,-0.5597413957737468,-1.6074986478643767
690,-0.7500080499439107,0.27040425042960436,0.3499865624250723,3.275825135485075,-0.45845422013240145,0.3133141284837604
700,-0.7542819658374106,0.2707220729625244,0.35049804046035404,3.8580658777991355,-1.3499593621583097,2.143990597331215
710,-0.7480199264473101,0.284711507952859,0.357008732283971,2.859366674658814,0.05225829445708863,2.568946042725223
720,-0.7468713742538565,0.2788827329326752,0.35482381900944115,0.3472482005927675,-2.0464085167778907,1.1454625815241948
730,-0.7647749379966208,0.2611307505341106,0.3322388519805679,1.489832579846968,-1.3856543234569856,3.196266327915584
740,-0.7630418003480492,0.27098497535778854,0.3411147127454024,1.772452314506559,-1.7114680515483303,2.566465107290028
750,-0.7514917831612618,0.278564131093379,0.35395886858929626,2.719636975298803,-0.1820105166339141,2.8466174892294283
760,-0.7675656031065813,0.26475956698775194,0.3382279538583168,3.878942289856913,2.451608854572414,4.0913541067827826
770,-0.7453377667479318,0.28815190875497665,0.3601625585214308,1.1599175901806384,-0.6977064293724287,1.3190221617241793
780,-0.7619939191839912,0.2744311143601911,0.34920597477551274,0.1933192337359766,-1.6588950431087617,1.7372674623952464
790,-0.7976654667960333,0.23738311512558669,0.3034428845229956,0.7233230170867477,-2.835443647624995,1.5607571022842013
800,-0.7740599374795002,0.26714074539907146,0.32834613732802825,0.5199551639101287,-3.3619691583493485,-0.98754840350162
810,-0.7367630161993067,0.2978986423240184,0.36951072536702073,-0.2430733312976162,-3.1589089877809164,-2.820323160778624
820,-0.7575030612806952,0.271355685453995,0.34985464924432125,3.6107474501516768,1.3942034825469034,3.425038943713178
830,-0.7372243757518718,0.26557869706358406,0.35456103255337035,0.7399222955787292,-2.750370681472731,0.8606772892982633
840,-0.7531013880051706,0.2804287316404703,0.35405473819590244,-1.7046214886563207,-4.384793386138801,-1.172494854514138
850,-0.7406437281647096,0.2921576542159131,0.3714252169287077,-0.715079897496995,-1.9457445936471567,-0.7809339993268981
860,-0.758466559624709,0.2797764504285693,0.35002531134064985,-0.44934040697685596,-1.7193482791128356,0.21745637766240966
870,-0.746831314519157,0.28735109183429075,0.36470107984554156,-0.5524116830804253,-0.6612810670704614,1.8287301576463926
880,-0.7677326059870047,0.26584660379834624,0.3397507977604162,-2.6800586101946973,-3.060378005487108,0.8873685150640958
890,-0.7645304978545546,0.27290915670873306,0.3442841909248927,-1.4028006957460968,-1.9693365421369617,1.5760615901289414
900,-0.7618488681986413,0.2822806805814029,0.347618777321803,-2.845158882652866,-2.2328186553448415,-2.5000356643324486
910,-0.7595774205880116,0.2778756627324949,0.35461683119749693,-0.7340992528943733,0.033194413612012696,-2.245199578155826
920,-0.7690702817783627,0.2709232894468494,0.35150898261315244,0.19915872128750967,-0.5137967715152139,0.32371595603459774
930,-0.7567411263155528,0.28003808011757325,0.3535186925621203,0.8458764012888329,0.19217028608026587,2.1666645392623547
940,-0.7634252701655602,0.27672377170898427,0.3474498579431228,0.24495244184078147,0.12473681764950173,1.9657661506013702
950,-0.750900795770855,0.2899721117854564,0.3550595930441228,-0.7984155563010875,-0.3018866060250558,0.6092486563260903
960,-0.744317065731595,0.29470677479458063,0.364265862543982,1.6351046787530774,2.1856501394766843,2.0628268416857622
970,-0.7415823241417691,0.29121982989507267,0.3646429576840634,0.4593604052034491,-0.5134392853867666,0.44108759008396514
980,-0.7422548974825443,0.2949024610243094,0.3700711399890213,2.2419503179818903,0.5083411293552367,2.9554746914451515
990,-0.7560382786776859,0.2845143622602823,0.3567031373233879,-1.7540787727392821,-2.384648456946151,-0.8486161853610066
1000,-0.7735174613502415,0.26577939691006247,0.33840254609287657,2.3193018690094442,2.5535390940264726,2.4508016032113367
1010,-0.7687730255844346,0.2697955661772706,0.3425537369328217,2.034421289820361,2.507519183282102,0.1483032369456656
1020,-0.7625153802351308,0.26916521601200566,0.34718486101429546,-1.367910781990464,-1.4175182586444883,-2.0288652130864646
1030,-0.749307379838016,0.284900458523927,0.35977578199628046,1.0714069501186776,0.8971479669318096,2.552504500634035
1040,-0.7527641101210346,0.2841005447186826,0.35147684100546833,0.2113303225256048,0.7043157819296375,1.9588498903110587
