time_ms,ax,ay,az,gx,gy,gz
0,-0.7586226044090267,1.1665702696023785,0.6522873939426773,-1.6764250889729526,-1.1828163297567469,-1.7814185364590387
10,-0.7564082949350186,1.1747153483476414,0.644049214391185,-0.39723699154196634,-0.2771152576520054,-0.658277392770444
20,-0.7916046244950163,1.135121438203522,0.6177218266223077,0.7515280734325619,1.1815575913127474,0.4028083287147573
30,-0.7772656727071401,1.1505227590718339,0.6326201534256415,-2.1366445545767516,-2.3546336960019514,-2.352897451094022
40,-0.7953748717194457,1.1359225447144892,0.6160344876447583,0.1161475318124004,0.31975803502895284,0.43400987546877956
50,-0.7701797845988628,1.1535666005031462,0.6315968334453104,2.2220982283834756,2.5043645815102304,2.1805015421857674
60,-0.8092931975245398,1.1149553433180737,0.5953734144151817,-1.4399236737791103,-1.6159446287205639,-1.6648060325010596
70,-0.7933047770161006,1.141038346274534,0.6117990676410977,1.612429345129739,1.5430164047332031,1.4464515137601723
80,-0.7985501710971707,1.1323483917209052,0.6072558586261168,3.3733271262944333,3.1795730116107306,2.6625763384423133
90,-0.7982503841991925,1.1271290963500473,0.6008947027266758,-1.1391545909578042,-1.1836182113172276,-1.7867006784182424
100,-0.7746312582263563,1.1564357164649308,0.6289598157179981,-0.38498993397547965,-0.12482339935744413,-1.3971544870229344
110,-0.7724241436515809,1.1597946923261413,0.6368209297137356,-4.126118915451161,-3.9158812902682127,-5.130700833017267
120,-0.771226507796962,1.159405463856594,0.6405964525849043,-2.5289067702693284,-1.8219582035144748,-3.9297690789410913
130,-0.7873233037956034,1.1432883274155943,0.6234928602188469,-3.527057565705019,-2.8568920204387096,-5.740391952826269
140,-0.801754944074685,1.1457792285383097,0.6173216956664018,-4.649680834107982,-3.9384436939270753,-8.183328496946075
150,-0.7745110749457704,1.170669313025412,0.6478551968907158,-8.051551690595414,-1.9311173448713896,-1.8554411264397173
160,-0.7683053614298349,1.1958003380783149,0.6578590202304365,-17.377059579005692,-1.1103810643491492,-2.1141439021479584
170,-1.098705849337756,1.110396204337177,0.8910919048827595,-7.076594584714228,-54.9100364788836,48.03091793679476
180,-1.137048224057317,0.9510137174374586,1.1116704793799723,14.18245499032572,-116.28220714298905,97.1690635189311
190,-0.7730390726298129,0.7517665236213912,0.9384171373247769,11.384176825072169,-139.0693949675636,82.38076945149515
200,-0.377375175308381,0.6851686200729051,0.6961733659133363,-2.074233477559252,-141.0214872624095,39.49318793516353
210,-0.13059702792075473,0.8153064403446427,0.5516177359001142,-14.4606909444075,-121.87756637450899,-13.47016302406116
220,-0.11868765529107285,1.0503470978394736,0.5243269839106557,-45.71865167608635,-92.80505038399103,-66.77732537474425
230,-0.24752237865077095,1.261308509484456,0.4881693233119706,-88.17614848696107,-23.023127674894003,-122.28718521606605
240,-0.5120831277040669,1.279463028224148,0.3555114917349852,-134.1677003636348,73.03662151686254,-174.30679202053167
250,-0.7987818635178755,1.3386005313433247,0.5472057102195446,-222.28217596809392,30.984547571833122,-181.71146170637627
260,-1.1047795937991844,1.331536711344222,0.697757788193365,-222.80901433454113,-63.38803751661837,-129.6654325887366
270,-0.8227035991207515,0.6731166945986176,0.5199132836985704,-44.12747633277852,-1.1249368959513149,-93.9704343617521
280,-0.7860612247499168,0.9705546188369785,0.7775487599443682,-79.18920374027117,-3.7023516337545557,-97.13194522260537
290,-0.834460052644889,0.8351643747929769,0.785837110874057,-58.837954324258504,-1.1911466192372924,-66.92773445270576
300,-0.8846561037743741,0.8517768792088767,0.6633371668472822,-36.87318487660954,19.455064659535267,-31.541622254547338
310,-0.8227032697783121,0.9084510763689791,0.7960490830478036,-29.193582925602872,32.05189650082432,-28.54492682787689
320,-0.8178188604918762,0.7988055728366622,0.7748593497161783,-52.65304098716967,37.98668199654895,-39.180705662574994
330,-0.8082792077352112,0.8423762452728228,0.8278796942347713,-62.67140530048275,43.17662303754373,-39.97386452790561
340,-0.7494003267060544,0.87423931765495,0.8500956515123617,-54.037354120549246,43.24884156692203,-31.975564300986232
350,-0.7971542232622568,0.7724120231647627,0.8133887109319078,-54.27095049333278,44.94843650182534,-21.507518453487695
360,-0.8518373475952808,0.787474812758576,0.7357602175176415,-46.602714478229146,40.496913687130956,2.0206824723310053
370,-0.8168573032380909,0.7939960733605961,0.7539203344661032,-50.7899622932533,30.62224628091441,2.247197413022585
380,-0.8355116690745403,0.7318658014756027,0.7306664596918121,-34.721461544018,27.242859734788013,17.184941372531963
390,-0.8331457031610581,0.7869897940678116,0.733440753290341,-27.874068241093013,13.260790583899682,23.8464299887978
400,-0.8577585849129468,0.714943659061207,0.6576779308555945,5.746726659561108,7.723251375606073,48.79424001965771
410,-1.0723024781978212,0.8855452275012651,0.006823813096924837,70.04772524426924,24.5885363021261,83.32834144349565
420,-1.0901798439583055,1.1235097068123199,-0.8432740270571949,208.4591420579447,48.144782452456326,142.98135908939494
430,-0.7163099103382788,1.2076414703555427,-0.6417452765235122,200.12769215900383,27.14096573989078,151.20015667368287
440,-0.8412045289999966,1.1105637469257044,0.03430840668358553,138.4811694492071,20.538995537947702,135.18448332742673
450,-0.8953367971583193,1.3833281969193496,-0.2719193028771787,108.38640317310974,62.63532084935894,113.32676433238606
460,-0.8838206284259181,1.1259654475730196,1.522902611112784,87.59391981246672,54.93299476184103,23.816346456188338
470,-0.6601271160726758,0.9275332046307411,1.6783329805539946,24.61716633202318,28.214281989929916,-0.050036118504438454
480,-0.661948099074691,1.0441621245300783,1.0751728083955145,-11.667605323566528,4.042068470064886,4.588900428875628
490,-0.5938259110316835,1.0384738406345564,1.3489197417901864,-7.298953720996807,-9.447247255515656,15.068230972993716
500,-0.41403075375882287,1.0258271803670147,1.9032791791305235,5.681004636393583,-37.33432649392262,18.782132683108287
510,-0.6868395929729143,1.1302343880920618,1.1112249146461295,-10.961992626902585,-63.297441925810546,15.678336885450825
520,-0.8201894234829258,1.5979076373082295,0.45890491965524915,-74.89359905865501,-102.89004873666674,-22.603411979991474
530,-1.4967244533487316,0.9413255037561765,0.18322760125903845,-116.38836397249293,-131.0016650854788,-81.52996196151952
540,-1.421199725140307,0.7385019953709169,0.07524357986420038,-44.077226764521555,-72.66195727434167,-52.613783526345316
550,-0.782218233462239,1.0301467946114709,0.2472236021700056,-19.567519336707065,-31.48905636639148,-49.639957911258435
560,-0.7161235720213924,0.7268009712385095,0.6561520803551283,-94.99834452472575,-40.655062973416115,-112.05020407152483
570,-1.121055077397241,0.7181097461217494,0.5337571719929853,-50.210921986188886,-18.67125324135147,-88.89294732752795
580,-1.2229077246456606,0.928592080990074,0.19888901332336595,88.58597847481623,6.152522127153112,-37.97285641090873
590,-0.8115687887893439,1.242645377577036,0.319918397094387,154.25367176961507,22.46307008972897,-12.978414676941977
600,-0.5902463371980385,1.781981226129091,0.07432039481414698,79.75913605391273,44.15440933003378,27.725540644765715
610,-0.38138379439601705,1.8828144894017627,-0.17173060287891492,-15.457002372553056,70.17878963090823,64.326780340521
620,-0.2689766225489423,1.8564871912395235,0.3360695228274567,11.659444643554309,60.037824025911824,85.08443311368684
630,-0.5439181031524924,1.0050558595351222,1.1120842737033605,-11.615856926442863,46.643462326924386,88.54629760375428
640,-0.8445468974186358,0.20849136518987418,1.3653212308958045,-28.740890637584982,46.39008968842553,79.10170346567014
650,-0.7811473037923792,0.46791282914642757,0.8712373040164503,-15.680101294899492,45.75997007717792,79.54833229549402
660,-1.04218584471486,0.7052653853648303,0.8076208534628649,26.898490169261102,7.9099967322403195,30.821185371130866
670,-0.9394209388828817,0.995885171979502,0.29881412807972224,70.60056075549237,-9.636686538616395,39.53992815662064
680,-0.8220568557013367,0.9211665074170875,0.8584106418628216,60.274482001359544,-26.13394976993643,7.381311060301259
690,-0.8129769630561464,1.1808190289314944,0.3852835488087264,73.58079492242233,-17.152868661858253,3.7930429123809812
700,-1.0368881738193845,1.3527838228004092,-0.08835791952677728,85.23657478547833,-23.58461360677441,-13.13726234929849
710,-0.9512223569997045,1.0717509088966943,0.2098496085350639,40.2280065178899,-28.372127356090534,-38.37870872852829
720,-1.0812356047303906,1.1625046246938917,0.14469551271553216,71.11405009649478,-20.81920126656431,-52.99125046153089
730,-0.7182189544127,1.3014059667339684,0.7346857356833849,2.461366390942548,26.019319143131614,-32.55228325324951
740,-0.8213306692823725,1.1469152784732453,0.14721344294024158,-10.46268724049086,24.318888496375966,-32.78383413197267
750,-0.7606011768473047,1.2683939896934644,0.28252627406564246,-26.903421121186096,34.656195960348256,-18.205207726148384
760,-0.9204997586459334,1.10644130780768,1.4902106412070413,-47.800617815676596,62.395297077462395,2.917563253468284
770,-0.2534079375538608,1.8383040474316117,-0.9237822630462438,-57.93671931590896,80.09470787922898,61.08209562405163
780,-0.9729758034511173,1.3036888555817872,1.178654843748422,-31.87957323904879,50.649542099024885,28.867496720067244
790,-0.898196417235928,1.2809202916024638,0.8717656380381628,-80.05345499572311,28.0371062619421,33.0701476677865
800,-1.4337500481470575,0.1999936703762749,0.9419526868632969,-96.51707178490061,29.60546465154803,28.051047731157695
810,-1.063226598053667,0.48416011669414566,0.5777967359604206,-26.249949970656353,7.018650356165708,5.955696389180365
820,-0.8337818475339617,0.9051361895815109,0.5709128717483006,62.62349766303792,3.1774922741939267,19.562390672291183
830,-0.6236632027172883,1.1832054657399182,0.6455982714209255,50.328494345818285,-0.9408990169503615,36.812378185845276
840,-0.8685797834786557,1.1311376785206078,0.6450607510124303,-2.9649867683447297,-7.281464844442633,-3.5348234156429963
850,-0.8573432140882047,1.0893782761087452,0.6181190838133276,3.5582095325301855,-1.2434966100112241,5.001824242287999
860,-0.810421129504932,1.0916469693432758,0.6273809876011608,6.413847099899983,-1.8917608222529712,3.7756780471887548
870,-0.8110205851833682,1.1061363431252593,0.6353130820766769,3.827471137757472,-3.1101617478689603,-4.473261836886118
880,-0.8041061639577065,1.0991572689272329,0.6317357742667669,2.3821201780383268,-5.883207570268993,-9.861391174091406
890,-0.8200871907003668,1.0763828556425312,0.6204064240522714,0.5221133430648588,-6.995022660319667,-11.060938970640628
900,-0.8267521205791535,1.0610424235280163,0.6122511610733025,2.840717575965466,-3.5819273866208654,-6.495818158325516
910,-0.7921431484865565,1.0952636889012959,0.6399456996428631,5.096354792742893,0.8739713403101584,0.7262292413153658
920,-0.798965820332204,1.0995469261207733,0.621644606024079,8.131172236180031,4.123660414784448,7.068738124676353
930,-0.8042210748238707,1.1030029764757876,0.6153271285099231,5.163977507816437,0.9068154712408929,3.9494633739906155
940,-0.8098121027391412,1.1026135007555635,0.6169957644818288,5.940427280306874,3.6654688138958473,4.508161432831639
950,-0.8017293048828784,1.1080998991996187,0.6274139207623811,5.30472922373252,3.5866538535255748,2.9283940341012893
960,-0.7847056672099573,1.1166254607125474,0.646971339757387,4.683507382096906,2.491559355650077,1.2884382376376953
970,-0.8064761220877549,1.0884093953858964,0.6242890767211472,2.7662247860240203,1.104985204396915,0.11893088579546313
980,-0.784489065791773,1.1160096845166205,0.6491805560879731,-0.24886740668679685,-1.309622491285786,-1.5339271056696533
990,-0.811110436588089,1.096075139880153,0.6213899497169058,2.817198206996205,1.880571778775144,1.919276831391799
1000,-0.8386426137027144,1.0617646507641216,0.5883976458948977,1.5571137009334621,0.998440865755398,0.9595698323237034
1010,-0.7923731248863815,1.1136278467118959,0.6337465159350429,1.6791291433892512,0.9684506384879188,1.2616090349570364
1020,-0.8052501006614317,1.1099542862725136,0.6282617294071358,3.588512273603389,2.851665989713639,2.7157802513432303
1030,-0.7895680189225275,1.1168367635719756,0.6377145722144545,6.05842508165037,3.9289246637013893,5.692321048231875
1040,-0.8034111049150271,1.0933972972360033,0.6154444691542943,6.026362866534816,-0.3089510651457319,7.339046238396211
1050,-0.8013146268579188,1.0917114875607496,0.6006568818138083,11.880592940968986,3.0476506461599495,11.983403890939105
1060,-0.8186476526782839,1.0866646457935178,0.5953469189038644,9.177809438447218,4.678425468400149,12.111999949240278
1070,-0.8083310044554934,1.1051761960851236,0.6084609215014829,2.903788960537191,3.0772095567699256,7.667972040014327
1080,-0.7837797278321281,1.140371821445832,0.6304380826099872,5.466106102288829,4.189679271100123,6.531220814114236
1090,-0.7953062804382474,1.1197904248614063,0.6135414008402498,6.650472031447122,6.505396720003102,7.6190942620665565
1100,-0.8243212135751075,1.1093490166477769,0.5835045562358222,0.7427013682399453,0.5339521242039691,1.7062449646182538
1110,-0.8015059093571213,1.1256569206895906,0.5883112573633612,-0.6440943659161777,-0.26621241409316854,-0.04709946289453626
1120,-0.8002272877610924,1.1196528497484701,0.600596792004441,-0.8328592535252888,0.5627769546343715,-0.13045362377647218
1130,-0.7895511533832693,1.1325862093026235,0.6208783990033977,-0.6746572146016638,0.07601900067799372,-0.25490187906944795
1140,-0.7831749378539293,1.1354295625877842,0.6292209038357592,-2.513683781411117,-1.6892669968174336,-1.5942687989565139
1150,-0.8422637457584394,1.0784768941858427,0.5670817959136434,-1.1510839448243275,-0.8065107071359405,0.203014549909471
1160,-0.7828110776174972,1.1409930912453836,0.6242746224925318,-3.2239708753221574,-2.2141653778704695,-1.274888691442033
1170,-0.7875500276816663,1.1376284144403002,0.6197854059349779,-0.08755857226172625,0.8478084923707228,1.6366703307811092
1180,-0.7867168963485267,1.1339422024430958,0.614308917985288,2.9062565762348056,3.3432581470410074,3.478177782170148
1190,-0.7919821354791456,1.124859708605291,0.6117373512643081,0.5845280306555962,1.0645184907161465,0.8273437105118067
1200,-0.7935177151788629,1.1247754640936152,0.6189401386138227,-1.4507152227868927,-1.3281033392342065,-1.8782228326554893
1210,-0.7925059867548786,1.127182346219071,0.6107333387629558,-0.6622751989326188,-0.4153436927859987,-1.2126415086550053
1220,-0.8088968181995352,1.108784012241116,0.5949807302130656,-2.43285810975501,-1.7176473219257584,-1.7604631595572449
1230,-0.7840965552194555,1.1273212156227705,0.6241856449530782,-2.840218076107078,-1.7668577064623459,-1.844640123273308
1240,-0.8168084367144819,1.0952635744706543,0.5968799944527928,-5.1087410539815235,-4.3040913290506495,-4.0618173545095075
1250,-0.791536517070253,1.1186161845054383,0.6174316402048091,-1.0599024341408958,-0.1985707875215144,-0.49733263850161724
1260,-0.7801183684280942,1.135608977638005,0.6290687370623957,0.7166251479041839,1.4320353525634089,0.7457845255122648
1270,-0.8120372415148618,1.1054361768775287,0.5999937000121734,1.1405815249414946,1.7465689238701796,0.845809952627266
1280,-0.8106915548098718,1.103693899494257,0.5997297541299911,0.023809026643276276,0.4092382897676201,0.2662421096341686
1290,-0.7736435773094369,1.146184204233899,0.6389240342680587,-0.8267096100999954,-0.48707475918505005,-0.16487149662796408
1300,-0.8210700863918007,1.1011832855451178,0.5924669323872889,-0.5191514400631484,0.060592798614099413,-0.05590609702312685
1310,-0.8132811525358999,1.1049245935940757,0.5956618222005782,-0.17169977574340445,0.4850704761976382,0.14636551030310108
1320,-0.8363730929930683,1.0776394844126236,0.5721128696850499,-2.55021577431849,-1.8053966313495817,-1.8411414920338671
1330,-0.8365192183340536,1.0758666494538052,0.5754614467222159,-2.1813540811626844,-1.5873159889698976,-1.3146204408921895
1340,-0.8042510606552515,1.1131078629433329,0.610101870744951,-2.4207328901244205,-2.196704150515317,-2.4160644876480344
1350,-0.7850792911941864,1.1339027130180184,0.6316068314331228,-0.7938339068390674,0.19097752830149195,-0.7311074861016673
1360,-0.7986493057937168,1.1164180031540767,0.6159795570564043,-2.1527011583526448,-0.37288394486550974,-1.3731489978580314
1370,-0.7987124388154292,1.114154141176818,0.6114509407092302,-0.26550307872984535,0.5848906440433019,-0.23319772775635683
1380,-0.8229886980615313,1.0869954969431945,0.5902315565541105,-0.9227580702126876,-0.47456631685629247,-1.073127491011726
1390,-0.825465432679287,1.0864865344058718,0.5919503588261079,3.6792278717292333,3.7112099376575687,3.5053678367315237
1400,-0.7952467213088042,1.1231450048147005,0.6222951771410102,-2.4192858777003705,-2.167430523058049,-2.1764519955779553
1410,-0.8042101385409024,1.1091925150354764,0.6139523183608673,-0.7011604373640243,-0.29987892012789197,-0.11404524086459442
1420,-0.8081328716727044,1.1022651510619328,0.6057649136452079,-0.3020615139046246,0.13302802098808408,0.38490951622212477
1430,-0.792490656739594,1.1251307057503195,0.6291217192199191,0.4212158969350084,1.1402483753024923,0.4148856696726537
1440,-0.7976152485563508,1.1163898176553146,0.6176434992749292,1.5838151493043844,1.5588411988514674,0.936167759267135
1450,-0.7983607655369361,1.1176268050502833,0.6203127723243701,0.9333822804077456,1.0233340264678876,0.3042232381527167
1460,-0.7781244756062681,1.1366864999482966,0.6350255390213931,1.1266211596564941,1.7672687760058086,0.980075128073713
1470,-0.7940581726740289,1.1184118620344188,0.6181523137544984,1.0982871001331191,0.9824746176483161,0.6553506773057993
1480,-0.7992247470725375,1.1127377970143404,0.6203926536290182,1.0321817330323346,0.9819729111371273,0.6608212710484588
1490,-0.7769703767977176,1.1331807483223613,0.6238999247197334,-2.0937199005162164,-2.2044410658712645,-2.2903377432401046
