time_ms,ax,ay,az,gx,gy,gz
0,-0.7255322237470111,0.21108431341529713,0.27424078739570135,2.1500764170465536,0.8198313179190961,3.575004860730516
10,-0.7192954911653914,0.21921767864559133,0.2821198770675903,0.8389805040474629,1.1571737152816193,-0.3726661194168992
20,-0.7176556547003115,0.21634692988200885,0.27883055150070307,1.0755831000771159,2.42693764057709,-1.5519709739779781
30,-0.731509411655559,0.19396963717439483,0.2616297491692586,0.23790164671200986,1.0424325170312325,-1.2672761747593273
40,-0.7102127424015554,0.21676021753552344,0.2848412473403424,0.44530324865015897,-0.3458560490254223,1.1720975535600018
50,-0.6885003731793892,0.2461961378301705,0.3103856153871778,-0.579798403651296,-0.3007496823726752,-0.6135005884634074
60,-0.7248499986487456,0.20605795314996608,0.2719686528767825,-0.40596837173903566,1.6281915542983372,-1.673781356759883
70,-0.7103795818035714,0.21768026000615698,0.28336705215115543,-1.3311405342255895,0.15262433511406726,-1.9521035490516048
80,-0.7122631309982292,0.21357996483366595,0.28495822412636745,-1.3381710116235261,-1.8481432957624548,-1.2835251013779336
90,-0.7035560018742448,0.228893017166759,0.2947541671693276,1.1889201835574061,-1.0081442871935906,1.5519298954280663
100,-0.6898299027560189,0.2394314586410614,0.3079345962265724,0.8392487219837543,-1.8081088857984806,1.2669580694800904
110,-0.7112401085315287,0.21854582489481322,0.28988787558464846,1.6893750364531537,-1.8041076080352298,3.0626899830973247
120,-0.6975745882670199,0.23829257133221726,0.30801980051982847,1.437036941071279,-5.657099186957819,4.475906772420093
130,-0.7198439190780079,0.21643747160116464,0.28836860226354255,8.210974940621698,-5.813592425010248,9.269917263256144
140,-0.8483670848275463,0.40332169004037804,0.26179985608085665,10.585409604966866,-3.3403076269631704,-0.27266421462457513
150,-0.9989277750042216,0.6354440522972818,0.39764734716657674,-24.2649631817264,-3.7060857874932296,44.743086197561595
160,-0.8941458926113042,0.22725796223649294,0.3090366072364325,2.3795268369635525,-30.576820214179907,49.22546375393896
170,-0.7175725752855616,0.26337313460131767,0.1749870999855833,11.534897582506252,-22.748585945506374,45.20384591227269
180,-0.6141631340545891,0.28426454427175535,0.184287750375985,16.43198497076681,3.4185164704473507,45.82331030809114
190,-0.658207934475585,0.34646734238613147,0.22940471108803245,-0.056428767693906035,36.295458738124786,43.418810909801714
200,-0.524750378835601,0.24797113943398508,0.44281129081335985,-29.076213344024552,24.601134971629463,88.76013294289343
210,-0.6617151633221448,0.20504804681514635,0.28150884170191653,-22.457036207680652,39.08766222713772,54.916781478246605
220,-0.6856844077375424,0.2840266719172176,0.2883374587128354,-20.58544092380252,50.13248588570005,37.59040116792015
230,-0.7083497418721342,0.30108981624796394,0.3397603139673249,-21.255518790226482,45.246182043267325,27.096485293508387
240,-0.7408240516379161,0.2715328730233715,0.2514514008778815,-23.20809846493022,41.4039277123851,15.928289118678322
250,-0.7019907864793425,0.30349841582057646,0.18347984216594773,-25.860547438114935,41.71391724376427,9.007279395777127
260,-0.7304740240851914,0.32498078234415995,0.2144553290189152,-18.767096340873625,49.72541320369466,14.154879465294963
270,-0.6946763225704714,0.3967899548556048,0.15801696770707185,-25.491098623694576,44.487962661050226,5.924861592163881
280,-0.7536960762009923,0.34253316365297776,0.21123056965856044,-22.20069300223452,35.99561358673679,-1.1355063667744778
290,-0.6677300112464651,0.39693554092433575,0.14304589596254083,-16.323199953093003,-4.813128844788965,-15.131188828781193
300,-0.7377681580840931,0.32299066951370736,0.18291499750962031,-16.74616088338197,-8.247629691742887,-7.528051951778895
310,-0.73096964326274,0.3490247093616764,0.19105811675416742,-11.201696268839324,-1.9574510433182033,-0.46363867440796036
320,-0.7453191688247554,0.3440486560712347,0.18718673407417014,-10.642321411758505,0.29606691022432496,-2.3444800260559977
330,-0.74545009396422,0.34397620997417727,0.19546050327320774,-8.860205370614452,6.338898680685963,-3.805303820802578
340,-0.7856994004994603,0.35754240676289617,0.1452765351559792,-13.615866172139585,3.5744029434323012,-7.230981130303951
350,-0.8237116979949928,0.2772062678583127,-0.14361870521921644,-15.661202749149773,-58.99818945937873,-7.393457511056598
360,-0.6044028778131572,0.16207136090824942,0.7135692272514302,-35.76283085068304,-76.7645844718202,-12.558722435487022
370,-0.8138322424885168,0.3937749028952159,0.02103176304672733,-15.89330279995989,-65.23830208348785,-15.496155530693851
380,-0.46337382453529874,0.4800278761369479,1.1697364060700235,-34.34450784416357,-68.69827760923972,-16.153855484358488
390,-0.6416293850687823,0.09252714963775305,0.43615692710379916,-35.51459037788801,-81.11928160070403,-45.30895837952945
400,-0.869557716837626,0.7959168701300802,0.007712810594725391,-17.595362751644185,-70.78944247421275,-4.009389034710795
410,-0.9742040715258616,-0.13253992194651762,-0.2131717765332384,-24.69381925848166,-54.319335368370076,-59.6776292054197
420,-0.5240391048380989,0.24897303428772533,0.22468186207087115,10.045312885593408,-37.04372644484416,-21.955116754234616
430,-0.7515531798872447,0.2555434762741755,0.32535876692194204,6.602670441757152,-28.155587894410957,-27.959584605856243
440,-0.8299165902780804,0.5141065011322359,-0.10170184351203754,8.736494082875804,-18.67136775263049,-20.50447256819567
450,-0.5513803860775435,0.45398009240469606,-0.504733545598938,16.740802386163814,0.37980432389764074,-19.710409870065785
460,-0.6358220659636986,0.28188876532486445,0.13500989717786654,21.208376908004087,24.854224640274296,-45.63778252270881
470,-0.48158890379091335,0.19911538728622996,-0.09444699058948693,15.749725225045461,27.100815384638867,-43.45695096563849
480,-0.6445210329755022,0.165768658840749,0.467240460193756,23.02274061371322,53.60132063891677,-45.532094456605414
490,-0.691140606166403,0.4794109725006152,0.28472897248006446,24.92306880161984,64.10025013902508,-27.074206554693895
500,-0.48130348065248835,0.04068957027366487,0.021884024680422866,8.802021639426222,65.51112025494282,-26.328112639884196
510,-0.6763852928206561,0.09539177989104397,0.8935777718163647,-15.446087628622523,38.581089849293235,-16.1589464019789
520,-0.6469083087505773,0.5017620143470456,0.2691891310471094,1.9861516295067672,42.20584496553307,0.5679647147135797
530,-0.6930546877303715,0.29528009292756147,-0.23835015781938115,-18.894710431199368,37.350120426482455,11.171334852780204
540,-0.7009691961951047,0.3019921753962497,0.2574189337453434,4.81957638388584,21.447657091431402,10.547527032258143
550,-0.7784568439309048,0.8010879820601459,0.19844982037305647,-15.755852266352221,7.818001307174265,25.196199191556467
560,-0.6937301810669767,0.31469486152732185,0.5891749027045001,-48.64377544618409,-18.200754416507106,26.80565490556546
570,-0.7356948064113882,0.14755772404674916,0.5926250166633217,-48.98290381163953,-20.9536911773038,12.725459378448113
580,-0.6070975828306556,-0.0012070951275390575,0.23944124908866898,-42.03026309104848,-12.7917613700901,-10.202499980165157
590,-0.6285061155167,-0.1178670500302432,0.23856112671961535,-26.49439686463949,-7.46276255176079,-23.292629752646345
600,-0.6704259637472876,0.18677826547510684,0.27918331378230865,-16.789801752274812,8.625558212174141,-29.12461540540153
610,-0.714895368045719,0.18729659183506703,0.25084397673975584,25.499901508280825,-12.67637251871222,43.492633155445866
620,-0.5761561939446046,-0.08942648770762855,0.3499139220779762,20.809872374434427,-18.382707707849537,19.186145985538705
630,-0.6409072886612777,-0.07205139092751477,0.356736670305406,26.61809227065754,-9.725572096619185,-21.895935517458778
640,-1.326040582268323,1.0030195397000572,0.49296362373326313,61.40554278809335,9.75671067733878,0.8642507164607919
650,-0.9754772556591367,1.3970667756048094,0.5093513125983095,55.668934288346016,44.61894265238432,-8.488300575898197
660,-0.6519256493607383,0.27709480110027757,0.3884429126621716,44.60703801963125,23.13260564544314,12.764475653808972
670,-0.6391479333657822,0.20710229255424342,0.7043723977995386,45.14353920540175,44.03783532683719,-7.827034577172586
680,-0.7705017100148932,0.5576337486307847,0.5387462828424382,2.7695358497237486,33.54548460021187,-16.84669917170169
690,-0.7249374317733753,0.3598988788580292,-0.04065267037163324,11.576277394244224,43.73757676363892,-10.752736916390905
700,-0.7776769574289708,0.277077787159453,0.19652036832072997,13.608879848762985,37.43222085592702,-9.239675397198056
710,-0.7922277991365212,0.19314000618002236,0.22095040184392217,10.73401494742519,14.69459754654756,4.5995673380714175
720,-0.7693377889021341,0.33781254513752546,0.3303166114917068,-4.382327312100763,11.464952307454244,2.750895086406292
730,-0.6922807426851857,0.2747491688287338,0.3255231777547319,-3.5539212224930323,32.466737801436786,9.950214445877952
740,-0.8290442950937698,0.32179496357005927,0.27582157844685445,-18.145863381353927,17.66708233362973,0.7880800497207034
750,-0.8413482792613072,0.28914866643016757,0.35113463885709,-6.451993171976149,7.473614177686983,5.55374929049165
760,-0.7033144125621495,0.28174035842571005,0.051607331607968376,-0.7341728934349725,-2.122324271454521,9.988416071424366
770,-0.6848999084739034,0.016031491197088108,0.15258546128037398,-33.771537072485906,-11.240966980647904,-0.008055497004878065
780,-0.7113291543456635,0.0903922013401298,0.1366367395384102,11.980278036930757,-5.994062373412263,1.061999722955603
790,-0.7128997264302833,0.058160388731562256,0.3276771051431786,-25.984541474961773,-7.635263445730422,-9.615150390048386
800,-0.7948950563388885,0.5218508359383337,0.3389655535707967,-37.601793689101704,-13.175441441158927,6.829198756494752
810,-0.8180109545473222,0.8339988011679238,0.6362294323481397,-39.78952125956767,-11.773281137757136,12.037665809101867
820,-0.6951369822794604,0.22448856481779628,0.15428596497343203,-2.9755116466316025,5.500569173372072,-17.89294551069854
830,-0.7366456493952496,0.2761516191394579,0.20331380034318938,3.10877045722172,-2.3510037964519386,1.2410983899245478
840,-0.7064063329863964,0.34671247253816634,0.2616503089423235,-2.0023290566126315,-14.806327515090342,12.777829741265773
850,-0.7387957711649765,0.2514646317068964,0.17999810720228296,-7.021477204128665,-8.20421300319903,1.852059282553855
860,-0.7358573723529152,0.25731696622355094,0.1791143049448712,4.0319375953921055,5.484615304166099,5.5882183461258785
870,-0.7534423508451509,0.24420536876407983,0.16296857846790871,0.5207107436422755,2.8775036874200524,-1.980533728278786
880,-0.7222008683300407,0.26148753171603867,0.18294466735946843,2.027924170194055,1.6239933814882033,0.14510622041036458
890,-0.7430348558488492,0.25384978876589087,0.16915338651365375,1.7659435951842304,-0.19068300128816384,2.0606571561877023
900,-0.7323757438225132,0.2701975800692578,0.18921793177093132,4.324240511696271,1.7353128234459299,5.57545586899014
910,-0.7342197300474378,0.2708833052373215,0.1841566283006687,1.7101762401911627,-0.8216136380719501,2.151274626504746
920,-0.7324256682507277,0.2791199015843033,0.1894326497576863,-1.665636026520092,-1.6994193064670964,-2.2463128578549427
930,-0.7302340010499272,0.2727645840110699,0.18241194271861425,-2.191793628623456,-0.3094498559443733,-1.8542920285482267
940,-0.7499425213831278,0.2527668056144171,0.1730278317237451,-2.1094297777709103,-3.0431511329613814,-1.2040281028079032
950,-0.7250566594356376,0.2727747650840591,0.19449495475446807,0.1842536501995083,-1.2330277391261166,2.9050773158212158
960,-0.7263982200510223,0.2951280278845522,0.2078932298407448,3.670765563087568,0.4321962113686435,5.049286568671502
970,-0.718899947471475,0.31682097532417847,0.22472975775499474,0.8682230665713108,0.6337962266280434,1.180652149351018
980,-0.7037451977202386,0.30171711366760323,0.21591780168110294,0.22742500108446925,-0.46926038034187967,1.2814117321044525
990,-0.7383636444224024,0.27015361068398264,0.182933822678809,-3.4457190553263297,-2.8478245093050436,-1.1837069030523932
1000,-0.7279089490257862,0.28129599183018045,0.19935869520842334,-2.369378329851012,-0.6158337978427335,-0.9329338350316009
1010,-0.7290834714425417,0.2721754908823351,0.18920723130768244,-3.7011710643304703,-1.6483995668203066,-4.008523576471232
1020,-0.7401698403706389,0.26676364026906524,0.1849893317098413,-2.5333107510844144,-1.2811371189794343,-4.357610110630987
1030,-0.7379278540763429,0.2701909619657996,0.18725220746002472,-1.0336250807979028,-0.2648670103599528,-1.2470272220277345
1040,-0.7290626004041207,0.27272284926732926,0.19139939628450928,-1.5968225057498255,0.5998972889687384,-1.541309568081556
1050,-0.7181438277795302,0.2835407871704342,0.20154606691251722,-4.490460310958801,-1.243954322915286,-4.727474397101438
1060,-0.7274849962625157,0.269099571802605,0.18884105925685882,-4.069452647619071,-2.0492669599256588,-4.422654297264225
1070,-0.7555678970828905,0.2378589240202088,0.1635288549843487,-5.2471062340487205,-3.3851660306823286,-5.257591506258434
1080,-0.7206497584660511,0.2840029879778732,0.19400887414010026,-4.521883896463496,-1.7724069449856867,-6.55843484172097
1090,-0.7100124288815478,0.28843422042323513,0.20854720783723732,-5.239449722160669,0.1371431521856985,-8.01799407120838
1100,-0.7068955632281057,0.28032389485533316,0.2118709915682727,-4.730839932845234,0.520131628889273,-6.3198852930163945
1110,-0.6937486969894537,0.2884580311050819,0.22493428074330699,-3.24741768531911,-1.722177752188507,-2.4597324076601703
1120,-0.7232925466454442,0.26392767387247884,0.1929226940011733,3.1373779452409396,1.0715954512566592,3.967065555651729
1130,-0.7316296458927264,0.26285217726025495,0.18357233887020824,-2.133146862028853,-0.8436958503285058,-4.582049481841917
1140,-0.7433481977138302,0.25021860646952043,0.1725649564892143,-0.03553267355315004,2.0636081777893827,-3.3376127877034776
1150,-0.7111242489628294,0.27371424420371593,0.20581683665081935,1.061893034991862,1.793734305862187,-0.7772309161598052
1160,-0.7143438901229507,0.2700920551346623,0.205815108385332,-0.7440748640239008,-1.4371217364217777,0.3961163011525366
1170,-0.7313401701994057,0.2572592443655796,0.18946393747032148,-1.0879782879037538,-2.6111491464200203,2.5599557799807426
1180,-0.740573905032871,0.2537775917168682,0.17732062697777176,1.719426824927016,1.4713846284211547,2.420414527074618
1190,-0.7256832140108553,0.2638172516017573,0.18730682502487522,-0.14392264754593354,-0.4138709175281534,-2.3157294715052674
1200,-0.723396877414332,0.2646399131369691,0.19153185714994175,-0.7922281072632196,-1.909449891953394,-2.1653205701927503
1210,-0.7465085708688739,0.25106314859389894,0.17389596181759298,2.3091032944197614,0.24386599911284212,1.6253663441055077
1220,-0.7366189709789994,0.26077724075285125,0.18209501906728456,-4.299900979774885,-5.396851784823273,-5.550732584480639
1230,-0.7343835358344659,0.25709574019375886,0.185531172687676,0.5641735575199857,0.5569667584410746,0.48596764059891917
1240,-0.7389444761840014,0.25441990791316155,0.17855892809110468,0.5637263919879896,-0.05290311454389768,1.0949266590406799
1250,-0.7283618190110219,0.2669854167079572,0.1882723035209316,2.359208420099425,1.2091887053078865,1.4145420019952508
1260,-0.7061255066777802,0.28604716953504605,0.21088151817997908,0.4749233269916142,-0.6420236918343012,-2.2100991018673435
1270,-0.7166646814118464,0.27706630899073115,0.19961914478746234,1.5875921554025965,0.6666999175843156,-1.7215079361054517
1280,-0.725364452325381,0.26907931704402305,0.18835953802840816,-0.48004421748783843,0.15948771295663575,-4.210480995235497
1290,-0.7315676810314098,0.2531663248091877,0.18355851541549878,-1.093826976416632,-0.7205758142379175,-4.048742122302304
1300,-0.7310527265421941,0.25639088874007415,0.18336700494493782,2.6494681903023123,1.3125273346200985,-0.4182094348446108
1310,-0.7235370861979243,0.2654129879063011,0.18696106863365128,2.111976129873736,1.818389623696543,-1.2716032087809457
1320,-0.7661688887093382,0.2207372972433298,0.14806630542401455,2.5861403549687862,2.967287279072792,-0.3095648858182023
1330,-0.7184625158085318,0.2713599467219782,0.19640179665044458,-1.3507347142346775,0.29391621552411257,-4.560328341532346
1340,-0.7547995952469705,0.2243165018328795,0.16062537159302606,1.4075934126751308,0.6721914329936354,0.43568831709592487
1350,-0.720454483137435,0.2586718491891646,0.1887716209211505,0.1172383242145627,-1.791437772774023,-1.019338783679482
1360,-0.7112998367075282,0.2760497790466259,0.2053930997289887,4.711260681740536,2.262474798189868,2.7260990364212074
1370,-0.7471050315525535,0.24424575507363483,0.1697699196155824,1.925467772987157,1.7403758667080367,-1.2315538943487263
1380,-0.7238063385793213,0.2641258095858569,0.19187566183679883,-1.3496034941252852,0.6377261325845863,-5.363685798314599
1390,-0.7064884913250418,0.2730537591994773,0.20521356810029973,1.3379185433405278,0.7644798735322951,1.4237755058824826
1400,-0.7306536184866916,0.2507925198137978,0.18095766111169723,1.2963675275768483,-0.4650500006267444,3.4320569879268423
1410,-0.7103088780435907,0.2779817220168069,0.20734826469657833,2.337346881100892,1.8638720648083718,2.522195544285983
1420,-0.7161222572637901,0.2713870646391598,0.19279979744430734,-0.09443842845594597,1.5240699933768298,-2.0690374450390383
1430,-0.7236251884768887,0.2556349576081878,0.18565760033036088,-1.1474304006752718,1.234222920170362,-2.817790156158339
1440,-0.7388964307681365,0.24219326835587027,0.1723811329277459,0.019115439059022965,0.2578955449096034,0.007174876780379924
1450,-0.7365762146622395,0.2506054904905233,0.17588549910161602,2.296406073199993,1.3747969766368342,1.3053678443742456
1460,-0.7410725179422755,0.24312005866841732,0.17175199271920866,-0.8243748951057139,-0.290416505538877,-3.2697530156846435
1470,-0.7165689954876489,0.2632506486568339,0.19570046567814037,1.226514902357474,1.4981723991065847,-1.0401446538889458
1480,-0.6965778339349235,0.2805347593879402,0.2167372628183997,1.4044606000500275,0.5807718094131464,0.4175451355072326
1490,-0.732845322250545,0.25190257213821793,0.18623078628731826,0.8492480250531036,0.09925962542703044,0.9018335654166115
1500,-0.7289724570131946,0.2505629158590589,0.1816970152579953,0.78873460267288,0.24475828749094278,-1.0901171733061814
1510,-0.7111083033944028,0.27034414043140886,0.20050400856141945,1.2667618823722206,0.6102116580264267,-1.4386734431150154
1520,-0.6772983337103513,0.3029659373667553,0.23181681484773298,1.337324094465233,0.1801342118258944,-1.8618615674363863
1530,-0.7565287849661484,0.22566173836499867,0.15426506839586523,0.09030765215016823,-0.5710048415869573,-3.5116063389713963
1540,-0.6968823512797717,0.2849157168885734,0.21902986219138088,1.1583777573811769,1.3594620653897396,-2.0927264888614574
1550,-0.7211827594877975,0.25184858198525306,0.1915252437374739,2.3302779351686453,-0.16756993564071954,1.5556284719307811
1560,-0.7013014511132643,0.27415283329564644,0.20837284531026115,3.6080915563679588,0.004024666605593918,3.171271543259442
1570,-0.7270001222350799,0.2585191560107973,0.1846876834746391,3.2076379224110285,0.0135727582842734,1.8424871405301466
1580,-0.7195978286155188,0.26613958146756683,0.19566699647938343,0.2323157670638738,-0.6052427631874764,-2.5126572162902363
1590,-0.7089398012766649,0.2718813787904147,0.20472131696546506,1.2747532585233627,1.6498994684432842,-1.8265203802930494
1600,-0.7362105762232666,0.24244237677891353,0.1784040169386096,1.4924852088190876,1.1277050169756733,1.1050785883254202
1610,-0.7036659445439486,0.27574413168139306,0.2091614308892381,0.3730889699276374,-0.7563217060168196,-0.1861090751728498
1620,-0.7237599549863385,0.2578152478660634,0.19154468860103935,1.4874763201638537,0.5749626897619142,-1.4470499357943443
1630,-0.7406552784279969,0.23927656042339127,0.1697740406215379,3.3160732581744994,2.8286187005937564,-0.8016827189588722
1640,-0.7488781043707301,0.23164131994402815,0.15995213990742846,-0.5973981144699348,0.26434293328451464,-3.7759870352955387
1650,-0.7196206566500384,0.25507252025562355,0.19312694896180113,0.4494288947122488,-0.27175018375851,-0.6972629530036305
1660,-0.742871807354106,0.23794648849374422,0.1753613587296008,1.8286075540559175,0.41127697053899415,0.7919678379199543
1670,-0.7383765656105288,0.2420607223118858,0.17656831602038933,1.5491038769546535,1.245781083286085,-0.3630424442182647
1680,-0.7144828111969403,0.2666144103583147,0.20116049537091518,-0.3963162485071576,0.5171886751459269,-2.6485019498295563
1690,-0.7068583772434422,0.26550489371603003,0.20147044119444188,-1.0254696555727856,-0.42243571436367283,-2.4927626990657936
1700,-0.7052492653921149,0.2674091179313758,0.20796201469576658,0.08013752310603811,0.20811672453651076,-0.5358093895403037
1710,-0.7038225287896973,0.27281226263405484,0.20466517765544345,0.62844105436835,0.004991800209219965,-0.7550251886220837
1720,-0.7310699784341014,0.24581256739631058,0.17678280615057076,2.404862957871323,2.514065238620258,-0.8684044966137472
1730,-0.702844347540555,0.2702017066602873,0.2053782669922087,-0.6179677657432986,0.770164335937967,-4.581425409668572
1740,-0.7118265520787354,0.2559145518505628,0.19850129755779322,-0.34750221550897653,0.9814380387003392,-2.9232812221310986
1750,-0.6986026385833951,0.26753596774626115,0.20693016548641036,1.812925826393891,1.1987832825337255,0.7513302838961674
1760,-0.6912608926755064,0.2828295726732935,0.21844694152674612,1.6213498209244985,-2.1267529351707264,-0.9138903144189421
1770,-0.7494081927722634,0.22805169556487317,0.15694483326709688,4.773347276118196,-0.5345349385470547,-0.26942871755831554
1780,-0.7149068910124758,0.25862696517136424,0.1936152842490101,7.619046115650141,-0.33559842658922456,1.7521132426822095
1790,-0.7008264546925281,0.27095947118971075,0.20987072495076364,6.080481270719879,-4.6313869302129405,1.8303375702623375
1800,-0.7013911205037661,0.273539521181113,0.20885783303580577,7.447149429651068,-3.883671840302455,7.154889650541076
1810,-0.7552822553850228,0.22779942263570563,0.16408285363647615,-0.17129910884084631,-2.188366978376346,2.140078774924811
1820,-0.7265481058420632,0.2539517634350253,0.18638852805983688,3.0158862081281828,1.903073210792607,2.548120653782085
1830,-0.6789788146392499,0.30679726799982465,0.23663646655494194,0.9861939705918907,0.14601114741070315,-1.579065651969139
1840,-0.7255422386334566,0.2555251703184573,0.1893481285863171,-2.407318903208753,-0.7696567298146078,-3.8589851485619278
1850,-0.7348947678804744,0.2438075396719161,0.18076688314103825,-1.589349823914325,-0.03844417977567005,-2.3248687267353874
1860,-0.7262888567537337,0.2509669145355549,0.18827057221717505,-2.447274302261937,-0.9058680164093105,-2.639215376596431
1870,-0.7157623411560793,0.25782151229188205,0.1937416401127081,-1.006702442218325,0.7500976084181308,-1.4858996091218621
1880,-0.7186820293561308,0.2664753478591167,0.19883013546960268,2.9129869124428645,4.368511081419863,1.885679742536246
1890,-0.7115486088722657,0.26395573844540066,0.19544233505662298,-2.557484932994205,-1.201514005981125,-3.9735018975411696
1900,-0.7406264967342373,0.2355031030330412,0.17251378476462728,-0.6359399983935093,1.0475997233072325,-2.131781212570409
1910,-0.6894892162032309,0.2896469231821155,0.22384708181985422,1.3866899174589435,2.885490533069235,-1.2822161895986062
1920,-0.7020887058702856,0.27273481525808513,0.21107243457108502,-4.456306254094927,-2.8142860244487045,-9.159526610147957
1930,-0.6994710306103308,0.2678619892249236,0.2089645277699972,-2.0508220412171227,-0.7230480133686631,-6.932125343342028
1940,-0.7263707738298719,0.23900605812618964,0.1817031134037122,2.726542009487495,2.7415318919226164,-0.03335960647894698
1950,-0.7259938538771707,0.23967665415635958,0.1834916215653471,2.742932911774111,2.2603386162467403,1.9192324146535722
1960,-0.7329293069998052,0.2401183751205727,0.17788534125950115,1.5591416414387818,1.7008287666284745,0.8219693042905163
1970,-0.7307060318615652,0.24160383638595903,0.1765286988551959,-1.3590038163800882,-0.038500692152120486,-3.6022344776301356
1980,-0.7111435073872185,0.2548894455846452,0.19702303088045273,-3.027205156078556,-1.3571856658325054,-4.492710707501626
1990,-0.7311661842863217,0.23750362290773683,0.17923665981054743,0.5970332533638136,1.772688904888409,0.3129344836599486
2000,-0.6979037763249742,0.2727619019968117,0.21027759521870643,-1.8907592036274896,-1.3814756850478696,-2.586898416708017
2010,-0.73381150940981,0.2376777508944266,0.17756704013900423,0.13601657334638526,0.34757603728932984,-1.7013695277434924
2020,-0.6800315680115524,0.29061354206008605,0.23150596352727387,-1.2319849875256907,-1.6453006307385556,-3.233293721118919
2030,-0.7274819019489968,0.2422829922726572,0.1849691010858107,-0.46099175448572705,-0.3187988684630449,-2.1953341405804387
2040,-0.7600498443798344,0.21041762023371077,0.1533453647717391,0.5529643501459127,0.9876455922437983,-1.3125456727386398
2050,-0.7244243656622681,0.24253794816022814,0.18556195566201109,-1.3463344741422794,-0.5597664092368614,-2.8094719679455578
2060,-0.7268054622271372,0.23435503724238418,0.17902527888096412,-2.402208516936475,-2.0310148002989674,-2.9428747785046157
2070,-0.7282646805695733,0.24112998460177443,0.17900043743394228,-0.4442034288497557,0.45585164565655106,-1.727387313772461
2080,-0.7098412180800979,0.2601901054165006,0.20071977149852552,-0.6792406219522695,1.936163289522786,-2.861122949840967
2090,-0.7408288982892067,0.21992544009137624,0.16982709050490014,-0.7842388682702683,1.0257708694814194,-2.73698208516306
2100,-0.7120330915994402,0.2471733019565268,0.1926687786831655,-1.9599198264886213,-2.100635922554913,-2.31478636944457
2110,-0.6968520805026295,0.26786179949544636,0.21138172820001191,0.9534354309291699,0.23686991729159024,0.9340535147089557
2120,-0.659536192844357,0.3024931279445435,0.2486825584015255,3.417397734203405,4.215321154185721,1.0144184735676047
2130,-0.7026551546116865,0.26139132247100305,0.20109204077497164,2.224843361007635,4.177056536728008,-0.9793060868556207
2140,-0.7343688058430328,0.2241542366215514,0.1726605893072477,1.2311163656371966,1.7057419581048991,-0.8225339131173799
2150,-0.7103868231995657,0.2494627855879671,0.1947880815760138,-0.7063778165625038,-1.8710778736650924,-0.969869729155614
2160,-0.7393092876041025,0.22031643403775295,0.16799733901397712,1.0539292053777332,-0.3627690119510997,1.7800877033487064
2170,-0.7281054375789433,0.23676956125143825,0.1821949359086411,1.2660662067619461,0.37549163479857844,0.026216490717640734
2180,-0.7254714893372682,0.23515844273251552,0.17661740005386053,0.7438799860641907,2.0334538826605986,-2.1651395391370767
2190,-0.7356642299369724,0.21867285119652685,0.16127287576307942,-0.5034501257610614,-0.1867495232755145,-1.5978528934888185
2200,-0.7212804856521678,0.231161486022605,0.18113732393371906,4.586332960491446,2.890788828487877,5.991251743340136
2210,-0.7246921307682309,0.23535800111711203,0.1815772188017801,3.315182208055404,0.23081697014738034,5.228901834531632
2220,-0.7318301590431928,0.23569219590974738,0.17700512598527002,0.8295818536410907,-1.594210475503587,0.8566791767563066
2230,-0.7210863685748019,0.23427363356620792,0.18447063491716287,0.9872404728265998,1.422945228781264,-0.9604255721803274
2240,-0.6950275237337659,0.262279337114282,0.2107500517162184,2.111940677443674,0.6485002831799954,1.6778460400778719
2250,-0.709788520404891,0.24631970416413493,0.1971925181128196,3.161884528796242,0.7846266356559035,4.096077529015178
2260,-0.6818334025350633,0.2818103864125653,0.2230885637345006,0.7534345395462159,-1.8040418256765909,1.640639623321327
2270,-0.712204030481661,0.2561116080109459,0.19619288772433513,2.0524094228804204,0.8150105314655857,0.5398084472379767
2280,-0.7261668210566616,0.2280014050429062,0.17844543051039505,1.5390116757873131,1.4340938109280974,0.016190743721298695
2290,-0.6981943068745948,0.25918769416524284,0.20817819720566066,3.9137048569539648,2.8734914224722963,3.4437807850628777
2300,-0.7364484126211079,0.22350826956697378,0.16867980743404962,3.6618274142828304,2.2542152067396746,2.623861668053368
2310,-0.7219068180217763,0.2420852759296323,0.18611683695232653,2.0655032895325847,2.32420809783045,-0.693535148390251
2320,-0.7133872133277785,0.24293852188314033,0.19085883559547692,-0.7105569330495805,0.574931322646544,-3.304288464173391
2330,-0.7029109799955062,0.2520840555621963,0.19724531565951206,0.3371021901364346,0.35889677292702876,1.9397920443177696
2340,-0.7165543342776513,0.24645120653980074,0.18506050365920199,-0.29806096321694375,-0.939837821144175,0.3675314062341932
2350,-0.7239853163691711,0.2416493462901971,0.18717732466881554,0.26089714833964683,1.211157435662082,-2.7002875731040037
2360,-0.7311049058035621,0.23041927293143916,0.17428542796019209,-0.05742321380830918,1.6501752294751868,-3.8393243258188807
2370,-0.6887873724595769,0.2655739245369124,0.2144210795426632,-0.8731720160093958,0.0688862295682966,-4.206536137105407
2380,-0.6935172803905566,0.2619191645564885,0.21076127940620354,0.2690257276472604,-0.8561687513834112,-0.959399904348667
2390,-0.7289089757755282,0.22955832377807184,0.17695191452916956,3.2695890597141135,0.7704918466002464,2.979629314008234
2400,-0.7124660871211042,0.2493895636998408,0.19233531484570113,2.6822117389968128,1.6128329659714753,1.6252021659723952
2410,-0.7107157722477696,0.24993740748355409,0.19660748704382075,0.4168735289885007,1.217179971275008,-1.1754482668984834
2420,-0.7278121105263329,0.22813230564230352,0.17216325764973753,-1.375195498884021,0.5735482396242962,-2.3253201269620227
2430,-0.7196732764523891,0.2332098059222385,0.18707902454242725,-0.37967644981625687,0.24624844573490975,-0.7570404096092853
2440,-0.7163380981635394,0.24746340819723242,0.19298468210369113,-2.477680061302085,-3.3763795813634974,-4.989737705873409
2450,-0.7337752935335969,0.22466383834689096,0.1740504082199127,3.4946665645161823,3.8914791707294043,-0.5647384954042138
2460,-0.7174053748188466,0.23437231780397033,0.18848195706862747,-3.766528613147295,-3.049485791464428,-7.552403508761705
2470,-0.7339632311882897,0.2183006823043761,0.1733816014759176,1.6383365723839887,1.4825628573528635,0.16225030988283073
2480,-0.7165444644824571,0.23649466447775913,0.18702110430357013,0.5110748638495217,-0.4908209342127897,1.6449068336319566
2490,-0.6883229536519784,0.2736916428757499,0.22070136884575497,0.12887534448579596,0.9361136354662233,-2.5966185631883083
2500,-0.6817774415751654,0.27230568282130607,0.22212763187062062,-2.9518860770146405,-1.1094211044370472,-6.460266058889117
2510,-0.6955540031387917,0.2529733040433904,0.20861334675798784,-2.5276708714077354,-1.2748878731033448,-4.97237218074171
2520,-0.7215199246552276,0.22817555505697468,0.18034877000675478,-0.9692236402431207,-0.686616606416972,-1.2548550589552312
2530,-0.7196806713562701,0.2312407682385323,0.18277806639983887,2.489716820485224,1.610080914401299,3.6673166732176132
2540,-0.6842113462395684,0.27069157755111495,0.2160032046799013,-3.2592180222250358,-2.279856697592199,-5.4114977741466
2550,-0.7203063479320726,0.23305103309457162,0.18172582353168087,0.3372005497910132,1.5947516657411491,-2.683847221872119
