time_ms,ax,ay,az,gx,gy,gz
0,-0.8552687903367445,1.0053754332837985,0.4895714843738805,-0.13682269725154184,0.896273585364707,2.608024188211859
10,-0.830975167744904,1.033039061723397,0.5129928941510553,1.4039852570309854,2.0846897277070218,3.00474303813983
20,-0.8213621502274484,1.0461127256825618,0.5327795040350847,0.5116372181955411,0.739302762100157,0.8124887281269606
30,-0.8135139433205105,1.044639177023039,0.5367666393454781,0.19512978026335892,-0.22648307754343028,-0.8105955109325307
40,-0.8277993225715712,1.0265318144500823,0.5108976893605043,2.90331711400639,1.264250187022323,2.0754416709877543
50,-0.8418140243116534,1.0211582252298412,0.5049131371733937,0.3733280870088391,0.4514275834971294,0.2384950215895456
60,-0.8517818844781709,1.0097540786079462,0.5046630639317814,0.11639044558332778,0.8722528420541389,-0.13357040119271835
70,-0.836638927246726,1.0212851301020014,0.5145863934637407,-0.917758555521138,-0.46924092145295165,-2.0828793591602857
80,-0.8247220211185656,1.0344619003491182,0.5268827701235966,-0.9970892528016052,-1.3908918725486514,-2.884593111819453
90,-0.8426667670997047,1.0161559658853059,0.5122748234099759,-2.8159491184791046,-3.748324726513681,-4.785301096899552
100,-0.8429234075257865,1.0138612772774678,0.5181192103052987,-0.6910768011726711,-1.186098153456874,-2.0450370132791544
110,-0.8077197646152257,1.051760533491321,0.5512675877762988,-0.4850016414918941,-0.08881085835575347,-0.30360547687808315
120,-0.843906429510159,1.024615887850028,0.5174022722066444,3.1367623935125426,4.058893640048861,3.6640582281269545
130,-0.8376809044757749,1.0308331817291125,0.5254934502679968,-2.9215399114926957,-0.4089614812618446,-3.089308987685253
140,-0.8661937787636936,1.0215278135466397,0.6256137556891326,-6.067070257249531,5.524259556090514,-17.386899254915747
150,-1.1047464690417035,1.1124978953565514,0.856212939866109,-32.62155024973147,-37.305175374133746,-10.94512922271189
160,-1.183524729475358,1.1405696290892788,0.9227144664703338,-49.18050362107375,-86.11514846807418,28.543066545473984
170,-0.9155489259226708,1.0154497752338925,0.8155268221323475,-53.99624937512979,-111.94689012926426,53.14386201168144
180,-0.5854859286274208,0.8241145341160471,0.6316234305463746,-38.93164403897746,-117.93914500857501,53.38333984642795
190,-0.2693922230303649,0.8871040081309924,0.46694157057063473,-43.57926855550018,-98.24167290031878,25.297514982814594
200,-0.3562220366356631,0.833899816758215,-0.21489014238729442,-37.70780890597357,4.005646056940259,-35.948139897871165
210,-0.5687990167182264,0.6414414839577987,-0.26042150381860735,-20.05472810068954,108.07049036331313,-64.25249357707621
220,-2.0577499809784947,2.336872656198477,1.4351397069127916,13.277105738281975,-92.75518331846916,69.8333544759343
230,-1.2158288477019898,1.190002427911586,0.6237352894600967,64.9375746229407,-11.471268194531321,10.158425707174477
240,-0.8099001431435691,1.0280752550371248,-0.007880275537674833,75.89092792628715,47.25903677274357,0.6620601059356657
250,-0.9453413505811217,0.6846935950780019,0.545331936772499,23.25958604578121,24.45810036949478,-24.595510448412718
260,-0.7663263813072647,0.8431870651307782,0.4125654863099546,102.45184251205862,94.69877017928059,27.098157843568156
270,-0.8016865860722604,0.9396247667641987,0.8006845316603224,94.7108891215152,82.03204389922446,8.467321979119427
280,-0.660197289785952,1.0875295970251628,0.6864530603537664,6.16228561989906,38.64975530204786,-9.825565130993636
290,-0.47179350600412573,1.3401722334121275,0.08645776570361621,1.6995251995970722,35.39407146390448,9.208091401660532
300,-0.6725544510298825,1.1460840717334317,0.887013683551423,-10.318011891018891,14.628831539747194,6.111620248418871
310,-0.822036690429137,1.0180421950569554,0.525618196119021,-20.085199677643843,5.528961088622582,4.3222813567209775
320,-1.1579373386590008,0.6384422465056887,0.7290128292512188,-76.08096310191509,-19.49975566177114,29.84417930306606
330,-1.096995308016142,0.20570568748873214,1.3011175464616491,-68.59179816748049,-51.66764249131727,27.67746286498526
340,-0.648101943417701,1.1778947137353926,0.6445889657609947,-48.37565732078238,-60.35412037639048,50.56936046273775
350,-0.8715615596412184,1.0202566933106225,0.6055578714337175,-33.96552157694084,-83.11014594922501,29.65946208690614
360,-1.1295921024899946,0.45161344288556343,0.7100799632615145,-29.370103039802608,-103.76686846801184,-16.04223279873162
370,-1.2792968740618598,0.5808166661834886,0.5506081413255022,39.52228853716292,-91.1001921779442,-31.054762438987414
380,-0.8037293993565902,0.5540233357891531,0.07423178777068128,87.12972316810922,-43.19997373434396,-42.590357176033336
390,-1.2155107011416244,0.3083040860595542,0.004552713174679996,74.44826724376703,-39.734173828002916,-82.05493686658113
400,-1.26580594011168,0.26709098153125327,0.43337821780325914,21.94153373886724,-12.629738050198217,-110.37206595220755
410,-0.4472400660206405,1.3840665388555,-0.059648203959377186,57.39330014690852,17.11982625392791,-61.467295726719385
420,-0.19891075901893335,1.8662284080562312,0.04520730304295265,75.68836502225417,26.688881707333618,-26.165642464376983
430,-0.7699282123446252,1.2341100140125123,1.0088945768507531,-38.17330774429399,54.30255570161851,18.61368845942153
440,-0.6419366977910901,1.2431166392783237,1.0051635934400989,-97.77020385788519,52.17740710818303,50.102008338504085
450,-0.5898479591615211,0.7204080092377374,0.6915975298408458,-79.9206156190261,33.92151364201431,36.944750601660715
460,-0.65422642615938,0.3324920457335244,1.0681275375050345,-3.7475666076461773,0.13178031276312385,11.79870805062444
470,-0.862737940706549,0.6057518520621992,0.76367787198825,-26.197895691642913,1.4135383857273482,-14.444162229325135
480,-0.8395710847833007,0.8249295445310562,0.560237017393963,13.860427788708128,10.414964212783271,24.323629723120213
490,-0.7674495220359957,0.43900989566118565,0.5535057962028899,27.922631651580534,-9.32149159427871,-37.79554938580834
500,-0.8539312945431846,1.2055937609188543,0.26358230555011813,69.42488745642622,-9.572122696517194,-33.01386035738014
510,-0.7085862258931418,1.7080789984403093,0.40384312738499223,44.53619624205777,-1.5780573017299193,-27.416329596227833
520,-0.7463262903680988,1.3536885411971564,0.24918988044164464,116.62783434768532,6.366188766999514,-36.99923847370522
530,-0.5850190342496896,1.724348678337956,0.41889554625430164,19.276396898640797,18.151094300606978,-18.871933051700182
540,-0.6784141320340246,1.4093301386740091,0.33533302326610553,4.336831718514619,23.5307060913221,-21.919299818464523
550,-0.584830612553532,2.5681557606861514,-0.11857782410034313,-59.713890324359774,59.664685286698344,55.5763366423883
560,-1.0524020336489341,1.0602699108796736,1.2788428943014667,-59.03239800423018,73.87762802794809,71.34887410229501
570,-0.8003888247066667,-0.05829392097413086,1.0536250636979871,-48.95399972589564,52.700478148838826,52.51132448967379
580,-0.9227478905404437,1.0360114874984008,0.5049640540190197,-31.0673809755231,9.021017877426209,-9.007328101628662
590,-0.8387245392051517,1.2309838277912877,0.6432835059497857,-19.204411125227626,11.165511822152041,-9.917963628880049
600,-0.8348487675148728,0.994495722172968,0.502741683184578,5.550497333344233,12.853178416905362,17.854926246446716
610,-0.827517600677511,1.1124084636465423,0.4582332364414418,8.797473920848917,7.173575879053167,19.656459168463513
620,-0.7928971079992039,1.1301151810558796,0.49896007693820066,2.4055156516353695,0.9335955849407529,2.220242956260565
630,-0.8134095220698558,1.101885709558504,0.49343261775578906,0.5457281127653931,-3.9799670796560096,-4.321196053788188
640,-0.8263539655243116,1.071682925035358,0.4820469378115792,-0.5966321685780078,-5.7347004195782745,-5.193497564631537
650,-0.8059965456876086,1.0758302826319257,0.5058005344395784,0.333871540325795,-3.329945065777076,-0.745939076420584
660,-0.8307579520334618,1.059128157812474,0.48241279566802486,0.5117607587747391,-0.5972047416229249,1.783708558587331
670,-0.8284587172306435,1.0778165583896826,0.48113218052699236,0.7390764683396407,1.8858831841330228,0.8660574710668377
680,-0.8385173013142125,1.0594632762486484,0.47399318557217535,0.4154406028987099,1.6318723451905353,-1.5716997825593793
690,-0.8155724997354072,1.075130545781669,0.5028759524922437,-2.0289304220467126,-1.3055590673420354,-4.251770017850223
700,-0.8321250769857763,1.0604822331157748,0.47728749774335344,-1.7848012463624574,-1.2544490193220907,-2.7862121021817945
710,-0.8638332669691543,1.0262782065783218,0.4446760041789427,1.6098251139327524,1.6209942532046617,1.5050380782315205
720,-0.8297951865415022,1.0543722516832064,0.48844494104672875,-6.883234228664886,-7.3145424153873675,-6.200368341967111
730,-0.8119551866816004,1.0772027441868566,0.5041900443966788,-2.2585462509857654,-3.8020214068430627,-1.59333637036611
740,-0.822360172013697,1.0643583899029387,0.4850253061346418,-0.5176099054077956,-2.624367095233476,-0.6208937570870359
750,-0.8197047137701781,1.064096719455959,0.5007372659620938,1.9489266818262385,-1.4459066510912313,0.8565941600567266
760,-0.8480931990256652,1.0428037490534285,0.4781950470547356,2.9820867504015505,-0.3500626864753569,3.1403114306997573
770,-0.8333123575840917,1.0558549928672334,0.4894454854823019,2.5161329263607586,0.713448204824773,2.347830511603646
780,-0.8409191065262712,1.0552908985866165,0.4784890806911104,0.014061720894180008,1.188903706416417,-1.2821794985772703
790,-0.8491704054558149,1.0403932498373274,0.4548756880004439,-2.0408910345976627,0.05162160773899083,-3.2838052082509113
800,-0.8476827649255776,1.0510188264487108,0.46316694683197634,1.3437868749608228,1.358482053714206,-0.7368464242543711
810,-0.8354140059338775,1.0551675173152337,0.4857620735726429,-2.296337101131659,-2.2676944691815746,-4.390731014660785
820,-0.8472610712902553,1.0405920919917486,0.47458004352094624,1.26233532204974,1.906380078215915,-0.21370675692384222
830,-0.8302781157515889,1.056268753101263,0.4911849746327558,1.9357976912621202,2.5971435047329594,0.6450833267102556
840,-0.8111484459346231,1.0829022737986627,0.5002391828735193,-1.9445287049398003,-0.936715256105974,-2.2994426414882163
850,-0.8566941263533356,1.0303882869936971,0.46229072245969555,1.7719715824240119,1.2401866663370409,0.8637458088503835
860,-0.8188188209670983,1.0685803398633937,0.4984767639105204,1.2404450251033232,-0.8850739381673569,-0.05577085427880912
870,-0.8173562510611951,1.0758143634643162,0.5030396050522901,3.3322553775116326,0.9571006701290123,2.28134812182448
880,-0.8386210120768335,1.0539190930058195,0.47936998345051884,2.074676859194809,0.013421943012320803,2.0560123480668615
890,-0.8258803045758831,1.0637716240516206,0.4895893177821485,1.0884476831578649,-0.07277320248629393,1.3547484759024766
900,-0.8319713091138737,1.0570249626650845,0.48323602371685453,-1.6670824700730424,-3.2277393780056904,-1.2363260514187364
910,-0.8338245670374189,1.0511062222324044,0.48191185001186065,-0.27963472983330007,-2.078705830183144,0.9223763632743742
920,-0.8463466956994995,1.0413240284037082,0.476176917335245,3.295227589868538,1.920078760017959,5.887872748253633
930,-0.8221856371042525,1.0695754348733995,0.5008083695919108,1.3292173376510386,0.9540690543795477,5.663067046970294
940,-0.829053935841117,1.0729538507677454,0.4911073655764395,-0.6933401714254805,-0.1471700961622595,4.510850160356686
950,-0.8374188040065758,1.0712511199470305,0.477893914156211,1.1667255595070056,1.768774124080612,4.304060805080596
960,-0.8370198769745194,1.0668012022418265,0.47162929172277845,2.9733614121023058,3.294241051457185,4.314851683834811
970,-0.8288571157772704,1.0706761437792365,0.4823555983202169,-3.1701914186650555,-2.6828978826394936,-1.9316528106017044
980,-0.8252591252469504,1.0731658574850969,0.48358743429274414,0.9547396264585439,0.6746393741580743,2.5952805340272103
990,-0.8264792658561467,1.073801419240981,0.48390448990770557,-1.4823482927655665,-1.0534474552403417,-0.7643484301284886
1000,-0.7993360015914158,1.0999072466579631,0.5116872342296678,1.624993307684744,1.763169202410095,0.15425719284065265
1010,-0.843107656791134,1.0540988028597482,0.46644034498716835,-2.293718596669875,-2.9928867592779214,-2.786520863282263
1020,-0.8176138023269048,1.0782559507755902,0.5011395143056278,1.0359433292079672,0.8961361655602362,0.9391747980038678
1030,-0.8083864660158862,1.089502195396854,0.5122434657166998,-0.5687135835850823,-0.848525358158459,-0.4985153942073737
1040,-0.8085879944400025,1.087861033297823,0.5018237575223101,1.4570305998108442,0.8855513477741617,0.4374133916015551
1050,-0.8221861958018771,1.067554098472788,0.4887810740072069,1.1292668639082981,0.9768288355703263,-0.17296505433535148
1060,-0.8060599681274386,1.087403605778654,0.5039789925194601,-0.1882739662157339,-0.8258336766364167,-1.1291470990815833
1070,-0.8058097446288621,1.0847263572074062,0.5096928351857848,1.165885272893642,1.5262293337884365,1.7362365646700486
1080,-0.805508230112568,1.0883948072766243,0.508521374320063,-0.6752898409197506,-0.8854247574896409,-1.502983051298231
1090,-0.8328941680382186,1.0613824983889317,0.48054623558187387,-1.1509231702896616,-1.2104227134998642,-2.5475064313288955
1100,-0.8346953485062208,1.0609150115828565,0.47634254050319036,-1.207340057686655,-1.4954295698830748,-2.2609205687885536
1110,-0.8175572012589589,1.075639307991695,0.5015207954178387,0.46412644123948854,0.7515461684980071,0.05366095571044971
1120,-0.8075085899077528,1.0849004726782747,0.5061615374260977,0.8552892109746035,0.9876872581498242,0.6146551640100454
1130,-0.7976852166027852,1.09926027440901,0.5182103443289309,0.7849139354434965,1.6165302854070824,-0.5944643277393724
1140,-0.8279747990734778,1.067852160849109,0.4869885465773257,-0.4901291833678618,-0.2613986518788875,-2.116298973114623
1150,-0.8178573193069542,1.0736984087602492,0.49392815315972133,-2.2303511674438505,-2.6809253094142433,-3.3459804799071815
1160,-0.8055176230969247,1.0843397514839894,0.5041036002993954,3.972458253624902,2.7833018768000635,3.5588398431946833
1170,-0.834131241786264,1.0610983626334887,0.47939711632375515,-0.25461484221992847,-1.8141995596070588,-0.48244615059152074
1180,-0.8309554375005208,1.0618521915540309,0.48632561099300076,0.0886208065465669,-0.5774983025757282,-0.9689221539658521
1190,-0.8222204541116549,1.0698685862144015,0.4980851643162088,-4.033643901206444,-3.392030586112635,-5.201753608657153
1200,-0.8224963642752742,1.0706429705903298,0.4950319641848107,2.642568765127608,3.391600376918997,2.0143517861086315
1210,-0.8510395111621274,1.0448346439443028,0.4618244561659949,-1.5486399232356853,-0.5863330834173204,-1.9873149093678286
1220,-0.8244318983060847,1.0675801893322154,0.489802263280141,-1.9159815383545435,-0.9151038806289062,-2.2973277525180613
1230,-0.8503282167160785,1.037873868058173,0.4647539219180461,1.1915057638568416,1.301247357750104,0.873335157924095
1240,-0.849447884094648,1.0455499320050148,0.4707551971848945,-1.1079389621621514,-0.9836535214848624,-1.1677848291680146
1250,-0.8427969686676099,1.0552193361617817,0.47696477429744605,-2.57480427145191,-2.6672979861283004,-2.6799468484455296
1260,-0.8410337678495273,1.0504405702490398,0.4745632347364235,0.6755662482247529,-0.3172495030684634,-0.519084303408595
1270,-0.8172089134449034,1.0791612104771864,0.5004282802298985,2.5510686764172226,1.404973326193074,1.4974434625015096
1280,-0.81292292992236,1.079235156023041,0.5017105537123436,2.0254984567449283,0.13694895483526526,1.2714906407551392
1290,-0.8182902062308769,1.073990869432638,0.49880242863653274,1.9470149022633032,1.1680642951668607,2.9783337486713974
1300,-0.8174952276672509,1.0752418729780195,0.5000012546889413,2.4028299952600043,3.3429970905595834,3.3026672657817757
1310,-0.808548290875877,1.0799855449451539,0.49869318343512536,-1.480223196008947,-0.3333115800006585,-0.48227302785281556
1320,-0.8615304708252375,1.0292382650742848,0.4506254108360898,0.8312848890656682,1.936945540039051,2.0518033544775984
