time_ms,ax,ay,az,gx,gy,gz
0,-0.8443836917618968,1.2192441542470538,0.672058884328487,-0.7966382055910222,-1.3914902741602055,-1.1496942138857158
10,-0.8376809383644297,1.2303709787645662,0.6906019656292522,1.9191888190235318,1.3909174915619062,2.6520835263456073
20,-0.8354802569288764,1.23333493594165,0.6922097145585705,-2.288426888150542,-2.8455945640362232,-1.587940680489523
30,-0.8570159944200213,1.2053784399561194,0.6686570074089988,-0.9241729774630909,-1.4144674834460824,-0.4292077579233174
40,-0.8505996177861942,1.2107615719888025,0.6731817744686739,-2.568087774114674,-2.755126642297161,-2.2266261453702665
50,-0.8479523787054074,1.2146460388134697,0.6764093065237683,-2.7037949631459455,-2.9109228862962664,-2.7679388820560282
60,-0.8356404438192964,1.2230011009593134,0.6887929145698919,-1.4335302818834899,-1.8325995093416068,-1.5010953497538124
70,-0.8410229166557023,1.2135330141471405,0.6841120769167262,-1.4653120533160262,-1.7270346829710137,-0.806754221770418
80,-0.8580666967606312,1.2016419078821237,0.6728135996118818,2.426412199088663,2.4053608128278,3.30561692818484
90,-0.8212529799489371,1.2379493157725352,0.7031782424939895,-3.9875226255412266,-3.9696613965630423,-3.880544821774412
100,-0.8351892854159969,1.2259459486114404,0.6952791876677867,0.31343591728109604,1.4025483549119024,0.1656000213948539
110,-0.8358339609330628,1.2290803448317658,0.6916298476672211,-1.8597041116451694,-1.3924899855675952,-1.3381473531257617
120,-0.8800831277374291,1.2031519267017865,0.6524884324544981,1.3673571421931285,1.83854742587692,2.3331692143446694
130,-0.8632514025834718,1.2339417583969947,0.6745152674017426,-4.068454066856978,-1.422890535095461,-3.310876143356671
140,-0.9073992401533888,1.2083161112989425,0.6552601938790591,-11.089693970460988,-3.295319265965148,-9.353507969497986
150,-0.8864489239179417,1.2211677416634297,0.6840067515632013,-26.40697933677307,-8.750128897367151,-20.98158755714432
160,-0.8470243808866467,1.224360273896789,0.7128886331579433,-36.36593642873625,-3.4208219335725656,-25.797409018001485
170,-0.9096415910734243,1.2207169220675744,0.8604903497555462,-66.18329115471391,-33.24501413271637,-18.71094066027835
180,-1.0380265355823721,1.237117044407278,1.2138124711543765,-119.04336075473941,-125.8232564226733,21.798564608095635
190,-0.8155981822164954,0.9684885080398887,0.8889716475838321,-131.6178121480234,-154.1632226839305,10.631197723754559
200,-0.47950081906045106,0.86986676938358,0.6500271816413604,-146.59541682621798,-148.7214004425933,-12.07796703936543
210,-0.2492308161965033,0.7973155918252108,0.4450687596816032,-146.85980066422556,-114.79406731253303,-40.687732875595415
220,-0.15355928610154365,0.7096799332512324,0.2509633019358097,-141.65394177623088,-63.49392106133742,-78.5526826910275
230,-0.19426271907350354,0.8519575116224708,0.1698095046175435,-141.87493864664503,-8.512937456237278,-109.28499564991557
240,-1.220026925573463,1.2347804540209397,0.7126525383422031,-212.62461905040695,-41.17533662675399,-108.8968167874274
250,-1.5267400845463668,1.0631527666942988,0.7688674586403375,-73.99379957708975,-35.315546020070116,-42.42914174750038
260,-0.8638255979142256,0.7390000017769256,0.6747578553500947,132.87007430445294,21.898842946112797,9.963757807516874
270,-0.9709983788887572,0.8850858181311765,1.4079384296345372,86.34205167871553,22.369654200643684,-8.112501867567737
280,-1.2343691098546494,0.6883483579483235,1.4591747034623799,131.00205146760536,37.468954528051135,34.72194862497021
290,-0.9716879043491204,1.3109962921384688,0.27020169190905124,194.51205980931567,68.33202968505985,78.59545953230459
300,-1.1279148261865672,-0.12453535676392971,0.9301693962352028,166.26354704332616,100.71278192783774,83.19298948944906
310,-0.6881400590845211,0.9068756365638427,1.2731686926431975,122.22920429933872,36.45017345133811,48.29688606045071
320,-0.7047878367064516,1.4028138867913245,1.1132653948515994,77.41773275306471,25.65810022742226,24.716744713048968
330,-0.7014091790234822,1.3279639822426115,1.3542916090523673,22.721291631282618,5.996542007260611,9.696729102492203
340,-0.7834989670867991,1.1627119106487873,1.1191296617949726,-7.838987690500818,-1.2976803710766984,-2.757496938491596
350,-0.636280176839607,1.3085650986481434,1.1282719627752689,-6.880450387138732,-0.5909372101802411,-3.184576466887996
360,-0.5038343949853791,1.4401888827803087,1.3939034406542565,7.965879114580214,-10.845289576511554,12.311919426826147
370,-0.6421157923106439,1.563089193398923,1.0000047432845718,-9.175255306142835,-40.09455309422868,15.464841082015734
380,-0.9118859699155274,1.662066012658441,0.32834539400153995,-119.89389502179861,-99.60611558551302,-37.08858826185419
390,-1.0576129730404835,0.27274728735032105,0.8567622576971029,-182.1578978996361,-97.1543786869479,-105.48630297649021
400,0.34282261465670744,1.7405206636833979,1.719414372851272,-18.223923152833066,-72.84422066948984,-37.14735553118823
410,-1.0480120749342459,0.191417645650061,1.525833039625561,-129.970182136937,-57.04467071752979,-68.41220949626018
420,-0.981457271377915,0.5043684156094013,0.8964726772825086,-78.20802582684472,-47.90338056455245,-41.00358426176257
430,-0.8944054157666034,0.45996128327473496,0.8771714307382358,-150.51649033431437,-54.87611208027168,-102.76176480613918
440,-1.1719382663858142,0.5847362387926242,0.6745484998206761,-111.06666228242022,-27.339567740526228,-108.90452506791281
450,-1.3780601907062013,0.6659387359885245,0.6007954284747596,13.311596698609499,13.353392619865744,-56.06272268724442
460,-1.2294184035018647,0.6910875571056063,0.7374980462486285,90.09400849035822,23.272639845939164,-27.00065125457292
470,-0.5803689075057837,1.883752432731729,0.7578870048704556,201.68790104302659,34.1727478097077,18.358627545170233
480,-0.541888073364969,1.9286255380339203,1.3767081717473861,182.42247908876237,39.76428497519544,38.65136397791357
490,-0.4429998804193363,1.7644643708950176,0.9216875566688638,88.63661017505959,53.0132698782302,43.99466891820666
500,-0.8167278617255759,1.2103672274651511,0.4840252234913259,11.380818329552206,62.540817539502115,43.39913200169522
510,-0.572537689339523,0.8700337121985774,1.1566712592203583,-84.71500842295868,38.71905712453422,81.54401228727534
520,-1.4507493051741922,-0.3064576867881933,1.91240006374636,-119.18660785141067,16.69991970674388,36.49475945164004
530,-1.3253904713228282,0.060634890551020504,1.3511796965233693,-26.24818614044543,11.59027783223648,11.356983716411197
540,-0.8723143186253494,0.7637657348948452,0.8632885751920382,38.53263187371413,9.137773578027225,19.730777462659084
550,-0.8082309084376451,0.9545245244146763,0.8884646419105774,56.81430491972383,8.036342709534374,41.7930081211752
560,-0.8460539656930437,0.8289600387093294,0.8198421510836308,31.533589799529558,-17.99950215119231,8.361184170066688
570,-0.5817944990378198,0.7147080573625259,0.9482307939038103,-54.66831188828063,-55.550717770269614,-96.40730055609194
580,-0.3717265287139924,1.7987105524703992,0.3183450148212983,90.1854699403976,-14.597270112325994,-92.66763178678337
590,-0.8256172518805461,1.6484739832270552,0.14414567564669567,123.14694523480519,5.716949977152531,-15.140007646895521
600,-0.8584263000391367,1.9494804897962006,0.7157424073351603,74.65065491319406,9.080463263563688,-17.677007828494503
610,-0.7568920359144061,1.6295508298482093,0.8123898460655062,115.60543119828698,36.971846326713596,6.955046127509345
620,-0.6149814265275358,1.9136965492857032,0.19187370137847687,93.11500206326967,46.92379990538544,23.750051210009847
630,-0.9724742337297246,1.5198740117960055,0.3608642495623297,27.00157108144388,62.65058514671125,22.910716205666535
640,-1.0701451741679338,0.7729207469607849,0.4367918849278092,-12.324348473515407,62.912557414700615,29.309978064215105
650,-0.7274222674486319,0.8392970363527887,0.2544379255341957,11.231391784174026,48.07377333774834,52.802220897531
660,-0.4359598425534609,1.7425457439795142,0.33679146744443716,66.9456705872844,39.415200542419164,76.0014381818012
670,-0.09386204045008187,2.2204399348650776,0.2456538028051383,82.67184966227876,24.944247558383058,74.34369770360841
680,-0.831254103669758,1.1433299942712734,0.9328656867326455,30.008975723099354,11.02411274376716,22.524089444850084
690,-0.9635441739423724,1.0406572281221491,0.7149292098028083,13.982655921726103,14.719889597416122,24.090808292144466
700,-0.8619201379795606,1.170814237902605,0.7246863679973032,19.159459387769683,16.65346100744219,31.156371166435857
710,-0.8479961496747107,1.1958451574951683,0.7264501547798304,13.1096399324002,4.120924942934575,8.964167508339631
720,-0.8669608518252382,1.1641632042007934,0.7001922220800391,10.881140512003979,1.429126146051165,1.1228103508263154
730,-0.8682887198062504,1.158563195304518,0.700372965476354,5.525502322820679,-2.5955845660333847,-3.4909192973250907
740,-0.8813858917385964,1.1417299586482077,0.6868021587960806,6.2899116289555845,-1.2978570647065713,-1.0217204699758335
750,-0.8752332713136891,1.1422170883779752,0.6876195208891346,4.440911112483158,-2.907146706420072,-0.645725768459474
760,-0.8502769819921238,1.1717102770491559,0.7149583319696264,1.8245989451145848,-4.606653820881169,-0.6935682604539075
770,-0.8460062959500622,1.17756489789922,0.7195695662429404,-1.759529307571118,-5.436231247109737,-2.0382986877801423
780,-0.8313811514168518,1.205563102300189,0.7292095974240843,-3.3311028393771522,-1.8919323847228955,-1.5051650392822786
790,-0.8490778153985199,1.1761994025071763,0.7142849466095803,0.386060009281456,-1.853253525253019,-1.4905652312519178
800,-0.8610740356526789,1.1680230973449661,0.7060003959444127,-0.4326462217053113,-1.1578108360636552,-1.1458068868599254
810,-0.8594416152307454,1.1678821218840398,0.7182789266572639,-6.111901579013478,-3.5421979279606974,-4.32948302038179
820,-0.8766016540956446,1.1458812516814927,0.7126568844508404,-6.674449385666504,-2.460454242020763,-3.5156664667639834
830,-0.8610524533926934,1.1599283382349321,0.7110687459542057,-4.711482236219466,-1.1415224608781935,-1.6083634650091119
840,-0.8422241002349049,1.1776703521494567,0.7228601689750911,-1.5025566721436965,-0.8327076004262057,0.04482471399681365
850,-0.8604325925485494,1.1567637285176215,0.7190218987203628,-0.15867489579311655,-2.227953729638989,-0.7544329153928122
860,-0.8452954758884852,1.169101651405017,0.7281441334924404,-2.0740131460454405,-3.735585344958193,-3.714065326778538
870,-0.8789345931922949,1.1293875990486955,0.6885455761491293,-3.0546979587770084,-2.6632996351587366,-4.320082536973983
880,-0.8426288732625237,1.1724886445233123,0.7340894195639571,-2.1123785199063105,1.4320189037221118,-1.7938243141125647
890,-0.8674934809592931,1.1384412945405953,0.7104253936376573,-3.646329482677181,-0.8711540685810727,-2.541475924172775
900,-0.840682180685725,1.1682894823766834,0.7417046245200637,-1.089885807209984,1.278808346427744,0.7740601982393661
910,-0.8391514745444798,1.1722699650893083,0.7433739755665209,-0.8717880115036596,0.4734144214296051,-1.3146096510894774
920,-0.8667688148730446,1.1445714572312242,0.7123825052503534,-3.8959873021626623,-1.88085400130749,-4.865304667598732
930,-0.8466092778298757,1.1593466227937195,0.7299075924044912,-4.732866655612983,-0.6099759234600443,-4.570480971105969
940,-0.843609340333946,1.1573989164521814,0.7326772487556451,-5.005467216265896,1.8756665490753928,-2.3067047849062963
950,-0.8558330869092712,1.1460288096634415,0.7222041690593007,-10.056161784568063,-1.3931343291776925,-5.10003814987563
960,-0.8516018419874063,1.1544066841192862,0.7311318694474014,-9.033721612022871,-0.6778247328906255,-4.463748669627702
970,-0.8886405155495403,1.1224236487789145,0.7027907292649205,-9.58893171101558,-1.3509777707471806,-4.845045492464058
980,-0.849713499576146,1.1538390214590155,0.7422638193021894,-3.3629641724816373,-1.8334293485491968,-3.1993215411411535
990,-0.8698763534237385,1.1518894767647994,0.720301189465466,-2.087642797157315,-0.8070958829769233,-5.360221896530819
1000,-0.8639209145227645,1.155397919441292,0.7322107094113264,-8.35951477489008,-2.2578048163738287,-11.32734977550082
1010,-0.8439075323270858,1.1504205006992971,0.7487656735165111,-11.455720807950733,-4.784643471225018,-15.278086909835636
1020,-0.8570300616279809,1.1245736329496485,0.7318893415028157,-5.281878983456871,-0.07536885920261416,-9.097835498355543
1030,-0.8373124279686596,1.1388411056714802,0.7560973633006329,0.1816145476418849,3.497504416738347,-1.7570157177046344
1040,-0.8610050804909181,1.1264859125602744,0.7335049697871099,-0.8200409465948524,0.7496788267272333,-0.09298357998938944
1050,-0.8479520858091794,1.1632962970854355,0.7418356044490934,1.7558679560926438,2.5817176186455275,3.1840833048039703
1060,-0.8770666539790947,1.1290658066537753,0.7175308391580454,-2.814218562601822,-1.5872320152552173,-4.222441361366228
1070,-0.8703432004492011,1.1197695307908322,0.7163737767903016,-0.27864402576125036,0.225079359677838,-3.7372881371185747
1080,-0.8886368412259649,1.1018876928176173,0.701715862583534,-2.2970380919593847,-1.5427161132943314,-5.045051790092848
1090,-0.8719037803325064,1.119263443987805,0.7323325414456519,-1.217407774744673,0.44532706920320597,-1.578471895634015
1100,-0.8587066555630251,1.1229691037163119,0.736950522400963,-1.5419588401698638,-1.1700812640281102,-0.39313753672942575
1110,-0.8363349278690112,1.154002953874982,0.7605167476767427,0.4638785183320917,-1.9830722256686242,0.3459132917906018
1120,-0.8751614397446322,1.124838490113282,0.7201589695561426,3.808678365952675,1.9691567459433592,4.090170531298826
1130,-0.870103833621336,1.13300544857175,0.72327659173878,1.5891092492419276,1.4389329383803804,2.1932842635059098
1140,-0.8534335767771742,1.1480881261486848,0.7414814689780643,2.0150350069095837,3.2505972771686347,2.2288915221611325
1150,-0.8898531232307146,1.107436307641985,0.7034504516103538,-3.632979035617903,-0.6802221174737687,-3.107793500215067
1160,-0.872726689821832,1.1208654078621259,0.7133287661819722,-0.41883734451375476,2.3206816365211624,-0.41112500214214975
1170,-0.8504838066906898,1.1446755448523185,0.7387922414620123,0.7339470923830396,2.0434539164883523,-0.40594056498104836
1180,-0.8802967486147909,1.1124720568323994,0.7188248571908658,-3.24389674721069,-1.1772862496825225,-5.206008041138401
1190,-0.8596372120607244,1.1224648367665562,0.7282016008397074,-0.8711146242719292,1.7907325100563483,-3.3204173334444533
1200,-0.8670929061657507,1.1206248081907346,0.731085628977127,0.9362692264334531,2.440483076871528,-2.262388155070579
1210,-0.8568729077677738,1.1279478336880535,0.7384811550445772,1.425804283478395,1.1632344999795463,-2.39120762962122
1220,-0.8601905063544281,1.1291648906601437,0.7360186926000267,1.12454401482252,0.5417542064277266,-2.041032040241718
1230,-0.8873195982893981,1.1052996220843063,0.7099009268278123,-0.47620851447091167,-1.10145432971548,-2.72522156776492
1240,-0.8603051904537307,1.1310831650831052,0.7363100002622373,1.8040952830550596,1.640816377192007,0.08350758120874868
1250,-0.8909564743561363,1.101040735381659,0.7106098661818014,-0.4482221268533948,1.2449294747881208,-1.8643579781895734
1260,-0.8357601872031797,1.1459816246682528,0.7651585362642649,-1.3700620299840254,0.747334115542418,-3.3676984901665152
1270,-0.874923461001787,1.1076418533753072,0.7220947067004339,-2.88613776532344,-0.6132239220566464,-4.638666505894999
1280,-0.8740610356364207,1.1131931338547123,0.724784790130099,-2.030341471106484,0.7822295738949852,-2.4995920837192043
1290,-0.8538917528243114,1.1241895990163147,0.7413923200484953,-0.3902076801115222,1.4631884446461783,0.22181198626337428
1300,-0.8591120943703922,1.1234839211469796,0.7433418183026531,1.7545189463654673,1.4193106521089593,2.382429285474835
1310,-0.8648211135128292,1.1249482993576858,0.7372389846403561,-0.7002422529147428,-0.44551996937750227,-0.8109215462421486
1320,-0.8726067287665136,1.1155701030392555,0.7283623971228762,-2.154930577311544,-0.6574755701040622,-2.2406356827326275
1330,-0.8905700231735695,1.0945959052670007,0.7089123042569874,-0.6724319974298074,0.9382111014458647,-0.3497561772044415
1340,-0.8718278138775711,1.1154217882188315,0.7235274992287997,-1.4937988110746399,-0.6253395576558101,-1.1831981803377685
1350,-0.8765294495120913,1.112535364026417,0.7187019190518805,-2.0727366237228533,-2.328152928522762,-2.000374914781867
1360,-0.8661989200709044,1.12263101397929,0.7359663777415478,-0.3157333939241177,-2.0233650045661333,-0.5655013319603324
1370,-0.887020477007735,1.1001471364451956,0.7061851425093845,1.777011970083673,0.9438232189445261,1.7643901602847922
1380,-0.8204104482568659,1.1643509196637105,0.7770130563533771,-2.951856770703141,-2.4875917777109358,-3.718343710483369
1390,-0.8784669446144401,1.0951438863687182,0.7179646922898594,1.1415525787539427,1.7477236835065768,0.11032239163641155
1400,-0.8654157869084408,1.10998629200695,0.736027291255949,-1.3955368183237487,-0.7979915948522879,-1.1748822488060808
1410,-0.870067579964185,1.1126898980070603,0.7317316351802866,0.3776345880409565,0.7332266151362983,1.6342098536468401
1420,-0.881435900567607,1.104612639675556,0.7178004579502295,1.2105862048465361,1.974507840881852,3.2109599511839564
1430,-0.8386952069296112,1.144025492271996,0.757922334151108,-0.5596900890896621,0.4874406500848505,1.8255001090916836
1440,-0.8698180754330741,1.113497038861825,0.7269040077271091,-0.19285250298490486,0.8057261154950341,1.4336273608772327
1450,-0.8737911121577822,1.1187327892621297,0.7269826042948268,-0.8145151014596744,0.4637345357325615,-0.9864161127904046
1460,-0.8364512387144962,1.1474323919439382,0.7629674629271422,1.1576612594846374,0.760696131569139,0.7184781731097214
1470,-0.8756304554354051,1.106335951497446,0.7203615450675136,3.220189751407998,3.1860970885594853,4.77295947171194
