time_ms,ax,ay,az,gx,gy,gz
0,-0.830709932825733,1.1404238960646167,0.61467756555886,-0.780653513296939,-0.8593562586935262,-0.823421006050112
10,-0.8168978027267173,1.1486366628888265,0.6161164029819967,-0.540054073289065,-0.9580259001884175,0.31718122335951615
20,-0.8667834988580732,1.1108780706874675,0.5639420127033865,0.5186799854980171,-0.019227411391608912,1.0132226981437817
30,-0.8255265842885239,1.143312760021474,0.6096715550881737,-0.5925571466011567,-0.8139078750539284,-0.12532788858922117
40,-0.8577999738945359,1.117113171797525,0.5729633913260229,-0.13655904669869812,-0.3463281446013763,0.12412861674994513
50,-0.8161828265644606,1.1667569653405698,0.625842937668436,3.6453814813227403,3.6283381165306485,3.558641234700934
60,-0.8120329568503288,1.1609526771030558,0.6148278747525922,-1.7643179213915343,-1.8089111028277802,-1.7789470171138466
70,-0.836516695550527,1.1404952661812175,0.5963898564413385,0.5837268647434574,0.6095696885491659,0.19275190285012175
80,-0.8446730687674007,1.1341434586095738,0.5898182695337765,-0.9606238048816211,-0.5951655719776543,-1.0893431707579315
90,-0.8225579134409988,1.1444370559389085,0.6125760915678123,1.7791236210314079,1.5673323485601411,1.6070011841918692
100,-0.8424600358058225,1.1305946888439538,0.5903301827564607,-1.6047296962109296,-1.8712782886052697,-2.4881010884068706
110,-0.8177687087481864,1.1558841944076939,0.6211863360849089,-0.017442512751586148,-0.19642212710566687,-1.2810694545460442
120,-0.8462856179725786,1.145160292251899,0.5961326658980272,-2.059408549027018,-2.626017852589469,-4.164358492636861
130,-0.8520093232529504,1.141516978499278,0.6102120395312762,-0.8807226130276347,-0.8153477672668501,-3.946491963130949
140,-0.8148091378224012,1.207607371484797,0.6326894801495554,-6.357689754347394,-3.2311171439221242,-10.495554218317272
150,-0.8459311663717127,1.1543056870087678,0.6390102907784262,-12.193550459579665,-4.135708864281297,-16.72527616164321
160,-1.0861664177776615,1.233396453660535,1.0701896967570814,-43.382119930176835,-100.83757759966535,53.789501505775384
170,-0.713121213430841,1.0143330711713108,0.721198342395051,-61.24792603662301,-111.35116794825844,54.88568333870062
180,-0.30676050622478124,0.9196650075963685,0.5836059072012791,-28.60090123160113,-97.24390947196633,54.859299976662044
190,-0.027824006529118126,0.6728955548136308,0.3764824223093267,-39.09377057075098,-63.532481721072514,21.426234023085428
200,-0.13090850098420898,0.8626861298548777,0.4697067406620423,-29.02331837808577,-30.973783512103072,-17.837572790428375
210,-0.33417473081765325,1.1432863781083131,0.5319210376429475,-38.689237309739866,-3.553936146305795,-46.70488230957309
220,-0.9287720008307209,1.1333658545525178,0.8723802741055191,-51.4107355128504,70.74389118896175,-110.52396665552632
230,-1.2788837658078651,0.6691661112636552,0.04897056446302209,-227.05706360281613,-37.636982357573174,-95.76226484295206
240,-0.8445051675775797,1.2233125223325259,0.7415169950679515,81.2740670761206,11.270546788130725,6.274279411556129
250,-0.8820853566070525,0.9192427492739491,0.5874196811125046,-14.129587426303308,-3.992232131510824,-16.421440357774372
260,-1.165229611889509,0.8437975369276581,0.23186962004331899,5.181021477577532,9.896035038017128,-13.011168178376144
270,-1.1378672271808947,1.011116775532586,0.23840868882202979,27.481266539830806,28.498514749320716,-21.247368117422
280,-0.3796331341479941,1.0518917231220573,2.145039756117398,96.7213741456504,52.456323672762544,5.995900718635973
290,-0.7211223457812566,1.6126364476114095,0.4281583160484134,200.11572022678808,73.4942844375065,54.578201008769
300,-0.5970809542893885,1.3714473481389577,-0.09554551119696215,15.378755521813051,55.69380172426984,13.498333091998639
310,-0.5577533528925926,1.5472543843505018,-0.4209964190112667,9.640511602129571,64.84870904232159,32.1251552354479
320,-0.7474139745589138,1.1710568807161945,0.9574021982483982,6.8612103450601944,21.654569501729355,16.270247286304667
330,-0.780365112383781,1.0288784527602972,1.4064765207514573,35.66939865521793,32.97921520995841,29.365669354310327
340,-1.0592371411832546,1.3602902554636667,1.2284563732797833,-13.692644916661768,-24.46088218883644,59.099544776045384
350,-0.7891819399961902,1.301693429153349,1.1330681093634383,-58.11110310476335,-68.01372352108991,52.45144587482158
360,-0.4887015769781684,1.0258678404725652,0.8858409497974807,-82.81001667931586,-84.14354049782179,29.531297980040847
370,-0.34882881566451907,0.9654885563381614,0.6588680904122495,-79.05235286078977,-86.57182647326584,1.434277253508756
380,-0.26618128475368685,0.919122067746809,0.08871815536321699,-68.4160238950659,-63.51056836756441,-31.534492012318253
390,-0.31249685368248853,0.9424974066430362,0.044816771255707315,-43.52255530891034,1.197768058837301,-60.324804914061694
400,-1.4074713779438617,1.402521193602932,-0.3206051333390531,-97.1747235359008,-48.23966391534302,-44.15315259743741
410,-0.5611194619994029,0.8441433916209868,0.957914689955883,-12.479441787007374,-45.65102578250863,-40.52972994248831
420,-1.0997136416835385,0.44200757131408625,1.336052882205621,-4.462472929698438,-40.325789163390304,-34.5481979604231
430,-0.31700053579574383,1.382443161822985,0.4868216626745698,-60.77908344868875,-67.60914517293588,-114.15431872752636
440,-1.0154328866685705,0.9850211093458839,0.17706495188456467,-114.21027048138858,-47.42725209703825,-127.0702093226575
450,-0.9988512385146437,0.3030896652586668,0.18492123607339012,-16.582261723649083,-30.96818386194793,-116.3237650253203
460,-0.5662235097160897,1.3684227372442435,1.7062987097626006,104.93685733785804,32.09773407241075,0.2613219863575482
470,-0.5167176278263307,1.3535193692187932,0.13383680942326445,150.76964740834123,51.88174672067198,14.160018084469083
480,-0.4199832188484992,1.753915573107959,-0.9805115701356444,48.168503008117774,69.80831213536395,26.570335984861362
490,0.16432803391731624,2.055731875965783,-0.5058706125780469,6.519345286551826,74.062851344998,71.45945721656601
500,1.1206834028870656,2.7174224272925516,-0.5621521253024636,25.01394680974802,91.00908322938814,122.8557701491693
510,-0.12483367684579079,1.585542387420076,-1.0407413833319021,-54.95771312624987,74.19747629306443,83.99079006603098
520,-0.7619177452504016,1.0322731824754159,0.8014658224320211,51.944493560258415,16.665164858440168,43.042764771663414
530,-0.8437987837986248,1.0701414240914482,0.761764616954998,50.329944623232095,26.276901883796782,51.07753556294543
540,-0.9893641346314999,0.7090290522588671,0.9421975188539196,19.274850071284167,-10.353285313241965,25.123303292886145
550,-0.541736367231678,2.564907377367491,-1.309664153473132,66.08341723067477,-34.07528815043953,-10.33336307448253
560,-0.38077479596307107,1.9820444000796469,0.14303663794122562,60.5918841777323,-37.40037091552276,-44.97366456554482
570,-0.8965192462711553,1.2699816718284742,-0.2508039397741036,73.50231759425728,-14.53012915271646,-17.095163791352306
580,-0.8639772337424141,1.5424126791113018,0.05463815271353732,66.00197605686162,10.21520453660114,-39.831097446641394
590,-0.8850264065577274,1.369958186017075,-0.0391491746351923,-25.43013885459844,27.518690626261,-35.389237668838554
600,-0.5168231282025469,1.573562262256746,-0.4763831364641882,40.91177674192067,43.16537643051808,-13.959757582714753
610,-0.47778187737258754,1.704311885032576,-0.8588687912495675,-3.508991824065891,59.95216825015365,17.61820928197035
620,-0.5681036731592013,2.016011580107449,0.9325782517661394,-15.64911761153768,40.961378664709805,29.288766679856785
630,-1.3906802610102564,-0.8039106928686595,1.5016184185515744,-40.2815218936205,10.66858864280664,-32.910598901146614
640,-1.332349806423157,0.7166753213209764,0.6823785162118533,-90.74505654040794,4.378609533324156,-10.565405422530542
650,-0.564923309319049,1.311359636981099,0.6700744638749508,19.873605622591008,3.5958666330421183,38.79504062388712
660,-0.5768053699836863,0.8131646518415766,0.9951214197006186,48.045159268761076,-11.336005793411545,24.83086669426102
670,-0.9883198779891622,1.0146745513320408,0.4878646199342046,1.1810523666970165,3.9641098387983478,4.675673219900455
680,-0.8380377065218368,1.0546355866085897,0.5830620290424142,8.229059568067793,5.033553478669734,10.099445830861791
690,-0.8234606073365894,1.1636893961610228,0.61083242060048,3.947330640884574,0.14227800017158132,10.771434750469696
700,-0.843046769842555,1.1461208930633127,0.6064638729273575,-1.5128968330559749,-1.8317111784897904,-4.612349895375194
710,-0.8355646857320093,1.1222938917130372,0.6049865975754165,-2.8179977882264744,-4.427776706147475,-6.503419038080216
720,-0.86239734862568,1.0968402985404662,0.5950520542345586,0.7191216303230463,-1.2244436589439363,-1.3846998520036609
730,-0.8443059463617654,1.0983258693309044,0.617240682530884,2.81489734044392,2.268936005468174,3.6161151167526646
740,-0.8272580188337793,1.1298940601415355,0.6055406378706522,-0.5005405917274564,-1.3913469911473857,0.9657378325998467
750,-0.8247404215879284,1.1413334366446677,0.6134612887978134,2.1647430717059137,1.4496413083820454,3.762899526705154
760,-0.854746266369459,1.1153409796414884,0.5850691627013739,1.1803685172851155,1.0562632230780622,0.33785581152105904
770,-0.834450009124319,1.1160324987741226,0.5946469552082816,5.265606489276799,3.835093370456791,5.976896027761822
780,-0.8195109194592466,1.1430477514457256,0.6163992035416632,7.628750881901793,5.147840865719929,10.216910863514379
790,-0.8656284771642788,1.1132470735532025,0.5473029662586453,2.7477726324008245,1.1239192304805639,7.07103134253969
800,-0.8323904029475491,1.157210280964177,0.6006553868039367,-1.8397773140473515,-1.8796557509384821,0.40587903372048384
810,-0.8339945835724722,1.1278845922530394,0.6032097941270255,-0.482490434294004,-0.9634970083780271,1.760249524898772
820,-0.8470483125858146,1.1255507387847608,0.5793149973295411,4.090192324324375,2.4595397926897182,6.646584642534419
830,-0.8108081869061902,1.164765719474283,0.6166602301975511,1.8210203127658129,0.06726565567582107,5.400141971323112
840,-0.8095749733518763,1.168217581589574,0.6136885640026055,3.398525358200935,1.9384659159202056,7.054065167304967
850,-0.8281433547715124,1.1500143448605002,0.5905866759933022,1.172139329369261,0.3510474031287416,4.437529904945428
860,-0.8284861696273664,1.152763470277505,0.600261794416487,0.4977624359153505,-0.7096913243581946,2.6519900805326135
870,-0.8513104006565994,1.135261465383008,0.583131269464581,-5.121826857953931,-6.041329419486716,-4.466770534087831
880,-0.8462441532845116,1.0969209043250914,0.5905646907544061,0.1847527127324089,-3.439552713201354,-2.331331030554108
890,-0.8188976605405539,1.1503606705369342,0.6012108911684874,0.3874099619636302,-0.7341173179100047,0.31910186849877514
900,-0.8422086571980637,1.1262582674686694,0.5986946404209796,-2.1916668813021447,-2.357143894402471,-0.722191651343971
910,-0.8196725659799993,1.1493615954880059,0.6142633858820535,1.5386222158219263,1.2537822109815158,2.671252995605327
920,-0.8353953411110956,1.144198643382308,0.6055456893817542,0.04598504041501528,-0.30422288542302556,0.025845774028721902
930,-0.8389701586775883,1.1274825546421394,0.5823306597030555,3.981363820283949,3.6760263389546566,3.493285646350916
940,-0.8150921059125278,1.164529838146145,0.6143275780000322,2.0540366300442474,1.0060412560352923,0.3257440999520478
950,-0.8279329076095628,1.1523667246134683,0.5958394828122104,2.0650618914056498,0.4832774492110499,0.1389658733358178
960,-0.8143662404504145,1.164782637793753,0.608737444125523,-0.2148767786274246,-1.1035721675519967,-1.2968312178707104
970,-0.8317592953650502,1.1543335624009092,0.5924666142541548,-1.5398304610055538,-1.1719574417966303,-2.2674188535754274
980,-0.8372992504489692,1.1507727507773087,0.6010332595542447,-5.057563622007571,-4.134599403895046,-5.843389102616751
990,-0.8326571687329232,1.1282208693934588,0.5970679961194216,-2.351992470538631,-2.089002209457064,-2.6414331134538473
1000,-0.8269921412259018,1.1474039567549745,0.5939161575170329,0.9505227806975836,-0.13710177347346653,2.261662598037831
1010,-0.8209003470692777,1.1705099975221016,0.6080830562860253,0.0307678871926666,0.4243591176585261,1.6365108856641393
1020,-0.8413496910158008,1.1363692582124583,0.5844525667705673,-0.12842454738861941,0.18741408950364852,-0.3875254928402744
1030,-0.8271783556345974,1.1492230111739545,0.5936861821887897,-0.26949560741292045,0.045254955911874395,-0.5267863440756257
1040,-0.8287779635594584,1.149950521710886,0.6035147333152596,-1.2381948181705287,-1.6022756084913372,-1.6328777703994108
1050,-0.8173246244400288,1.1493989378402598,0.6049095130442658,1.164633971957247,0.2924225163304668,0.5045088568867214
1060,-0.80679087550331,1.1718203387256356,0.620357836043342,2.882887035052225,2.324498280588674,3.304838542384628
1070,-0.8309984439243937,1.142681286044317,0.5890693608879706,-2.469575270592513,-2.502068083308887,-2.7723868201237587
1080,-0.8442571876915709,1.1326215954058585,0.5846913760275041,3.3467582457466025,3.608555605848951,3.3691740060962134
1090,-0.8156936076918865,1.1556662720783781,0.6155786105959639,0.6279076456697826,0.35267232147694433,1.2902821386430756
1100,-0.8234510381668754,1.1501023461659599,0.6034271528615133,1.099308450524965,0.6832323967319964,1.7424258479442751
1110,-0.8697842844587118,1.1077901866388145,0.5545029870760944,0.716346647296147,0.33781934273813885,1.1846256426273545
1120,-0.8347150700096391,1.138252538914054,0.5849310412186509,1.4421587355871146,1.6721884373239673,0.7525046124135493
1130,-0.8539574813552127,1.120764721142813,0.5783643894658707,2.170714118666612,2.060892796287854,3.0115936349664922
1140,-0.7940748149842438,1.183113289907106,0.6395964028347011,1.871158016220022,1.5905149203779385,2.0961309779718253
1150,-0.839158064203443,1.1388948139140962,0.5860567399598581,-2.4636361607446213,-2.62455055850217,-2.3323074556126016
1160,-0.8705952985711184,1.1019478443162156,0.5547679062057078,3.3158118650133996,3.112771045047398,3.0199131399090873
1170,-0.8145946579587219,1.1676657469745704,0.6142231061428809,0.5699067216515794,0.4172333901311982,-0.009304665006438284
1180,-0.820201638450656,1.1547769820187348,0.6157377792819116,-1.1399644830486169,-1.0587244053031428,-0.9310477969896678
1190,-0.804254263164028,1.1658387149762284,0.6213881418437959,1.6549084752822796,1.5087907836226313,1.7006492828743618
1200,-0.8152862028820579,1.1621913606176668,0.6135025080584726,1.4377301809590113,1.5020113279911311,1.3509899343372052
1210,-0.8305154149117272,1.1482096887368132,0.6019983758718436,-0.7959777838182189,-0.9041247075324099,-1.4152522409173762
1220,-0.8367220944884215,1.1346579165170394,0.595268377039968,-3.831591486446914,-3.5427091689588446,-4.512503488804561
1230,-0.844552555638539,1.1220714228255597,0.5774286623235452,-2.4445666133512236,-2.363047872453535,-2.4407221868195235
1240,-0.8563002509899713,1.126373068265379,0.5771760328436154,-0.2997246364710449,-0.5682142741649723,-0.7726026073990644
1250,-0.8360726565133655,1.1448447327161513,0.5900378546650727,0.47874133257504825,0.7683086255437415,-0.35805950943308074
1260,-0.8680874493066473,1.1010115173765223,0.5581859286732062,-0.24952385672409377,-0.0452035382058609,-1.111058624313641
1270,-0.8247666541165336,1.1481756462663264,0.6049264435518683,0.07684121885271344,0.15894358140104756,0.029016493788876163
1280,-0.8525903552264298,1.1199142498344004,0.5808074488366737,-1.2446036526116588,-1.5217761190079417,-1.376966537896162
1290,-0.8180066403254393,1.1537421995981765,0.6137540575813637,0.6098202035628564,0.5082948201749848,0.4046413180427524
1300,-0.8578821406895345,1.1172689387118688,0.5745182099020318,0.09050676759519882,-0.1518957557538031,-0.3531830689826878
1310,-0.8337061900777868,1.147018573785827,0.5974263073092718,1.5880946314544804,0.9534100518785985,1.5165857181284963
1320,-0.8109949574756563,1.165388586717154,0.6212047934406886,3.1560470874776563,2.4658919912646584,3.0335174294254044
1330,-0.8329520285992534,1.1413461929312534,0.5904685890814879,-0.5844367539472806,-1.3395918182200464,-0.5488246640130376
1340,-0.817707668292832,1.1622482398538148,0.6089233896885021,1.5173534941186038,1.1165097181272603,1.8457999254921837
1350,-0.8370156864787082,1.1361805022789304,0.5902115048384271,1.5524234324352066,1.08724303852235,1.7344693634073907
1360,-0.8170018429723054,1.153986318600168,0.6152386548407165,1.2858630774917534,0.6280309907249076,0.7226061407324331
1370,-0.8236984146476991,1.1414459620199964,0.6012228438820073,0.9886811749825709,0.6288265580724518,1.1648075763802557
