time_ms,ax,ay,az,gx,gy,gz
0,-0.8759864819095999,0.45691379978158514,0.6193873397728122,-1.9440033131064425,-1.1880741641842145,-2.1895804938415484
10,-0.8779734448772631,0.45134167221467436,0.6089187798782555,1.3273454401257103,1.7404060382864155,1.7286658422037815
20,-0.8473422512791635,0.48554146233614753,0.6412014961163132,-0.9236381710868848,-0.7834418405034943,-0.20525276225527134
30,-0.8810580950759634,0.45431209372312226,0.6073688512777855,-1.9366212653499324,-1.410095680944969,-1.211031693857298
40,-0.8846716455855336,0.451645300165902,0.6022610863851695,0.6861542753102131,1.907154499251389,1.0728367184512118
50,-0.8828217911183606,0.4638802413095881,0.6163265194687946,-1.5238252686355926,-1.2862335286064588,-1.9099604060528912
60,-0.8776249271939812,0.45961842802643826,0.6140109943755927,-0.2341042757228033,0.5724534523030327,-0.4781928390768789
70,-0.8853731403393674,0.4478964937554783,0.5991392562876107,-4.42465266721249,-4.651087013320581,-4.687933691824727
80,-0.8506503673084398,0.48646881911517714,0.6398532958790021,-1.6004012737080382,-0.687661182413472,-0.8071979056681629
90,-0.8841375663318262,0.4566855331762481,0.609335399842913,-2.6751746911409393,-1.2695985655719018,-2.0177958775488705
100,-0.875803136545955,0.46135844931261927,0.6182725748873963,1.340534922370395,2.573038068971818,1.4512192522908995
110,-0.8868689824184667,0.4494566247472233,0.6002729039460247,-1.339556500924243,-0.15556581314989879,-1.629287597394464
120,-0.885843516657935,0.44839000031308185,0.6042199474779433,0.10143777360183442,0.26325440100995334,-0.6399139584416953
130,-0.8801960512945525,0.4542392891420686,0.6117189549973316,0.40581598613717396,0.18216788959747435,-0.06277480099311333
140,-0.8745598898238219,0.46046134446562725,0.6201235107568137,-1.9200062546186698,-1.5221909432397647,-2.0982989923185458
150,-0.8726320399175715,0.46133373940716127,0.6132149079075466,-0.3484178557363571,0.3703832415597313,-0.6225743009306862
160,-0.8682450205384876,0.460700637165043,0.6164630721858859,-0.6888573411183077,0.22011116037386858,-0.8162248559747233
170,-0.8638591120791563,0.46958626514746504,0.6242194697081707,-2.3634402095924276,-1.6156749902041938,-2.229855542372343
180,-0.8804722776303553,0.45390400280591076,0.6100041457005402,-0.43669928806349967,0.39294364185886776,-0.3000143128215984
190,-0.8925066509149087,0.4434419227475024,0.5999675571815158,-2.4445249430277802,-1.0913522695661722,-2.3313916576535023
200,-0.8571591678648648,0.4759672343903748,0.6322968842513433,-0.7933318314138835,0.6294996035504286,-0.964076053088524
210,-0.8938064325227181,0.4345658841177805,0.5905555112391163,-0.7811568637978539,0.6831857548383848,-0.9777532881594039
220,-0.8852107094424788,0.44511014025824003,0.6043667534889527,-2.7010110976145363,-1.285223613569134,-2.5867190663124964
230,-0.8792605098734546,0.4546527802283224,0.6125165125846879,-0.2792653577251808,0.3452115124238046,0.07112373312784945
240,-0.9691662035691894,0.4168261777455988,0.5992377899238105,-5.317496243238738,-1.9993938040392687,1.1847206688208198
250,-0.9256175745459673,0.4446714755757489,0.6265299812239666,-8.455381828211118,-5.572725148159682,1.3236666239744865
260,-0.9400755262985131,0.40899619312465246,0.6513574168056259,5.658495564335439,-7.393741846356588,14.46454255530789
270,-0.9530690086530816,0.3956214225848724,0.7138873640585974,26.199130024259375,-22.704390756141336,26.19826393722251
280,-0.8734331539632615,0.4112141904886027,0.669056984381959,34.39014375642618,-31.012804074825546,21.638465285668154
290,-0.7484054229057928,0.5298185281497839,0.6900567659223856,26.130370131376605,-24.784360906171397,17.967770646332756
300,-0.774946987973196,0.5629588854832457,0.698189637967252,14.0653714982615,-19.017970718204186,11.532260371357605
310,-0.8250866075629455,0.5451918944927343,0.6769086286368413,7.804771911476889,-16.46091586516783,3.5372711537056394
320,-0.7714007726438252,0.61292391592988,0.7290988272308643,6.651276190836882,-13.751383503459003,-1.197908800571172
330,-0.8072812261476656,0.5404844127166297,0.6703364188129188,1.2980410815929537,-9.896638158425509,-5.836196140026678
340,-0.835888887869933,0.5372392591721987,0.7013700764648099,-10.612550901357512,-10.237577267400441,-10.952539593089073
350,-0.8530498887716221,0.4871640139902073,0.6685930544471055,-18.253743773624226,-7.700658686279742,-13.69325612635307
360,-0.8689464593907735,0.4621380900741402,0.6318199358633839,-24.053556125053063,-5.93613322053346,-20.151403449747225
370,-1.0241324187124452,0.43328705914116483,0.799164548564968,-17.017528425788196,-10.34867679613241,-22.395906498125225
380,-0.848025171452985,0.5041306680432102,0.6734964994625373,1.9119670802449003,-4.866040371379801,-10.714386133918588
390,-0.8878661665171452,0.46126678369976004,0.510863539787803,-17.881155039641225,-0.03724238009055869,-19.27009584462215
400,-0.9418763285933635,0.5237663913713722,0.22108514100917584,-23.167425728145357,25.25996656542316,-7.971369147302928
410,-0.9981955204630217,0.37998963305292843,0.14231860712840713,5.295657564723033,36.59248639448103,1.992314673805589
420,-0.9379687515420019,0.2889822879733916,0.19385277750551902,-8.092477367471625,42.438599521491376,6.054667216646802
430,-0.9679581885427435,0.4064100438577352,0.6914013889748262,-22.196555285498345,37.38887750397174,-4.015496701585697
440,-0.8029504279816589,0.013967321526630577,0.6932016918133954,-25.45431235687571,32.6040715217285,-9.054372559416688
450,-0.8821343828231939,0.39614276309487223,0.808597729907599,5.288849541704866,12.628523613695936,20.76988759061358
460,-0.8725779276533702,0.37714254305386186,0.8266617753397475,4.9820835754510675,7.560649093162819,13.129586371354208
470,-0.8603254727401514,0.490838423709577,0.8066777140949488,6.306853484650414,3.5897572372634943,12.012114129916728
480,-0.8943484307099648,0.4370366575688678,0.6766727917585297,9.918508126880035,3.8470457434257197,13.832105141396543
490,-0.952952563607298,0.43254670799483186,0.6228377672809234,9.595889318551245,0.8181288543703586,13.364342704080995
500,-0.7687278631763137,0.45184670871454075,0.6511765216775078,53.414613765279086,-39.048663599989034,18.774141035918884
510,-0.7213315641248516,0.5435620237809365,0.6060543881926708,42.51148016495656,-33.904738184617344,12.572151932886229
520,-0.7399381341621509,0.5914416855048983,0.644265277303912,24.788864473227918,-24.134702806025725,6.547185010002662
530,-0.7789256932656763,0.5910306412495883,0.7159689513632596,15.255228709199212,-18.592629649097113,-0.11651857970654667
540,-0.8432388425623459,0.5945141516869861,0.7143522511295957,12.645685702187286,-18.440051996426888,-2.5308565278830475
550,-0.8080961791511798,0.5902925764604151,0.6638216074925296,-19.37011692416145,-6.1950342185783915,-15.50783609721903
560,-1.296615620390139,0.28203711942360354,0.6735074863599956,-41.46884917934595,-11.293930030325793,-34.65535263381707
570,-0.9916163936306494,0.3107277925236172,0.739004776781661,-21.095599602870447,-21.442037551415794,-32.623254748894176
580,-0.9812946299175556,0.3182771742652167,0.5504185757551536,-4.917097778008719,-16.23291290572756,-23.028278810712195
590,-0.860046676046587,0.45318954027421865,0.5239445247246902,3.5036045505199764,-12.560154341061883,-12.692427546238218
600,-0.8837244921558781,0.44785514470341675,0.5189026279798028,-22.285091315593007,4.082407575166676,-19.250673984569982
610,-0.9260805154442519,0.4846632697599283,0.7043699789431483,-36.75453854476558,16.30965862508191,-16.407355768155085
620,-0.7258215020010362,0.34554684187906487,0.6620960963333433,-18.834956809508043,29.268560386212645,-22.97899037020386
630,-0.9394372771648642,0.5258318458253806,0.9182272909677657,-0.36315455804222485,20.11757974149978,-11.163204391318638
640,-0.8510926090600741,0.6098879612453882,0.9147454259627182,-0.7013521724025846,27.765894892538974,-4.72137666879606
650,-0.9436742430703599,0.4816544868296652,1.1249849457480698,-16.274770555848804,11.681101741123875,0.830468083984023
660,-0.7690431560639939,0.42705180973301055,0.7275648165006691,-3.2893981868856277,8.718039703784664,23.99239874835921
670,-0.7731654246710411,0.3148962452804963,0.5917199347212334,-2.6765351738827694,1.5661559298153545,15.258584506441975
680,-0.8253780378571524,0.39074031464379927,0.5608871946002956,4.495350993915693,-0.6880194214595987,25.58400997460461
690,-0.845363718110433,0.5917708686088631,0.7970138708319776,31.22640695346039,1.7593287664802832,16.950409998588785
700,-0.8381154322859897,0.5556703295497472,0.7332719131369516,27.86589818471187,-0.5155204795923715,20.66440458700876
710,-0.8575198472818722,0.4636957833421547,0.6493768930878915,3.924794094703005,0.1211201817554346,7.501696949137016
720,-0.8486368883201372,0.4884109377384157,0.6760303357823187,4.565444234053883,2.001678654489565,7.359239754633204
730,-0.892274884312279,0.4264172481467349,0.6398917539899759,5.274906102911427,-0.11895295414060625,3.9754158992877615
740,-0.8481509947259037,0.24105603885524132,0.5764660874599681,5.8853634678427085,6.969297997004655,-5.987084840238644
750,-0.8281525852987425,0.37944753197490994,0.5997105589746192,6.76076174502553,3.9312173230967673,-10.71583643217841
760,-0.8335029260972344,0.37997979009731925,0.6038927318341318,7.981921329731261,3.5624380580469315,-1.447034083070906
770,-0.8728706544280674,0.39794596067022514,0.36612715212560826,-0.681762440601984,10.653694609416835,-19.477038249500087
780,-0.9103435236834186,0.5582501537977853,0.6727892526367917,-6.689369375087097,11.558467404044823,-12.481575593865946
790,-0.9452373958311843,0.6336077582997434,0.8880467828129341,-2.2661158039279203,15.48668593107692,-8.424748209755533
800,-0.8896293064551811,0.6990916653385738,0.7670797720188715,-5.1954558390927374,7.4291486336160055,-6.620911949256959
810,-0.8630049206662935,0.5863290843339517,0.445379256437216,-29.937087317983913,20.804141907149152,-3.211397679475265
820,-0.8818956410806315,0.3672933462169785,1.2112658065689366,-39.97175824191811,13.508679972978697,-7.537963717461359
830,-0.8854760144551349,0.44292730843508216,0.6207376884023467,-26.40350990587317,9.354191634109133,-3.4112899012447064
840,-0.9032615243560823,0.44189041074111646,0.5178368726821199,-11.724642472143426,10.96979506333301,9.613251595070185
850,-0.8604076550044502,0.43846111133127824,0.5886689405915276,-5.9927653359559185,3.7079083024097557,6.467711975489149
860,-0.8463507740551439,0.3866399667822812,0.6489305162108349,3.106285745821055,3.7147699003408707,10.239902412583376
870,-0.8413903684361564,0.4445640129615889,0.6271567730937991,3.5391901214149866,-2.1125617540873023,17.680484554878984
880,-0.7551177858442741,0.17080032342370016,0.8844525545111822,-8.391023143320048,-4.227609256489268,12.204382854912046
890,-0.8791194633333547,0.2976857813254772,0.5680560620923975,4.285007671814715,1.6602964283609034,-2.0203476904411057
900,-0.8471921883762882,0.42216317655596736,0.5954283692986115,7.538696222289306,-0.3319924023062464,7.808181004450844
910,-0.8350832023614945,0.4615733788489827,0.616669840687156,5.1655922873491225,1.2741036308940943,6.0733144550307685
920,-0.8716568833277233,0.473098255911183,0.6143702314961236,2.3492303101813947,1.2246709395825235,1.2676804370006542
930,-0.8375138479983554,0.4987038625714188,0.639214056524071,-3.4989226734736723,-1.4428626044230262,-2.9725556480468254
940,-0.8637698707707196,0.46691058072599023,0.6181653726287603,-1.7659290661792653,-0.04020275406707093,-1.3181413119393552
950,-0.8677313297609548,0.46180520010403153,0.622674466517284,-2.037688972700031,-1.6462711859653805,-2.043644953628461
960,-0.9022941657483625,0.4292964507215109,0.5845364875369083,-4.049070805078701,-3.534245444282514,-3.5405724650260155
970,-0.893184314825898,0.43848662195896704,0.5905038809351699,-2.6608179082758814,-1.6534739433735566,-1.7780876748688277
980,-0.9169377081811537,0.4190374949967378,0.5710208238921282,0.10750566496450586,2.0128791321308315,1.1197787257088725
990,-0.8606283300589812,0.46359542166958256,0.6280977483254626,-1.8397470114755148,-1.1165364736127807,-1.220956691223575
1000,-0.8877078426107397,0.44923679562359925,0.6009524379260797,0.5908134434515724,-0.15442508997124949,0.7530233080283117
1010,-0.881312925550231,0.46059500203046627,0.6016614699797159,1.065606703331551,0.7463168245385005,1.1584574743631366
1020,-0.8610186849557897,0.46869633324263077,0.6253828949540859,-2.708608887829926,-0.08177312350511302,-2.6320721954134454
1030,-0.8937086087432256,0.43034746439039034,0.5922205783305451,0.9056364133058501,2.564405719055988,1.2065386733073595
1040,-0.8491303254588225,0.47308976260679064,0.6371970022244877,-2.123099238557095,-1.2231451128090018,-0.7604559793934766
1050,-0.87057343799651,0.4629705806143063,0.6204698331513084,2.9348704864953055,2.627516704385906,4.575877712107047
1060,-0.874081729431446,0.45617393251840654,0.6102043377676637,2.9063710486677836,1.1569162608493895,3.556025917930091
1070,-0.8788517197579366,0.4606426420396913,0.6018783063986229,2.1255442903754034,3.0737796844916723,1.4119757179247592
1080,-0.8810339031990125,0.4524798632171875,0.606497623259931,-1.953883236330137,-0.2579116204421654,-2.0845915401619015
1090,-0.8809204914343798,0.4506709817325076,0.6025868660563894,-0.4051131647452565,-0.10387075380987831,-0.3851266213298202
1100,-0.8911280294647552,0.4438577649526374,0.5914892007362058,3.8022005090129007,3.298079617297152,4.400642314677114
1110,-0.8549581280071347,0.47684384414490427,0.6269960394855467,-0.11477131493456227,-0.0710015820939165,1.5369388466500467
1120,-0.8945567588075767,0.44446523040409475,0.5867538921642342,-2.146441310946357,-0.4846777485636451,-2.59203481718246
1130,-0.8732549700406743,0.4575080590064168,0.6080350470204321,-3.3125699414924146,-2.028318366283524,-3.5920391295247005
1140,-0.8586794342028345,0.47552858336944154,0.6285859992854312,-2.142245719062086,-0.27830419778478865,-0.7604513736976973
1150,-0.9158544518350268,0.4220252331624759,0.5752046456177184,-0.9801493386523026,-0.09874821492989533,0.33606928296802596
1160,-0.8717628612935151,0.4661220917171541,0.6186274335677445,-0.32365857559354094,-0.26774918785588575,-0.3144564779979925
1170,-0.8809806790829966,0.4458242765705883,0.5986833554165177,-0.4693748143263643,1.181222644731046,-0.15338096194083994
1180,-0.8756074218553755,0.45526067818396077,0.6101250390937818,-1.059798891992966,0.06713891762790736,-0.1573249532100015
1190,-0.8557429988869809,0.4713979191916105,0.6194679094732128,0.7307456309227962,1.2252222138823268,0.6653583516480441
1200,-0.8815042637698199,0.44964071453357873,0.6062853493711627,1.2979450477313361,2.0828853555641045,0.4142190418259817
1210,-0.8946068764205434,0.43869626418232166,0.5970086206305397,-1.4501792890396676,-0.3230796811524901,-2.799108560650615
1220,-0.8950278347256266,0.4310320588971409,0.5879833866701263,-2.15533508231512,0.2705942274779771,-1.8802159845094861
1230,-0.8799975462160244,0.4473156075105318,0.6000328092773772,-2.2250311995239693,-1.734769386755917,-1.8653596835480997
1240,-0.8765780769871995,0.4499026070257747,0.6068446031782814,0.20881082605574863,-0.11509579710686157,0.16006142248922572
