time_ms,ax,ay,az,gx,gy,gz
0,-0.5644658654135127,0.9493498354450046,0.9498105378699744,-0.4238054756804768,-1.332750072236721,-0.9365627869394075
10,-0.5915443817697098,0.9140629870832622,0.924751156313966,-0.27000025960495144,-0.695242638081425,-0.8368595019886493
20,-0.5798632677718326,0.9321299349084687,0.9359758842988215,-0.6703669524296193,0.12987324282687915,-0.27407625566791993
30,-0.5885960921389636,0.9227858312699998,0.9276655097008821,-3.6371515253887923,-2.7679994444640545,-3.210928468356985
40,-0.5770686908110876,0.9308375628110815,0.9394040004168775,0.7291960259297529,1.5675493093851585,1.3420751777096238
50,-0.5854421442222749,0.9230341001413946,0.929665589173852,1.3924413627190242,2.4220997336067116,2.6459813487914006
60,-0.5749939136865528,0.9307409738052072,0.9366331255671231,0.9647538583209414,1.4609523342056736,1.9636927866014875
70,-0.5748065564057199,0.9250259650961208,0.936607493602426,-0.46585469204900554,-0.36278474345429945,-0.08684081098788313
80,-0.5818085661558041,0.9172684216264907,0.93184485208241,-0.7916109319435464,-0.055988060073086786,-0.4572135267275212
90,-0.6021041902507005,0.9001241113316911,0.9095578980533887,-0.9367560985278164,-0.19479680190610604,-1.1409159078049091
100,-0.5892178618119279,0.9165145410419003,0.9305342936044103,-1.3323278084879444,-1.156799517219067,-1.6193541166618035
110,-0.5828629851193192,0.9180057955279788,0.931872811541761,1.7843564780140104,1.0491109553065119,0.5370510961034086
120,-0.586263032056126,0.9132198362660813,0.930641270135568,1.2096027037834696,-0.8310847457485071,-0.7364947324670928
130,-0.573779522882528,0.9287432065703322,0.9411460827907289,1.6028094932118861,0.21865230661322355,1.2083609972994334
140,-0.6293855916850701,0.8882170859297238,0.9496184975725374,-2.375908281414124,-13.792729460052488,-2.5371187864317406
150,-0.6055079610604279,0.8344350906781918,0.9743031959282517,-0.5556494953500695,-19.389993851902375,-7.617146526380224
160,-0.6027792051584222,0.8396609162728079,1.0429507013896755,-5.0695732183264095,-26.233277857240367,-13.366658194885527
170,-0.5837077355301226,0.772875363510233,1.1074199781408798,-6.559893873337343,-29.58938893723559,-16.55760703274034
180,-0.5522621953285342,0.6815779690329042,1.1008802376389581,-3.335539223052007,-31.676309104943627,-23.271610112294578
190,-0.464132461413988,0.7760117024355812,1.1048025323623047,0.37355596926252976,-37.58220240839401,-34.80516945795316
200,-0.39511511495126256,0.8832714279556584,1.019416021189214,7.749502135706848,-30.43409041155487,-27.411545627795856
210,-0.3004868979303599,0.9878501335241435,0.9070528325162313,2.3072414206817022,-5.73467300965091,5.208104297058297
220,-0.4267780624532963,0.8827228075684541,0.9183299470283157,2.2860659231684575,0.17073633500096036,8.163864063767289
230,-0.5298366173718474,0.866848636069615,0.9436780782949253,-8.262311411028985,2.870476083282739,7.225314330599209
240,-0.5784448922309842,0.8973601088540406,0.917676184841323,-17.071223358554445,2.0216339975842654,-0.4831779004870077
250,-0.6739897300073321,0.9717989155500376,0.9514941709721084,-19.587209599013946,5.437735841794329,-5.075799261547685
260,-0.8031984288577746,0.9661217687116079,0.8865809912978488,-23.43224587119277,2.6444398059791228,-7.8744424141586915
270,-0.6951044516438722,0.9866122966857842,0.8980572890719367,-16.34040162900677,6.387294307956578,-5.301369067865192
280,-0.6815260530627185,0.909425214667011,0.8926285624513043,-11.1754443068032,8.886947215165765,-0.004765166931933296
290,-0.7196943123396287,0.8642495978256335,0.8403816264823467,-14.422375361739531,9.697843700186748,4.991266328655865
300,-0.7102968925380906,0.8337410643461743,0.9047707967170949,-12.9062112827846,15.170289607609494,10.554906434103284
310,-0.6228223389680119,0.8579168933653633,1.0742210746453,-15.806083943095398,25.22426351675259,16.288123136090373
320,-0.7368856728987732,0.8054297121714227,0.5693735547464261,-42.81149643509444,38.360581245569456,19.67648539611945
330,-0.7351461478288513,0.753540811165412,0.6645230294131274,-15.248696622070442,37.74376223895293,11.142040167974526
340,-0.6273224978811505,0.7257634120698261,0.15736944506021563,18.060289247048456,49.81454751401637,7.477099094826662
350,-0.7584249645813346,0.8692516504780595,0.6416054684645756,14.455077225757517,22.56655818935242,-0.9866497216743129
360,-0.48899400801982323,1.02689835918368,1.1940761035120906,42.149061506857876,26.669532106358233,5.65718904734567
370,-0.41529835200399207,0.553207865280054,1.2311409654013528,9.169871062276457,16.007989929032476,-3.6313420151917817
380,-0.37737873635424235,0.8911584248183,1.2230831413302992,7.194277209359084,1.8776314929807296,-7.724901042504121
390,-0.3396297022740092,0.8092967968822627,1.4279453808876534,9.194060729490948,-7.9390428111936,-11.007892919109947
400,-0.43087482581494285,0.677661689479206,1.3177929377596374,22.56829278908495,0.9752877717533284,-4.149441373444674
410,-0.5754302983300934,0.8554970188809411,1.0044061318725375,42.827069939420035,1.4961682644559025,-4.306196285622363
420,-0.6022345551374226,0.868888698211401,1.0100097227515945,44.16270895615255,-11.18105304544385,-4.549997119778853
430,-0.5307435606483721,0.9534796821573828,1.123990192394572,21.222245968456566,-18.75713146575563,9.743779920937707
440,-0.5897040564819737,0.9350912989611294,1.052308534182005,43.0335389086542,-26.33526501524416,16.407012862187432
450,-0.5677473093606088,0.7631640686189073,1.054626576949588,25.794478598425552,-39.05948706482194,28.268690896916837
460,-0.5305985671749158,0.8205599627294369,0.9822814948276938,13.992635071109383,-34.80067177823544,30.078391412658675
470,-0.5091564753487784,1.0081866981949523,0.9718622208914615,-18.735711735893034,-31.969634966495512,11.821320750628288
480,-0.4765138361532561,1.0660360214313733,0.8839693443130208,-25.38500034281508,-23.548950887147132,10.39433419915611
490,-0.4116543251587176,1.1311056728524018,0.822055355583787,-31.569889008827598,-15.234742096380076,9.377076680630257
500,-0.39270810173483306,1.1429310047621446,0.8211624550289557,-36.619829697872326,-5.658642879332117,10.30304632529354
510,-0.4351436596464202,1.0532034949202793,0.8441286565505688,-38.302452309168544,3.9732264845999086,12.832629799862344
520,-0.44663417106803355,0.9583460684159837,0.9091475955842838,-40.370933329093276,10.169920706267531,12.311890241652614
530,-0.5657511912696167,0.7873958149312337,0.9227644402919075,-33.461360971974614,2.8874200303159143,1.2664814453538906
540,-0.7068728083279189,0.7083187266715922,0.955582876342938,-6.064570392093671,-7.388519469193044,-6.928106639189684
550,-0.5818893203535116,0.9524339807906902,0.9991315104982339,-12.040092884184746,-8.664072998354847,-6.603642219214178
560,-0.5516646642659193,0.8129115590531256,0.9565569608939306,-13.706443142332294,-15.645060005540858,-12.846034119104273
570,-0.8433664353623185,0.7886691479410534,0.7521058962279777,-19.451600224307235,-5.836353541943417,-11.566677395215182
580,-0.7727944090419943,1.0301189370863488,0.4959349578133751,5.934108774057501,-1.2490931556274603,-10.198836819417096
590,-0.5888425985459351,0.8700114569405349,0.5758903945842162,6.71210137911503,-10.835090305515145,-21.924602112521196
600,-0.5790990221578985,0.7372826196275444,0.9879686488778727,20.481867994954097,-0.8063794305544159,-17.96505354621571
610,-0.6492679151532128,0.9552531031477821,0.9255589055326445,5.820017495677955,4.647046905559186,-9.624841942156529
620,-0.7150372016201737,0.924136246872041,0.7263281951426497,-19.037878053178122,9.340731983180024,-7.882144346627006
630,-0.7592410222779814,0.798222421177335,0.6750125560855459,-8.559979735948088,13.179008798911001,-12.775681863671599
640,-0.7728470520433046,0.9216064014172757,0.648568495365628,10.871378320694799,15.591559349951943,-17.33993123653806
650,-0.7424819495145598,1.0261659920545667,0.6667113363234297,4.43530532002824,21.104284597609677,-18.879751121850962
660,-0.6010237918930055,1.0789356539121244,0.8941856078952696,19.20245172186504,17.50306488597027,-21.51022855170543
670,-0.752561524287628,1.0830520402168233,0.4048312655373718,14.912168696510783,12.527224774084937,1.0353805204038293
680,-0.6600544871715476,1.0785513833488352,0.5874733230877942,23.555328554914173,14.20446254103045,3.403060059160207
690,-0.6912192129534818,1.2428387957938192,0.6019223020264243,24.108117401446876,8.682249673738445,11.16083767449755
700,-0.6589056747593981,1.251649009729976,0.714486355392669,-7.2594891690103065,-0.09007676939072784,12.720637264987747
710,-0.5355901595778814,0.7249830920272871,0.8945571896855348,-21.267296120358683,-0.19532625562630823,9.97733630004792
720,-0.4504800761271357,0.6467619718274424,1.051922336032834,-8.131987837495897,4.040915268998125,12.874905603542079
730,-0.5406607661283758,0.6200222012252075,1.0878980045968925,-9.720008035923767,-1.8746195106640402,5.358156995224359
740,-0.5875256111966622,0.6536807543790436,1.046941928534206,-11.052383874537284,-5.540186374397367,-0.5175501923504182
750,-0.5952686423698644,0.7541189029617964,0.9570842732153035,5.5252649671236345,-2.0911130224573684,3.1468031910325633
760,-0.5794823287461492,0.8407915020089327,0.9617486334510658,23.026676820433927,1.4352404897724442,9.823613973520033
770,-0.5673494687530122,0.8459107542689914,0.9619552797862609,20.247445221220644,-1.559789507965173,9.801274304802257
780,-0.5826608273520871,0.7147200180276005,0.9159176564253713,17.019956822946043,-1.3087950764410747,7.0256229372496835
790,-0.5290149994201028,0.4196214812029754,0.8335227531074338,-0.7493403046762639,-6.14602590494922,-14.867233708430946
800,-0.7334728235482422,1.0477568011592069,0.6133952944637566,3.854866876910582,-0.18735806318955195,-20.37625690321493
810,-0.4896275633117726,0.9470583747627929,0.7949058172994948,12.549158329728249,6.629254591858245,-24.36334295662146
820,-0.6106630453080371,0.8283840321838842,0.8882002549165214,41.449711445248056,4.481227854926126,-32.9303407906777
830,-0.6053102290406744,1.0722433193516652,0.9368858810331945,41.25002818661406,6.210710300305561,-29.013234980988322
840,-0.6405782918420756,1.2161233856093268,0.9072630097376655,25.83806934469035,5.405428650897038,-26.765508031943334
850,-0.5641865346125773,1.2293345035913397,1.0196958830922889,16.180826599730928,5.002545788250042,-25.050644363164892
860,-0.5006451633822228,1.1207046560934308,0.963179845775469,20.804039545719586,13.801581453618715,-21.036447032074463
870,-0.4616278407213448,1.1235788951287895,0.7324591929042584,25.741527313015364,26.615825171369185,-12.855849931713603
880,-0.5146563968763789,1.1781882070768235,0.634699680098739,12.96790831960979,30.37814253829416,3.815249092855116
890,-0.5686052474737577,1.170334838130182,0.8975948123180728,-19.947809983112595,12.777809949643116,2.4713520200949795
900,-0.5181142808424456,1.1795043616255012,1.0846602777047565,-36.23761331180137,10.615690245372216,5.402901459871115
910,-0.579563797585997,0.8867846453912356,1.1473485980587168,-65.20695814781928,9.887622437737331,5.32025828348548
920,-0.42164438722740016,0.9603717197347171,1.0089598443350944,-24.261522642577972,3.2261538499177362,6.395949540398246
930,-0.5806388629148301,0.8336249241589927,0.5759359719925876,-6.480185346627334,-10.990420424454843,15.078708740226816
940,-0.7381233352136334,0.5990852696399677,0.8566257622291533,-48.596341093115086,-5.158634225339079,16.904090468865135
950,-0.6528766144202209,0.6495351389754234,0.9356847614305125,-34.61116422249126,-8.589717689306152,0.4572580870101608
960,-0.6395905214529745,0.6829292372091126,0.8674652395106761,-10.882440328061998,-6.355269675245323,-6.0899978781253825
970,-0.5946483358192609,0.7762952759885211,0.9430416824558022,-4.457999729469786,-0.04236640697453797,0.8734116660758297
980,-0.6091752816444465,0.8111288554646829,0.9082572958190164,0.3663818300424886,-0.9486114553130919,6.825003675615735
990,-0.6124837988328423,0.8419925669436409,0.9068609381663827,5.979721481153579,1.5196831491266312,11.492164465155062
1000,-0.5926730412101014,0.9083233378026934,0.9413172010780727,4.623867676006797,1.5518717451219064,4.288034901116634
1010,-0.6061463275355483,0.8887494664966255,0.9312984212971518,-2.45392294372719,-0.8968213992479279,-3.492062218380109
1020,-0.5795490649834125,0.8928895801794289,0.9477322382823979,-6.557404775402999,-2.3442001597238296,-7.907058440367232
1030,-0.5911301737066534,0.8718592328199516,0.918526600499132,-3.402798285592616,0.6543240170373787,-4.984996412218914
1040,-0.5769683381178428,0.881146565379181,0.9384817188365694,-3.507071749358805,0.3671478348284499,-2.526350837090849
1050,-0.5917071683024608,0.8592463737877222,0.9233872693105862,-1.2114917860521695,-0.600189965374311,0.2431306256684992
1060,-0.5958552581141074,0.8655980092200262,0.9256693856408227,-0.7308105522585341,-1.0560095210999443,4.588665056563532
1070,-0.5567177410950883,0.9088434169845095,0.9723258923306991,-2.8358841332503384,-1.1096559776991146,5.914575837666715
1080,-0.5990182679171043,0.8765193457653389,0.9293969714295834,-6.925742197841176,-2.7359072490137435,2.745162113452571
1090,-0.6043942446960889,0.8776287246170955,0.915524219042739,-4.479920610626056,1.3828719036295394,4.5951898306455785
1100,-0.5536360833363522,0.9184632665489904,0.9655552874447281,-3.3282698841551515,3.9974376559343607,4.809785971578826
1110,-0.5907438137475158,0.8811574627358454,0.9402555360382008,-9.664394404957973,-1.728020307123206,-2.7701334509238826
1120,-0.578790249987162,0.8749278852314805,0.9367723221601573,-7.226045255281725,-1.872311106061567,-3.7628966791361265
1130,-0.5617982034663044,0.8886326919668676,0.9582827590217873,-2.3721696648677,-1.3817608573434823,-0.9298403490054701
1140,-0.5936722976835114,0.8619467348999973,0.9237471716492798,-2.0792501327252637,-1.1158310174310042,0.5869919862043655
1150,-0.5728771298066161,0.8695086115643056,0.9449275621858969,0.11730323813880877,0.10335867055257089,2.8146960003527384
1160,-0.5802984374215251,0.8699323909022043,0.9412849211880358,0.21305718077154978,-2.3639637750960727,0.9626608864700721
1170,-0.5614233980830418,0.8927914808842362,0.9547592640059769,6.567815912962024,2.320405649754411,5.935821730830705
1180,-0.5860447751419113,0.8779326185792536,0.9344383807346887,4.317139554998015,-0.36650311598888374,2.9673382597748423
1190,-0.5992747425123522,0.8675170625171787,0.9217748250013948,1.7351325672020894,0.21598502821452015,1.3883590078065862
1200,-0.6193416344672151,0.8418072879878132,0.9008635486542279,0.0988598504103706,1.674723431391783,0.798857479135803
1210,-0.5926224205753886,0.8675523305434758,0.9310252513142927,-1.659735003969658,-0.48524197130575525,-1.547422021568369
1220,-0.5916705477985608,0.870158542205161,0.927252679088714,-1.507784692870524,-0.7205473761696572,-1.6345481050135993
1230,-0.574998541876973,0.8809712973797215,0.9422247627152367,-1.3849459538416657,0.04612375775531696,-0.40074229783227755
1240,-0.5709480028545992,0.88873508404715,0.9486215823488109,-1.514564845295205,-1.382935695479289,-1.7724927717694938
1250,-0.5904658356212892,0.8666382232573395,0.939867849895052,1.0834574307163685,0.8560387007230839,-0.1694382680761536
1260,-0.6005347780132821,0.8594418454514798,0.9117659882294326,1.4549300692328702,-0.7828460517803709,-1.9066835927295895
1270,-0.575328847552004,0.8879521231909598,0.9437547367237087,2.0073412191328215,0.7578912003487276,-0.8470253095558632
1280,-0.6085446205322612,0.8566202031235156,0.9113750404368473,2.868852566446783,1.4791454996264288,-0.08128510428915536
1290,-0.5916236184464958,0.8696572338561045,0.9281190275673494,2.9575214116811828,1.9920328978628252,0.6976497503602825
1300,-0.582527272558919,0.8719638460482624,0.936095073244594,-0.07618106664141044,-0.9780721906700879,-1.3610888771102747
1310,-0.5880518723919796,0.8633229238428118,0.9323841709274021,1.4274566969714275,-0.49349831340793904,0.6017523323761949
1320,-0.5582062220720381,0.9016145495875465,0.9649782387463341,2.113789374291896,-0.7849079211926384,1.4160055724029499
1330,-0.5909445611736881,0.882443097805137,0.9334348794220693,5.5470760416381975,2.9822532880618167,5.179640075146159
1340,-0.5873151530293863,0.8845079908018718,0.9432362791691214,1.866434762959718,0.7377151066269623,2.1662346286224485
1350,-0.6051784975951293,0.8685843606982021,0.9120912545371958,0.9931984504584491,1.179649908988441,1.9208784309332336
1360,-0.6033650903629639,0.8716888271266667,0.9188961611373075,0.62141562309449,1.218286460762486,1.4407663371493153
1370,-0.5723944438566513,0.9033114564307724,0.9474641886594551,0.34151218467231703,-0.39723170803809904,-0.1973602088815305
1380,-0.5940893787202343,0.8804028589260372,0.9267247479554662,-1.2388767506469254,-1.7371949949257592,-1.076314686480262
1390,-0.5766951493815615,0.896421000257697,0.9394183434936699,5.009805795752958,1.4500279258527482,2.1634181209026826
1400,-0.5850594422242059,0.8957525445814452,0.923916021632523,5.132389480125019,1.4924138454728413,1.6616206545139542
1410,-0.5760468971554726,0.9000345638656245,0.9249679667056878,0.5258246064195016,-1.6385676129759237,-1.9781351504132267
1420,-0.5916860687564878,0.8843042458414757,0.9210336758603855,-2.9720229637710798,-3.725759007985365,-4.110728832715542
1430,-0.584838164732974,0.8988719305216665,0.9402767285468531,-2.58731966461311,-2.493864149270503,-2.5701059486429276
1440,-0.5927463117115804,0.8814888772268323,0.9248655243848859,-1.2765378185639942,-1.2451952729814348,-1.023737552441635
1450,-0.6083830458186924,0.851620110773987,0.9118194341535324,-0.14747830710986998,-0.5065368217423442,-0.014936845653330977
1460,-0.596510198257323,0.8919002639104356,0.9234524595711533,-0.6612119830653931,-0.927975194308309,0.027919168853563603
1470,-0.5747915190054833,0.9143898992211036,0.9368782586227248,-1.799602460665295,-1.2203837737172012,-2.3353505908036323
1480,-0.6029525305713699,0.893212182219684,0.9287915794024707,-5.064542219750745,-1.0452094013873263,-4.639535436806243
1490,-0.5655034504406107,0.9071472998275377,0.9589502461228334,-5.037271089469276,-1.0760384143047106,-5.554711862920914
1500,-0.6047207783006969,0.8587305374313342,0.9102017284612759,-2.8116238587784954,2.4534438508297436,-0.5741792937103285
1510,-0.5910529584046209,0.87499464433225,0.9197966390598964,-0.8072185473611584,1.8043086228599239,0.31705443950255563
1520,-0.612346138980571,0.8634144800409208,0.9035495488881826,2.0452025760678456,0.3867970255576296,-0.47267053115096125
1530,-0.5760865183268323,0.9070275747798441,0.9448934330097655,3.5161405302356803,2.0369692414671983,0.8786402102236477
1540,-0.5765948213879384,0.9071393902647571,0.9460081021591064,-3.359465667452729,-1.4988597444270846,-3.4966980895537754
1550,-0.5845593304856164,0.8928133052518483,0.9361264132165686,-2.1943796920988214,1.9034913459517442,-0.6943958603532492
1560,-0.5787837616467244,0.887069705031368,0.9350363023517333,-3.1562163266001195,0.8797199805239653,-1.5562828809130633
1570,-0.5851256127454103,0.8749008111302847,0.9265512942421169,-0.6037395258341269,-0.24616827491856857,-2.2526621143247723
1580,-0.5854993350191959,0.8821936507264593,0.934201148740219,0.609335483094542,1.206447380309192,0.5715788667135012
1590,-0.5971659838929375,0.8771931952505996,0.9329802448171003,1.6251112962407048,-1.6408278550063695,-2.4508771489795755
1600,-0.5568635627436053,0.9158215110467294,0.9596160298458547,1.677199471118238,-1.4256154953184603,-2.0679302654870098
1610,-0.5707229594350157,0.8926952168846667,0.9401751883229413,4.267218889045833,1.6752613366879054,1.426256127740654
1620,-0.61125482231954,0.8599100414948632,0.9077024520750874,2.8726990558667436,-0.69599791842702,-0.6178025979022301
1630,-0.5912743404485988,0.8676775924336917,0.9272792005043848,4.368051954544872,-0.46759246227723983,-0.11993865822290817
1640,-0.570381367125491,0.888005742131508,0.9474160402515774,8.370653169131453,3.5681539800012536,3.7892219342275038
1650,-0.5898511478057089,0.8916723207782102,0.9302619083956388,1.7568083460879376,-1.0065880099927147,-1.395168138435925
1660,-0.6214991613545706,0.8749454151397469,0.8990133429170578,0.7122101190642688,0.46446110994949374,-0.07714930164173478
1670,-0.5873061321714627,0.9028416116109644,0.9311411263714979,-1.1972844182573197,-0.11927970250514797,0.14363116416136146
1680,-0.5754810719572859,0.914010656300262,0.9397089666206001,-1.3597783744692489,0.9122541017882403,1.237189415943689
1690,-0.5972553284209529,0.8856282962363676,0.9185117969423672,0.4996215197236942,3.8319842178462293,2.5075199923800007
1700,-0.5911681211217725,0.8907442424604692,0.9297232653246787,-3.857647025654914,-0.682085586367384,-1.7010304232845574
1710,-0.5895607064166605,0.8918245910123707,0.9345016028868948,-5.628814642184324,-1.1472560033065002,-3.521449712642947
1720,-0.5917788054140546,0.8737918879650054,0.9345436148972338,-3.8984824659039576,-0.672724729740536,-1.5922349245107172
1730,-0.5654290553054147,0.8902160810357295,0.9555091816519117,-2.544389297145895,0.00013346305426803484,-1.3725182780627583
1740,-0.5908890942517196,0.8647307474720725,0.9253254111862098,-3.7256689184622545,-0.7522519930277307,-3.1691283665186525
1750,-0.5570429894265564,0.914643106905634,0.964151379033388,-2.645484422384647,1.5008845242127717,-0.46110034938743705
1760,-0.5915343738955774,0.8739940762856991,0.930057119177871,-3.0329261059229573,1.465853842237489,0.6953506053775989
1770,-0.5855953810156803,0.8728938126419971,0.9382020879391818,-0.35170713863966996,2.57075533536235,2.6291271083035603
1780,-0.5996130872435617,0.8811218627307091,0.9316192407369237,2.2915587159249347,3.1447553425688763,3.031401418980309
1790,-0.6107912366271829,0.8675759063148037,0.9078210639991521,-0.9730397240769166,0.2095156312617338,-1.5125767853671284
1800,-0.5629199601690351,0.897166358300067,0.9511692887855869,-2.6086424064417586,0.8246226295106058,-1.605246234223996
1810,-0.5991339267113939,0.8748560013781597,0.9257541637440337,-3.3943513464220585,-0.9510059520265552,-3.2193566319387115
1820,-0.6028476766381656,0.844456534948444,0.9205574726939387,-6.423963062032802,-1.734083746466835,-3.381805503585936
1830,-0.577607777799759,0.8874016946833275,0.9606310577951307,-0.7996597889193153,2.3557027535494885,1.509648720546433
1840,-0.611197035386049,0.8467361136525515,0.9166737583451446,-1.0129576680210584,0.5176064547585455,0.3146464841262058
1850,-0.5968305736244051,0.8630680032611668,0.9179800344958569,0.21174158888937486,0.5603985711962899,1.4639056083620097
1860,-0.596944376115545,0.8712611791118441,0.9210772861928299,1.5913893007544173,0.8234697877265716,2.035681117999921
1870,-0.5973614837055381,0.8765351648968582,0.9299758572793917,-1.385147661253802,-2.484230735944942,-1.7125509102279963
1880,-0.5914222938733371,0.8862623949162478,0.9342009208606932,1.237223734657953,0.3183910011047743,0.6363769406889386
1890,-0.5689312998946344,0.907082583612697,0.948099813818632,-0.011342355500067014,-0.5658548759998427,-0.3821358046687263
1900,-0.5823163253190079,0.8842736544238234,0.9346570087235647,1.7507486473616551,1.7824274537794156,2.045838905116871
1910,-0.5991603799606618,0.8697041388454675,0.9201364619038216,1.8326211288451888,1.1720578638310302,1.432309923218186
1920,-0.5875870380061516,0.8830616348194799,0.931067422139224,-0.014621125990925798,-0.7137842806409553,-0.7821544407148868
1930,-0.5751715801506148,0.8883825191931045,0.9447627837651047,-1.276636933090686,-2.1553069362502217,-1.8933295028675599
1940,-0.6151893901896353,0.8561918036278755,0.9149587204845963,2.1790477848842,0.5701788355434578,1.7993367248685583
1950,-0.5726012518464996,0.8958923525824181,0.9488371235495568,2.1485208545922827,0.0179027229948594,1.7048845258513552
1960,-0.5961937471455478,0.8822577435885124,0.9245510873708449,3.3020912942330884,1.7628443019842162,3.8461622610812296
1970,-0.582091822751042,0.9002344647398579,0.9390973135572825,0.3540228730000934,-0.6411289314614612,0.4310579614121388
1980,-0.6070100203989434,0.8549075319925816,0.9091294563521811,-2.5478664518834515,-0.7052141104790848,-0.9890327357239419
1990,-0.5787512901847593,0.8739632402468247,0.9343296092286555,-4.145778621538617,-0.2697899761903405,-0.5504418703303638
2000,-0.5928954753203135,0.8678261872972087,0.9237823587493451,-2.2890509394150507,0.6600183258061222,1.4425798119702482
2010,-0.6012463095901263,0.8582734677726546,0.9197905383463212,0.46586894769911846,1.812712204206757,3.098916693142134
2020,-0.5944442115956208,0.8761434034247267,0.9283566303255777,1.1214638983935314,0.33812631171557506,1.2541510182582774
2030,-0.5799716488185684,0.8908242369450338,0.9423000499178442,1.6133363656736623,0.44619290191684646,0.7994430929029063
2040,-0.5917648712368658,0.8802110623653774,0.9247583195196527,-2.3548353089485046,-0.8208205905594069,-1.3789480832329315
2050,-0.60513206445396,0.8574798645347607,0.9160885302114111,-0.8874832065199203,0.14107580386671095,-0.3260510021654916
2060,-0.5881330654918576,0.8749557982327167,0.9381265063737325,0.8458067612892389,-0.17056546537660988,0.40212913075593026
2070,-0.572251384169964,0.8927624024819519,0.9469201870522004,1.5723900162121496,-0.06408415801484879,1.4076217422843633
2080,-0.5928471666853695,0.8758278684368559,0.9258788274734615,-1.7934363228257082,-2.1864145256673506,-0.039083673921574746
2090,-0.5814301395077192,0.8927535993772856,0.9372348271099059,-1.870242788524755,-1.6504187915371036,0.3633181930272067
2100,-0.5795526660811282,0.8951368849954323,0.9367462248396848,-0.8944047858218538,0.14910947172922112,1.049699614754952
2110,-0.5765305731005997,0.891901729882266,0.9432945342629261,1.1126889792445973,3.4020241894231456,3.0394053381935535
2120,-0.6047650242066611,0.8583666969787884,0.921258991995852,-3.149041490614193,-0.4792957427684674,-1.0596817638685616
2130,-0.5991467769215061,0.8617881410669865,0.918179017403243,-3.5137551023934077,-0.5704262666476837,-0.2009164644143147
2140,-0.5433815230971388,0.9068853714529463,0.9591201158220418,-4.110166987649606,-0.3192648083050008,0.757187625152712
2150,-0.5992894576428632,0.8508237190032693,0.9197422692327892,-2.0945095525934314,0.9469966224101782,2.706412802199121
2160,-0.5610421639842031,0.9006972846404968,0.9577371710414259,1.4084772202760072,1.6153981653506584,3.4318122103373128
2170,-0.5889672614481921,0.8755430041408381,0.9303862957463085,-0.1813712362889407,0.2814588323265422,1.4134139702915787
2180,-0.5982595428003522,0.8726093108899029,0.930354356240799,2.1572555602226218,2.2463374140768795,1.9915237203212803
2190,-0.6131475609185185,0.8503177352230261,0.9057925443247127,0.6661086386102648,0.6232044870939715,0.5419575958088297
2200,-0.5985062594788471,0.8605313696161789,0.9103128882076806,0.7036444131295684,0.9772020675794317,1.701398333236126
2210,-0.5822939794915861,0.8818818781532319,0.9324569669937885,0.48281268864751364,1.0694950809245494,2.1807269150199557
2220,-0.6013413156634679,0.8654658120118438,0.9232940733414822,-0.31688835589583986,0.46892851283918524,1.5418308904886986
2230,-0.5553865888240271,0.9140975792534491,0.9687324304244443,0.02714003634253137,0.9876998937000767,1.7639928507575569
2240,-0.5615507007834567,0.9142399850928122,0.9572795753489871,-4.067447727376642,-3.3198899904279244,-3.008564227161971
2250,-0.6075675411908237,0.8464701348311355,0.907977151057479,-1.3753236820995123,-1.925089685588667,-1.506507146875031
2260,-0.5909870179653955,0.8654568047456151,0.9264750856870992,4.8531775541323645,1.6838010103272447,2.661262917326841
2270,-0.611805849224991,0.8553400504809819,0.9173451794174029,3.1945147078620053,-0.9265895727597517,0.5304448282048957
2280,-0.560579673476073,0.9090080853901701,0.958734953179207,4.428049652409031,1.2735818426254315,2.810923006491277
2290,-0.5870963044236368,0.8842711419006165,0.9308565270205016,1.541454238216569,1.1864298754833424,1.8500053354626018
2300,-0.5868981770305156,0.8914941961396698,0.9294222491038902,-1.132095365585883,0.6035242310429896,0.6864088203694783
2310,-0.6189403922366128,0.8499645054882256,0.8963499238805582,-3.5206265257420366,-2.2090959122434826,-2.1020869970381098
2320,-0.5897075516025274,0.86806090276043,0.9260673358266104,1.4125153558931007,1.4718879356380616,2.0953046044096957
2330,-0.5692647586353676,0.8886589747701558,0.9502260160596334,3.955590618748448,2.643138913310367,3.806720865333216
2340,-0.5755786398232403,0.8890213935456387,0.9462132270589458,0.7839879115705322,-1.2019217653725482,0.03754642285242582
2350,-0.574098748900354,0.8940634575394714,0.9453301339876109,0.3597493710837183,-0.7953391849477192,-0.20845301900808
2360,-0.5913218287158345,0.8753142366228578,0.9293819833638934,0.5026902374495991,-0.039198271555179715,-0.5787362498642915
2370,-0.5913153018321692,0.8802192512510074,0.9277260887903048,-2.430559699564571,-2.3860256027667157,-3.126555282661803
2380,-0.6013448383177342,0.8623312037422767,0.9194146085103534,-1.14721250259699,-0.830444389398719,-0.9124422108333905
2390,-0.6073579500328233,0.858413687527906,0.9127885451594929,-3.5191371511823757,-1.0161549763443625,-0.8410298591184105
2400,-0.6172384425026771,0.8491696618166539,0.9041507992711444,-4.8956403877609045,-1.5561064782536587,-1.1547568789809763
2410,-0.59381967514404,0.8761483551755197,0.9313027558509667,-2.597683770900777,-0.9165969377470923,-0.8697348911471537
2420,-0.5813281018840711,0.8908484055662691,0.9429572975167928,-1.2437670648748096,-0.17085353704665557,-0.6419122462657652
2430,-0.6112268797986717,0.8537273911279609,0.9117509672193848,-1.506549681600474,0.3472706982163699,-0.1370629962491492
2440,-0.5899247773318466,0.8697425577678407,0.9301170571918898,-2.1910135238075066,-0.08277593715477431,-0.8287919611670299
2450,-0.6075770580895595,0.8510814158063289,0.9102245340798726,-1.7286061093595926,-0.738275893839855,-1.4930106161494565
2460,-0.6074580578685829,0.8496933296261437,0.9100530340084264,-0.20729060213792783,-0.7424782379736203,-0.6445508119604025
2470,-0.5887429623214391,0.8741609666745942,0.9267114517485605,1.9104831456849296,0.5051594317260248,0.9643710959633067
2480,-0.572418669369945,0.8974591326512356,0.9511008133241688,-1.0181915018780507,-2.3824873703714173,-1.5923000717081321
2490,-0.6104315731506593,0.8583944980592673,0.9108141581918727,0.4686241960975899,0.43586572199874307,1.3721312295986112
2500,-0.5979102954130824,0.8716851356461153,0.9202421057218678,1.0864499568437447,2.9147848984594082,3.7177858918716025
2510,-0.5989120649476273,0.862379132511557,0.9258289899161494,-3.4132757954813884,-1.7230941572086058,-2.7442347653003667
2520,-0.5895220778016634,0.872118743391412,0.9355930739629996,0.10740957918173377,1.3130260575982187,0.3274927041914464
2530,-0.5677724192992204,0.890631383551221,0.9535594197609596,1.6489589687855775,1.5189971745783228,1.140276992818372
2540,-0.5659400447555463,0.8931217795847202,0.9531027943733507,-2.2563782375063335,-1.1211006711823226,-1.1064452662495396
2550,-0.5844580911822413,0.8781368213724587,0.9331653489495518,-1.8995060054350115,0.11163436482298622,0.10078531550386105
2560,-0.5931128873252228,0.8637179121704952,0.9241710310672315,-2.23076958493062,-0.9245749234586607,-0.8076564959334883
2570,-0.5707605201119967,0.8825322692142703,0.9490998723345789,-4.318332030365394,-3.0057070417168767,-2.8038026104778484
2580,-0.5920596753906147,0.8765181107811131,0.9319043684920636,-2.1306687397055386,0.25873720781286047,-0.3532745636602096
2590,-0.5849488516597315,0.8807839860418945,0.9410557068949241,-5.047294338087754,-2.19622864066318,-3.373570398681337
2600,-0.5902638418708245,0.8576463655798692,0.9346067941085452,-0.9146466702798568,0.9880054950834976,0.5804127247070464
2610,-0.5768180184279755,0.8726403552697765,0.949890637768093,-1.5034817980921336,-1.1324220690344933,-0.3815294723264766
2620,-0.5946074719305744,0.8602966931089747,0.9302772289038072,-0.3219670925836857,-1.261180133881704,-0.0630698946303383
2630,-0.5899499178645018,0.8714864349112221,0.935426368730457,1.1378333333656878,-0.8211656549466833,0.33557653295048184
2640,-0.59244139646153,0.8758854513794896,0.9342666476566462,3.3974376691848627,2.5326777011943786,2.133524128366327
2650,-0.5834352046770004,0.8843471151765897,0.9365980852033947,-0.5694915571610868,-1.0239572060444937,-1.8519704164933266
2660,-0.5917747687230697,0.8716423876523388,0.9249908073137962,-2.8273831135539598,-3.1313079940204567,-3.8044025424106773
2670,-0.5847629556999777,0.8763085752270859,0.9341424406659835,-0.27499595680746997,0.2857334476777921,-0.3588091603168762
2680,-0.6086137820267151,0.852469444514925,0.9121815772058203,1.4443540620772612,2.600441460811915,2.0130488424689634
2690,-0.6046027015977771,0.8558418777485922,0.9166761977427713,1.2557888672189639,1.706595264172508,1.3709294678333281
2700,-0.5677603161154908,0.892056100622958,0.9516857673226784,0.7498048153498664,0.5620711426153353,0.7106346099977676
2710,-0.5995091318478989,0.8652021552812326,0.9170301932945547,-1.1660347881052588,-0.7782973148340948,-0.49120022739136643
2720,-0.5724902829969725,0.8848525408682619,0.9484339052606443,0.393353260911962,0.6189158761186696,0.501456911876487
