time_ms,ax,ay,az,gx,gy,gz
0,-0.46692557261843415,0.45025407009123275,0.7974728720804845,1.1470321890080886,1.8894843376050607,0.10496864221081312
10,-0.4751124043050663,0.45301759150421445,0.7888151529005198,2.3060504915051308,3.6256210817140344,0.8756429485126505
20,-0.49944384447719936,0.44977242267975176,0.7680789922748432,0.3101249642618322,2.2981584410682707,-1.8864394445575372
30,-0.4979620913942862,0.4649077453413576,0.7908002229242622,0.8349494368891723,1.7903288166302331,-1.1144758687350902
40,-0.4815049975594257,0.4862528084239443,0.815777539347344,2.382722225485708,1.9393651434535242,0.5499118971680289
50,-0.4808612182387596,0.48248566405210314,0.8053202812063442,1.8507735596056492,0.922596471021411,-0.2531930818755974
60,-0.4762498165187938,0.47218388919363713,0.8101838345894216,1.4037120662315081,0.9424880137622631,0.11306205755103654
70,-0.4674200996820582,0.4843658159270439,0.8115168085782976,2.1419477959022144,4.5472767447620015,1.89362297026779
80,-0.49341425343076084,0.4665942911874211,0.790415239571337,-2.551259400819053,-0.9006225215118238,-1.806844292068034
90,-0.5104282997219577,0.4521596793888725,0.7761297787696151,0.40904834310782223,2.085211105703907,1.7450972581468394
100,-0.4979003599583248,0.461117734481194,0.7815239395171387,0.32608816330610374,2.294621978769782,2.6935136907741697
110,-0.48553926209101705,0.47298596796568687,0.7954413145015432,-0.8672823924115771,2.6682554874974054,3.660954352136846
120,-0.4635390514564729,0.5004367842976126,0.8290647638433947,-4.736673387552622,1.375297442325843,2.6440392361582132
130,-0.5050009975119053,0.4539824535475953,0.7622714981611297,-7.3830891941566,-1.281088141296012,1.6111036967918153
140,-0.49070063383795115,0.44965368322179833,0.781688027792944,-8.476766492209848,3.7330075942125394,1.6489742372567036
150,-0.46226770248047894,0.48938385610398133,0.8122260327988875,-13.290838001851087,1.440139474308711,-2.821922442399976
160,-0.5083367807315019,0.43730727853602813,0.7508245545762733,-9.927777636608893,3.6149878240871747,-0.6454008177023158
170,-0.5034010040991302,0.4344639172237096,0.7703942387195203,-8.056103947979715,3.6822513302750965,-0.9440027540538947
180,-0.544514787347998,0.39793530038505337,0.7648283984907975,-6.457686281542979,2.755468807239666,-2.519102137882782
190,-0.5257438671396543,0.4258569926973917,0.7882068138272302,-5.023957635727687,-1.1499626237715037,-5.183219729014038
200,-0.516677178120395,0.4144844758744881,0.7686879009820858,3.6357481826882614,1.2942697281124436,0.9055023962511807
210,-0.5185766926480219,0.4370810238325319,0.7593220623882038,0.634674000632713,-2.1375394345946552,-1.8528207306020967
220,-0.4968849286902631,0.4425747861695161,0.7501142987974281,2.2646532852728627,3.346617871428921,1.2064009776295497
230,-0.5009469959072035,0.4348111969840903,0.7517268997544945,0.3317246833888745,4.820024538925342,-0.16408774052754893
240,-0.49529198944229774,0.45200514248988827,0.7820268484668532,-0.5568547832832909,4.981777059751469,-1.417016885920205
250,-0.5047371390004,0.4551886953961136,0.7959277042652628,-2.882939613272743,0.6913738434011285,-5.12626249493619
260,-0.5151619140025772,0.44648658453401896,0.8106883055459378,4.207101969727193,3.230692270121934,-0.8836122983967927
270,-0.5157100284910684,0.40884753540997026,0.7702090401671612,3.344582545998411,1.008194574147614,-2.7405714952087035
280,-0.47324915666705425,0.462125528555699,0.8088407611506038,-3.5154739116464264,1.2563579696923135,-5.541609405985895
290,-0.4820945870754242,0.46136981881209976,0.78558669059221,-6.238944152128259,1.2642609192854741,-6.195341503683727
300,-0.4954570744157293,0.44342204364110716,0.7882303998640459,-4.844077470967401,4.072428749643499,-3.206775437409314
310,-0.5144301974162729,0.410066449676233,0.7946158110600263,-8.229889943643212,1.6017135627436125,-5.5957313612686335
320,-0.522891245503745,0.391378727267354,0.7860554522040517,-11.446424704031326,-2.330997590063644,-9.749411623684448
330,-0.520529965979967,0.4061242111809244,0.7794946441743481,-7.196688791323508,-0.7311724399022859,-8.923903553621663
340,-0.4654628141103153,0.4338697512642035,0.7847617602309989,-7.342962553084945,-2.512422551683184,-11.280453775735444
350,-0.49042136990488183,0.4246836383252207,0.7901119708160743,0.42756284556237145,2.254145480385808,-4.210290648679625
360,-0.5095338502989047,0.418682301241152,0.7821838135702043,2.2167080589638095,1.1556081950898194,-2.889272133393967
370,-0.5020942764598156,0.43924412754441866,0.7939556438025067,5.427772609307183,0.05032446730020779,-1.4986171307106382
380,-0.5213228968148877,0.42743148768133643,0.7744514902277677,9.985117714945714,-0.07928611744958292,1.3476572125368362
390,-0.4854133255249852,0.45263366011105377,0.7851384241745605,9.48212254650962,-2.925549434437969,1.1577358803553293
400,-0.47020246727911397,0.45697918495619905,0.7545298751052698,10.942008996112966,-2.5496549115079734,-0.20944238388502734
410,-0.47807515700789893,0.43283580251516185,0.751971848240861,9.43762167379235,1.4167311612605236,-0.5683712435913835
420,-0.4750973476340191,0.42925000868334207,0.7837543996090068,1.568096718571247,3.7352988519319017,1.7519287021658996
430,-0.5248397474373426,0.4022381355643569,0.7639977384337071,-0.9141784528376506,4.563028747220978,3.7692725448432807
440,-0.4971228807366421,0.44378293707213196,0.7974307578656616,-1.3122251428078462,2.3121684279250188,3.7007088547892604
450,-0.49098363411879997,0.4321514413221393,0.7750989458008701,-0.03571921257828364,1.2291958761688118,4.9287260527260734
460,-0.49539310029009204,0.4040691816756326,0.7284670144725911,1.3175165590910933,1.1005025816449039,4.473240897495538
470,-0.4709672403054373,0.4100989148544503,0.7742357414757151,1.684730899444735,3.7766021845802706,4.678103594805881
480,-0.5389530280148684,0.37078267362580974,0.7629522441490028,2.951509936309991,5.36334980255784,3.660113362260888
490,-0.48447226632799223,0.4660327723660082,0.8226930645798479,7.454261366711371,0.1452872672201857,1.4219670511167268
500,-0.507920408203387,0.46468357320550374,0.7866475975729834,18.27170271872936,3.9688438425832846,8.294014151737478
510,-0.5082127564116721,0.4544960333350487,0.7614507836348192,17.311028011423204,2.76065984526722,7.698760195243066
520,-0.5010367064448783,0.425331361938219,0.7299612621294201,12.063476146060761,1.5813333557701057,4.360429811945156
530,-0.477617382785874,0.4082749045111133,0.7366386378284621,6.4643848152303045,3.0279477716087673,-0.15276672704486985
540,-0.48850649219594655,0.4285899074013978,0.783352227083194,3.701116662145655,4.701789899446355,-1.966498267231479
550,-0.47325558192163064,0.4580448061377907,0.7952373989716511,2.8573924693939623,4.320029802063486,-2.482535178952497
560,-0.47307773847310364,0.45873730366016846,0.7936880777999549,4.786630483009946,6.690873152321805,2.9464099379823834
570,-0.48285282174326527,0.43893754597749585,0.7816520310912979,1.1457923686601115,5.441587068390501,2.6425879177365847
580,-0.46289844778323896,0.4606425653141768,0.7984373881759137,-2.748478586957506,6.303116605278493,1.1212655612401887
590,-0.49302923906029655,0.459144684377434,0.773143100903896,-8.95418958880857,5.793796009319798,-2.125301304505517
600,-0.4770148460487022,0.4670150708399799,0.7905721165765229,-8.007041937030738,9.402449995588126,-1.3741309042723864
610,-0.48128089792288703,0.4877074281042942,0.773639489030195,-10.5256069348314,9.750012853076141,-2.6275277899299687
620,-0.5236669121215739,0.44755341153997336,0.7103150260186138,-11.549634074530417,13.33842443307305,-1.249072551244724
630,-0.5271332235223913,0.4776771589392851,0.7298788033277479,-16.887466124540396,6.350173774369191,-1.3017931579569761
640,-0.5836760832804264,0.4887212439053877,0.6728520937267969,-21.980157912140236,1.228007671261087,2.5374327028334
650,-0.5845225470867935,0.4971644482699253,0.6514664341556694,-26.063396252355815,7.444651082617796,9.765582292438118
660,-0.4766472210168287,0.43810759882580275,0.8379101511079718,-40.80877167141678,10.036987849217944,4.645776393696572
670,-0.453424349250821,0.44956930493087216,0.8385937021564828,-29.756453175307946,16.870029594919266,13.970466314596
680,-0.3567042659702527,0.2856711425618672,1.0066718283394176,-35.191425534335174,21.173114522470378,10.85067486132491
690,-0.5170475683361422,0.40893151754411083,0.6623958412870671,-21.020674283449342,31.837859585406836,15.62340436578049
700,-0.34400898308304595,0.3349013554771934,1.052431360978412,-9.700956612725449,36.1580820168778,18.13962568621567
710,-0.23134032845405145,0.13154131129709656,1.4524124828524871,-1.7273836462184384,28.19408294019718,18.803985229825944
720,-0.46350581721486694,0.30464783145201463,1.0204700413944892,4.931810883584621,12.841501009848251,17.61361677509678
730,-0.5794312637914646,0.4542827658906981,0.6747303839972714,3.8208468572550762,24.050105819236446,18.536305285803454
740,-0.5241802914327182,0.6158716982930497,0.7321631881863372,16.12584285129205,15.497208995749595,22.621736076157887
750,-0.5111495143445224,0.444006421602437,0.7360712998148746,11.161576398381975,3.514947053773877,15.529519699118882
760,-0.5289651172639871,0.3815734571489259,0.7264741541720702,11.342540187131318,-0.4521559574859819,12.290946218691442
770,-0.4705627911655263,0.43138785433615945,0.8305826064323049,23.134514674448855,-6.463907894800375,11.866650828487478
780,-0.40884259129253053,0.4816406766101029,0.8595048967216884,23.59488828793039,-34.93776647850135,9.262655403122737
790,-0.36230644918719834,0.5537221349490383,0.7152343540015507,-4.55325330506985,-79.74312000959026,4.322455751986486
800,-0.32970042870710153,0.2848437581237838,0.8835341084420337,-8.639200791445631,-60.2413986062888,-19.638272655556595
810,-0.12008622710914092,0.4040239649130897,1.083404187808112,-1.1854433568218086,-61.40539733239206,-14.772874383260875
820,-0.6311479541443835,0.7049057059273242,0.8139819909788494,2.4428133197830775,-57.49800237908198,-21.25455820431477
830,-0.5751570196521888,0.6265758232426193,0.6765064537630286,0.9362332872301566,-50.316006212231734,-32.61322293601797
840,-0.33389697513564515,0.36371734805517075,0.6571152473667987,11.584636396761963,-34.73691851191637,-36.96794001050359
850,-0.43808933490410734,0.42935788552750903,0.7973355495765915,27.19904082679208,-19.531190666627953,-36.77544901822375
860,-0.8427370394089629,0.7544784354326626,1.0471791702828177,28.654551745735635,-6.375461629617469,-28.00466563209465
870,-0.550266233833248,0.6556595002249606,0.36636113661403213,15.773243414276518,8.011682669493922,-16.746128229521684
880,-0.7065901727593835,0.5589265467180556,0.5586657028502939,28.10462993882412,0.44711642815540165,-5.831954170624639
890,-0.767618081846635,0.6216794148254838,0.5684869249840935,18.238106261851023,21.477438730028506,-17.335678248792835
900,-0.7118614250893377,0.751396066798767,0.5268053209722767,-8.261196517451868,25.418865230047928,-25.571276417842327
910,-0.6583391022290517,0.7971891900245447,0.4937669865540434,-27.78351280848017,26.420504587749623,-13.845388087812958
920,-0.7174976913778865,0.6386210232606321,0.42010909365818555,-33.88843523122471,38.88119138263485,0.20261931095037422
930,-0.6347891932399763,0.49419248360344037,0.5740364583834027,-22.743008535089196,26.449695743303995,2.284061719381596
940,-0.4676557070710646,0.3950220458815454,0.8214511068950479,-27.26625388017791,25.115107786179564,21.15737659173528
950,-0.6648704135094938,0.6289277213741842,0.6751140630061977,-32.5405942809149,20.42834142362256,5.445166439025709
960,-0.6160513027260565,0.777694732554584,0.7298202347397333,-21.438884724356633,25.690651266168942,25.551448581674983
970,-0.46340151208405117,0.7334931972863512,0.8559770054376505,-11.91354415523151,19.70541637654277,41.12062126364671
980,-0.3869344995278444,0.5052937457132968,0.8845528907956314,-3.764907175109086,7.807095257377794,24.98872138994762
990,-0.3693311768905855,0.22007877799817843,0.8424690505494176,3.300896419540074,-0.9424528426991294,-16.16410136433989
1000,-0.4550099652784697,0.1628114559582159,0.7271680025645391,13.318842455510648,-9.8975614079996,-6.951380997634756
1010,-0.5520543333961081,0.2068421517015147,0.651608666896521,14.12290516950106,-19.627969917670864,2.710078938262349
1020,-0.5310029821803001,0.3160060927609102,0.7066152811616743,6.3523118102828455,-16.769782526740755,0.21578136945627202
1030,-0.5137006509770272,0.35951966622521775,0.7407926917568424,8.368497251499308,-10.197954664183065,3.278619646041412
1040,-0.5204951301521994,0.3695636285377064,0.7396963169347409,14.032626723009425,-7.5397393179003345,9.450827448932031
1050,-0.5594481871630954,0.47995244181394486,0.7115022560569213,14.186862778476433,-4.267711440982531,4.314353507877809
1060,-0.6819614823578011,0.7382943131000456,0.6079415488045299,9.536328671101762,11.731649822892535,-25.34813427100178
1070,-0.25010649479466196,0.8078790890213705,1.0420781432702442,4.824488078938266,16.859311274791008,-35.06621514855774
1080,-0.4811714843400791,0.8701872657896113,0.761974071682028,-5.607046029030522,31.905872161604833,-22.081669569727225
1090,-0.5505530035527672,0.6543627094997656,0.8537906652582559,-4.110282259523107,31.558248394130434,-21.120940680733963
1100,-0.49747848945039874,0.5622588198352699,1.0482079362526537,-12.904823255005027,30.139377590466637,-11.686634374832199
1110,-0.4585544534576827,0.6257064761294471,0.9658558177818893,-31.899631642573922,28.4960009220337,-5.918257665749838
1120,-0.7582704760558244,0.44351322437490337,0.29192859523243725,-38.892908550168066,26.659159312364068,-12.84456244111844
1130,-0.8533751892413358,0.6913954969032868,0.021619852582387418,-24.62516625367266,35.97448647281542,10.419033739864386
1140,-0.7354228665272051,0.6038126670831147,0.19546703967765894,-22.50154934970596,18.654826207161435,14.467805350172673
1150,-0.647588301898796,1.0854366597987455,0.4034309841895262,-12.444777900013506,5.170831933132606,21.456295315989372
1160,-0.6010432908483008,0.7771795014081596,0.6007261994817013,-27.656143240960198,0.4959685193458814,17.33914419707702
1170,-0.5095334394252292,0.3374672165954834,0.7778466081326447,-44.13548431804686,-2.124455410479915,11.524491972281396
1180,-0.4246006806725474,0.42780668477181993,0.8647468374233988,-30.43172298888748,-6.781209212344139,19.538089583666167
1190,-0.6438568963481777,0.6958835452374087,0.6378060471750565,14.697501627069805,-7.894755087308954,41.27678683048606
1200,-0.6054749712597374,0.3915105906439002,0.7057656294704876,-6.324633497504681,-6.948533963552402,-1.5413640823023362
1210,-0.39878595252274507,0.5733635915626473,0.9054422113728754,0.4508686698880617,-15.580917072286098,5.889872782810103
1220,-0.4695666023357289,0.5774052356927859,0.8435205147662803,0.4084560993993276,-5.552802311484343,5.429976468131811
1230,-0.5217151142192495,0.49387228246299536,0.775328596105942,0.10806667698260819,-1.292093977415753,-0.4214400071944039
1240,-0.5530458674241935,0.3900879591210332,0.713422749116012,5.446604844028484,0.7327068099732623,1.756838678457121
1250,-0.5566315102656908,0.37289429920197104,0.6914586456380694,4.100568855642273,-1.421556174574269,2.8402376813057284
1260,-0.5450391661580133,0.3829707636634909,0.7055534943412627,2.089626582003705,0.6897728446409241,-0.7872674261640873
1270,-0.5504800054400492,0.39213710401956153,0.7282334772197497,8.46035593803745,-1.8606740133803104,4.454976543575153
1280,-0.5349005412462031,0.39152376148598117,0.7220720733236706,11.989774720111033,-0.39657714611726336,7.618633201278228
1290,-0.5246287992887235,0.409837835238912,0.7325130075735442,13.095067783596472,1.7098164707214978,8.191585237204567
1300,-0.5456499465060017,0.3967781020823936,0.7169728404235847,10.16094917534954,1.9661752413520994,5.47696257301428
1310,-0.5490927744641919,0.3935648541778167,0.7136695829098226,2.971556223626932,-1.3523802327614936,-0.7016858226086131
1320,-0.527030418563615,0.41498891885857647,0.7339758270644923,1.6983144308746372,0.3254480714508297,-0.6510768741579769
1330,-0.5526000142561888,0.3791806677357248,0.7073686248701382,-0.6985772171106212,-0.21349912100608615,-1.067727715226972
1340,-0.5416909425259837,0.39515029303007765,0.7192428541611212,2.5582184684814067,1.521058476666553,5.831782100986089
1350,-0.5430657935694174,0.4020938595054057,0.7139199088087292,2.9533269121962236,1.0761839294613704,5.935282857198944
1360,-0.5268669975912622,0.4160811875769081,0.7245620373129982,-0.8995245840375,-1.8040712787618545,1.663863383177175
1370,-0.5350826792235677,0.40837192402321637,0.7185630108051876,-4.120062139340007,-3.066823180190979,-1.9929713053972806
1380,-0.5320728302287371,0.41769216660783626,0.729227687646496,-4.493112763039402,-0.9840718675005848,-2.9607885349338763
1390,-0.567871425499981,0.37887580837982265,0.6940125773593435,-6.609509966031714,-0.0536813547456374,-5.04205462893377
1400,-0.5366650892334833,0.389100021215121,0.7242883303035448,-8.547641576406404,-0.21884798638489533,-5.533755721572699
1410,-0.5120608904221513,0.41475653942079405,0.7436445390091306,-0.5686331164216131,-1.4018969840475932,0.900357897352114
1420,-0.5539785230396036,0.3817338373404168,0.7032183293596809,-0.32521033684107076,-1.5594132054483487,1.4256543354597524
1430,-0.5363429719032481,0.40024355382657983,0.723332086959556,-1.7550597252128541,-0.24535049107378848,0.2423217947918732
1440,-0.5190286122076775,0.41331024875292094,0.7413995381732327,-4.719731955444765,-0.751561388603995,-3.154747231172008
1450,-0.5149512338585278,0.41285222037999203,0.744481095507765,-5.618660131484903,-0.3776928029013915,-4.476074664618889
1460,-0.543922809286693,0.3733900441690123,0.7139584902059004,-1.6013432713659004,3.5866712357651234,0.13960696190260746
1470,-0.5206221677930145,0.393709469860089,0.7393617869014135,1.0116546538609532,1.6283102670209655,0.9115081534203893
1480,-0.5285759226999406,0.39909104162277476,0.7290722466576149,-0.6895857367989363,-2.385646328713129,-0.1396871520109304
1490,-0.527620292773803,0.40554265425504465,0.7306586857783021,-1.2065911794195645,-1.5814440321306216,0.03839868682501235
1500,-0.5376398064526099,0.39177589759125636,0.7214254696973015,-0.7178109809884052,-0.8303117858549998,-0.2084109430592247
1510,-0.5300521679301446,0.3967243077871553,0.7278013352168667,0.2606874018510814,-0.8308884328924786,-0.4738796610220927
1520,-0.5310312427139285,0.4016876497085483,0.7254464334246269,-0.9072530245372744,-1.5700670094088434,-1.795040943138406
1530,-0.5464824831864382,0.3865445068046777,0.7151518896881015,0.3258286499582841,0.4951261517111639,-0.619140689903884
1540,-0.5341940503972042,0.3952116143089789,0.7248582436784314,-1.1667916962808715,0.3530774024967054,-1.5375177896569259
1550,-0.5609014207111186,0.3594868127003781,0.6971235496284741,1.3854870079493224,1.8675728287666864,0.7820205802457612
1560,-0.5370173598054623,0.3822675314365964,0.7201939841683237,1.473563450012151,0.6225551867171004,0.9177123127019754
1570,-0.5128689730104974,0.40742455574713604,0.739884761347076,1.5753104502015305,0.2923282801960514,1.4016498015384469
1580,-0.5422310155184491,0.3786879583787446,0.709601738484881,-1.6519818401206725,-2.656869298932074,-1.4763300188508246
1590,-0.518582970698644,0.40777451374849216,0.7463817534148611,4.304489121179469,3.1469871385846098,4.407961013465071
1600,-0.5356098521649072,0.39242882746941027,0.7232028066166193,1.2336771809963234,-0.4997443504368746,0.6883428297766456
1610,-0.5214304320217322,0.41135391914337266,0.7385609054108498,2.6533228681455263,2.375784718448574,2.3784327075245786
1620,-0.5444703345934523,0.38177170363307106,0.7167891533800137,-3.1101013543264058,-1.551930015373835,-2.933450529501175
1630,-0.5336005788760068,0.3871490321163821,0.7242046119729082,-2.5881471521411012,-1.0175514803584842,-1.7393391929125426
1640,-0.5336021946856405,0.38551233388953876,0.7207787106060498,-1.7996824037717514,-2.240893187508651,-0.9084419623437618
1650,-0.5427190990388472,0.37797653453658586,0.7126986421129109,-1.8517512137036132,-4.5061317244053045,-1.4415697705817492
1660,-0.5421016773334965,0.3854953269183213,0.7146906023276768,0.1359991704702177,-2.196872620298765,1.5666039975918236
1670,-0.5476344401203959,0.3758932891957018,0.710126816175032,3.3814818773189157,1.2450789193963547,4.64465346300657
1680,-0.513337586044938,0.4113314469287153,0.7440975996450948,2.144413008484805,1.7948648886180796,3.9909308349427253
1690,-0.5308965079319811,0.3937075826443025,0.7247112756466222,-2.660604098112321,-1.388298999498764,-1.3506124616818926
1700,-0.5235252912274848,0.39630265540071485,0.732781781658757,-1.2666884812593653,0.131739550973619,-0.26789436377992676
1710,-0.533153582318872,0.3836089999361166,0.7255738356669931,-0.32240512229215923,-0.2668571491308609,0.3778343217952539
1720,-0.5328152025293269,0.38923233226646,0.7263314641453301,0.5822175523257881,-0.6784284316006197,0.294915495479691
1730,-0.5348800770741231,0.38890247199338146,0.7231277130995261,0.11404760753220106,0.05072733067970571,0.5411986060545955
1740,-0.5385790268800204,0.38632775898745325,0.7207015354833225,0.43282923819918484,-0.11744471975300697,-0.15517767858266146
1750,-0.5194530862732407,0.4094337127342786,0.7409566714639928,2.742853764427073,1.7674320871438585,1.9487131721742366
1760,-0.5400033502597945,0.38318407382153996,0.7141024850824436,0.20814418608794916,-1.9285333802253555,-0.5844028121538041
1770,-0.5253836623439708,0.3939012219685229,0.7257764679816722,3.598444268057534,0.6049680574053041,3.215797494517453
1780,-0.5518192896893643,0.3705951136696771,0.7034761062059792,4.364571586107822,1.4465162416683048,4.557546671584619
1790,-0.5536792057780404,0.36968149143301426,0.7033129559053662,2.943456107977281,0.46987221214875396,3.0794091374497587
1800,-0.5440492687503163,0.3810911003506958,0.713475821868557,-0.13918123212277855,-2.159224469412533,-0.2169950924565729
1810,-0.5200567539120499,0.4118601319016314,0.7375266501884991,1.2937017405180735,-0.49561976829565935,0.6210756388035097
1820,-0.50372703013144,0.4296733507491075,0.7553201880398495,2.851105230073793,1.152637407172199,1.6708055896885963
1830,-0.5295409350471106,0.401984731765818,0.7284829320880775,0.8490259822682429,-0.04568062544591247,-0.09817692662754508
1840,-0.5156648095537896,0.41180030374802085,0.7409177060921082,0.34921212398396756,0.39180076809164416,-0.11754650021989987
1850,-0.5229554422615185,0.40111363749093715,0.7332289410709623,0.6402760539964636,1.0566963102447686,0.23699534869647787
1860,-0.5325492982740905,0.3948715063052234,0.7197404360926166,1.026947116325906,1.8425381563368561,0.4566448140780208
1870,-0.5488001248721168,0.381363158755786,0.705642482073471,-3.03133687591218,-0.4652621086938935,-3.5698297681555644
1880,-0.5499248688334736,0.3782992172723761,0.7036335878655521,-1.3054736756585121,1.3420656041383894,-2.8484387177990467
1890,-0.5486488989438815,0.37340924976938056,0.7079262916390431,-2.1046332170044675,0.3109884748233669,-3.700555493164172
1900,-0.5314461329251693,0.39094577340138703,0.726708790768865,2.1583431312935444,1.8235795719494392,0.9816407762652563
1910,-0.5270972067554377,0.4018475133488107,0.7313109058648203,2.9218000184938826,-0.27495890119847805,2.247275968548843
1920,-0.5204953618104056,0.41312781331256904,0.7398864234517095,1.3786506590403877,-0.6995667435259357,1.487065168590002
1930,-0.5372832993731215,0.39958263856768944,0.7201525302735515,-1.198560179762193,-1.3472203837170647,0.46159517364183245
