time_ms,ax,ay,az,gx,gy,gz
0,-0.780106077700763,0.9410193367326221,0.8669537883079499,2.8824644380229314,1.7823444403217907,1.44728196884742
10,-0.7873440998853516,0.9321114673053912,0.8581255186857774,2.9949030750505656,2.318144304803903,2.288601445552809
20,-0.762833361615253,0.9531054253504458,0.8841538193193386,0.01566406943469678,-0.9429264790077343,-0.6217410428882343
30,-0.7890173985079355,0.9297614226228685,0.8628312678766369,-2.3767474512387836,-2.1302352563908404,-2.39464056727113
40,-0.8037573027878474,0.9166517819505774,0.845183043794567,-2.891234539230346,-1.280104219765422,-2.4702743627839827
50,-0.7709283436964676,0.9463780154665649,0.8765312630813131,-4.314246005596955,-2.7570234468758965,-3.9552118694891165
60,-0.7957505547860722,0.9176272759274681,0.8527112458421633,3.2635835746077544,4.02091292207187,3.2071410086807353
70,-0.793668384835773,0.9207705094858528,0.8560568226803659,1.5022652757165846,1.5678524979930153,1.345939281964512
80,-0.7834005824501579,0.9310100786443462,0.8638393850591004,-1.5680093559504698,-1.7965812128323218,-1.3888448171874828
90,-0.7727588186313573,0.9399245483782219,0.8689360003322941,1.1963978749859645,0.9568424429874022,1.2389988598462534
100,-0.7629296623821213,0.958570995211224,0.879645743111277,-0.5967057365460372,-0.9854408056396858,-1.5112854483729397
110,-0.7839829917020833,0.9340960556188448,0.8596278761915358,-0.4201756825699279,-0.586737698889118,-1.721276957158862
120,-0.7939430265926323,0.9229783604155766,0.8445053436157104,0.18745573882172534,0.7117957861245767,-1.2299143874749963
130,-0.7510322907394039,0.9734270199835429,0.9040060638949686,2.0979724867318073,2.827217749129291,1.0074322913176674
140,-0.7912558398373665,0.9264203887843955,0.8513589614418099,-0.34921650639654134,2.2225803553626333,0.5467422356409726
150,-0.765383686886645,0.9523003205535525,0.8899096638759122,-1.2663805893393576,0.9617408298933985,0.14149372018467965
160,-0.8126810031936472,0.9231417321074241,0.8845201838784127,10.294076786136994,3.837851854272128,11.107551107890917
170,-0.8118429936349238,0.9357923606010538,0.901472966774801,21.003501512649674,4.320817015757415,18.16586496036261
180,-0.8327290212564906,0.9282798432526185,0.8993748960782095,27.164717527569728,4.136925512331194,20.257451979947003
190,-0.8427717606196911,0.9232997805101183,1.0084754860186562,14.116984185563853,-3.2180102130342223,11.256694980473148
200,-0.8832171476797694,0.8569798467701943,1.0852842592235585,9.027150277209007,-11.406102320973023,-5.603969806545681
210,-0.9347768499701624,0.7945474284216903,1.0361772700500156,18.65193293725762,-17.709748991661264,-22.37763447125631
220,-0.8345888966279844,0.8993902973818367,1.0373632452971298,10.038058101555324,-28.269240425413276,-29.242095835040693
230,-0.6857967219122719,0.9472470287357965,1.013151152386296,15.183538431518153,-21.4698290713225,-5.841128016990653
240,-0.7321285586736983,0.8916160393934515,1.1239162923592405,7.904583706402838,-22.952689163806767,-7.466125522006894
250,-0.5652861719257047,0.8649614421007298,0.9631437223969788,25.568887328447964,-17.202303039190042,-12.727166833777552
260,-0.5417989247736383,0.8531451848612814,0.902601509394635,9.819201539533497,-6.806082818008833,-22.90182096312339
270,-0.5406708887971434,0.9310253036062154,0.8905473224348842,4.265979706828014,2.7235805317787145,-28.369241740398724
280,-0.5704264744600088,0.9484952845135802,0.9433095056434431,-0.24584547387846784,8.110532132791779,-34.15393926001865
290,-0.5628003064694562,0.9550775023611254,0.8551936924317589,-6.359107426292644,22.288615353518903,-19.639641026182236
300,-0.5961938702285864,0.8662313267726492,0.7756730582173554,-10.747214458379439,28.79050604795599,-14.582524162365267
310,-0.713171920628549,0.7789747878283056,0.7533136852939034,-3.009641259833623,31.707477763376637,-12.07163376502023
320,-0.7639000239739323,0.8160273424164145,0.7678972551307057,3.7188785879253876,27.01255804516875,-12.067001598073128
330,-0.7366167511587867,0.8384208956379728,0.7108777653797757,8.643081396119243,24.579881835855733,-9.130418456940594
340,-0.6580870980707759,0.8178083998342667,0.6200087468747116,11.896018948814937,28.545519763889814,-6.525454051029616
350,-0.832965058772365,0.9254049805025543,0.6096266772001523,11.740596395572561,30.860730376530896,-4.468466848248957
360,-1.557875883242267,1.2232083497108737,0.8047384048410001,8.056955537443985,15.486862165434342,9.39392655331002
370,-1.4126475963023213,0.9002717096656914,0.7068350613502317,21.57286942778463,-2.7628027334224456,31.44944654260793
380,-0.8923244090202855,0.9939151970915394,0.6891123215950217,32.34766172147985,6.337352065876821,22.81602651461695
390,-0.910868661027305,1.1361202864318072,0.6402420814408006,-1.3643299749358886,2.5224459049822405,-9.16393139623606
400,-0.8931203617792102,1.0564940875885374,0.8646010638233729,7.993929510191362,11.350723369045358,-9.507085376234766
410,-0.8251347445276915,0.9523933752984205,0.9575077584391346,-9.421906879275538,10.52916028983678,-21.251020457524007
420,-0.8474507923817106,0.7359039944539246,1.0859979126950405,-13.540513615485857,2.36557329784748,-3.53032559525555
430,-0.987533712935003,0.6762186507756762,1.2365041356086068,-5.625038762926983,-0.18706837228572315,0.029804403520417022
440,-1.002614599740355,0.6162575413165754,1.5119756954015704,-20.2383514453125,-5.402557108095466,-13.79175845672433
450,-0.9378475739338277,0.9036115110609327,0.9287424342883888,-31.856473089264583,-12.188774623572563,-13.729742899878854
460,-0.9677765094782361,1.0847272470051952,0.9422396584166277,-23.531014536557322,-6.923705468690915,-1.5690902853622788
470,-1.0602578856282012,0.5485844903469889,2.054816757568352,-35.803626761899345,-8.23601286976162,-10.630673748770056
480,-0.9230547108822803,0.7134778065266612,0.7805259020644907,-32.39506824131355,-11.066275755121637,-4.830562714568296
490,-0.825499804621871,1.1308452568540321,1.0924141114818728,-9.617418461918888,-9.819302246759284,5.5202135659318365
500,-0.6770599478528782,0.6433557456974981,0.6115194803769601,-25.60134326030922,-13.536702202575288,5.958016051835818
510,-0.7016324412540308,0.8726196626437323,1.7601785967264212,25.435372636106596,-3.5828495736256936,12.323696675884246
520,-0.6049940977975671,0.6951314331046208,1.109482856631238,19.105733359426058,1.6086201433149663,4.165089892656934
530,-0.7999107752178977,0.4874246535890078,1.3866129323523966,0.9736480844684265,-3.2359672253508625,-15.448392696259967
540,-0.7542111240262942,0.5218564218187478,1.1791774964873285,-7.041063239206411,-3.9156104423329263,-20.98285152287457
550,-0.7300683351101982,0.7979676451711043,1.017955525694072,7.081858599889125,14.039532519408656,-5.703744632319571
560,-0.8047874636921837,0.8506209216526172,1.0661840188179446,5.951257349132485,14.964893420307332,-1.062746012138249
570,-0.8003670561684192,0.8971078128373131,1.085123145586495,5.276978109053352,1.3084068019509363,5.383858540908437
580,-0.9004564684768629,0.814481494430996,1.0037320543786794,6.945237272428693,-18.47069191060171,12.260783424719959
590,-0.9128007836966165,0.7001519999639746,1.0723711060589454,6.915188323663806,-35.23616722736483,13.709553132246235
600,-0.750540182989905,0.714713587865989,0.9749736239240729,8.143285120668391,-46.933007177945576,8.362591607951385
610,-0.6054406135903294,0.8251706860821211,0.8746832034575931,3.7472670259228655,-41.16974032846056,-3.1688354015703535
620,-0.8179857488031521,0.981231676680406,0.848343686981435,-22.949164200943734,-12.384601004098805,-19.379758523205204
630,-0.7940404403972356,1.0386552704189476,0.868798949956322,-20.88124846558725,-8.420843913191622,-7.900958259747894
640,-0.7762557374783415,0.9639152331148934,0.8070299118743863,-13.532702573780231,-8.437584181224283,-1.9389141208575071
650,-0.7162795625333472,1.0025408676969831,0.7702355998021629,-11.371143620734061,-5.325561230366078,2.1764368102895895
660,-0.6467982930513149,1.0428379466297126,0.7135268243633005,-12.566557870724466,1.3525286958865792,5.675663998310269
670,-0.6100274284250623,0.9639725634208842,0.6088794648754315,-30.188284819896655,6.261707672205266,-0.4038237799924733
680,-0.6481791881989398,0.8839407140550376,0.6609514342806068,-32.12516076666349,25.055762763180745,-7.056204739876081
690,-1.018405553431423,0.8149137822515802,0.8261487309732457,-34.37560662570668,23.43924594511261,-13.377996256113285
700,-1.2960797230978782,0.7713139574123282,0.8695711873385052,-22.576066598312213,4.115115310407449,-7.47802040054535
710,-1.0851404423137636,0.718232826735618,0.7501596495416423,6.115556768819582,0.3087835379496646,9.102206753759997
720,-0.8142910597860522,0.6480155538643366,0.6768634846056112,9.806539273214687,3.418579603111138,4.287443482876227
730,-0.9762949322551445,0.6949868350709298,0.7311304010456697,9.300878311305198,9.088501421142684,-5.446291823388103
740,-1.0928973907411677,0.8462802523306127,0.8195520846457467,21.017571618656817,8.498283777318369,-8.01461533775202
750,-0.9718814497864813,0.5933370205698524,1.203049716184665,4.284087387689495,0.5547764372768611,-19.00238269340507
760,-0.8604590736627785,0.48670293929306796,0.966019697612573,-18.95830444032659,2.501615492254259,-29.753478867479746
770,-0.9422534178422215,1.2080754180100968,1.0488133050434185,57.64117887693731,-0.4019351693392186,2.733610747660878
780,-0.8653372251450838,0.8908276197884587,0.6304570148544155,43.098225107870746,1.7582156830436824,-8.095397930356585
790,-0.9672232719762334,0.9699426844434832,0.49205237206672053,56.283172630863085,1.531505032245939,-8.759241738777225
800,-0.9010338380338198,0.10112321946918432,0.17500557265546107,-29.69150491976096,6.191842883156865,-31.07528986289345
810,-0.9460304041509432,0.484530920778362,0.692301689843791,10.853752822921567,0.2196619854040056,-21.43313134955691
820,-0.9375678975166407,0.9669374964688477,0.5521177576255698,57.33077380103658,4.005625047778757,-5.824980375101411
830,-0.8382605411633721,1.0245009278092567,0.09256029890499677,33.29436272109094,5.737720681757003,-7.857494536812911
840,-0.889804138011864,1.2121041612676466,0.23294420559710988,28.313035946224378,6.38882862713365,2.7669274480788855
850,-1.0141082108260435,1.2112981859071787,0.7860736421063873,24.663825347640472,-5.128038593667231,1.1558827668112501
860,-0.8828188319889038,1.0975192035955845,1.883052228445419,27.482891938705578,-5.66094407290609,-0.8674180470872175
870,-0.770043813054453,1.1104078537245223,1.1379048839150006,29.448156370214157,7.019469756276379,7.599108717216138
880,-0.9549811547229138,0.9879692318433718,0.990027729277554,-22.189741432267503,5.802196963050565,22.31402148276581
890,-0.7473363963352174,1.5028128956429916,1.2486865645414373,13.586421298300216,6.412655282036985,48.065052645165146
900,-0.9387840652526721,1.6056375735873487,0.9036474676871539,26.5938901730655,-1.8069276094176292,46.49201329904529
910,-0.5538428210969918,1.2522868956850364,0.31902118584375244,0.9360213731626299,-4.199921618138122,39.43876496667712
920,-0.4799807674652848,0.7432839136038213,1.1453445811795167,-41.61532120870368,-5.9250833688209426,18.329866580928805
930,-0.6933280755843286,0.8367334418090817,0.8634116993061148,-23.345347067168415,1.631916474616088,29.785059928647467
940,-0.8677972028419743,0.7745955514454745,0.9097371951444271,-28.471601314575604,-0.40656997869581657,6.088680129728342
950,-0.864948370683188,0.43139117431147644,1.0973511110634961,-52.91033428219839,-8.80278109630589,-34.01201320014828
960,-0.7855385329151363,0.46027601307647836,0.9454074140856971,-33.66280689098901,-5.645615679608838,-33.03024353134214
970,-0.8057460600917657,0.7311151245282641,0.841322736763728,4.990933934326773,1.017174863729228,-5.804551396477543
980,-0.7698909580514878,0.7705872721964278,0.8881428120162977,14.417200614105266,1.2118214050575191,14.993453132399589
990,-0.8001653515620064,0.6916693126900915,0.8523240402909507,22.89173391876308,-1.8908836117228973,28.74855191455159
1000,-0.7404647140452769,0.5089217351357213,0.9054262757847245,19.12064177873307,-13.192817709623935,10.341897493671178
1010,-0.9881198222540123,0.6681129257150836,0.48799700597587503,-1.1129814249419816,-2.766159675536063,-46.06094816126676
1020,-0.66610738692895,0.4863630162918041,0.4172437124809254,-18.939368751690044,6.174116268311564,-46.977265810251836
1030,-1.1664418412616688,0.46297124873875806,1.317700569205302,20.0174076927758,3.373360750926087,-20.158228101404912
1040,-1.0366751059466806,0.9332723352450226,1.0064305783065406,17.13455913346764,3.182130455929754,-22.09122007687106
1050,-0.778018808399097,0.7034815157281499,0.6064584384111532,23.74811173563316,2.9487160429722215,-33.95832609719209
1060,-0.9038893183863408,0.6140282934521175,0.7109282002448676,78.50667843434213,-7.056287448156541,-19.687300837258675
1070,-0.961600600520648,0.4211244447312548,0.5872235730199894,50.29566592527599,-1.5337612151760214,-15.183197017486108
1080,-0.8408742337004466,0.7926082789512373,0.657598217760162,17.250970915491177,2.764534953741409,-12.690412032379145
1090,-0.7951195089119042,1.5080766831547492,1.3655368891075486,45.741063364091,-1.801039259513895,4.5365072811723355
1100,-0.750785805744631,1.5035661341061137,1.633366411061815,39.372212445808664,-3.051441911389042,1.8845435852070833
1110,-0.7270734578779454,1.1748016398861105,0.6745482841482505,9.617668573840245,6.027475328563609,-13.6693532558839
1120,-0.8150209657795663,1.2118919211625296,0.4306397042839631,1.549614578831168,7.374120002983433,-13.783948419319623
1130,-0.781946186822559,1.035525025821005,0.2907786570130832,-8.337137635533093,7.962609639266518,-14.460696015142485
1140,-0.855453900074428,0.9786099348034937,0.7070296996700781,-1.3936906633419992,8.939359424518749,26.047640067564895
1150,-0.8126043485250876,0.4456943735696368,1.393943425030985,-4.320444153793257,6.6202200236712905,15.745164740818621
1160,-0.9358741802336077,0.4411235153775636,1.3624811784400919,-49.05186138941564,-18.1030179537119,2.1639400159254496
1170,-1.159664149291305,0.22019739046258735,1.5108868260275188,-38.29061007679668,-0.18633886035033687,8.62157589934514
1180,-0.6706285951218569,1.1545108388865422,0.673960501082297,-2.903135320451672,1.8337330699291048,28.048718971614022
1190,-0.4488863268585183,1.6738067961887906,0.540407183423834,10.55479021960067,6.187133083558818,41.5389607303947
1200,-0.35370373622585793,1.3920618147011166,0.2063721074331387,-0.07917099710186748,-0.6755491555358146,42.15938638764609
1210,-0.26511154883344695,1.1667893670922753,-0.06576527905719676,-27.741280316158335,-7.083951269282088,35.389381917756445
1220,-0.43600981981878906,1.2978295475717845,0.3374348217041315,-58.12613756020677,-3.658586484555395,23.466567759123816
1230,-0.7580928217395224,1.2294860019852156,0.6571441373200568,-66.60146251225505,-6.512426444884579,6.718360312035381
1240,-1.0454179321415302,0.6574492844330685,1.0563508042959815,-70.35518035989381,-7.123254897137355,-14.661130456400453
1250,-0.9802488103039387,0.35768541207250604,1.2110676858572897,-107.69599249616044,-10.624774280149133,-39.44284785919277
1260,-0.7453086331763353,0.3392199158288111,0.8353925485240528,-80.77495554090379,-5.333677804726274,-43.8649199527855
1270,-0.780583207680269,0.8541524489978208,0.8342033662226653,-0.6070720450759339,-0.6232693729266907,7.692019320514652
1280,-0.7821382491684296,0.8645775568958229,0.817508279187934,5.058232806470883,-1.9628938637755586,23.769772204485246
1290,-0.8073356236817946,0.8692366564140006,0.8067975706943449,11.172655339906454,-3.9109630858394655,31.286013349119663
1300,-0.7884312680273663,0.9196823070124605,0.8378383176862222,15.165010543830753,-3.6509728278637414,33.39363360327214
1310,-0.7957442333381437,0.9435350503795108,0.8379427145662526,13.43648721489663,-5.0923276553260015,26.260004136566547
1320,-0.8159657256987237,0.9484354533377053,0.8173899532219011,11.121239232830359,-3.278355663973917,16.620245466639897
1330,-0.7995428936816807,0.9482856164043483,0.8300142014288644,1.777858010975494,-2.4408576470306143,-0.9209332276213241
1340,-0.8031269300042359,0.9105276266139232,0.8201146848216427,-7.2601310440229305,-3.858359973275531,-13.470754214126261
1350,-0.7934681211147724,0.9088151128152261,0.825062018861011,-6.148757520111134,-4.236223954216007,-9.303481486077251
1360,-0.7721776300705475,0.923375265875792,0.8522394839155296,-3.4696792234202625,-4.355090966436604,-3.0773682628584536
1370,-0.8269744602084407,0.8644852823138521,0.804137469229855,-1.0700015016170759,-3.4074754030484358,3.593928293591753
1380,-0.8213388612487534,0.8772948165716925,0.8129416338599158,-1.2639071909663673,-4.165219249707052,6.919605371400857
1390,-0.7779905714153375,0.9354758511041854,0.8622821762909461,-2.3076687811181875,-5.120744457105637,7.207528801911941
1400,-0.7821089599876311,0.9515414732926449,0.8510013710288399,2.886645334336973,-0.8283943528117841,2.246315206349225
1410,-0.8029741954278928,0.9366358384419498,0.824449441195853,3.7172011349997125,1.4781337349005854,0.8696666825952
1420,-0.8206172268420178,0.899247158120926,0.8058856992504193,1.6364165247879692,0.2406477112021691,-1.1449481496530578
1430,-0.805522123006702,0.907059566032971,0.8197357337638401,-2.706124862294074,-3.760700469328989,-3.956026290332279
1440,-0.7866109694242259,0.9199120835380777,0.8345900422857033,1.0759123899438565,-0.196078454522429,1.796481832592376
1450,-0.7840864375331498,0.9332261786272738,0.835068977538488,0.2470322997831681,-2.4623348051339597,1.9228599209138375
1460,-0.7768233194310581,0.9494471576524005,0.8430268916020291,-0.08484590941461428,-2.1595625029527206,2.0085752171366305
1470,-0.7697513540469789,0.9560432642390734,0.8551405767661028,-4.016417871900951,-3.085293618233485,-1.7090650038489075
1480,-0.791254415569936,0.9362195286999907,0.8410541368809649,-4.851386587943599,-2.5578211864038636,-3.3470972978218585
1490,-0.8018995523402483,0.917576407443153,0.8309452586206065,-4.495848872867678,-3.0198291867369407,-4.650503021381749
1500,-0.789290931078633,0.9315209691501233,0.8443771175870588,-3.449635683348152,-3.44163193196926,-5.398659310400057
1510,-0.8132645428054123,0.8966345236570672,0.8276736941364029,2.6541147751986833,-0.9024008549817918,-2.05312519411445
1520,-0.769303535585402,0.9515677160541606,0.8702861628906835,0.6001579264960824,-4.519873779041753,-4.714157455675874
1530,-0.7655090722150208,0.9557035099548594,0.8737667210699948,0.73181255436398,-0.9416527245602948,-0.5270203240124605
1540,-0.7825998354814138,0.9293866185774844,0.8520617322921212,0.5461337599335293,-1.9312312875199633,-0.9735140361803558
1550,-0.7808391128666541,0.9110577998292521,0.8507853884853841,4.041497629786235,0.057148806789745765,1.5611451763113915
1560,-0.793980515142127,0.9100980885376414,0.84674924800993,9.165662920199855,2.763625442570568,5.269612715859967
1570,-0.7945401187463834,0.91606291242085,0.842221288960394,10.020661257267143,2.0320892380330084,4.529060309999337
1580,-0.7959561705032433,0.9268557763030882,0.834310806509076,10.560210141036679,2.0392099107635224,3.49974502108554
1590,-0.822549351254542,0.9015640706119449,0.806361797264568,7.119464738833725,1.6435634653674507,0.011632029264140586
1600,-0.7807612104020318,0.9283274644044975,0.8449418986883888,0.15387270512741724,-1.2430894296823323,-5.877441744072707
1610,-0.7495832379258904,0.9660323321013069,0.8726117450196481,2.8246497300987436,1.3629281007709086,-2.8993281823581887
1620,-0.8039116530418859,0.9235955652425573,0.8212959798361157,-1.4357584300198465,-1.9358103151725417,-6.135318408864057
1630,-0.8014222841671467,0.9229291441565594,0.8382556801485718,-1.6656414593739095,1.065170982947509,-3.840394889992214
1640,-0.7847605491687436,0.9265624363267798,0.8575076648964183,-6.355309318163708,-0.8392552069100981,-4.912151386492274
1650,-0.7655730735394622,0.9467688532250088,0.8760595274516432,-5.100833058631963,-0.7052201952263646,-2.5794174207042118
1660,-0.7731354393760471,0.9443657774406327,0.8609858957845903,2.108811106563359,2.772706413815008,3.22494923263769
1670,-0.7831247016500279,0.9210083305713314,0.8416719912644985,-1.1092480774683184,0.13555614552421125,1.0367454612710465
1680,-0.7619588476067208,0.9425024749583168,0.8647988692010964,-0.5369147331189439,0.13705713885869897,2.476217699769524
1690,-0.7861007230478914,0.9272263099234573,0.8438003993754316,0.8901445636060339,1.382819831292323,4.988352465804954
1700,-0.7926892609078408,0.927689080193997,0.8398409860450231,1.918243773045654,2.067220404332019,6.294969749215786
1710,-0.7963814126049314,0.9179010429470831,0.8360707041419545,-0.36811019906372644,-0.5118838026896859,4.293457357378098
1720,-0.8042847133934216,0.9075207455952133,0.8278139046678915,7.57374823959689,3.689033716082796,9.347571803955733
1730,-0.802636782226542,0.9222499436582987,0.8253995558957121,9.300535867573409,0.9860597337662123,6.691963095070204
1740,-0.8069877549460269,0.9286289869639858,0.8135169546693765,9.359472004331389,3.548888752043962,7.673617096280937
1750,-0.8049661256604258,0.9412206985984715,0.8285283111398354,7.112431261278952,1.876300656664533,4.636110370349037
1760,-0.8009898629051008,0.9423163113071835,0.8263989719255825,3.2279089913796732,0.09115376826243965,2.0621834689781964
1770,-0.794418870109616,0.9433399954944027,0.8384156062352037,3.8257009872724295,1.4312602798766636,2.9309475999189942
1780,-0.7859824069683542,0.9481695344820806,0.8352393488745544,2.4007046491064736,0.8044531898849114,1.9816876914947104
1790,-0.7686493965744029,0.9687437089667048,0.8673397319642646,-3.5873201817000817,-1.174089596753162,-1.0383169859381622
1800,-0.8215200985450906,0.9098520261258985,0.8141441967129975,-1.7972165922437315,0.889728648175404,0.889929081573292
1810,-0.8043726875943145,0.9265474520200391,0.8247050190526706,-4.209423558655432,-1.8574152453743236,-1.6598068821684289
1820,-0.805915253946983,0.9254203021999002,0.8257434130312672,-3.3736333108601553,-1.5487500377921504,-1.2224882399467227
1830,-0.7582819098710126,0.9748688211453103,0.8725579830568715,-2.3818148372341597,-0.21678129187716014,0.13201408085719946
1840,-0.7612726442966984,0.9724001220244122,0.867788334434571,-3.173627590837833,-0.12058008935219396,-0.16446510772373735
1850,-0.7936640730757167,0.9344867525055852,0.8334926365914004,-8.453184291255921,-4.542681691969455,-6.1067701797361345
1860,-0.7871126459431294,0.9357017367362901,0.838929692620766,-2.488253137498901,0.5730814584501736,-2.328023761474051
1870,-0.7990421879228267,0.9272430135321326,0.838608534872016,1.288447848739896,0.47562625470719705,-1.209987786399911
1880,-0.807384856887353,0.9165687069003676,0.8243788845397422,-0.07769974159046211,-1.5488828839326323,-2.2125939227599902
1890,-0.7783805367694513,0.930855236320905,0.8518717549889347,3.8404318926779792,1.3628429916425597,2.233240861030877
1900,-0.7820730435342781,0.9494449923821322,0.8388682833402712,4.490762173723523,2.7243567064569034,5.051417827977256
1910,-0.7660949301964357,0.9639934624952955,0.8594533326837366,1.436119277988631,-0.9138937283697497,2.51599483580037
1920,-0.8004554170580986,0.9314117569091729,0.8279894445545484,1.7218648863660275,-1.3117931083177004,1.0940745111393089
1930,-0.8071412606694655,0.9311741519211871,0.824213883061599,4.2694301325799735,1.3894702307565034,1.9496629896945388
1940,-0.8257049063313316,0.913565068663187,0.8007710611513033,4.0571338810070365,1.7220703145317415,0.44356573519423803
1950,-0.7815656882295993,0.9593092609692667,0.8452049455739328,5.279642834281308,2.238160594356381,0.2644625154619702
1960,-0.7949599597194327,0.9498126941655195,0.8335866093835784,0.4844796012901069,-1.325884129081607,-3.7291064458795717
1970,-0.7738124037756762,0.9626938842575188,0.8518801313979623,-4.158600326196417,-0.7580302985683103,-4.660226221243172
1980,-0.7935166500792208,0.931652732143391,0.8291039329424327,-2.84690071865011,2.4307038530053484,-1.7132742460894355
1990,-0.8162492321303396,0.9114163179967169,0.8050237606528652,2.2646341653593844,2.488558525609862,1.1819730116908156
2000,-0.7891683002924909,0.9363192386386799,0.8300274901301439,3.0141896705667315,2.391397904868766,2.636635736159055
2010,-0.8061955843658288,0.9414177567695516,0.8224416269632868,2.117008197422707,-0.8322626242571944,0.25909621731576726
2020,-0.7983826059823315,0.9364921149157517,0.8292831062407638,5.007074562407825,2.451327322870421,3.3517110674296045
2030,-0.8106912587580561,0.9357351745351179,0.8189162775889566,0.9008335255401285,-0.8669128374233064,0.18348481687308307
2040,-0.8046997202230219,0.930521850152233,0.8297503583695857,-3.6184313659980183,-3.160591384952566,-2.6712459172171052
2050,-0.8031725010808531,0.9365450940043822,0.8248602050618223,-5.100840652927825,0.049866095669807486,-0.9538366403943227
2060,-0.7945590075440835,0.9419701815424576,0.8423948203199227,-6.3757710692743,0.4629435020733515,-1.6072272374444334
2070,-0.768320904985554,0.9645425470087944,0.8684042044707865,-5.277230837935414,1.0030186985607588,-1.0210614803508884
2080,-0.7903894408751391,0.9326994226856519,0.8399901579886319,-2.758811141624329,2.6960597463621285,1.0333225268129633
2090,-0.8042221715438765,0.9153871252683132,0.8187728620854894,-4.14218239479731,0.9728675949620715,-0.3475994115472172
2100,-0.7695925312805451,0.9576212120927651,0.8536894723335393,-2.8687391897717265,-0.12055038782898851,-0.8008397107855502
2110,-0.7722156984063615,0.9587107756931076,0.8526831853507142,-1.7352088221059545,-2.0899066621337012,-1.8436957103205187
2120,-0.80755349353558,0.9192881828323439,0.8070241693343436,1.1292134623512013,1.664901878192808,2.488826078793066
2130,-0.80254454192787,0.9246286859554032,0.8205491851892122,-2.137608162441549,-1.585398193723734,-0.8669928130986992
2140,-0.8087002154123295,0.9172336529616477,0.8192575605343538,-0.547209345367902,-0.6260076149188992,0.31755718932626453
2150,-0.825396384548923,0.9000911344631861,0.8137115322209953,-1.46482996398447,-0.8214978367698224,-0.5272758033490513
2160,-0.8139984515808596,0.912968499431446,0.8152290103185932,0.33324510960550036,-0.5314991408593823,-0.49049930503448297
2170,-0.8073619720701798,0.9224970998525585,0.8184004506533081,4.250910816306548,2.724856385703271,3.307596670853134
2180,-0.7739500500111336,0.950721388506376,0.8516568788636019,2.4608383797723197,0.7195329991704663,2.576433766383181
2190,-0.7531338835416044,0.9836391178332319,0.8769456959757802,-0.14282584018781685,-1.3837449611460553,0.4149145483913754
2200,-0.806379619128119,0.9318619634659022,0.824866639175992,-0.9219767738786847,-0.7409864937598419,0.1869947277381926
2210,-0.7885817952141814,0.942285234754838,0.8414130083460818,-1.7994647796195555,-0.8667787380367397,-0.46833712197694044
2220,-0.7992399262312402,0.9291124719004968,0.8338664423235442,2.835574424536714,2.826138572020479,3.4218032277987938
2230,-0.8166842942768117,0.9152240187966155,0.819014727525456,-1.1025944109520625,-2.2808039893163046,-1.3700637401263283
2240,-0.8241830507752738,0.9097682806653584,0.8091483158093489,2.2803890319477875,1.8044753889739553,2.5133988159388
2250,-0.7878683785595519,0.94303113223505,0.847015242754904,-4.662880738747286,-3.2547755933894686,-2.853371073079889
2260,-0.7689102997265248,0.9621503457889609,0.8629557965956586,-2.2457957376877915,-0.6234208110183589,0.08698162582334579
2270,-0.7822510985642022,0.9464470000332788,0.849711058353021,-0.4578098911313977,0.7873155075698157,1.5383947221558498
2280,-0.7605645088234757,0.9641608014729154,0.861166223913169,-1.5010822857877355,0.8659919379332276,2.167820850356061
2290,-0.7935448854360936,0.9458280594261568,0.850261720396046,-3.261898063013123,-2.2834943128065794,-0.5664425363040198
2300,-0.787880559883001,0.9487644724834767,0.8377634890697347,-1.3344232048385727,-0.17061456552292145,0.9261018913831649
2310,-0.7737519619654648,0.9621030781388057,0.8592651941467301,-5.88055004377571,-2.944011116640643,-4.074152110305933
2320,-0.7914351710605063,0.9377453816449857,0.8405985811862212,-0.2247206881463022,3.699666603479475,1.9736983892046005
2330,-0.7817149194807417,0.9367056596157995,0.8415404288940803,1.4105465235216639,3.1525602299711073,2.360467678733186
2340,-0.7727773989749759,0.9502508482114834,0.8535837213465587,2.255508247712997,1.22434855847696,1.7039594878093116
2350,-0.8024854587863947,0.929740401089607,0.8312015187768784,3.6034750766706667,2.382906051407661,3.351876656706607
2360,-0.7924218006863754,0.9384851456242829,0.8329101217024609,-2.429621370224867,-2.029688689315538,-1.1165367306524008
2370,-0.7992287129728577,0.9325381387376622,0.8148554629368027,-0.17939128618278047,0.6414275170866659,1.744551339951565
2380,-0.7763085481778278,0.9592713108846359,0.8501929247864262,-4.044991250858173,-4.618564033698122,-3.839621650160912
2390,-0.7945343272071161,0.9358198058436199,0.8327681856217559,2.8416361243887804,1.7369931356969213,2.2850465446239396
2400,-0.8018749640126954,0.9328130145935852,0.8239583127339287,-0.4743772712682546,0.37072650180439465,-0.03310608016295316
2410,-0.8002276184231816,0.9313663629080041,0.8262632449403953,0.7297834503300541,1.6177045232795815,1.1024503111897648
2420,-0.7777809863991252,0.9516798710645609,0.8423176419193171,0.5668764462610681,-0.4941298449448637,-0.6809458676842298
2430,-0.796057329785237,0.9445935940289749,0.832554737418791,-0.7238411466620546,-0.9233408609348426,-1.6474003366812418
2440,-0.7968008015404389,0.9362496545581369,0.8328666008994753,-0.4833726614642646,-0.3410823603658967,-0.7555748811336966
2450,-0.7866066738379542,0.9408669610845312,0.8451810269091804,-1.391208385298821,-1.7579803964113003,-1.902496762021513
2460,-0.8001459992229744,0.9305299083197099,0.8309835196958896,-2.0024862168149085,-2.9669840244111088,-2.726511624848965
2470,-0.790178480569809,0.9477266563173311,0.8437843579779754,2.868442638349989,1.9030621598963333,2.3795754863243057
2480,-0.7899585546184993,0.9457711814864567,0.8435804375708038,1.700460040547809,1.3380443074221506,1.5392790375353813
2490,-0.7881866694748756,0.9401497413906045,0.8373800738791854,-1.908111455311134,-1.365328448490819,-1.6426174773798565
2500,-0.8065159251846925,0.9269374457076113,0.8197490565125052,-0.027126905361527287,1.1772688655223182,0.5441076444350692
2510,-0.8076325788341809,0.9214570402592799,0.8182949084550895,-0.4262398916839794,0.3323611050478854,-0.5658390111276079
2520,-0.7661041165636671,0.9565057566543123,0.8658743129536624,0.6398179586342496,1.8841003702180514,1.2561889226291019
2530,-0.789995698857131,0.9370008853285015,0.8404152666004717,-3.5558139806398312,-2.1173666152411736,-2.6685673595519086
