time_ms,ax,ay,az,gx,gy,gz
0,-0.4787637487123091,0.5077097867253297,0.7970712369424946,-0.12380813784239897,1.3085731221904289,1.2319228032955993
10,-0.48049896053147445,0.505002968129174,0.7924529713781107,-4.231780927012584,-2.690379033598425,-2.7690445694685994
20,-0.43853568354002614,0.5492645289905089,0.8434290274032119,-2.5970560784508745,-1.0077085121767118,-1.1603456790070583
30,-0.46705270094117657,0.517814774127746,0.815795712764423,0.7436980840128811,1.4305698411550016,1.4964971230675257
40,-0.4326256053585406,0.5551134979187359,0.8515009195911868,0.3005688290955949,0.42422227910504484,1.179093157869673
50,-0.46573174145974977,0.525423547184092,0.8180546629238135,0.1335872387722901,0.811732994058442,0.7644002596888817
60,-0.4605304848534969,0.5311246301753,0.8228542715114847,-0.7619846604907006,0.5568537680399274,0.04532767046049185
70,-0.4507491240185509,0.5397744843434525,0.8343044747170633,1.1909229170502822,2.4148057860620793,2.2353276194075273
80,-0.4439661573126732,0.5478198652258333,0.8407071722519299,-1.9883013380059822,-1.252782490569988,-1.7916356826889872
90,-0.4308438415784156,0.5519891717453621,0.8488281415748004,0.650486926615008,1.7089220267361895,1.7871840222453177
100,-0.47029073509663866,0.5192370155861286,0.8089136571338472,-0.6762084150018646,0.7657667469398937,1.2535440086764857
110,-0.448693891764574,0.5396947599663532,0.8332085605248848,1.3386134684249669,1.3935015071996864,1.5667804851405656
120,-0.46031405548892207,0.5240853460690347,0.8295469866501859,0.7703337529056741,2.3886124362578576,3.7686541679365324
130,-0.4599392001015606,0.5204310041848507,0.8332596855100876,-2.721352910458565,2.5452001362317374,9.294415798641051
140,-0.4240146396730304,0.5186852721892334,0.8517438914914935,-1.7789373182850825,-4.6581846177785575,8.901890272419028
150,-0.4050404042820929,0.5113851953526345,0.9166448188057483,3.15754728985881,-18.626185070634733,5.523630351330221
160,-0.4583573637963839,0.48779907258028243,0.9523086550553723,20.500108380946703,-30.745817163208986,8.129706428752323
170,-0.4453262206888499,0.4660915609464711,0.9036914549527006,30.554076815295772,-47.46901623693369,1.4130667906954741
180,-0.38168221234323596,0.5567387736375417,0.8900598157378597,43.069425990139784,-51.57711188269116,-0.56153068314337
190,-0.41679170534313376,0.5411010299896989,0.7644105736827713,30.88620809139201,-47.722779308917744,3.7236015186345077
200,-0.36271614279813913,0.6634618397880634,0.852711929618483,-3.1186101050255335,-34.20592247828638,-11.072138556711892
210,-0.3851486376009744,0.6375250590284876,0.8181880435719815,-13.799923334573364,-26.47692599700325,-14.771724158821645
220,-0.3821387444557404,0.5815753571276286,0.8529646444888036,-25.703932756155975,-21.08971538415318,-15.127697053420636
230,-0.3957854457766117,0.5701031156562005,0.8482785820436803,-32.137916093342675,-18.269720136935437,-17.575022021510385
240,-0.417292526933768,0.5457230060847962,0.8395164726862385,-34.472295177925304,-12.024042745082237,-15.047465353282625
250,-0.4039774905066194,0.534016425414747,0.8688060200198189,-34.75110363597236,-8.36502679262758,-15.68303918502314
260,-0.41066513716484343,0.5052962884282478,0.861293424635867,-32.5649767265416,-4.033044048341976,-15.10772742538997
270,-0.4680614910642841,0.44055877723130227,0.736278220938899,-31.51161536248861,0.528381831735631,-12.731777991935004
280,-0.5926762732209666,0.47939022341385223,0.8278466383962655,-43.356771934409636,-10.12269678702652,-14.961455799250405
290,-0.514183361702537,0.5281982629002216,0.8510400339482381,-34.733846949437904,-3.4360235802354007,-13.251453288055272
300,-0.5803179806545414,0.5433806997264133,0.7476893062228462,-49.67868327954321,-7.106300940943329,-11.94697352697287
310,-0.5470830426827958,0.6476478626719496,0.28650271066834726,41.99958671672539,55.67940405189101,15.857432264754959
320,-0.48621863085698336,0.4370480410593509,0.5529647605019655,40.97395555650358,61.99879988454458,29.20306306846707
330,-0.359746725998228,0.2047604788049139,0.8407579424480246,12.52732558979988,58.73078163705217,13.588389434652175
340,-0.31804898178309243,0.44120462026935875,0.9057318666531974,-7.069451990824611,39.96016322702283,11.367305597521696
350,-0.41126760038836485,0.5469659013642997,0.758452056769557,-8.701844733131411,34.308798366577726,17.942193021943435
360,-0.46161566063541304,0.5582493224315503,0.7714031714996892,-2.330618471756283,30.74207409396618,24.930412206019454
370,-0.41777897940817915,0.49833641220726055,0.8778842600340117,21.102499075147353,22.3130746890141,28.573688731389215
380,-0.36966959856002657,0.5220153750536187,0.9269022045283017,26.257769182531444,19.903362247100638,25.486735144676672
390,-0.37624064390412776,0.5038851177084003,0.905917831462622,17.068613841508203,10.55238118555334,23.665488979652658
400,-0.40047046936630654,0.4393224947314092,0.978839232784814,9.600658700573742,-1.901963601754343,10.405951423401774
410,-0.4044597191843457,0.48133418701102154,0.9719024506087641,15.1820239560137,-32.118729689542995,-6.132833465923068
420,-0.40060685548452224,0.6331886963588806,0.7747604965114757,23.751937257198186,-41.70969354484777,-11.37325169945986
430,-0.4094627750153127,0.6052587376857178,0.8098799936135382,15.677702633852315,-34.0657893431683,-8.402454410607284
440,-0.383741182233152,0.6010073010995489,0.8327561963567801,8.55153943731624,-29.353973791408205,-10.269170033568017
450,-0.36814767607366666,0.6174283040189911,0.8416676962308864,0.7342666760319367,-23.239082066868708,-10.60846124587188
460,-0.38689625311972264,0.5779599933194441,0.7934752164208961,-13.874207507032462,-18.979168549726154,-13.984844987059809
470,-0.4060136605206323,0.5063394603201598,0.8875297138310846,-23.71449110508595,-19.108479951959847,-19.2157862162971
480,-0.453580592016442,0.5006268415456384,1.0960879557103966,-24.92713373260892,-23.207263839642458,-19.121446208582345
490,-0.4746853668178941,0.4720399041198691,0.9340315503094694,-22.687534371392005,-23.74300500496817,-19.76454716273108
500,-0.5490681060166257,0.34602849769703203,0.8214542412828513,-13.687772371747462,-12.700845131983092,-36.02111732952551
510,-0.3014965448787005,0.400051638393424,0.6893224701722006,-14.313020690913618,-20.378561565542284,-25.798496634632343
520,-0.4406164302844289,0.24414444920013392,0.7298267403521056,-15.42919040648634,-10.46850029270323,-37.56446239217111
530,-0.5000923618074817,0.6073035127420038,0.7086969322962859,-16.327331805811603,4.4078918104531395,-24.030622876810238
540,-0.48242627534847704,0.41854143399601423,0.8294123171418549,-40.737213167164406,6.017256636214402,-15.542309049548619
550,-0.4315135753438172,0.5149886515745948,0.9717338711079161,-21.91362183668156,6.550041679142241,-23.440393604124303
560,-0.4240936263069808,0.5158941988904469,0.924958191594763,-6.771624873083006,13.330897269128778,-21.291367418182332
570,-0.4381039072533397,0.40934751937368186,0.8603756225176686,-0.3340512409900535,20.193114258742987,-18.13651643999253
580,-0.36654362117689093,0.4879149507520995,0.9429403942813527,-3.9187293240805467,22.74129309214404,-0.48131148494491205
590,-0.4264136688904784,0.6227441394878631,0.943163079960896,-0.3799515579008195,16.634143963244654,8.240055473261185
600,-0.3458189691184763,0.41772958866914983,0.9860590939416441,-2.0906475089150773,11.482911906929342,4.108826038325317
610,-0.3728261513893928,0.8792153460701281,0.6195380656581149,43.62006765936524,20.827053164215673,50.80342159169638
620,-0.5660646273678177,0.6092947262435269,0.8073383804946207,23.677355990811492,6.247917859783194,45.21239034574505
630,-0.3154919828267002,0.22616898754659964,0.8746508358529594,-0.6912989770752511,4.878544073808366,18.152466886670574
640,-0.40709135707076854,0.47237376217707744,0.840245154785884,10.02233858836934,4.146687843261902,26.665185760429548
650,-0.3629498067675099,0.30690724095380945,0.8736355658310713,-4.961080901185369,2.042512178203093,17.480440572618875
660,-0.41942909846992626,0.393435542941785,0.8492464431621883,1.0999705704178173,-1.7802610413946933,0.45397965185043576
670,-0.4377317441435428,0.43406346503663246,0.8310866616851083,4.3482224546158,-1.030260774036109,3.582117459767277
680,-0.43992393070579755,0.4435161793121895,0.8288049580994601,9.544569371598211,4.0226920060288975,6.897102046861188
690,-0.402927182013822,0.48141379258557115,0.8907253070408383,18.702238376904965,5.023920990440166,8.672257038665247
700,-0.4292454163379491,0.41845281109780436,0.8330658887552034,3.5527185161435453,-5.218275377180655,-0.633026010878116
710,-0.3965602023452436,0.3217423080847119,0.7876930283881095,-2.624168888536982,-4.395441787555462,-29.15970460440253
720,-0.4572719584995354,0.36213519496036045,0.7853885274385866,-27.154801403079293,-1.9866777300099907,-16.113219113589075
730,-0.38061958250165095,0.3897406870187953,0.6485679704641628,-24.249525542625427,3.202160819547494,-30.012542196549795
740,-0.5353106092818494,0.17079337164987513,0.6111109209454998,-30.64012669617858,6.919694473349561,-29.044662276473215
750,-0.4419633151700027,0.6421258707031109,0.8744441624782131,-31.039259251811767,5.957143452271157,-11.421269881922333
760,-0.5157514086276173,0.6628298928324209,0.8802623112136212,-29.379893604290025,7.996898092162364,-15.450061071215384
770,-0.5076990218382087,0.46829816368451455,0.8168047867631283,-33.69642620288332,11.996988543766431,-20.344833835545323
780,-0.468254353426345,0.4783432360163099,0.8147435383835937,-29.58637383843236,16.169230515979624,-11.793549054568553
790,-0.506615614153317,0.5749315265469581,0.7517931967161979,-8.114642545565228,18.50623790013417,-2.3463236479155136
800,-0.5148593454697374,0.5602312995682995,0.7839851925996755,-1.5138475153184114,13.878673731416516,5.613583280213202
810,-0.19213947438928652,0.3782460038093303,1.25030264688757,-5.370096490867186,20.755545091780515,17.979119353140835
820,-0.5232268326436648,0.504574939381816,0.6994560722053662,0.2715323465204238,8.261795955257478,4.196327435646754
830,-0.3948133753594917,0.5317051473379018,0.9782954918388204,8.53198695607615,9.244105768787602,19.893240656006938
840,-0.42004037958310897,0.4768962886474349,0.8473164908894206,-2.8622060756075847,4.169874314067308,19.969879981189617
850,-0.4974976073314147,0.5491090590427505,0.689914543813258,19.994265884487298,3.580094865271845,41.0734590154763
860,-0.4143836068962011,0.5143521882493534,0.80215253690178,16.919206016346305,-2.1110338997621114,32.246905623758856
870,-0.46644899721250815,0.4725188665535104,0.7961261611163543,18.105507661716793,-3.799455813984304,10.248585652219804
880,-0.4636715739467233,0.5186172443750345,0.808675305990103,14.442724627375998,-0.3880730698592336,11.0782655655115
890,-0.4620033492726609,0.44106840458572494,0.805746192333414,2.837608172348741,-0.7792638570368924,6.0601133169750785
900,-0.46224220189251164,0.4569069145007361,0.8173992468467417,1.265555851361253,0.32600065181144766,2.0221864684930035
910,-0.45278637991880916,0.4559922299908616,0.8036129451597815,0.2827104321997278,-1.3274471608268583,2.736527754971391
920,-0.45249953714971414,0.47802634316407544,0.8215562915945642,-2.3035792114095712,-1.9126743594799547,-3.3689265999607008
930,-0.4209617513765916,0.500372100239324,0.847454627238614,2.862915504416876,2.161376581750214,2.5241634234063013
940,-0.43622520314337193,0.505616375412502,0.8451760891578037,4.1925165587333195,1.2418000683590555,3.91050461875453
950,-0.4411853815001925,0.5050812229970959,0.8397920464023614,5.848249511603032,1.3247851530790413,3.4764722555378214
960,-0.46894424496809994,0.4710205804940243,0.8064393462548456,3.009740896220194,0.7305651952582513,1.977303884975919
970,-0.45020057826316817,0.4881688762785684,0.8296175514357358,1.001143375452883,0.3889681396625286,1.835307828511104
980,-0.450049182401124,0.4949690260577313,0.8301171308605453,3.327907305658593,1.1659475769245544,2.8770133715556856
990,-0.47570125857984386,0.46877243132847335,0.8002981859447303,2.960933854090805,-0.37319366126932946,1.403034081810726
1000,-0.47264884621617476,0.4741942533031263,0.8069109319092983,2.7498697656118227,0.09085359790691683,1.5330361650230389
1010,-0.4637549784864183,0.4874829605475169,0.8137080790500731,1.3808222458993888,0.27086973467483455,1.4327216274657997
1020,-0.44658334251486664,0.5000109449841161,0.8302772157686162,1.5281245177233531,1.7929371230590936,1.8025818737919443
1030,-0.44971245099614465,0.5023658289686567,0.832836257559773,1.4534706748751332,0.9328624158099547,0.5140262148095865
1040,-0.4359746158996433,0.5089839920892766,0.8400257574157844,2.3770098477022414,2.3203741728183083,1.2803712155295142
1050,-0.45871027860625785,0.4870639121437525,0.8183252450144914,1.3281375177673709,1.0541866199524665,0.5401475852307334
1060,-0.4458149009488142,0.4997566356541592,0.8327663124079441,0.5217450336289551,-0.39310772276913486,-0.47120184739693727
1070,-0.457747417779122,0.4914344261117135,0.8201846983927158,0.1645024043281481,0.0857369088311365,0.3749256257247404
1080,-0.44555178498385967,0.4999166585762339,0.8291230023525408,2.130765879476291,2.1326989086839783,3.3196887192664004
1090,-0.45703692513577987,0.4935532617533306,0.8204690831842353,0.28449693424118805,-0.36186609893753774,0.33617406310556275
1100,-0.4364421974934798,0.5159928729607463,0.8429504487957343,0.6724753958117818,0.24770383877559377,-0.42602095092262465
1110,-0.4413793831934633,0.5124995276673248,0.8394986098180589,-1.0612932253850373,-0.4402797207499558,-1.2500555646597367
1120,-0.42933020088815366,0.5216316406254989,0.851729510510059,-4.098475964456623,-3.2275333042437913,-3.9504122828705994
1130,-0.4404354836377242,0.5062677673549989,0.8358014190044318,1.2903048669047004,0.5258523060253932,1.1372545963188925
1140,-0.47537539294987496,0.4774305521662668,0.8030125287912823,0.7734432730997007,-0.27957276042665147,-0.40357160255545144
1150,-0.4399635279918575,0.5129470796274722,0.839068377626792,-2.9833133174780553,-2.771896063857298,-2.88798431640755
1160,-0.45604717304174014,0.4947595589311086,0.8281373654902103,2.0868256137190797,2.2511619733935246,2.1371124993136017
1170,-0.47433543638282905,0.4824744225391163,0.8070291111146541,-1.0677014268803788,-0.8548460343734844,-0.8584233345268781
1180,-0.440836395237492,0.5133994636630103,0.8411140365199767,-1.1307063156252999,-0.4164503498075888,-0.07635898585145692
1190,-0.45768591529157765,0.49225583768422426,0.8209552604032668,-2.301872357518121,-0.8100271934570752,0.2796149851836281
1200,-0.46498918256236926,0.48649552514801836,0.8136204860376004,-3.6793369139563112,-2.4534774143544027,-2.1178101631339104
1210,-0.4393570745242517,0.5132342866905983,0.8379170820014125,1.320457178521829,1.5215883845550604,1.2053830328638004
1220,-0.42062137746685874,0.532766303171622,0.8585626705345062,0.434583536681074,0.8121803987623473,0.3510009212515677
1230,-0.4692432072313535,0.48265496214170883,0.8092747777724507,0.5891601465988527,0.9283146244671439,0.8629204659690185
1240,-0.47585225604593184,0.46993319763760244,0.8018861689442247,0.3967071992451999,0.5433057763878364,0.556753903529956
1250,-0.46146950350924326,0.48570576902307755,0.8202255520241264,-0.7373764037933732,-1.3777249720262206,-1.6294345375168737
1260,-0.448074283924109,0.501428167937774,0.8311473959844836,2.8163772212306517,3.1453169347234167,2.6759878589817125
1270,-0.4649609436363724,0.4850184930630337,0.8137610118922102,-0.6676278152726769,1.2253526123586012,0.8516715113096359
1280,-0.4750648938979482,0.47196073205488687,0.8032302399985672,-0.5873106829349947,1.4640710208645384,1.4352208391874006
1290,-0.4669771323465976,0.48334272452509797,0.8135834544466365,1.5297815867538276,4.190569173151172,4.667799165772425
1300,-0.4740220951608335,0.48627882583998455,0.8072488739611674,-1.0561121901052504,2.6381927339414237,3.8397875794735286
1310,-0.4585657286658911,0.4938572404266,0.8250068871393538,3.7457739335626616,6.753755380943668,8.726966222585197
1320,-0.43154747686111466,0.5221307847562479,0.8564802988798244,-2.86830305879839,3.8057470675747824,7.623543726469263
1330,-0.4595243682654232,0.4960341825661291,0.8377132446382867,-3.577377826448508,3.135353154362099,8.518058310371933
1340,-0.4472412784872288,0.5188181674130283,0.8412450931431643,-0.752918296649193,3.6186882369976234,12.52647706897191
1350,-0.4606415996232415,0.510855592863815,0.8404282741564524,-1.79353503415622,-9.084965961521329,10.90230053073771
1360,-0.46029134317440756,0.4923912315934341,0.8422420564178431,0.3234631997647195,-11.639457873014269,7.953767779195993
1370,-0.4871902186956118,0.4962740577567145,0.8701075564434944,3.855449256610494,-12.72760714750939,9.799989610283067
1380,-0.46902033173977203,0.4827197020984974,0.8915005676475408,10.801031887896727,-17.662311917545615,11.053102465014799
1390,-0.45678441657286967,0.4610579110701702,0.8620051319549256,17.787281130196526,-23.035962261450624,8.955606106072151
1400,-0.40176087254135756,0.5223139726146576,0.8649003088620432,24.41612900751326,-21.03812344175836,5.998172197728407
1410,-0.39327121455459046,0.5357868428265152,0.8689562661510212,25.98553200732668,-17.293764115408173,5.5119357161458815
1420,-0.3775731075420088,0.550256555267038,0.8865956441528106,26.325270686270876,-19.56983908804587,1.4712627911985865
1430,-0.3609237888308374,0.5226394571456829,0.8876595536426064,28.493119178577096,-22.63528907128588,-0.8503807393259601
1440,-0.38519762494673965,0.5726688943208055,0.7696475693830159,13.061855926913587,-13.639166727651144,-4.183037524432523
1450,-0.3881053127981361,0.5827097135007204,0.8612133702358378,7.328235216571644,-7.7368704200585405,-1.8901010154335656
1460,-0.39944756310902085,0.5319360755285367,0.9049557682459141,2.7773097082033664,-7.4733732568398725,-9.23553290460302
1470,-0.41339020826084233,0.546133627283536,0.8948082851211826,9.47296832036271,-7.921195711088291,-7.4168219044005985
1480,-0.4149364461647039,0.5424302374932091,0.8705964929768425,12.132710226371273,-8.227995566098695,-3.873331707612625
1490,-0.4003539929151322,0.5656884679798878,0.8485140044537683,7.169225876670787,-9.69615084160849,-3.847658819396793
1500,-0.4229989435146222,0.5424001953453483,0.8065309050303537,0.6961686815255941,-3.882430448624716,-1.5540027361205846
1510,-0.4498160839772648,0.5105824279762753,0.8289036819625025,-7.350126785005605,-1.2293960829688901,-5.090117588057461
1520,-0.42244990880871314,0.5385787107726931,0.8869260992985113,-6.9485733412031845,-2.7716079590032927,-7.554052182691779
1530,-0.4058790262455968,0.5284780827789648,0.8144895798558383,-6.743377777777793,-4.0025280586901815,-12.015531185494597
1540,-0.397875756697983,0.5627571347426533,0.8169560890551291,-2.0646936742146393,0.44292476442275264,-15.610685935329297
1550,-0.410204921743217,0.6043215683692063,0.8414540936435396,-13.173508091485354,4.466532993690662,-19.209832568206252
1560,-0.48024762511411545,0.5897845014881751,0.8453263480283956,-19.758977940937548,3.6020769491991067,-18.287700093288976
1570,-0.5857008349847412,0.5392208112346049,0.8487543608055301,-37.23316263118384,7.604740233727756,-14.195254822536636
1580,-0.6147429293476067,0.4678592883985834,0.927044779542371,-41.02070624027839,0.7716465440231435,-13.92804625151575
1590,-0.46443904026353366,0.4786692751407259,0.8368421855915174,-25.61534049971261,-0.9371255815979636,-12.966818123679024
1600,-0.4724987314323741,0.49355673098211855,0.8071198705535824,-11.180629338705772,2.0678068246995425,-5.075300397383929
1610,-0.5960174760382455,0.47186828541976944,0.6760760475285812,2.5496932587033507,10.516652336632948,-2.521958023103057
1620,-0.5546198185070508,0.53310601341807,0.542712174770505,14.652105617150962,30.732047230918667,1.2757494142435366
1630,-0.5291541933086381,0.6088246604858905,0.4997089273884636,2.6565412150002685,31.4944883267352,6.566011793245853
1640,-0.41526666103824444,0.4273762509691928,0.9564007734288218,-4.216587360948008,33.0529609361278,13.942508639463812
1650,-0.503192778619467,0.38059441571303393,0.6643441002194492,-26.371647253270204,29.014116093823244,8.556109276426604
1660,-0.4538536798445887,0.4851019645852916,0.8061823256545535,-22.494561611321146,22.31895939199643,12.929259374450172
1670,-0.555996179559017,0.4495851084669169,0.5989049427199293,-6.524789395013125,10.418104661297672,-0.04476858325364752
1680,-0.4908123698412472,0.5012888270815875,0.7606644930038998,-1.6188321878550904,4.0860374793412175,3.989311626305608
1690,-0.4083028202024159,0.5111439494774255,0.8819766274630083,9.975536493366182,7.1902350226653216,7.270523897795918
1700,-0.4113520135320585,0.46317486504018407,0.8875286346565127,20.612307717292204,6.280777796941326,9.19577964348507
1710,-0.4098177419050506,0.5424563902056877,0.8745595770081991,17.484990363087018,5.016858255747383,8.892489960016386
1720,-0.4012852400058432,0.5285000971428384,0.8938278205368395,16.24790369997643,7.294981591549478,13.68130289640402
1730,-0.4141865542620879,0.46294679532221594,0.9008814788957227,34.19099408644958,-36.734002402217115,0.4187915674894638
1740,-0.39054095641025643,0.5110883287641743,0.8580503301165082,54.624034749513136,-46.85328806947995,-6.73315571181474
1750,-0.3673581081635201,0.5540049704838541,0.8210302702761629,47.092007107110085,-42.48240488317333,-9.35811338018608
1760,-0.3749316716007071,0.5945574197604382,0.7873842279251265,33.77397147792809,-34.044607220157445,-10.504891412560637
1770,-0.4095178949823252,0.6391490739841795,0.7756528144803424,5.504031049182792,-22.264226040787918,-9.446797011496743
1780,-0.46207353650800315,0.5745560730350915,0.7837253076008807,-18.188664506767058,-17.503781026367196,-16.006674124553125
1790,-0.48853719666111733,0.4946401654354435,0.8781015474192037,-37.24914219739828,-18.608886065286434,-18.807392045426695
1800,-0.25376186729263595,0.3599199550425283,0.9973340127992084,-27.354416993592157,-22.02180748444921,-21.074818670450185
1810,-0.3184209476592403,0.3521251707059197,0.9710753540222141,-18.46813926349312,-18.677419279463344,-18.61109724081976
1820,-0.3157160726905168,0.3513495040880049,0.8950353924776407,-13.31371795194955,-19.415620836088344,-14.604760477256779
1830,-0.41951322780099065,0.40967259534278805,0.8020537308943657,-9.453791242124064,-15.21013947389613,-0.5527921192405479
1840,-0.4329630126263888,0.6101693667558871,0.8863522691764641,-14.497995039378276,-3.322997509515349,-3.445612153241061
1850,-0.44777687148141904,0.7903391943452169,0.9905223988778606,0.24779754043317448,-4.087354835093382,-8.845045490673039
1860,-0.40431452969126846,0.6465429577818418,0.9342310220213833,-4.110449818825954,4.368327116697213,-19.40212354514461
1870,-0.5058694223647524,0.5345643935736281,0.7725752693982205,-38.20914194070144,10.382116516924881,-22.782564861067222
1880,-0.46309957262359697,0.4365884192159861,0.7883473132777743,-17.238751506714394,15.132113053242893,-13.288820417041485
1890,-0.39258416740033764,0.49500408479960845,0.893788744822287,0.872668800811764,21.192409644852752,3.0461068054384537
1900,-0.3979988231866114,0.5536916556926716,0.8572999829360497,0.43273280359813926,17.586075017832794,13.431839298827343
1910,-0.4616139679581265,0.595857258525224,0.7806273779697297,8.80979011974744,9.41456051478833,18.87072736460286
1920,-0.31166667390613345,0.4425335422374648,1.0218191112300141,3.8541718703463106,2.5481691451454482,14.873612012147964
1930,-0.31609960136653786,0.3116557860049144,1.0230388570016795,-14.233743558146992,0.7778890694371325,13.692860369828498
1940,-0.38463102185798753,0.5741075264109841,0.8727851327708285,9.488943010929201,-1.340248920864093,13.683019440390275
1950,-0.4303501310116354,0.4379469408699704,0.8463317482151486,4.215229896528438,2.28276454005018,1.8692031246517569
1960,-0.41898926525970387,0.4974301389721931,0.8600151815339673,7.142542477465218,7.856943657099258,10.173070878690469
1970,-0.4115795257561443,0.4952994127994717,0.8625678287364854,8.435876645592876,5.803286584869587,8.504253734635183
1980,-0.4125792822873647,0.49521599208526074,0.8598938959426191,6.728825862336574,2.6587027363937117,5.072751219119174
1990,-0.42687477365186904,0.4943389957583995,0.8561278230060809,7.9996037567342215,1.5518356474065824,2.620356376959455
2000,-0.4313165188936504,0.5607452537115575,0.8380995701999432,7.2452994661459265,-4.203561513938491,-3.4012090362853136
2010,-0.4993240927351898,0.5273159197512962,0.7736107216921903,6.756157815495359,-3.099836016114726,-3.9049820795083017
2020,-0.4345300654457274,0.4491124516813165,0.7545831301561274,6.242580921083409,4.723426847222205,-14.92966773597367
2030,-0.4694342866369838,0.19257561911483,0.6446977077010811,-16.314521063741473,6.6314030902925,-26.654084440637106
2040,-0.41791339069515154,0.6803132651641787,0.9381885457608886,-10.579680846074883,1.5316065768530316,5.483972791397097
2050,-0.5018798179742017,0.5348276118250047,0.7982569150813467,-6.696783096893364,4.097743792598251,1.1177508194623988
2060,-0.4885996191994556,0.6107988680354954,0.7314335381790649,-0.1489176403833964,12.115451167716607,-18.545799561843364
2070,-0.368806265848642,0.5603265287578366,1.0224551053525823,0.5440224766347865,10.544994321795583,-12.61299592695032
2080,-0.41293633693025994,0.4837393522242772,0.8256259556709785,-14.794127044367947,12.00472927059754,-8.205549729377665
2090,-0.42486095712261673,0.5211583138058724,0.8595097357892776,-11.559432192806502,9.513095764848039,-6.159540970735748
2100,-0.46588732610050154,0.4930722921683303,0.7905404704536856,-10.696647092413706,10.717847159568585,-6.290834131922215
2110,-0.5126971795315559,0.5171306070940987,0.7644148730412487,-5.372529445302947,12.881457772933334,7.162474992248802
2120,-0.5054027201649111,0.6112658704132469,0.7141327555743324,7.832010260305058,12.692696936968705,14.658484568029209
2130,-0.4813211399217859,0.6149354737265567,0.7871812399631197,16.799948734511318,9.40801573474165,17.24506352624029
2140,-0.2923286702532927,0.3921200923599929,1.0717721182373219,-12.856121002937812,4.059804824630797,19.546732221579212
2150,-0.4775749600371199,0.30497393209215334,0.8055646121246482,-17.727650806298474,-0.37051660275685117,11.710438835790844
2160,-0.49323714440930316,0.4335292506140715,0.8420989007570833,-10.585639538236649,4.015404487084925,29.469776913789495
2170,-0.4321482910565073,0.4700383400223557,0.8522475237704596,13.348030065743828,2.0062557072751948,3.0922956324517976
2180,-0.4064303267637983,0.573736698823892,0.8825912689470025,14.797109365908938,-2.7465904707128903,5.731872632620487
2190,-0.4652849988012619,0.339114811721393,0.7775381034248237,1.935883097702194,2.1204285419241247,-3.3727025948053715
2200,-0.4661235568495031,0.47827706698785455,0.8110393706777637,7.421403475772037,3.7478438118978925,3.7340826999545236
2210,-0.46781674095564885,0.4879941575514732,0.8054871296340023,6.04086373413605,1.5718142343199748,4.32838642196118
2220,-0.4515279120330067,0.5078081852139484,0.8300316917313932,1.1358815191992246,-0.11176353118074456,0.8835344637975473
2230,-0.45769337587240005,0.49589741065594567,0.8219675939572783,-4.068371863075969,-3.502695975440597,-2.3177791744528435
2240,-0.4457530027870144,0.5024648988291092,0.839820319706007,-2.7999115823851692,-3.029430839673318,-0.4858496845024226
2250,-0.4449472321828043,0.5040530783963693,0.8345798451813959,0.29637523564256435,-0.8988368063505499,1.565238586179823
2260,-0.4617535513249545,0.4886868990294571,0.8222472285235901,3.481208431022425,1.4674940157817207,2.5901491645429253
2270,-0.4722765436198327,0.48039473618131207,0.8077910132809324,1.2120443697259877,-2.214033922817243,-1.1308734864868162
2280,-0.4403317382346113,0.5195300507947438,0.8430833320325735,-0.5901908127795592,-0.5634314423738378,1.8135439081831115
2290,-0.43282338611238336,0.5251135972396579,0.8488238321649816,0.2634882762553781,1.2093286983374258,2.837835755627498
2300,-0.4361760316040407,0.519678996287554,0.8458978542392621,-1.9223577665620297,-1.2372301834539638,-0.11279647740242266
2310,-0.43639022930195276,0.5160635824935011,0.8424142430628444,0.7626810184590773,0.2029862624998653,0.8160076176544311
2320,-0.47289604091304577,0.47710010015311244,0.8040304942649966,3.8941006952922086,3.0988129137970355,3.4083447209674533
2330,-0.4522921906007224,0.5017361788853084,0.8257546398522523,1.1257613815411305,1.0997636077156974,1.3772837696374902
2340,-0.44008324444509683,0.5164394839443706,0.8404057836948362,1.619533349084481,1.2673268896443262,0.8424680271162053
2350,-0.43778074076450124,0.5185118529464934,0.8474323523923039,1.9555759575125795,1.0239262112767216,0.0050185151252859495
2360,-0.439146575297401,0.5162424610262575,0.8429258756552012,2.558226059063675,1.7295468793202569,0.3106478733150899
2370,-0.4366100426773882,0.5173533668136938,0.8364319113896016,0.6047386445445635,0.19347805727330059,-0.5898665395539038
2380,-0.44843107541992433,0.5061384075208014,0.8329114315718604,-0.8219155173075534,0.20963110255446116,0.3734422019297878
2390,-0.41958190422744795,0.5409565676548753,0.8605441488637651,2.4747635888388952,2.8358749087480675,2.689878556002616
2400,-0.4679212082688125,0.4942209199609322,0.8143254167726433,-0.4870910939585847,0.6352285819678991,-0.543827362539016
2410,-0.46346284242145624,0.49445346617447317,0.8231133347442687,0.8791857426497489,1.5267116489093175,-0.15959901701467716
2420,-0.442094776909472,0.5130965229463957,0.8396701451736571,-0.721219288450179,-0.7578637212416228,-1.6201693351024091
2430,-0.426976274292342,0.5290626900228015,0.8532662849064364,-0.1959922864466433,0.218701079528321,0.5501923184404308
2440,-0.4602054937305395,0.4968206321273195,0.8157525056769311,-0.9592149428867653,0.7950216744057665,0.12235268209445549
2450,-0.45451484632785477,0.4985363967937714,0.823379226539354,-2.2450564783102878,-0.707840561573603,-2.0968188076932703
2460,-0.4259999556372932,0.5237989928481712,0.8600294621817531,0.6134573996461209,0.6227325893151043,0.435441582399357
2470,-0.4429861508595617,0.5092014455980354,0.8394489158462387,4.593059507462431,2.045585344665612,3.3929521597111076
2480,-0.42384039076338487,0.5276430937362262,0.8546476994527621,4.397207248327861,0.6160219366799642,1.258103843971149
2490,-0.4524626688458553,0.5012935975885751,0.8272012890277008,5.57581719542024,3.5860178200980317,2.93470764481601
2500,-0.4582381393534665,0.49201240665710144,0.8213552042839017,-2.1356043358412027,-1.2758207467668403,-2.837442587612773
2510,-0.44658785238424137,0.5089435112908623,0.8346455492918997,-1.6692934371868668,-1.2588796443675987,-1.601614369602744
2520,-0.44243853245367126,0.5131183571299688,0.8388763291171085,-0.4892628088901819,-1.2445754688226063,-0.5918278376898974
2530,-0.4556496189478613,0.5013555305548378,0.8234447950931825,1.1165439528766552,0.49883840689746606,1.0419510451727194
2540,-0.44213883879855825,0.5126807843591631,0.8383176172571395,-0.6419905256783971,-0.910441128237813,-1.0697538763961796
2550,-0.41369804079645073,0.5422087394920848,0.8678033038629722,1.4780239264877428,1.2223200206379874,0.6987996977590447
2560,-0.4504124516093882,0.5082382732708103,0.829491449082056,0.9510111112614861,1.7516134235678995,1.1822437117395301
2570,-0.43642659782142285,0.5162335118883407,0.8407879640533537,-2.33704971616888,-0.729405980712787,-0.7434697843550943
