time_ms,ax,ay,az,gx,gy,gz
0,-0.6073145931224927,0.5942699487671727,0.7664311455753833,1.7578337404587887,1.6338989265269,2.1283829412470574
10,-0.6121925376220303,0.5887390224378083,0.7576821257766341,-0.8953434941174503,-2.0984686579937546,-1.2117219819678906
20,-0.6066571638529179,0.592066698932421,0.7639202723251779,2.8375003771301444,1.560471119785489,2.4378944382371954
30,-0.6207927806174258,0.5810778481188702,0.7480862102716452,-0.149654395186551,-0.4829729739587908,0.5913940864702766
40,-0.6165721250338437,0.5839135630591215,0.7548484406272324,0.35013826387017416,0.22506956431474973,1.2315135197901943
50,-0.6321506481794656,0.5734302005351138,0.7406416956917223,-0.5359225277127511,-0.5631969700160024,-0.6049914789547556
60,-0.6079736781641515,0.5872442994936373,0.7606534583068674,0.21659380109919912,0.4993628337198903,0.5525146076384243
70,-0.6234344918411021,0.5722704110499072,0.7472826379622197,-2.6472490907379926,-2.770729491098808,-2.066614674969651
80,-0.6337124212335616,0.568450608435362,0.7344253870421935,-1.1432054855743268,-1.5228991203846873,-1.0102742748400941
90,-0.6100914171158849,0.5931803773272403,0.7597463910334146,1.3830623546613017,1.573784470390556,1.384667144050749
100,-0.6269575805065322,0.5748135890232673,0.7477132147383283,2.792802257981341,2.70056356688671,2.5606456302896867
110,-0.6294946282552037,0.5727030312833271,0.7458193400862382,2.538793515934284,1.9657735109725825,2.841969916105321
120,-0.6250753028282349,0.5763618289798956,0.7527081548697279,1.060870201986707,0.008135143580321386,0.9442861973937589
130,-0.6491398386499929,0.5616377373902285,0.7501058489883152,0.8618454305320433,0.17792396343079853,3.632795653856472
140,-0.6339241294360484,0.5667614809494909,0.7839684655167316,-0.6811564260821652,2.22638331078201,7.861810617226878
150,-0.6020776958963303,0.42994595110442363,0.8783564855694026,9.346130310435047,-9.238177222580775,-1.8356485768420714
160,-0.6433581626431056,0.5811155387252777,0.7815804952806635,19.515135250478274,-11.630528320208489,1.2726314810057948
170,-0.656706956990352,0.6116565116028511,0.833130004827527,27.927206399324916,-16.726803419586247,14.44130531386296
180,-0.5545003809545318,0.6447918904059453,0.767091154332926,17.316674157968414,-16.065925521265623,13.329798493216257
190,-0.4861713185662421,0.6967387075911861,0.7683766574980307,4.224343792717225,-10.527690538367642,12.086647696875666
200,-0.5668756224161363,0.5833572809926445,0.7798938086379975,-0.5842370286492451,-8.024392437046641,4.3830466045839485
210,-0.5633052044132429,0.6298776644107222,0.8361921300395808,-2.165800471497963,-10.480586909578673,-1.7351110706407322
220,-0.5851582562760115,0.6505570469255286,0.7927438701010817,-1.8528726385015468,-10.784093931323994,-1.8529004011298902
230,-0.5490411541159592,0.6658672075547452,0.8008210915584562,-9.413367368553365,-0.872080519696165,-0.24127084167380852
240,-0.5697145407392703,0.6327658908600134,0.786580057002592,-10.229793439449455,3.8512369204204835,1.4802234475487572
250,-0.58193881482515,0.6375803710382417,0.7427506437054051,-18.419613814172003,0.35879580349474693,-6.788246933905173
260,-0.5888421680756555,0.6464449965715559,0.7614546348446019,-18.809493345455163,6.628142814355723,-4.58420667610654
270,-0.5993332026361444,0.602901251069578,0.7809859335356453,-22.654005876438035,7.299768498879802,-5.98058361855592
280,-0.6835077904714636,0.5775256513920554,0.7169258606606314,-18.365740909502314,2.4427720831116275,-6.760518705795381
290,-0.7957483352850896,0.5907999617623965,0.6145024998762416,-23.361267497002537,-4.002388511698881,-8.435475990978837
300,-0.6976331057339534,0.5389667217525698,0.667706724053416,-6.083795082495742,5.929557358641977,0.23800129680500426
310,-0.66369669440239,0.578782898907706,0.7049498845649635,-13.222410613423495,4.225394230265491,-4.2017169422210445
320,-0.7145431452185989,0.581193004815094,0.6422402925102934,-18.820205769906757,-0.3309782690675086,-6.4455631748722375
330,-0.7703522066312309,0.6537782263932272,0.44609693388054067,-17.48923160864759,16.973095685813995,-9.127573837617154
340,-0.7286376779232145,0.3918669455933044,0.3199963524170729,-7.5940884423862505,28.51003557785486,-11.650148649386603
350,-0.6217599489402614,0.5153486791086381,0.7732251982025505,-7.313034426443654,19.604380407556697,-9.029788512304062
360,-0.6631700434999762,0.42198693870087484,0.6489750651453671,10.62515836067662,16.489279979371627,-3.9329996976691866
370,-0.6106693713810585,0.41723858316310053,1.04131140674617,1.1819077125433783,13.428874510760423,-7.139764385849925
380,-0.6216828390428756,0.5146688827461721,1.105449902459071,7.224162996935734,0.5039631711112382,2.4994238687021544
390,-0.6401828965825841,0.5097274509006026,0.29319669738864357,4.2875341604580735,11.768099773600648,3.8948113559013
400,-0.48059673797971875,0.3702105680714055,1.5058782126559107,15.144825986062596,-0.9307713031169436,1.55041711257849
410,-0.591015880038083,0.41859673217751525,1.0379468436458417,17.367318516174247,-3.705946966389444,-4.901227930841575
420,-0.49843596660808126,0.5109146844326842,0.9564896223223865,15.051507163314174,-3.6228105046469965,2.9475727869458472
430,-0.5381846557772518,0.5099916341799186,0.8916639526699901,25.831811878976065,-1.324137224899448,23.646780584529214
440,-0.6096270847112937,0.5934245287772509,0.8450144332986329,35.42495623256646,-10.57150834415164,32.57641595597622
450,-0.6495786592624756,0.5395307154183788,0.8627573224581621,36.599477558120554,-24.855492977300607,12.780471900633632
460,-0.5883760591370574,0.6515864103953238,0.8149800782039541,38.16673881146167,-28.604633936868787,6.602646380649105
470,-0.5442929653035015,0.686899607886756,0.7559197320112482,23.441279564827482,-23.736124922409815,8.19956085829603
480,-0.632861601551745,0.5639322573033653,0.7567014082251955,-4.097475203875123,-13.82506570435621,-0.5485448001234168
490,-0.5907112924099762,0.6049080030329624,0.7201665822600284,-0.891337147596899,-11.853253368656905,-2.04229888230297
500,-0.5287810024059649,0.6608665406190457,0.7039663234401399,-3.8441801357736,-4.966122777579071,-4.197227349011372
510,-0.5544361421083889,0.6509598305709451,0.7224145999837402,-14.631039888490813,-2.345005157814009,-9.604578713446916
520,-0.5870671932530478,0.6187629093241752,0.7451540630268841,-16.863268027756693,1.9336422608275892,-10.409915291109135
530,-0.5909271261152098,0.49168296353882657,0.7616025676447163,-4.944720482118998,-11.211513283398043,-13.357628769474745
540,-0.578335443320476,0.529232921938631,0.7406412538739081,2.4109969508195634,-3.216494691003864,-4.785831687293856
550,-0.5288825235940733,0.4757765910832083,0.6469654408648079,14.113294009655803,1.4429958081666947,-13.185043096095724
560,-0.7839993875556771,0.5057181614436373,0.6345595308813756,3.57303364160193,-0.3977193060525246,-9.951872353722251
570,-0.44596194481302176,0.0565334940493839,0.5347097389682263,-13.298497354413357,5.273471864308371,-35.035333400661315
580,-0.6937056184226237,0.34303993915393693,0.6596549736032643,4.267652154155806,7.55744026715769,-16.460740729638907
590,-0.7426084624370751,0.8517722792161931,0.7047350823466868,12.011302895782059,6.013690224884428,-14.695362735744729
600,-0.7348180523616616,0.7149656585274893,0.7768557940825653,11.213730592962333,1.4738275475358704,-3.9145307927186117
610,-0.5620694400618903,0.6981671997842499,1.0848228664512034,15.866554968914055,5.935185303723736,-12.459282463021278
620,-0.5372606743975508,0.8252829948015051,1.327323620652013,5.202247308536238,4.4869777233174775,-8.10679108427178
630,-0.5661845607390068,0.5942362820459054,0.9561083607420189,6.309564604292541,1.392150451378875,0.8282566113507885
640,-0.5780375688605802,0.5112256944750803,0.8763736296755201,-7.228232833690082,1.839659390289854,-0.3652738970265046
650,-0.4585459764237934,0.6199609057493185,0.7711799754909267,13.79449310538874,3.5300812809544584,4.443721911815896
660,-0.554418118064336,1.1233564318118017,0.41014116729610794,13.983778942939798,8.029322845342469,25.8021996319603
670,-0.6947024062899083,0.3945882590815545,0.9023910207740157,-14.265193924547631,7.718840490743328,12.983350002836364
680,-0.6609695898782489,0.351839707334711,0.8430854517099493,-19.651695556957367,1.5674812938946663,12.01137619786052
690,-0.5728231525982489,0.7273392636488234,0.8852053602236429,-0.10197834551101748,-0.42937542380967586,3.9048843019995
700,-0.6091789487679383,0.4392346052053183,0.9099724313353518,-7.3174170221292325,2.3802171755779042,9.115758411881979
710,-0.7387130478111786,0.24852269112755593,0.5673943863198282,-22.611980425104466,6.80911709011829,-0.8042044313769392
720,-0.6134486914116798,0.5251156503045259,0.7724092887978413,-1.0126313625770216,-2.2701743022641563,2.596388490573905
730,-0.6386739763213284,0.5260142035625389,0.7444264680390186,4.862308785740012,2.14290123898738,10.468624602264763
740,-0.567982502243266,0.2849846201820873,0.7325026222065082,-2.5473607094195807,1.6387925291933907,-15.18759406466796
750,-0.6552443375709723,0.5343395187202608,0.8026693772893755,-0.2639509525119008,-3.2276351374389787,-24.119414077677174
760,-0.6958580506419777,0.9579310219698897,0.922879026845376,14.011648779771992,2.8029373983048846,-1.9243064237591248
770,-0.5267229629137207,0.5251090891910433,0.48207728485452667,-18.907955011063056,1.6023659635353447,-14.785896168352775
780,-0.6500566069991826,0.8166954274289502,0.8317308875228964,0.281005339582167,2.7575161319645676,-4.197471526823438
790,-0.6746022648226083,0.864657554073234,0.8026352710333761,1.4619479538709563,5.675554289965673,-2.0901721490756664
800,-0.6062361466148245,0.6785890357457561,0.8001331652561426,22.04325226041672,15.328309736069592,-15.592312170298248
810,-0.5734847728827676,0.5423527139562282,0.7835913072500461,-9.165446213232809,3.368887864688645,-8.698641468928903
820,-0.5792522653048019,0.5210098764722848,1.005819797425312,-3.9279293245283746,-2.9503789447840063,-6.716712469411831
830,-0.609340637059939,0.5846890736809567,0.7342441021265474,-0.7508788661316865,3.6364985861803345,6.7157951521381145
840,-0.6552916781595536,0.6587185681004806,0.5754297205601194,-5.274449378149834,6.571489474133585,13.105539165087272
850,-0.5978271659412008,0.5482508924289272,0.7872457574108898,-13.098727324838055,1.1249007393647983,13.001849825288648
860,-0.6310849382736738,0.708966489506921,0.716201661031275,4.429347710480599,0.670185343294479,7.126935589647669
870,-0.6177439767909485,0.6954053695900003,0.6973306448427663,10.31127298013144,1.6527155212017188,11.416133283517834
880,-0.6838645257992377,0.21471332748614527,0.6696108972400309,-5.227919977730629,-3.4482242844955273,1.224651953712574
890,-0.649200033874729,0.46981353530690384,0.709393980737934,-0.444174862295998,-5.091656312732371,-6.22423993979146
900,-0.48709953378639437,0.8648485656574375,0.7193771645461592,16.37827340166104,-4.912320815981119,23.072092997472822
910,-0.7027954457606301,0.6640845493456323,0.6061828900105263,-1.8989289220186982,0.2962403462121804,2.901201438873337
920,-0.6348621688252596,0.5675719127080643,0.720959728396925,-5.318193756360451,-5.80145127514714,0.20705234933481265
930,-0.6388693338872599,0.5515927061711415,0.7255569048390594,1.8206089881769565,-1.0535034357582926,7.857259826989992
940,-0.6197455903272988,0.6005154152459907,0.7483335010692813,3.2907453741803474,-1.2729171628443487,9.783265400468121
950,-0.6317946935029128,0.5874240092944465,0.7404625706188072,-0.9628031676064499,-4.78969167282108,2.38631947470531
960,-0.6352217711302709,0.5742624506481522,0.7351750604048664,-2.814437252659893,-5.108166928628228,-3.139741536232983
970,-0.626174664484943,0.5690351688057279,0.7468728376248226,-0.3997296962792654,-1.3062368782025593,-0.20730038805274376
980,-0.6568506831366444,0.5422018926948018,0.7172812533116807,-1.6710133594200465,-1.670870746612992,0.9823072661629251
990,-0.611189934450922,0.5867195358534666,0.7585681917664943,0.5685076266920979,0.21135135027267182,2.8381022558091553
1000,-0.6166360427043606,0.5816450020640915,0.7496338186444833,2.7226002657474124,1.366393793316495,3.9609063866897474
1010,-0.6444081594945739,0.5623049565079684,0.7236944209717822,-2.600127820594466,-4.148803189463674,-2.315989833857065
1020,-0.6497227754584518,0.5495407544174623,0.7210778234371149,0.8093979396545816,-0.07118062787898838,2.0654185110742582
1030,-0.6209261889214035,0.5728998998931978,0.746327770607493,-0.5839914212239282,-0.5031230927716986,2.719277699918874
1040,-0.6448962138211933,0.5578147904179538,0.7250637751364089,1.2053929834946304,1.5947599132961239,5.005649291813608
1050,-0.6166661417785395,0.5873129465940977,0.7485690331340831,-0.6104836942376959,0.017813756974201178,2.315528351199336
1060,-0.6233750741204812,0.5797920751831872,0.7449409057563897,-0.30949938715205083,0.07679326649432286,1.508332735209483
1070,-0.631557093904918,0.5756079565734811,0.7378869286993054,0.8169487030448231,0.6862024162977044,1.8196973203065032
1080,-0.6173030908885115,0.5894490230827868,0.7540863096374957,-3.1330604216453466,-3.0429234017021543,-2.7132030504222326
1090,-0.6309867536324076,0.5717769171206867,0.7381364845724199,-0.6637004256806438,-1.3125326559896338,-1.1617242488869208
1100,-0.635991668544126,0.5638207133267669,0.7346277104309894,-0.0006309876899516231,-1.3479102769992735,-0.7429824823086617
1110,-0.6719890863839549,0.529118300909773,0.6962642564533402,1.8812063221330058,1.06176414272601,2.5690538597707753
1120,-0.6261346775104768,0.5742472364439278,0.745845853528581,-1.3459106604274862,-1.3063741212818158,0.14391691548530988
1130,-0.6497735238902786,0.5560461940033926,0.7290409862509357,3.199397492880809,4.205932844051244,4.8820876626753975
1140,-0.631462809828045,0.5638602327152532,0.7369079768801506,-1.195653284793088,-0.8203449941537468,-0.43340929101773895
1150,-0.6440473092370802,0.5572472023948825,0.7225173095159496,-0.3544970029593353,0.7502196038022995,1.400077741126126
1160,-0.6297054617318388,0.5713929602875841,0.7469158013971221,-0.7536238822978458,-0.8216205253139006,-0.607103127645707
1170,-0.6205649335481471,0.5808520438928522,0.75313353634182,0.349037549233438,0.35715578802422004,1.540787558352966
1180,-0.6263260272304336,0.573841153301925,0.742034109870645,2.450358134251582,2.3818097552476507,4.204958773676875
1190,-0.6041043352655918,0.5981840860074644,0.7692384802118771,3.4543849887932865,2.1946718090332404,3.879172283277339
1200,-0.6430442543543935,0.564336543854833,0.7295957418080867,1.9263469953940884,0.7430010870359577,2.3116226244321716
1210,-0.6203266850800118,0.5862380411052094,0.7512905248115044,4.164713309897596,2.8172820619044527,4.377768935086239
1220,-0.6085602483722944,0.5904395847321141,0.7584957309562964,0.951273669731276,0.4038971270828577,0.7866113449512815
1230,-0.6610255663849435,0.54304285692591,0.7110232311224809,-1.1870787078349376,-2.0253040409366267,-0.789496790282904
1240,-0.6442721653959933,0.561492148015183,0.729628041700245,2.028908333540004,0.6625192794167535,2.928658297953167
1250,-0.6551735614284089,0.5516892727088927,0.7123310569859636,-0.6445995744369374,-0.9914895722379473,0.16900112054485694
1260,-0.5884232303777285,0.6200759773455782,0.7830743380411397,-0.10400542508940876,0.01583171841147163,-0.1857518661998831
1270,-0.6336216487703812,0.5738846848018253,0.7417186725082447,3.693382522287719,3.1490733203019015,3.5432287939288454
1280,-0.6067161582574623,0.6026690816755134,0.7665604434731134,1.8008300265420216,1.5892108889124146,1.8933375842755162
