time_ms,ax,ay,az,gx,gy,gz
0,-0.5141381706667968,0.41521135684940536,0.6743797255772591,0.8028497288159152,0.24320438790044485,-0.44984944645777625
10,-0.4961406741634672,0.433633479778301,0.6916837052266449,1.395946111692216,2.519057711733433,2.487270729538702
20,-0.5292888667505852,0.3976372384610153,0.6544745264396885,-3.347341322088573,-3.141608401872212,-2.2580410626378105
30,-0.5109024588550295,0.41315422069335367,0.6628357550218541,0.17578322235686117,0.29080946765523674,1.5810639185395345
40,-0.5173030620346896,0.40467448401204964,0.6613431402229368,-0.8175211235027895,0.06883565844137367,0.8321360069600535
50,-0.5114288361250448,0.41297959750445495,0.6689006467551737,0.16606452492908813,0.9675761154045632,1.3305117418808765
60,-0.5302394391815335,0.3987227098100374,0.6528745586407628,1.4421021623476489,0.6737463742823279,1.4935426492740982
70,-0.5257358735122085,0.4058513737809936,0.6578586791382117,-0.041264460636968314,0.24514027121274673,0.9479818235160595
80,-0.5272276551869276,0.3960257986659032,0.650345871198995,-2.1171405612220804,-1.2903397490961448,-0.8822759758903095
90,-0.4880910342137855,0.43190547223825626,0.6918899131713268,-1.1211395355102545,-0.5311050447684158,-0.4318308826055538
100,-0.5109323492839467,0.4098413087568863,0.6685578922355977,-0.31379077657305643,0.02405828805363086,0.08737132591293972
110,-0.5104976555120992,0.42041043906235914,0.6751869868042594,-2.022493834777611,-1.1201088003382398,-1.2487203627827126
120,-0.5228049362784565,0.4124986810931419,0.662540434810476,0.27193483395629214,1.5532458769520114,1.1307251245751593
130,-0.4975135955500392,0.4296005231015804,0.6791615156794484,-2.0902238921289165,-1.34388416931582,-1.5515673190960213
140,-0.5189990848583976,0.40460317605681206,0.6599133489166449,-2.49896167666422,-2.301850180258969,-1.8775987807800183
150,-0.5169271012463594,0.4124678690366401,0.6696814153920161,-3.3646293973198453,-0.9227387781164679,-2.7679994638044394
160,-0.5123256527978017,0.4103717280909842,0.6678712811496279,-2.575483771325668,1.1307768692282925,-1.200930210605847
170,-0.5196816024085008,0.40470914903531685,0.6596715230750606,-3.1896308496592676,-1.5439174002813447,-3.1109292179948658
180,-0.5191084462604346,0.40424725015557084,0.6589123525886937,1.0821081390139464,1.0426190701329685,0.6830566614421549
190,-0.5356136264161167,0.3855125834297422,0.6464376098558985,1.5232079621566241,0.0032880378023853185,0.2691451680379026
200,-0.5410729161568223,0.39733730887769436,0.6640867227837854,4.20994762908226,4.775908519928239,7.113645793937598
210,-0.5234083563115669,0.4109311803180661,0.6784181585994189,1.0125038908948638,1.32913548650619,5.3321499092792255
220,-0.4897989416408703,0.4300873721694685,0.7110787988380559,6.862311362223081,3.781695239219051,11.082156599276352
230,-0.5009562932123647,0.4009631405202753,0.6299683262578732,-1.89957414516125,-14.206277018307857,14.539893470163335
240,-0.511351465822791,0.39855021177306155,0.7103213698198542,5.962398100920379,-18.89205743798437,8.088731286900982
250,-0.45216949262547723,0.4343366156941818,0.6523811540029439,1.6462084433870507,-26.35666152101794,1.9875743253627198
260,-0.46395026298251174,0.438452657627611,0.6719069323403084,-7.348056145580938,-23.923463625072575,-0.42662476495788704
270,-0.44508143681562223,0.4788405180122231,0.6966124437194665,-12.810244663388165,-23.038777187485284,-1.9238446625590229
280,-0.4836393875266661,0.44287867412168497,0.6642539898870045,-11.052070064365932,-15.938041638280902,-0.7331725208405582
290,-0.534560859285652,0.44370716878055066,0.6178115331467382,-12.114143085917506,-11.538933726837293,-7.40814595312104
300,-0.5681184520176972,0.3726781446547511,0.5690947765372334,-12.212117774215292,-4.986072270486484,-15.878479376974084
310,-0.5282130360866926,0.42031603412067226,0.6614537821378894,-31.28667551071272,-0.9981296885344797,-9.185287561799822
320,-0.5862100498609492,0.3684380259776597,0.5961060336799967,-20.26687708923843,6.297115024730079,-3.53652209277684
330,-0.5887295912303043,0.36282713704395403,0.5672200317118647,5.579358629853717,22.991556298036294,4.100987754742434
340,-0.59996045106101,0.30717384026733974,0.3998133317822518,1.219848103978499,34.78846455322558,0.09342094061819961
350,-0.45108316291354517,0.3671308088496445,0.9422032519088446,12.482906343157937,38.31991671728871,-1.0703601807706928
360,-0.4584602126744502,0.49307468181318054,0.7246715343486851,14.396396684013158,29.084258207471283,14.268189977025362
370,-0.49580776678875804,0.5088961479080831,0.5665407514898156,3.16031214148755,21.020537581456217,15.458696364899225
380,-0.5294667345820463,0.437806930830119,0.5682909680502989,5.976923846096424,17.214684994809392,13.756955906529562
390,-0.5130511868007314,0.4116865892356269,0.7040138152237305,8.490885981192053,4.565302919755573,7.677314196352172
400,-0.5027907721265921,0.37484630954931475,0.7859494956060004,10.243076126073172,-4.947466706448375,7.592250286516002
410,-0.4898657391695225,0.37007836847441805,0.7777743693364693,20.390644763347712,-30.50082693593457,4.02932891442418
420,-0.46634725742226557,0.42583948523027676,0.6449386002621953,28.48148607431798,-36.02812272938128,3.722678297031615
430,-0.45552644590922486,0.48257298029776535,0.6477186156474615,11.401652817597064,-26.16345686672918,5.403708457179124
440,-0.4659515308984747,0.48648748498673294,0.6843251778989108,-10.495597386167091,-14.250741260691528,-4.6891122828366045
450,-0.4767097386783312,0.4788793091247599,0.6759729141861978,-11.880914129515597,-12.069599528178378,-4.143755779555142
460,-0.45772189932747337,0.4644586413253357,0.6733648395321115,-13.282637115177751,-9.089454127055605,-4.608264378111063
470,-0.482810932135222,0.4249416188562492,0.7083683355340561,-11.630147241464325,-5.414056712677922,-8.608671975713191
480,-0.5621786875573451,0.349235495932135,0.794485599966766,-4.52479879595985,-11.446742057340227,-16.415001433484054
490,-0.45528171278139673,0.24554447341010155,0.7747866111889237,7.070490827966257,-11.999302042759972,-20.669604325355614
500,-0.5736143793329342,0.19273190695431885,0.6841073295227157,6.090634421716793,-6.583701021005494,-16.21566207841398
510,-0.6485216214312249,0.5560447092474157,0.649955858232506,12.794736663849962,-5.636085417450287,-12.191387545802312
520,-0.47283055901876275,0.3520226133269561,0.5002031590927626,-21.15976012267889,4.026886529999396,-19.064620314583966
530,-0.47119991894349633,0.4523445606688669,0.6791913792230504,-7.298545401287424,12.088985807268065,-11.704624955136005
540,-0.4626706503341525,0.3823488525360791,0.7121749819970169,-4.337578840637812,14.387994171999512,-4.960374410116611
550,-0.4759264615640395,0.5388426931447408,0.6907259662658524,-5.8667301443085185,16.31580167992123,3.905010776442216
560,-0.4439369657213108,0.3548807255726286,0.8454403676363855,-2.629523631972855,9.607267809441366,0.9416391679386571
570,-0.447103437555162,0.40226459603310155,0.8218676617453106,-7.782231825171271,8.814170878163052,12.334092541986228
580,-0.4453739183459835,0.3644590593695397,0.7817146595600943,10.501384012146499,1.9296775552251924,10.853191700874492
590,-0.4572560581888624,0.42605431341664923,0.6693643778785698,27.237025374672445,8.262660706788797,16.800174690863084
600,-0.504195529639596,0.38174602188581475,0.6852042753233359,9.398598719238095,3.915901444916055,-5.646809766132271
610,-0.500828216199663,0.3914516547568587,0.6763016913382186,9.165252396983467,3.6658326216669814,2.0027238351811474
620,-0.5198657210362129,0.3876326966393836,0.6625159867537875,8.385743790361118,4.189039673858291,6.0794666061023594
630,-0.4744591014516864,0.42396304002603674,0.7068302797938706,4.605329338614887,0.8344351460620263,1.2637355888787825
640,-0.4971350306435512,0.39850576633856494,0.692476273680584,7.669012656735756,0.7488780927345864,2.8345609787314836
650,-0.4992947875482075,0.38527438620944154,0.6885856330762584,12.163528623060495,2.7714858182160205,5.213034500751385
660,-0.49607002265992645,0.4083411617009221,0.7017310118344472,8.9038477643786,0.26367440980546175,3.816772910849557
670,-0.4600190236454904,0.3591518754820977,0.7263416050803635,2.6416913990571054,-1.7995727009117468,-4.108891156092318
680,-0.5351552300843367,0.475883049346498,0.6613415483084382,7.01134520315061,2.091158718615933,-8.745487824243162
690,-0.5537462101814379,0.3238662148365579,0.5444975918287083,-8.182786963025702,5.591839293438118,-12.550082094964843
700,-0.5525557402754375,0.42613673632416343,0.6605024236232582,-5.974402651628371,10.43896826941545,-11.184360902092305
710,-0.47843780324687724,0.565211131175336,0.7584878312788302,-16.79494703116658,13.566720097621962,-7.273372714178654
720,-0.501041938453606,0.3550156523628874,0.610623312345755,-10.726676917695213,13.213344058417315,-15.556007554746877
730,-0.44748474260596244,0.41111382089930976,0.8224642005182158,-11.908717376985935,8.198640077255325,-1.4304392580801135
740,-0.6096907192975107,0.4176161014865738,0.5143813290843964,-9.506172216404922,5.389515518919667,-1.4934377840518431
750,-0.4327561740715035,0.30218460598125724,0.8067468169006261,-18.08968136181686,9.127864423878147,-1.7606740724848113
760,-0.5178417122385327,0.33446527733822956,0.663228428661428,-8.001843155138324,5.1334098969265,0.7750254626407945
770,-0.5125559064271664,0.3808086948563296,0.6764401841145092,8.203888548524185,4.793825557039023,1.9583693417405486
780,-0.5308900663296711,0.670526942738849,0.7499408536261378,25.443411331020904,0.02710724820908611,21.362478888104214
790,-0.5145635499915097,0.3663231335112883,0.6836322307332698,9.792628018716776,-2.825895889594583,9.512778802876388
800,-0.5133830356050273,0.4121922904972902,0.7139223344823513,19.56520074893529,2.5140733688454255,10.030533989086186
810,-0.5086234791056554,0.3845223673903728,0.632160428573044,13.191021169663706,-2.834953381284724,10.675199368673672
820,-0.499299816480475,0.4061195012710866,0.681082441715162,3.2502317485464802,1.9233977852525102,3.3544623969764107
830,-0.5100478204718533,0.4040763196309991,0.6724209994192921,0.5523707419323185,-1.416362560197068,1.1342747149966268
840,-0.5306010034631512,0.3936573767953147,0.6557152305133496,0.9869503743045689,-1.2065528248868167,-0.14048577155843045
850,-0.5504781413202283,0.37380171345664415,0.6297248383042541,-0.5881825016578914,-3.3405655867238346,-3.1532097394828833
860,-0.504262741358905,0.4143814433136407,0.6790388014892536,1.4540480891262413,-1.245910082901061,-1.2428091047167833
870,-0.5275568503005033,0.3874615187878732,0.6552851991372408,-1.7033270212524916,-2.089039385210722,-1.7316545247442814
880,-0.47479819887490177,0.4414021691527226,0.7052723628488455,-1.5244737049047377,-1.1305717991772197,-0.8015460561549291
890,-0.49878533885327075,0.4102956179198585,0.6789151502183282,2.3260033259469832,2.8676138927424066,2.5215718535491627
900,-0.5016986935742855,0.4177152857039438,0.6772096487582304,-0.1255893751983843,-0.13563878920913208,-0.6729054426194137
910,-0.5001075184166426,0.4220372474479877,0.6795707214877235,-0.1842698712076981,-0.07110872843979588,-0.4770591045304796
920,-0.5063400950674869,0.4070914191286304,0.6713056788121411,-1.15292036395079,-0.8170444786603216,0.09761203185380296
930,-0.5050082755997696,0.4093736968958617,0.6783005246908451,1.0262779519098828,2.4011817082994984,2.9670843624513914
940,-0.5269805734748461,0.3896561090977442,0.660909076720915,-0.011356931252588073,1.4246670863406468,0.9462989425791762
950,-0.49941443283609255,0.42033033877624804,0.6833103016661896,0.2089125026845262,0.3014110280694875,-0.03370165895764843
960,-0.48806493521778693,0.4346072454925808,0.6893488078041852,0.5638287933018848,0.0806866065309528,1.1707896294395943
970,-0.5297431115307701,0.3902638889077235,0.6493993311290575,-0.8136026513864664,-0.9893777724655789,-0.47397310311824814
980,-0.4976216146658139,0.4215884715151275,0.6836769770487161,-1.768089192281379,-0.4342124414781553,-1.9321213204453702
990,-0.5343547130136325,0.382802975991546,0.6491887598940366,2.085384778885996,3.5806799547296424,2.0441930230125793
1000,-0.5251316944342606,0.388797291002603,0.6531246751132832,-0.3796852156657613,-0.029474046027831546,-0.7487621710276718
1010,-0.5122407475640174,0.4090285972996125,0.6667617950473229,-0.39202212889102034,0.06898797291033731,1.235925890777201
1020,-0.5302208452051416,0.3853339315328281,0.6506119404106044,-0.09074578834129543,1.028262648141865,1.6745296789172643
1030,-0.534904177910423,0.3843597341653509,0.6440907337110373,0.4955087946070991,1.3010123550810149,1.757182506822447
1040,-0.4982051048966324,0.4254630327838324,0.6843672645994747,0.9936331266606833,1.9849448059893904,1.8974950461137001
1050,-0.5121327743271548,0.40969307830350354,0.6684465086938028,-1.0445989853200548,0.19064854404123233,-0.8330084042179544
1060,-0.5059844586593185,0.4146938785821034,0.6755401681921643,-0.6400398606719839,-0.8985549842207448,-0.3959342046178659
1070,-0.5326679591058854,0.38810431582726784,0.6494503678625475,1.502748984305951,1.7915466798319284,2.517170095720282
1080,-0.5221250028984276,0.4001915811599697,0.6602539538087111,-1.9677063441165206,-1.2870235853034386,0.07569680444490512
1090,-0.49091662167962863,0.43793211992503106,0.6942303506734779,0.599491537443446,0.7279421493349326,2.752236510246701
1100,-0.5083593827589243,0.4189080511460259,0.6803898577823716,0.09814016553432826,0.05723514789753077,0.645472364110785
1110,-0.49387422444567375,0.4265416014328529,0.6884952308376547,0.5975801286004797,0.7945832308945396,1.0164344914705445
1120,-0.4980796953433725,0.4252487901997711,0.684083386081904,1.8635856826834034,1.8863610888576106,2.675914600912577
1130,-0.4991248741758521,0.4226837258184691,0.683559513930215,-0.10130500987477309,0.7062578452598052,1.37818170916989
