time_ms,ax,ay,az,gx,gy,gz
0,-0.6560259266733117,0.42465670900680297,0.5011419721238817,-0.9559962313642562,-0.44696174299127844,-0.9993065477048982
10,-0.6684813798278595,0.41016071937560034,0.4863898197226989,1.8588008817886896,2.920983909052726,2.219634955142406
20,-0.6362897330695009,0.44396365286729855,0.5149563653657394,-2.8758266542250324,-1.8974153088637018,-3.3165324611628053
30,-0.6428106900107132,0.4358964244958971,0.5068060150581579,0.9093730191260015,0.8328294956617378,0.034468243150935995
40,-0.6358073586622016,0.4393842581173643,0.5172420279312064,1.9041640222344158,1.260092356731716,1.9422406980359184
50,-0.6391765436243046,0.43774466214860247,0.5130762515010246,5.258242998467264,4.322070400175129,4.626598213461575
60,-0.6592585472743782,0.4225690627219059,0.49520834038840456,-0.45797341438890427,-1.022015987896021,-1.654307636121581
70,-0.6192932468916323,0.46125298328121267,0.5351440696879903,0.28945058820166986,0.7709868655145522,-0.8552566166174937
80,-0.6651951935910544,0.41610984262391487,0.48770026708620884,1.17603023319536,2.006983323861019,-0.1988588522933652
90,-0.6434132760536103,0.4331101369393287,0.5110376102782329,-0.36483561383130836,0.13391503008266709,-1.1506681308213824
100,-0.6595495208915396,0.4151450674993745,0.4949217205102106,3.1036038108320345,2.1285383022653077,2.880299540498397
110,-0.6846682175768211,0.39480335668995264,0.46600847007850577,0.27243749193910327,-1.484217515209409,-0.4262470371993412
120,-0.6753761285426267,0.405673301297443,0.47628268759887715,-2.5383427880325504,-3.716860012469177,-3.8315167105166856
130,-0.650063266624771,0.4344162965557019,0.5035990784039863,-2.232099443782226,-2.075254946067839,-4.167674240373564
140,-0.6675170680544363,0.41043180289833303,0.4874081614036077,-1.1141316256009814,-0.4129353230511207,-3.431610835828052
150,-0.6652747526150161,0.4080132993367195,0.4861725567391285,3.431204427321745,1.2074961258328683,2.574990841812772
160,-0.6553729286218271,0.4247848424031315,0.49719683022561434,5.125376736632966,3.1234438645323253,5.114088389618766
170,-0.6515100733323882,0.4319919774638252,0.4999014302259747,0.9257716015593176,1.1882201742298841,0.273275304694439
180,-0.6640333934166647,0.4161872118463039,0.4877965858907499,-2.298599531316516,0.34743298353746677,-2.066034373651228
190,-0.6499448459503644,0.42722914351069463,0.5017805901431382,0.5688664102737861,2.5478334372065543,0.03683251471267801
200,-0.6711213777413189,0.39738717426284553,0.4849004392303236,-0.2928101533127697,-0.42712869838577283,0.8706398531880264
210,-0.6577834631532878,0.40959407307797946,0.5101463871783503,32.548585707945456,-2.3385444694189204,27.680509664079633
220,-0.6757320274677356,0.4334641494794191,0.5263743688463012,36.90351072490042,-1.3366078031907302,28.44954331120753
230,-0.7308869709376403,0.43620841284419315,0.6850980430012859,24.47941887609514,-15.750866324069479,14.221903353824825
240,-0.859270301136049,0.5035299053376556,0.8025766165055773,17.15375446638942,-74.34630102814126,4.280157370274816
250,-0.7466811282020548,0.5416526593477954,0.7619689750244886,14.71529954923493,-93.45487797435602,18.772443608175582
260,-0.5532571918535069,0.4780646277226106,0.6115580113848759,14.49923955227686,-101.34042047171883,25.236014374771933
270,-0.4964046732484125,0.4640773621860787,0.4831337388963507,-9.254003737009597,-84.9362891438191,14.962627309390085
280,-0.48743004420117636,0.5918190352015985,0.4676821545279189,-10.945626177183735,-65.58477991788216,9.250402619240898
290,-0.5271646100916195,0.646938692023322,0.4480934850609491,-14.64260440796764,-44.35657016368827,11.670485702804804
300,-0.5590409364691729,0.5712668952690274,0.44070157776709945,-3.7399315776302253,-26.945940995528954,9.333848248283283
310,-0.5871937014194625,0.4781825121435035,0.45223870668136845,-4.994976897012025,-7.526371717169067,7.448806340596069
320,-0.6294424857959473,0.4075086797512438,0.5188548895077301,-11.98636112470926,15.8343406578869,-0.24742358684998417
330,-0.6211723249812371,0.40050157397699576,0.544009198727507,-12.100450414496994,25.24514116505495,-5.741894980434223
340,-0.5666277158963676,0.49946130152589663,0.5653063848150781,-14.765536549574666,32.68816617508773,-3.176365642157059
350,-0.5947022326341855,0.5074437574841513,0.5686905693154886,-24.33725863042076,42.763793105039994,-1.7222319829609436
360,-0.755558958318919,0.2987800076928238,0.5364029240226583,-26.147290426311468,-9.504154272873588,-7.081149395243355
370,-0.7545788905159901,0.6056562092202906,0.3639786445048918,-22.109019220000945,5.368180973752595,9.565794738870672
380,-0.5652430487777483,0.09614683262774906,1.0763466151577084,-35.32861258567355,36.45450461510544,8.291307644244522
390,-0.765787259465151,0.3690136471106616,0.05145570901937173,-21.377909951300737,51.782983749499756,11.701602059030074
400,-0.4609461218343044,0.38758627341459445,1.3052996180499705,-44.63715564361913,66.28189431837535,10.730253454820742
410,-0.6991524614786829,0.4922707581424289,0.7264974686372362,-15.91659147404172,61.37716494239241,27.63230072139803
420,-0.5792009519618039,0.40212987903841263,0.5029828752165248,-37.70726115885541,53.56568382526495,17.140051361350217
430,-0.7793925298743088,0.7446910271249315,0.0261806116840229,16.08925671751935,44.493896387760905,29.72363341473046
440,-0.6557803361503488,0.4936308600258611,0.6235186459487093,-0.9194369306760407,3.0028243402153088,8.400652631968084
450,-0.626746988509405,0.2969452688357557,0.5941970779282021,19.585351036007236,-0.886302866799564,16.035381749154368
460,-0.6496409947292,0.4014808996477911,0.5586924750660407,25.145403180303216,-0.6553191920426877,24.770705128920156
470,-0.635348395416751,0.4798301732658409,0.5717456064352808,41.261208195193454,0.8920205765645979,31.621903633205264
480,-0.6550460601651183,0.40532607782533403,0.6701683946713175,41.774785219701045,-13.803509605298377,27.922622696919397
490,-0.6542228026894855,0.43839415252466685,0.5961037719222722,16.853669860588482,-56.23073847404351,1.9100038702942095
500,-0.5875177370036485,0.445146709517477,0.4415819950585176,16.133303557363597,-63.8661291440426,-11.004795333251549
510,-0.5414250294457549,0.48467904424027225,0.4679653325033143,19.789302089775052,-44.450430477855285,-8.932860422900385
520,-0.5280825215007311,0.5118115781820125,0.5806529187897598,15.595216939235518,-40.09738841535028,-12.468863982325335
530,-0.5220898846233275,0.46512160958287185,0.5445446792270615,10.592260719291408,-34.17960704428382,-12.996224135958116
540,-0.5191577827940045,0.5090253973643336,0.4760980366797276,8.047001759392366,-21.89226649066718,-14.103155749967268
550,-0.5917997245531463,0.5109688303149659,0.6561244053215488,-25.405047295662346,-11.599815971962846,-10.91528662573565
560,-0.5468584981233412,0.4727998578522856,0.7013409141821919,-13.424368962874404,-13.905535501326463,1.0983338393017121
570,-0.6115283116458212,0.5038378816746718,0.6006220409326676,-9.131061611066048,-18.794274539585924,10.223148208522929
580,-0.690471813492125,0.24288974704220775,0.5269213907801331,-9.325203609997576,-14.334084493295641,6.123571943954992
590,-0.6018334777217262,0.6727732979879028,0.6486139288133853,33.669961639875694,-1.4443090215848526,-16.776508951763827
600,-0.5418294125652345,0.45121600852890204,0.6831839881877235,22.081582317766422,6.4872871016190405,-32.35085535049062
610,-0.6041353050936163,0.722618678531741,0.3963854602029937,13.53190722166921,14.067352974443878,2.1620123662249435
620,-0.6693262986381222,0.49696054295818104,0.40976407532273,4.186037029530269,21.432466303961682,-22.87938023176989
630,-0.6666779747704126,0.5533958127309775,0.35703106411001595,-14.262599380496761,13.229311432249787,-29.064509227132923
640,-0.5520838877456672,0.5785686206292793,0.5566524996936579,-38.41857986571484,28.158754946875895,-34.8343746529082
650,-0.6431487657830136,0.43900703220543513,0.27041789343055295,-24.5260460581747,37.291173941612726,-20.468630890944304
660,-0.5251558172305077,0.844551706401336,0.3725814543450337,31.492827303179922,28.43613781140053,27.2762543555241
670,-0.6110846172922878,0.6316079654443478,0.5167190190011829,17.50519197365003,11.942764600699961,46.5894792858185
680,-0.5924876142065134,0.07579850792170363,0.7143984739367749,-31.392139185374266,8.643272589107859,20.675779777014405
690,-0.5158052486390455,0.15722086357693815,0.7539688361246607,-12.507840270309481,6.704454947447989,18.159022867759177
700,-0.5842678844660777,0.2626136703319391,0.622187171506582,5.276139751350134,3.2313350729067074,8.120723026169568
710,-0.5914772311980465,0.37986330523917344,0.6100261467538555,8.373238898485505,0.12307623011487495,4.052081925744334
720,-0.6049265031903291,0.43140336246194333,0.59443984677418,17.98132593882023,-1.227057739526421,13.017027543692306
730,-0.6175242365911596,0.3482822854104796,0.5758390200226932,20.196208493169873,-0.4611892771708934,13.317738158501964
740,-0.6076477105617166,0.25996174499299446,0.594558002015418,12.396231522086582,-6.767510274228433,6.493080953277157
750,-0.7063418808638852,-0.023036069203987715,0.28350472263967674,31.755570467238062,-5.623504123311367,1.457791694056291
760,-0.5574275626840156,0.6696432059985098,0.9229954837179367,77.91685135172243,13.267805212741637,-16.797277631275275
770,-0.5413316541582085,0.6281480397316178,0.5421367700108374,75.25328810521555,18.997753004389608,-30.123884849508954
780,-0.6090173384304555,0.6505214669309688,0.7325655896131916,-43.66374060057798,20.03017001363931,-35.129037995302895
790,-0.5697694436811649,0.6677347994928736,0.7052467467611094,-47.638571890293505,18.064916754481015,-28.333659150847538
800,-0.7039641197251428,0.7426919203920179,0.34188498795906663,-20.822072291285334,26.088183021686987,-11.523368919770277
810,-0.5932398332633999,0.8265223446397316,0.3335938028506404,2.436409492714069,27.624260705575196,15.908689918150644
820,-0.45704477175149133,0.10048455853896952,0.9413832779556618,-31.35343391666694,12.522427585533931,28.707859703703694
830,-0.6012166421275901,0.27103067411520354,0.6539054629564636,-29.8458351087436,5.063301010262526,23.106442957417954
840,-0.5759701541779889,0.15928106407607603,0.6258699734146824,-32.80270723016503,4.049337593537845,-2.5171397069875843
850,-0.577578144478457,0.3032613731216569,0.6640422011034047,-17.324780255491987,3.1760164651800835,-12.162973429373356
860,-0.6524888815454013,0.2328994242960528,0.5208890615161733,-22.102114539451634,-6.569535449633836,-0.25756771915151944
870,-0.6364380061820271,0.18238405761155654,0.5385034024556136,-20.257537446637702,-4.985462294582067,6.179909049565529
880,-0.6373386017299291,0.24228206077567588,0.5290452346480954,-20.956753508499787,0.42130249768663,-9.68297502401573
890,-0.618120013196973,0.3689243254385005,0.5414539684975499,-6.048439863379055,-0.7795250809334838,-1.8304403672778167
900,-0.6199080305462107,0.44860454372049446,0.5507718034491975,0.8450234069871032,-0.2558273318625659,2.193808022434239
910,-0.6554753748005975,0.40650039697399637,0.5180395999736856,-5.127790977954534,-1.4835551616445193,-2.986929425721086
920,-0.6414093185687342,0.40740763462124263,0.5344099657386802,-2.304736557508381,1.1951655845571878,-1.851480000503148
930,-0.6170448225301662,0.43442358280855825,0.5555639462468437,1.979633672327571,1.6773889211687942,0.6375946988906773
940,-0.6507212233810487,0.40201108006513686,0.5217711928954832,3.4767070533954385,-0.39654873534398405,1.331708095527287
950,-0.6334604418231987,0.43658034503592347,0.532762508373863,-0.19756032715388405,-1.3617159429401817,-0.27608124648780435
960,-0.6208902099965354,0.44427991588387294,0.5503298477710166,-2.068838158266211,0.29423443134965444,-1.1839558167015385
970,-0.6577814281043118,0.40095664431933015,0.5149032102714933,-1.0504410900019483,-0.09690387305169235,-2.0738405212973707
980,-0.6370923912408238,0.41465582141062807,0.5304673703095406,0.5801830757398408,-0.003987351704179853,-0.9284003435552672
990,-0.6576934408337767,0.39548094139679796,0.5117643310124712,3.998088213598608,0.44849532304071854,0.7550059432230398
1000,-0.6415500664452302,0.4197873669495905,0.5328586737645546,1.1315523746150997,0.2737553180477243,-0.07825840621945168
1010,-0.6322237171961076,0.4269578313755296,0.5408761105233264,-1.5955583118821743,-0.7680832567742084,-2.0428190042486754
1020,-0.6449573915208864,0.40995946255430116,0.5272315717340835,3.9711429352758065,3.562739134795983,3.2209553791402286
1030,-0.6184949911448888,0.4373205713662987,0.5510851578345313,-0.8104059398552392,-2.3845406547369707,-1.6521506021796073
1040,-0.6196197052985023,0.4387259919079331,0.5535172818845676,-0.35291402932603805,-0.4927801335212346,-0.868940294494511
1050,-0.6265117197864986,0.4372219279433409,0.5483474950363141,-2.6927357559154608,-0.049084854121680954,-2.807210248727303
1060,-0.6363048646237047,0.4228628280647258,0.5402574722243503,-4.9602154166833134,-0.4042073823877529,-4.326458825838596
1070,-0.6508717049736802,0.3933052228215901,0.5234604293110133,-4.730869427137481,-2.9584780437348623,-4.451445960079362
1080,-0.6455675893357281,0.40363385826148707,0.5296943367707336,4.002861390176445,3.1501524353281942,4.040140474394262
1090,-0.6526065073051911,0.4040773905759187,0.5189007377041942,1.350936480588082,-0.032398493753770796,2.46022058303346
1100,-0.6551601862114745,0.3985115002773963,0.5166332040798184,0.2907722000574151,-2.112061193405138,0.4220974088250733
1110,-0.6502021752957922,0.41053093894268833,0.5278374902779998,0.2123572753966958,-1.2094981298161311,-0.611021852887927
1120,-0.6322700641731476,0.4207144347389541,0.5442332638703025,1.5365493853508396,-1.1863510915888893,-0.40578622508367523
1130,-0.6158153993804683,0.40145737623712024,0.543444599848066,2.4486203382957337,2.0461369301359333,1.6427076923146677
1140,-0.6495575283156821,0.40545499357446774,0.5208098342476898,1.9427424822305839,-0.4204263340054642,0.655565308249105
1150,-0.6193142088150306,0.456730885892746,0.553123979090339,-0.8243118519725983,-1.0079395647024396,-1.707082701196494
1160,-0.6252370421423564,0.431290580503196,0.5505080213776892,-5.005893535968658,-1.8945710666986135,-5.582725754070541
1170,-0.6727331761045611,0.38296690921997695,0.4976432985471672,-5.23475162520545,-2.7599434648025256,-6.0068506801792125
1180,-0.6150176151431189,0.4360122448988194,0.5584113103229176,2.136948001335758,0.241553919603577,2.0943636000556087
1190,-0.6239705947005015,0.43273380652769033,0.5508099578588669,-0.6177225478260084,-0.5157279144486875,0.36390971081598367
1200,-0.6162907070352935,0.4419440502472822,0.5560446483022408,-3.0031645966289213,0.8796011354955487,-1.3826458432990643
1210,-0.6308276165640806,0.42024308476478855,0.5406549065636806,-3.150756123911795,0.05147684904915317,-2.8426960517503117
1220,-0.6585285245057855,0.39230593511194894,0.5131692127447393,0.8982717873732879,1.8259862989897209,0.4458351532747804
1230,-0.6588540320205486,0.39071022422322527,0.51204206344723,-1.5783554532938078,-1.7320158108741106,-1.6600465144806715
1240,-0.650859696042805,0.39907914340112965,0.5266073506761406,1.4952613081445774,2.600417494143458,2.9132427480760428
1250,-0.6359794727241819,0.41427387075208244,0.5393206858771922,-0.79235847730576,0.6928203965807973,0.8415447560650768
1260,-0.6164496833249316,0.43043604727687323,0.5611337333625007,-1.5869183925920962,-0.9438507635665324,-0.46765701562589324
1270,-0.6291772122587569,0.4218926518195268,0.5483089558414026,2.983054612810008,1.8109817612488412,3.0635586429061963
1280,-0.6686224219823534,0.38620271761970204,0.5035136252064344,2.343800431318688,1.1540937153003346,2.20046514711361
1290,-0.6558656131187033,0.39636569234821545,0.5178286169672132,0.2622714762773313,-1.0735225476030605,-0.4092519416240208
1300,-0.6365218331457271,0.4164075629175102,0.5373264117641444,2.250031548214385,-0.5881673825920577,0.8859595530848178
1310,-0.624303711722516,0.4353647139710452,0.5490355575554144,0.2609609248031466,-0.8196657335623515,0.1549854288422554
1320,-0.6276165787368978,0.42663118602127137,0.5394068753972234,-2.7608748001997276,-1.156198980898022,-0.7570631726873781
1330,-0.6481108288136106,0.40698985775393515,0.5248155463339259,-1.9690301613548715,-0.12998433859440556,0.3655916941036549
1340,-0.6493034413294566,0.40278565370945324,0.5298387470412413,2.747631143393275,3.5749331982351915,4.117014023376208
1350,-0.6376782674400822,0.4160837169817459,0.5351288583316335,2.884780866819705,0.19501312326876352,2.485075864583187
1360,-0.6567031496762054,0.39492031325450183,0.5128316246014107,4.291429793930468,-0.3000007860379366,3.7572031552126046
1370,-0.6162124968907637,0.4427192435688824,0.5552049185101532,9.767453115669431,2.504856153688704,7.288608490093565
1380,-0.6044336943013447,0.46115790464992185,0.5645091418721363,6.313991365769455,-0.8341771278325432,3.728162342434034
1390,-0.6393133638458628,0.43308670707085456,0.5333792487058493,0.9533221467598945,-0.35055739013784704,1.1198352581513076
1400,-0.6536003057669043,0.41385354201233726,0.5213536820726332,-3.882365244426909,-2.9711626797221657,-3.2941593109121445
1410,-0.6374474740356456,0.4260518420824804,0.5363642237390346,0.9509500326687363,-0.6319338083207732,0.5405999460094346
1420,-0.6553630007325535,0.40916713612429584,0.5142981332177816,2.4856011596425347,0.4208515530909647,2.0683591193531186
1430,-0.645000471256226,0.42182946451253805,0.5307796957194072,3.581928313383761,1.0467491458621019,2.2968611479496777
1440,-0.6184283799816757,0.4464824304891623,0.5556630703115742,1.8268535794137022,2.0276221476972163,0.6461777245280769
1450,-0.6387694735718333,0.4227436687600028,0.5356923547997684,-0.4478283529654137,2.0813063553025795,-1.0647407372088917
1460,-0.6240788818343654,0.435937057757943,0.5508686883320454,0.8707785524891243,0.3856101179787252,0.19452340779160546
1470,-0.6448670620007797,0.4225615837963321,0.5272611015971979,2.653245257501671,-0.06123155229545951,2.140711631164036
1480,-0.6493605244631673,0.42019214640622704,0.523966677858825,-1.397611652871344,-2.702068128499624,-1.696321771737303
1490,-0.6450541171127028,0.4227226716789921,0.5306360160057912,-0.6125699734753854,0.04181723505332857,-1.3953355777553909
1500,-0.6176847513728854,0.43970296137652076,0.5547129312832048,-2.5667376703240468,-0.3480754264998935,-2.308246442232611
1510,-0.6347141668492394,0.4240224652094631,0.5400163257315164,0.06825526897739789,1.137058493054798,0.2208182433259138
1520,-0.6473632148784415,0.41874243720529164,0.5216317388922246,1.2763566739437764,-1.0480345828203097,1.6991484277102626
1530,-0.6502770285190522,0.4246008786273954,0.519971315858558,4.260581915938214,2.4223216758275723,3.7219663741082543
1540,-0.6342110875855104,0.4383185028349597,0.5370779494565682,-4.2411861910048065,-1.1581814013888634,-3.760573809013124
1550,-0.641118863830479,0.4224811698523213,0.536715536889568,-5.518357011214482,-1.1553474098031513,-4.51235114154794
1560,-0.6455369497723332,0.41628956596681543,0.5278011985973259,-2.8680403236990726,-0.6908534066143218,-2.0539033922936207
1570,-0.6518017158895675,0.40950692641008424,0.5214364178392534,-0.04753240600598263,0.345255546144591,1.3122403036199883
1580,-0.6357083509507059,0.43539670102465605,0.5348165754560129,2.802515196982265,0.9964588734166178,3.5875412247830614
1590,-0.6447528862734768,0.42729420979154065,0.5300660430723981,-2.6001597338694884,-2.8774887125766417,-2.3630635761364474
1600,-0.6354386287458643,0.4328078857560874,0.5399535166344431,0.788142495272492,1.3129839987895633,0.8738837088337638
1610,-0.6250070071687576,0.4377705223290832,0.5452304050743331,-1.6809724778788735,-0.7938031097694219,-1.6045146140540885
1620,-0.6144214631929107,0.4503390055964293,0.5595343848255373,-1.0977416457724916,-0.5051420807987013,-0.7724414878711126
1630,-0.6713489475868082,0.3993526760204852,0.5029869087850801,-1.5544495999523318,-2.1807956567561444,-2.474793614932012
1640,-0.6542470679542047,0.41897120513762515,0.517313721635842,-3.8627793795081105,-4.150405878067649,-5.925554212714584
1650,-0.632647615719822,0.43692469157016217,0.5389545907659912,-1.2614536350687036,-0.6887315701835613,-3.178439950785371
1660,-0.6455461235922046,0.42256126869741684,0.5277916376110329,-2.0117396815790753,-0.5037112306193264,-2.8118891913486617
1670,-0.6300721945442442,0.4334170496427363,0.5414248374969601,-2.988455153539361,-1.1191120804851733,-2.4623476919574565
1680,-0.6587559884904987,0.40211571529512163,0.5130883920851043,3.373224985098489,3.144169020253732,3.9493642555701935
1690,-0.6656852913012544,0.4068570648734457,0.5089513261056331,1.4301905089692002,1.2293475951026531,0.7621342559818103
1700,-0.6377413388363637,0.4288804999742141,0.5346874525239145,-0.29458057391976716,0.04121862923381642,-2.123324824294665
1710,-0.6163063487358198,0.4531414159527005,0.556378968283847,-1.4791839815310002,-1.1370317137292667,-3.1821532064187954
1720,-0.6360304479636315,0.42705852321999177,0.5344500072836258,-1.6770791598238513,-1.4201898775410537,-2.5359625590832318
1730,-0.6332920666575711,0.4285655303419533,0.5360404762501683,1.975084282470824,1.4689055961880337,1.862989688411416
1740,-0.6277994543480454,0.4368168992755843,0.5449702142097613,2.1923771988687846,0.4191273478803186,1.1749456198763861
1750,-0.6268433102476788,0.4431791388798355,0.5483731005075082,-0.08530149499424888,-0.45534740186792355,-1.688248889478575
1760,-0.6229220183482193,0.44752947990025077,0.5502108774240556,2.307466876642936,2.4864979632340827,0.9504487684576615
1770,-0.6268125145577078,0.43831798536075606,0.5434859688786318,0.15392354336016364,0.7277388107011951,-0.886908382407475
1780,-0.6325253268748638,0.43534150331862836,0.5393308743827685,-0.9628519678165848,-0.5060742073277307,-1.816499215975265
1790,-0.6492711642326447,0.41791706579091203,0.5238386438939213,-0.3050441487734076,-0.2638806104077322,-0.8617850604683306
1800,-0.6217661365472037,0.4405768828058566,0.548039554466954,0.11962803735713723,0.4186249549714324,-0.22373970252620784
1810,-0.6380474817650178,0.4257230631162825,0.5345202510320687,1.273133206001181,1.480582977548933,0.09547919279159034
1820,-0.642022875569173,0.42434614822654576,0.5315885308609546,0.5135586467624749,0.11784618940520813,-0.5876566257084649
1830,-0.6369833641641006,0.42912471026049653,0.5384049914426045,-2.364740007811538,-2.3793011925734673,-2.6177690911155627
1840,-0.6275731821104347,0.43759508496784577,0.5429724379264914,2.7282063212932037,2.1841114818002936,2.998274357519326
1850,-0.6433006174144109,0.4230205078984782,0.5263563811795624,0.9921818109650372,0.4005213439021795,1.0767013640991503
1860,-0.6504951752901771,0.4155706192374692,0.5229311165991035,-3.272904904411252,-2.196085922804777,-4.071987959514416
1870,-0.6279985656906619,0.4354283736466002,0.5468084933521394,-1.4135925933390157,0.018182918779704932,-2.7028502413675484
1880,-0.6248013251241047,0.4351757234799948,0.5491464969100129,0.9991232007325699,2.2090926903386983,0.4612986871365181
1890,-0.6191986632113625,0.4447846703119938,0.5498380290111923,-1.380687662845645,-1.6553879825321187,-1.3968588832740458
1900,-0.6462127941070335,0.41464955911127555,0.5239266128619829,-0.7655488111760554,-0.7608493773980398,-0.08936585766412564
1910,-0.6500942368012247,0.4092442848942095,0.5171070277292154,-0.8098000977116284,-1.7492150359553653,-1.1742807986827308
1920,-0.604901047920089,0.45246090508882925,0.5713285425655705,0.6021575148601137,2.243190077839645,0.017478984649472507
1930,-0.6583648625361065,0.40357565219769853,0.5177397523964294,-1.4979513496431593,0.23763182797813476,-1.683135365039886
