time_ms,ax,ay,az,gx,gy,gz
0,-0.8371587243077004,0.8193836597791662,0.5228123302221989,3.6833720527372416,2.5830462592340386,1.0213130511749209
10,-0.8402691111756215,0.8078375843060832,0.5134865140453286,1.2797291670531319,-0.02148621739390763,-0.3242128158787342
20,-0.8089133620273169,0.8449302230908459,0.5543322628501131,-0.9118462595465193,-0.5284750193712922,-0.6497639451031971
30,-0.8053205712057911,0.8460777868429923,0.5589851195029236,-0.7913868711277707,-0.0943982769918631,-0.34666429278616895
40,-0.8429553025286192,0.8068853728025475,0.517234883579608,3.4845606725512686,2.727647539482037,2.572564152453358
50,-0.8274534890046313,0.823978132117403,0.5327441521730384,-0.4186352665277288,0.3311059196823694,-0.3702445048610161
60,-0.8221641348175671,0.8327493866858148,0.5434862380693705,-2.083233733587342,-0.4153416543939009,-1.0900367025722737
70,-0.8200366323899423,0.8248577222795055,0.5318716248501862,1.6470498113554028,1.5447729876707346,1.8913669725050082
80,-0.8057296133117772,0.8478256785817472,0.5583387741587734,-1.0495731830993955,-0.766205624642474,-0.24718611330379714
90,-0.8391035559260914,0.8091142343885623,0.5178357378491555,3.0683346141842187,2.9669180844008007,2.911137107566079
100,-0.8221793116884543,0.8228787073974031,0.532186290559278,-2.4542309277208023,-1.1068965662236305,-0.6335587587896594
110,-0.8292872541135595,0.8246983819407004,0.5263551315894515,-0.1642392961531698,0.04027921498357312,2.1600417178747016
120,-0.8354965796758426,0.8216651417774249,0.5280194264820691,2.539341939623133,0.9238288544646551,4.329160594473845
130,-0.8089016877245628,0.8592728933546286,0.5623676983004711,3.8280960387362795,0.11746056092844404,5.957750791286485
140,-0.8792645568592656,0.7176873007714522,0.566332182670723,31.63296273831197,-7.669554064937525,28.24678729188937
150,-0.9165430536513193,0.49020598360620593,0.7416643057927046,22.441561048557038,-25.37509683738876,-16.538761816416486
160,-1.0218364038487628,0.7547732363536972,0.7759944099217011,41.83372052540595,-33.72579954426618,-24.532212298256034
170,-0.8877657608375882,0.7653203978520081,0.7614244691421133,38.055630394607284,-57.84561581037413,-34.27295471089723
180,-0.7489464222906955,0.749486158910458,0.6178976012274928,4.34932572186997,-66.0742509411066,-54.771451310211376
190,-0.6291886962754646,0.9048400582088891,0.5215528118629112,-29.896049092530184,-28.23431213126641,-45.3687527337543
200,-0.6394860227020441,0.9240683045409571,0.5159389062876464,-42.13044407607967,0.8013091363630598,-32.29016889779008
210,-0.765328424905189,0.8860219134455303,0.47101397797607003,-49.21984999693524,17.225040675185635,-38.29880641536879
220,-1.0548662344794255,0.8915768980972845,0.5430245863405252,-54.42034596028563,10.74046450040695,-40.631074876436436
230,-1.0030617454468211,0.7382574837272725,0.576371693852189,-44.161511523339975,9.525307347054648,-34.95649496248142
240,-0.9671120201646094,0.6804860897447791,0.5146869243168596,18.623819999657606,22.2366900485793,-1.2611515795482706
250,-0.9574626769600888,0.6993550918784583,0.622427723566597,81.80903719950675,49.5366571053913,49.40066299309996
260,-0.8839843188152419,0.9002618005891926,0.7650182114729109,89.22327468036747,76.33294175017251,65.60620425517686
270,-0.8765371031106146,0.512317398678358,1.100445108443254,23.124929482086532,52.67129790627254,18.191315585114918
280,-0.7954497565282314,0.9852261976202109,-0.12775722771362813,6.839808912503174,40.77831067906052,21.776691395523713
290,-0.7912966917795922,0.6374093548637696,1.0501868090842046,46.95323002636295,25.13126873946702,30.401912161701567
300,-0.8426110646570815,0.7434299906641842,0.5329872607639994,43.51513848910037,2.6959632285203994,31.24587717808589
310,-0.8461631433230011,0.7950466434778524,0.6345355732250006,52.840615761910165,-5.644679702060136,37.92458159321989
320,-0.8389590029549927,0.8010073303280273,0.6968185398013458,35.37723728881683,-29.367788552832195,27.213820548481788
330,-0.8050996732868025,0.861859812107241,0.5889777770533567,18.38863133519163,-36.98075656274511,22.201432625416523
340,-0.816155190310643,0.8778061663788124,0.591999083704012,-28.832636525473678,-40.40784959158526,-8.454331883478096
350,-0.7425029307919082,0.7409239003138188,0.5314615801525012,-50.0927338125663,-23.05976209888722,-37.62014993316658
360,-0.8151743715954287,0.7160250223489342,0.5777832308568033,-45.347469490390054,-18.5063527746397,-41.03664255096408
370,-0.8570589332799772,0.7187552909682072,0.5731722043113864,-21.84298857211218,-13.836475377678125,-35.25096712447555
380,-0.8636390485195156,0.764823425361295,0.3914034743534498,0.6746484052181887,-11.931185194531093,-26.108638633664263
390,-0.8581835818472792,0.6714367333122423,0.47288380233329597,3.9572757808567425,-10.334183390746455,-28.707449251633847
400,-0.8457047700983628,0.9110930508585182,0.45704059028619276,22.681559990120125,4.599378988732435,-9.707198901206809
410,-0.8407479737744862,1.0756453435228623,0.4880090010185927,50.1568572122025,14.318034986140722,9.857297007507995
420,-0.7918393321544935,0.6931006281318267,0.0417766198603197,20.399595326443446,19.834843964321387,-15.052370266759237
430,-0.8346321086738704,0.8775939830435935,0.8437853029166795,28.88395874970249,19.632136876366417,9.915509294508755
440,-0.7914040677592068,0.8330146289728126,0.8227452196893519,26.844322461667364,25.059631309155876,11.016555817240992
450,-0.7797926674664051,0.9648890545980744,0.5593565954530948,6.492079680563388,15.984986892512984,7.938450892078052
460,-0.8265822127537829,1.0070166719161402,0.6490689117775554,-30.045896597740754,6.951733178777088,14.53817046356698
470,-0.9099146645721575,0.8338816479681712,0.7154564696267416,-54.67899453457218,-4.463090902052224,9.47612463390703
480,-0.7644851042035931,0.6707091606889904,0.4740596710885597,-21.810107011719246,4.035268929697609,36.474316414821416
490,-0.8416106022672334,0.32327104832701653,0.636973042453366,-33.085092678045186,-10.639470870585953,3.111806620383966
500,-0.8085227636294128,0.4467136384790117,0.4876526268252586,23.106848255362408,2.1368805500348165,15.463346861680137
510,-0.8374558450414882,0.7312051178445707,0.39441974471263896,-11.756833514631955,5.545290747831706,-26.32887070713087
520,-0.8859432497837233,0.9433385447766746,0.38622698289088414,13.814448158834328,6.199052656519515,-21.365550429433213
530,-0.8620099422813665,0.8117708703549061,0.500811964528844,34.89100201971056,11.429229493005542,-16.040104032648124
540,-0.8196590070190998,0.826265840842297,0.28807562233992057,24.159116795098566,13.538147334356948,-11.417776878133138
550,-0.8556571582598822,0.7839319438061529,0.31665705365760066,27.651447638459803,23.959498541972696,-3.0342926812481714
560,-0.7911207504748439,0.8926623798738376,0.6352946431381464,-48.193215637327185,19.786351088697625,-14.982979828427432
570,-0.7628285625804473,0.7241727014369777,0.5573841290696117,-31.211325583943808,-3.9580920654321483,-10.814003019450935
580,-0.8409282252747577,1.0084166798682872,0.6272325914196978,-29.56356485339347,4.821212496154229,24.552844250333578
590,-0.8727265948833244,0.5893719172081442,0.5167432662761504,-50.715041551519995,-9.707258853206607,12.631419237310594
600,-0.7396608116745478,0.6619114006956132,0.4561024090302327,-5.236862414813006,-10.61861779273018,22.967534266850958
610,-0.8267647154112343,0.7776553904851354,0.5276608490876376,3.569876435535922,-4.705686718394755,16.98458863808205
620,-0.8312538877704367,0.7882561638141418,0.5272999037387064,10.47103486305651,1.4392379794445878,23.257998844332704
630,-0.8365815019221569,0.8184708758311047,0.531231354406018,4.712474635915186,3.2425778121987703,15.926970717919598
640,-0.8020633352321187,0.8731872814565275,0.5730144665231163,-2.1960894620529667,4.784097347057269,-3.871810636415997
650,-0.8406983037826928,0.8083557843329637,0.5294139963424014,-17.07453629840638,4.199866023841372,-25.215063239211432
660,-0.855604934843281,0.7880365260963594,0.5183454783651132,-10.383877782888382,4.881272529910592,-21.7945018530589
670,-0.8577696298799311,0.75104454457225,0.5143491188988809,-3.482511882306481,3.314967035737133,1.6768865167153875
680,-0.8179947717768873,0.7831043870264018,0.5325373435766078,0.13687135651493032,3.4819464366038675,12.405499978792912
690,-0.8303732050858499,0.7837581606501678,0.5340902213360605,3.888597536561453,5.599439246127448,22.732729749015398
700,-0.8400411083892244,0.7721782685234132,0.5086206488373405,2.576576115136682,0.3255569834138692,24.044121611308583
710,-0.8424003618469177,0.773543546448827,0.5128415770060591,12.102344679440378,2.280550706214154,30.954917705457863
720,-0.8458404934836263,0.8058555983826362,0.5044995280706133,-18.217274516099724,0.13497593779256833,-1.4107881444158854
730,-0.8253554301895998,0.8147429194858679,0.5370993424248629,-1.8956645579014562,1.8877794900974252,5.390669034706199
740,-0.8297741759314068,0.8079702374281524,0.5325357760562042,8.78468039076307,0.6818001857611344,8.052333267410953
750,-0.8088341526874792,0.8468171289884376,0.547228686009276,10.949086883866682,-0.2692733678084457,3.0664534501644134
760,-0.8376565698037971,0.820328238934118,0.5201880625485422,4.785478933520636,-0.5254752266988412,-7.276434551350489
770,-0.8192195595977967,0.8102904633431617,0.5125007701706383,4.798709338038176,-3.37658101887153,-3.8159680062807317
780,-0.8134722638021039,0.8121020605312351,0.5235593876850876,4.485877452979629,-4.0510170896588225,-0.4238946681030358
790,-0.820527249113145,0.8176811888373954,0.533543111867347,-6.700187436742082,-6.3675309559876485,-7.112821422625603
800,-0.8404927789234506,0.7978402344571462,0.5317637328350416,-6.469670233202184,-4.64997460562663,-7.2871777438788214
810,-0.8407082580068777,0.7918170294529401,0.5211749867784145,-3.3654831982776447,-2.189398715966489,-5.1787560020738095
820,-0.8130581475646297,0.8099517765503033,0.5375312122465128,-3.1616902424034805,-4.058666632858122,-8.004503979914997
830,-0.8336481929976287,0.7806147871993703,0.5251068512511313,-0.4155529837781538,-3.9397242384041378,-9.66988801199902
840,-0.7982029506266886,0.8201443647869431,0.5633415321085365,-0.5777796634536614,-6.740093806147529,-10.75553471014388
850,-0.7957385018269681,0.8132927820705373,0.557699773956107,2.7723874582378834,-5.701546031661654,-2.070153379738507
860,-0.7911314678283515,0.8081623234573093,0.563722451172388,-2.2164958016079614,-7.382446039376042,2.4251257308064322
870,-0.8229958281753184,0.8041670362991657,0.5513286996482912,1.6249242899300784,-1.607882735141294,5.581586143980637
880,-0.8058284121613026,0.8343213757580921,0.5560129625496072,-14.412899491733967,-4.431751761783161,-15.894636077886833
890,-0.8155065538304384,0.7917122147557243,0.5581313649891053,-19.026454195850416,-6.012117417699618,-12.423270348556358
900,-0.8009179388986325,0.780681486940328,0.5753863811030048,-12.409383510628123,-6.751115761459956,2.0459594002981545
910,-0.8106561074005033,0.7866130591390055,0.5702609607104351,-0.9853384963602901,-2.5081800429742103,14.453817861032265
920,-0.8202332129539336,0.8254972257840733,0.5665514325865706,7.17767581495498,1.0627129474886805,14.899143639603816
930,-0.855389836432386,0.7790108187624937,0.5247420219107671,-4.369303585461821,2.611840065498479,-10.979217497548971
940,-0.8387433062988953,0.7760883823086502,0.5372064849075641,-2.5960239179441524,0.041114095761427105,-9.750254340938902
950,-0.7986156435478118,0.8106881462301522,0.566449939311462,1.8286760620849942,1.8579273350427896,-2.8433269532849956
960,-0.8258821711775246,0.7899891005140454,0.5312046312885658,-1.4111452721271416,0.8204635173550369,-2.9524522945524305
970,-0.8196090346322963,0.7981761300010907,0.5465215265052807,-0.9658990277032626,1.631313287475902,-2.44308813583349
980,-0.80800146939166,0.8133560794978263,0.5677205524610872,4.236814808820371,1.267232101621359,-7.253456556356156
990,-0.823887284824283,0.8020822898569884,0.5417510947126811,2.054275863711895,-0.020785670459322336,-12.226851972851584
1000,-0.7984568856037401,0.817562169633058,0.5704119781610613,-3.564264522098948,0.19076144279540436,-14.060757971156338
1010,-0.8182445995499067,0.7739747206737811,0.5416758088203985,-3.8934040768435656,-1.5915343191411169,-10.972923557064258
1020,-0.8084108980461131,0.7821436744335649,0.5561003759178035,2.616212366652834,0.02278505030774007,-2.535055838681167
1030,-0.8220631636076152,0.7751629504213096,0.5450177759479959,14.701739954798557,1.9315414241266098,6.612861053143867
1040,-0.8057824870815019,0.8189371993873792,0.5599752352052147,13.623064461285978,4.258467787088586,10.014010211276965
1050,-0.7965402637621405,0.8323169529381677,0.5688790618241666,-4.287505728289319,0.16268782284092653,0.8168964651725228
1060,-0.8424560838251463,0.7733055357514266,0.5285942638537279,-7.972068014041589,0.616828114781403,-0.17661053454784045
1070,-0.8230311383538066,0.7859961057398258,0.5444858717375328,-0.2626622955996166,2.4982368920323723,6.710649159634551
1080,-0.8295283767081414,0.783805963371703,0.5411215444381117,0.06996340993414851,1.9750665984102636,8.313130947634559
1090,-0.8398326212337939,0.7824642153325573,0.5291625327588403,-2.7759802213683673,0.5796104604110153,1.9211656824171208
1100,-0.8115995274179867,0.822997135833447,0.5525014858250444,-4.378688081887525,-2.48884357734366,-6.649196866216577
1110,-0.8176956392897814,0.817219842136682,0.5486260136026943,-14.696378906461327,-6.055768982049003,-21.726268027413095
1120,-0.8058363503463091,0.8097949898956381,0.5588980559732581,-16.56760652497263,-1.1851093379183335,-24.584164386821037
1130,-0.8356557019263045,0.7488366236103018,0.5447805069198932,-19.612247551599445,-3.147356451605091,-23.492985704705074
1140,-0.8266613445000891,0.7684354001060933,0.5509440976925899,0.8134689726135975,-1.418431331264705,11.482789531260178
1150,-0.8242891528073967,0.7803646822221839,0.5459373114639837,2.349199987232673,0.15655410365376732,15.82057684314872
1160,-0.8354989000508757,0.7780202501658487,0.5345788908453227,5.176688380972822,3.773536009671308,18.307913220656815
1170,-0.8168406427380753,0.8069010751531185,0.5482409549099811,4.776763087583482,2.108350873055782,10.711379265317156
1180,-0.8064558802018196,0.8222223680996273,0.5553373839683485,-0.4585882672766721,-0.7960570560134436,-3.1903339118601686
1190,-0.8082954476409939,0.7846749193665495,0.5576446100272568,1.242409029191618,2.1686426364980416,-6.117765890330505
1200,-0.8109189119383554,0.7815287836338065,0.5621753102434437,0.565148906261244,-0.2686214938573068,-4.296807679965138
1210,-0.8459026510500245,0.7509685048233276,0.5349761326201856,4.531943328127694,2.9625571810661686,4.473009569480681
1220,-0.8099350154452233,0.7768486729462747,0.5634397614907116,6.820380380677256,2.7228809853724116,10.504824989292775
1230,-0.8126787188683345,0.7781819287742141,0.5458323224076479,9.142667992655376,2.1364801870718253,14.080833499622816
1240,-0.8313166989994591,0.7801395716654927,0.532035447589863,8.667997686191034,3.500146661955136,10.204217936418685
1250,-0.8260344692834222,0.7975223181462253,0.5410396536668363,0.574122751568802,0.4740765161260161,-3.156919615592479
1260,-0.8321075782695889,0.7794430467475654,0.5308153493547562,-5.297241683656377,-0.6924621076714264,-9.446071874741957
1270,-0.8135727990435196,0.7940707807575589,0.5503049639796148,-7.792024629488822,-0.8937404511191168,-12.448396934356245
1280,-0.8167364616362582,0.7822357594420598,0.5425838548955171,-6.063362288448836,-0.22283728551501492,-10.166508518088813
1290,-0.8327934737813476,0.7637599991852402,0.5274232559565993,2.423563720545956,3.66199263597564,-2.720403141702893
1300,-0.8148550849053195,0.8072128742292722,0.5548265749662928,6.157848892792968,2.4043898483919603,-2.9605401116169143
1310,-0.8368265943909234,0.7796989443434844,0.5356218413073652,1.562461202539216,3.3794955062633076,-6.116006196508264
1320,-0.8328825343631554,0.7729776867361652,0.5321745001423196,-3.8393913863916995,0.6640755027760057,-10.140868934194085
1330,-0.8203796043065167,0.7802217219739018,0.5488274613179289,-3.4123345808957595,1.8344219843585945,-8.499794176357494
1340,-0.8569079218393076,0.7407347512099243,0.5154636053514972,-3.291761239094823,-0.827590109648356,-8.54610230713794
1350,-0.8101927676300722,0.7876040713195148,0.5431351265171722,0.8448436208899127,0.3627382813695912,-0.3252946149544744
1360,-0.8267783983984414,0.7660614106423591,0.5357183680804136,-2.3851366995928025,-1.8393892029604864,-2.981451126788987
1370,-0.8216774875463352,0.7791160069860319,0.5468325205393763,0.45461715140772796,2.1810979740633023,0.923894837791015
1380,-0.7963661184051211,0.793288047436806,0.5692545091479642,0.05087840750830766,0.18409838899038972,1.8092657141847561
1390,-0.8083245913165077,0.7794061499162152,0.5593713203519778,2.3070815784546834,-0.5569189967535659,6.867642320632612
1400,-0.8243953681041146,0.7810664675645463,0.5417355176252796,1.9805113900441143,-0.1312718292443582,9.255622565617697
1410,-0.8289218884481568,0.7830894025482306,0.5390199883971498,-3.0498392826811043,-2.6124612334325845,4.629687848746586
1420,-0.8331917487699314,0.7811002525870289,0.5421456848234569,-2.782035402685983,-1.3302331924692377,3.2232751521061087
1430,-0.8526181125285764,0.7657613029435291,0.5226615160288004,-1.6716896046636422,-0.42597811445920475,3.1037803591157638
1440,-0.8238048449874043,0.7883687678763655,0.545227953161737,-4.811072033375736,-3.7708859154584813,-0.8010078120228319
1450,-0.8238575023637315,0.7877945797423683,0.5431272598504755,-0.35295853061510396,-0.6419394322454333,1.247339702995797
1460,-0.822390737684785,0.7926264785814601,0.5452736289576187,-1.3702201608468294,-1.3147672479669412,-1.5953651543424436
1470,-0.8306541472057267,0.7762615171054724,0.5339699941784295,-2.5693001584554738,0.2731382042867565,-1.277247498287846
1480,-0.8474889960274901,0.7494239791736707,0.5211894888304428,-4.33688820918957,-1.917705790686827,-1.3207120482407295
1490,-0.8430504074095097,0.7573308873455245,0.5198957762576181,-2.9928724457284055,-0.7430142198624203,2.9081834870617245
1500,-0.8258573450365481,0.778870727664624,0.538646261985628,-2.332688041577515,-1.2065602733412202,6.909965923006924
1510,-0.8604545615340977,0.763929440629891,0.5113684318212226,2.3434899643934424,-0.6473422129381275,9.614520780195127
1520,-0.8232052394822861,0.805723371060145,0.5426482275018273,1.0811908451444525,-0.39384812371810674,1.031932412170336
1530,-0.8199188521394973,0.804976932177044,0.5498089093464954,1.7045336781464733,1.5530495638211463,-4.922631749402421
1540,-0.7931717724859568,0.8244137260509524,0.5751847380809005,1.9334238141816642,2.039838204370278,-8.547856635779555
1550,-0.8276328105774754,0.7902624008283239,0.5420424888887813,2.125322660800408,2.970312003203371,-7.104097674438278
1560,-0.8506660173767243,0.761841348061152,0.5118543422712521,1.6953150673218391,-0.47231056680681716,1.3291694217374386
1570,-0.8238629127470329,0.7883844702499205,0.5463603215108778,1.7357355971174024,1.3266528759222407,0.6961152615369884
1580,-0.802140414183578,0.8151956406255076,0.5649118282853091,-0.8720201197995233,-0.9630975825102761,-7.446237448937083
1590,-0.829451898071752,0.7860993003718291,0.5401061552671771,-2.566603014584274,-0.11411300661438384,-12.432188528409368
1600,-0.8148891487377773,0.7947272322496685,0.5485299249159381,-2.6673499291418885,0.8216325653633101,-12.752363027366675
1610,-0.8113777644373467,0.783617124976369,0.5552690654455621,-2.5212783901728995,-0.2672024519982566,-3.9727121975580655
1620,-0.8169160791610414,0.7737417051426942,0.546075935684631,-2.9454437755401046,-2.956968308510511,1.3809973699672424
1630,-0.8092934550711096,0.7918848339424721,0.5602403991355963,4.502202206737765,3.2409295903403668,10.05384629131783
1640,-0.8256097638237025,0.7824525639113693,0.545810904287312,-0.2804038472140431,-0.5861667302267486,5.084593803460251
1650,-0.8240456596760022,0.7873551588023815,0.547709772384636,-0.4316915828597284,-0.8026134786052949,3.301353480144358
1660,-0.8175028359265633,0.7891554462839371,0.5482736894856629,2.673038378379445,2.163907525686722,5.328665999415495
1670,-0.8411834048320697,0.7714075820178153,0.5247715044080925,2.8188939332101692,2.195645064086139,4.927489140402714
1680,-0.8506338559309468,0.7633851473290686,0.517670390656802,2.624302309519417,2.7585674123081145,4.717112079218136
1690,-0.8251593850399148,0.7928262435124284,0.5453458138933761,-1.5370282081748516,-1.1003605822221971,0.4484744569591188
1700,-0.7968286437975443,0.8143135762559367,0.5700538414691552,-1.841200697874517,-1.4460167654937026,-0.6369550691717487
1710,-0.8061864660998752,0.8031534136559075,0.5579989894694286,-2.6421561038277823,-2.0044749334156746,-2.424373875720761
1720,-0.8252144334704566,0.7836941467239491,0.5456289542701288,-0.6718882931014295,0.18946415594190852,-0.38938286406615674
1730,-0.8229584660323348,0.785689438053418,0.5503495463931706,-2.1550938561247426,-0.3703787304950996,0.33902106895584605
1740,-0.8279621708200582,0.7834952765036043,0.5449162863777519,-0.7800708095301426,0.7585340474320958,2.463483548843112
1750,-0.8210575682429193,0.7874163447551203,0.548323085849088,-1.1286282856621506,0.33334407366341456,1.888484322862982
1760,-0.8032333508355907,0.8051967588469012,0.561472233747058,-1.8181128348288191,-0.5588740019756001,-0.23703058231969104
1770,-0.8039573290723668,0.8024131602035233,0.5686512329989536,-2.910004706847498,-0.2576668949042299,-1.7614549556187367
1780,-0.8277757399775673,0.7807655894695239,0.5485631968716279,-1.1364493959307562,-1.0019484718253866,-0.711898036070259
1790,-0.8328938826977308,0.7725119730061826,0.5339548396860344,-1.5362413961482067,-1.49072475849403,0.07555125714160882
1800,-0.805294731263696,0.7982980106203487,0.5624549819375764,-0.9414861071492804,-2.1033212330032245,0.4229605089517796
1810,-0.8215410984908645,0.7851131422847721,0.5477006854667223,2.138953440304585,-0.4626472226717228,2.9440496818934125
1820,-0.8290497549013063,0.7887622015089553,0.5345094678493281,0.13710388863382944,-0.049364063102923184,1.2118510566629683
1830,-0.797992407292993,0.810019503099784,0.5702214242610789,0.6829285904088656,0.22224034642982382,1.5179387349581401
1840,-0.8424975091497839,0.7638134769729095,0.5234979296582027,2.1972225327570722,1.232191482503418,3.9245196855075752
1850,-0.8239244963068082,0.7922239292452612,0.5521870144953966,1.093172670981328,-0.33304036708267326,2.5086557350938388
1860,-0.8345925826527666,0.7770442888103812,0.5303117599770876,0.3451660640677643,-0.46499372177384507,1.1590088367147944
1870,-0.8166029454508894,0.781750910972353,0.5430579412942215,2.139962199453594,-0.8123330436967935,0.6532328710157633
1880,-0.8142287268556422,0.7959011309422742,0.551445390172934,-1.231646389216343,-1.1820822844234966,-1.4299098155165813
1890,-0.8418979122997984,0.7545607660235589,0.5245953195738984,1.194232271565163,1.6086435690699172,1.3268161057657926
1900,-0.8266397917369677,0.7750907430400421,0.5429294129584176,-3.8516686417770654,-0.8900610673642931,-2.509744218456614
1910,-0.8320211892819941,0.7901302329456128,0.5350099451983332,-4.761296072278174,-1.7262485206398588,-4.186866378870011
1920,-0.80539927429487,0.8042356724389884,0.5586536503660544,-0.5942517688221569,1.255127416220989,-1.5191854469176476
1930,-0.8160875933318421,0.8007814902502397,0.5548530936879146,0.8514931767672631,0.7272119300351179,0.38356416012259886
1940,-0.8390311829317773,0.769172904990179,0.5258875742201425,0.25694451222776016,-0.041236227920255275,-0.4735491551094738
1950,-0.8224950655171319,0.7871807617761235,0.5460054257578102,0.7806215670323121,0.014503101376531075,-0.29883038330742845
1960,-0.8032274414543531,0.8062648094960989,0.5654948806108265,1.1422718396268996,1.4464750971894569,0.5743975980752998
1970,-0.8291764372658954,0.7865169202281468,0.5405001758263354,-2.36698674654826,-1.239559676191371,-1.9012051718475749
1980,-0.8267298814317711,0.7900578553921881,0.5420705044888541,0.6345796318482368,3.6137744111496852,2.5203611776997814
1990,-0.8154208586166736,0.7967578337079728,0.5545992289011332,0.5051237227006942,-1.1690423483949293,0.3885890521790629
