time_ms,ax,ay,az,gx,gy,gz
0,-0.40477867037770904,0.45292040289787067,0.825894953921394,1.5235055105450503,1.8389874385066274,2.8258698839488052
10,-0.40694645724311346,0.4512841424279911,0.8219104007693989,0.6111175210659314,-0.34865689500799446,-1.4926672129886192
20,-0.40851599805425726,0.45426711271254616,0.8215782717508749,2.7055917534285703,1.7308110204778675,0.8040211822001253
30,-0.3944720414536424,0.46501483934256826,0.8344750177253216,3.1748893863431786,3.1191923709220326,3.245341342103451
40,-0.38824370128505326,0.4806181381490427,0.8446318208994703,1.0476419750754942,1.5355768706892834,1.8692607233810117
50,-0.40513923517510614,0.4579428067262202,0.827164899615582,-0.08506599041274376,0.6658132508532677,1.4250097944558853
60,-0.4035772288789933,0.46027248785327723,0.8309915311930839,-0.5134249000749174,0.6633690015973331,0.9177683941810487
70,-0.4056222095885978,0.45613721673195884,0.8270199444399503,-1.5602759318652206,-0.9576886632587298,-1.7642353052240054
80,-0.4240627448603125,0.4348677522701855,0.8066176599059862,2.4737476343123412,2.328433303019349,1.5636632637784216
90,-0.4438819422056943,0.42095141597315955,0.786190378209744,0.5852439393044264,-0.20683447304855257,0.27735646859371427
100,-0.42411097326218933,0.43987017435675224,0.8040124927611155,0.48520124553500615,-0.36003391207511204,0.6061786906628723
110,-0.4257175525230766,0.43865887675603776,0.8047943713264274,-1.320383983577805,-1.5510183642599331,-1.0532433906257388
120,-0.4112581088452464,0.44962679885972123,0.8175819669869094,-2.8661764068417446,-1.805000593061366,-2.1030794232170527
130,-0.40336559624770013,0.45760690172548946,0.8227607538849517,-0.18433488664245087,0.38891649606242895,-0.6813155334670911
140,-0.4095152935437366,0.45118494609576243,0.8195467577363789,1.2384642739939864,1.4546697139896576,0.7988313072952922
150,-0.3783799734660547,0.48321133119244003,0.8487272409153176,-1.1776458160439034,-1.4947269940058994,-1.640760005198218
160,-0.41780557137751756,0.44694289101636964,0.8146807704734126,1.8858188450548008,2.210725945197008,2.093337764791829
170,-0.4039732496884456,0.46248856487458057,0.8297391477918782,-3.8212753407387865,-3.1963339700381006,-3.253057476001943
180,-0.3919811944362736,0.46777998047985997,0.8439321568075974,0.488436195709084,0.22570390796871093,0.14051660668812577
190,-0.4025552641208965,0.4653884431730955,0.8466707570587656,2.438810276012167,1.6259983779034797,2.526737851730947
200,-0.42087729400087887,0.45903973011670224,0.8390727347007206,-2.146726632632245,-1.5752936491164387,0.7441735646032659
210,-0.4484246903310927,0.4085221275179357,0.8006777184992692,5.204618725868414,2.5260331118844874,6.310366718752288
220,-0.4269847828078874,0.4275334011948935,0.8171385301841197,8.30865695356446,2.2670743498320665,5.88780327033244
230,-0.4397824917566765,0.41909229323592284,0.900648708541656,14.445696378330517,-2.150499811035063,7.088543353292658
240,-0.37899069696699617,0.4605073745357617,0.9484021174491069,20.56581945950491,-15.49052024088112,7.393566102047956
250,-0.3388354496362899,0.48511718812500504,0.7950310022681072,20.607370476497003,-20.93852266821128,5.0291364308399436
260,-0.31122158938379024,0.5388468537236906,0.8321483055645961,11.476001369579068,-19.818805346794505,2.185667585967372
270,-0.3168094699038337,0.538329286875029,0.8223598244313786,1.954898801120268,-17.167614170586948,1.9868194636287053
280,-0.3477906823679146,0.5100176828473673,0.7947180470686855,-5.820340011930091,-13.891161788827608,2.4361161967231073
290,-0.3226631693220965,0.5171210647362421,0.834625796767761,-15.021081614608375,-12.362011296948236,0.38872447175973157
300,-0.4364594462431793,0.5190386158783983,1.0050436044295823,-22.30156101061874,-13.05619178872421,-7.023514291105359
310,-0.5420317787166181,0.5190931611774339,0.8934364744323333,-19.291584410556503,-12.011483890983927,-12.412286680878127
320,-0.5125663337416917,0.4168114676153609,0.6827006298647957,-10.847689856840661,-5.134915905073001,-12.812266033380077
330,-0.46329359096068795,0.472313688905655,0.7547802032168345,-20.203623728255756,-0.2394387868487442,-4.024148798254339
340,-0.5766251101087313,0.4773352204120508,0.6586910833739326,-30.971592313752883,2.158307448402201,-3.6978863197155096
350,-0.4460477580953819,0.448871398579987,0.9643675392015928,-30.839170599230037,11.589893364643684,-0.801967082077399
360,-0.3958996568879484,0.4987900976835209,0.8619605707041724,-24.58120655338396,20.89306098038786,16.610146493181148
370,-0.275934635127731,0.5585920084426271,1.0454918514991367,-9.318291746747743,19.725256881271182,6.902721971533918
380,-0.21278966863130075,0.45082209739762436,1.1425405321108268,4.673885976213763,18.153178782963934,-3.774809545709007
390,-0.24252252883867684,0.48455777600958627,1.073146369618159,10.140696634878346,18.883296565802997,3.043881918513788
400,-0.423395176921128,0.4024364202554391,0.7514269124545642,9.788352953845662,20.280161063938262,6.370778353148118
410,-0.43508717723715673,0.4923644747242693,0.7451239676017415,10.64433451725275,12.195380767003225,10.085035435763816
420,-0.41001982241048857,0.4385213909504323,0.8340403991459395,15.96599612259118,5.415214566826643,5.121611462552313
430,-0.40917931886507203,0.4256477402744275,0.8734536682522087,18.551715971821412,2.0013912169332477,2.292179770516075
440,-0.41306521497090637,0.4754424025615842,0.9700438359661187,21.519700907389822,-16.141047614934287,-0.40248359372542897
450,-0.4472737377023209,0.4779001184031643,0.8382881918041691,29.696562517210765,-22.187862122203242,4.941205279842732
460,-0.44013175396867554,0.4534700321108695,0.7467536334150771,25.4430756207115,-20.316673940600666,3.426590178798541
470,-0.3812983304605238,0.4910943216329073,0.7916954293946075,20.03015629897204,-17.156996825676995,2.9020967432075473
480,-0.3571526289299608,0.5192449339611137,0.8147859421157477,6.863488940067443,-6.886596846998351,0.4132699139588969
490,-0.38932624442161007,0.5011086048891034,0.8038130022553722,-1.6034111082870623,-5.190281360196369,-1.1552144102562838
500,-0.34902961233637037,0.5388392462248418,0.8731095833204848,-4.255272400060693,-4.73130316473268,-1.165498499126667
510,-0.3517664742757004,0.5240399882144368,0.8673285402442275,-3.7946367322460475,-5.563482047954689,-0.5133510705979384
520,-0.3559056465822636,0.5300924098192208,0.8517472265154171,-5.866044068724977,-3.5824892715860566,1.2698155432853437
530,-0.3800585714175976,0.48876480607841705,0.8303287083131433,-12.269065721873142,-5.298279113954263,-1.2363524466699425
540,-0.39896251180647274,0.41219880135113934,0.8099636159054325,-14.502997299223463,-1.9924625375772278,-3.2497879422783504
550,-0.4302009538060103,0.39031022188139075,0.9081395817825998,-11.155867967504513,-4.5229174321352765,-7.025522882059596
560,-0.4379060987406408,0.4218877681729099,0.841339373644884,-6.5935161545389604,-13.261172655468242,-10.487581923482143
570,-0.39551230987092645,0.4381834736952126,0.7270450078673562,-5.57957601569329,-11.653939941663882,-3.6240315283017366
580,-0.36156416253492973,0.47166878577912724,0.8835720638104542,2.9837896284080605,-8.978522434689106,-2.7676519259305787
590,-0.33770271959938813,0.57734211202213,0.9159370860477631,11.54061742860916,-9.96079202767039,-2.172391218543122
600,-0.4449376995049127,0.3452285995713443,0.8060734580972103,8.732753106647994,-6.163590406810178,-9.721009386095647
610,-0.43772072880203466,0.48231522431986024,0.9119503644260102,16.438354207568786,-2.736251180100195,-17.220707286653028
620,-0.4261596103171143,0.42390332190335633,0.7309950373950681,4.934762837694174,0.7042254773567912,-18.722825541362543
630,-0.4332657935237163,0.28929502944193525,0.6930110775777523,-3.3858545922818113,4.1019517468645645,-15.69453916777605
640,-0.44621778511320365,0.5478469583986904,0.8179234344529307,3.9602282839561456,-0.278547276387614,-4.39096740610606
650,-0.38701600700071814,0.4580280554007661,0.8423693984983714,2.136119132481322,6.090151443631576,-6.662200710122851
660,-0.38262394608760014,0.5298719304564111,0.8220829897956876,-16.17328078921802,14.237626062015519,-2.444819702187867
670,-0.3835507309412328,0.5301425606840912,0.8215478999974679,-2.0692141578259466,12.631872460106962,-0.17527293264802646
680,-0.4034247588025068,0.4841286848208117,0.8185114597944005,-5.141818788499786,8.33648353741118,-2.5048892421596465
690,-0.34546865517705966,0.5127751135947226,0.8968168556993448,2.0682237418385188,9.29449617030013,4.750008532867417
700,-0.3631036015683037,0.5360833606716028,0.8967794933928721,-0.4954920476498037,8.053701848378301,3.093468996848365
710,-0.44026885167535307,0.5063964039909277,0.8011043085365948,1.7061384894800007,7.771835470110168,11.994051435381497
720,-0.34013561712154305,0.4970140719105937,0.8773997396723147,-2.7445402736735653,-1.1956281498226573,8.671113662413486
730,-0.4185088587023634,0.41278533081869634,0.8108452071698049,5.097608680677835,4.057984604215672,5.816604579819864
740,-0.3953104973419917,0.4857286309630344,0.8378523801983179,5.475845691705325,0.5263472991598479,2.9816084831518213
750,-0.3758639558492796,0.5271472416446891,0.8529403884774479,3.9906142247381675,-3.136390366454095,4.157972720908384
760,-0.40327198573816464,0.3492909390495785,0.8179570965900892,0.7407868151537391,0.15494814973446092,-2.7284881277436437
770,-0.41136009496101816,0.3926760973004663,0.8133232771540199,2.503756514925302,1.4920314619098947,-2.014100324545208
780,-0.4066162209830052,0.415041368220247,0.8193611405434186,6.6302703963636365,1.6039668257583468,2.167067937093167
790,-0.39573455309655986,0.43713848919615256,0.8321355965925088,5.8616775463195445,-0.06638144538827051,0.5719203426851855
800,-0.3830073881412901,0.45477504022014964,0.8417185758510056,7.098800671211504,1.5787384838620273,2.184467941227367
810,-0.4046351158252471,0.4311963280848085,0.8217459499665549,4.6894093097130325,1.227227618934085,1.8038457965024852
820,-0.3935936445668915,0.4213670721689095,0.832822033840293,0.5551145816289087,-1.0065976193672665,-1.1307186311601878
830,-0.4193373361697742,0.35743206851202897,0.8100936857485385,-2.8536390869706674,-0.08761863276767223,1.057344446471221
840,-0.37966440123121004,0.4064771352394636,0.862714359361867,-9.493967234016544,-2.2308657171635455,2.3119099819686566
850,-0.44387980537585114,0.43510333316040956,0.7835162739554571,-8.599231371272127,1.2515352367843167,-2.7781543708478322
860,-0.3999777617962667,0.5198724159634796,0.8154303666528006,-7.735441113519405,0.9338447405752883,-5.722234595122509
870,-0.37823886195083145,0.487138078092942,0.8578244914334172,-6.422682581397625,2.7108600933455524,-6.509304771927968
880,-0.4458597502433756,0.4043925335598734,0.7609410141728137,-7.596307719174772,10.866840926439924,-9.098081921985571
890,-0.44366248257735713,0.4148786664955745,0.7524120209995357,-13.978451990821052,8.509168082279349,-8.484197439282182
900,-0.5077390896708222,0.4213291151065897,0.5958523911146011,-19.12739704667149,10.489281059959193,-8.806652430257236
910,-0.4641590546222726,0.43278502799135954,0.6715189236485062,-14.885392757321286,8.81058635145826,-3.01118749851404
920,-0.38604454505898467,0.38040461379462503,0.8383763288509433,-8.010900391740908,7.482789387918691,0.21251865964232253
930,-0.34565556567726063,0.3931475793156247,0.8968078575144576,-7.732975436847355,6.325725311927858,-1.326209244548191
940,-0.42128801638171687,0.4259907483759125,0.7954528437074354,-3.371453065818555,7.8000182104562805,1.6057503302780174
950,-0.4215532128638817,0.5739684919240716,0.8122304610066526,2.4163324639796206,3.379976941580777,7.869464754762144
960,-0.4389753225658479,0.4453647168794961,0.7820719086733229,-0.45800698986745836,2.538874044435409,9.210093922313932
970,-0.4323798188041148,0.32794661290244115,0.7779453222690932,2.546601156163011,3.09905678354213,5.2383546936804395
980,-0.4150769498820285,0.3787466015089887,0.7963274722954453,16.489868127301573,0.9507367778777422,-1.3330611527822096
990,-0.37558259497547564,0.42701905468172036,0.8413399548735525,19.52841831718679,3.708718118706365,2.0993443244622663
1000,-0.3943793530194141,0.3262257585279992,0.7989115409364346,6.204973381388379,-0.2636761754400494,8.577095530914214
1010,-0.3954019496663315,0.4084117213598898,0.8216719815537903,4.501179572327054,0.3824944022787407,4.366800864330724
1020,-0.4040269499300277,0.43884320435298746,0.8225139110158647,8.505392631461078,4.846760582097419,6.152438928916228
1030,-0.42812794707402424,0.41310893445908364,0.7957153067421372,4.195312779708017,2.1482262473365816,2.956438189176276
1040,-0.420083435548916,0.4192382292785833,0.8113071095133971,0.9603226475090956,-0.8008460327138305,-0.21746934961318848
1050,-0.3980815554817389,0.4354765798597142,0.8284373876880377,0.2144951414973401,-0.5147475704551934,0.13095485330897372
1060,-0.3971923368392973,0.4394161277858894,0.8244603602113407,1.8579090895756807,0.8441999252201008,1.3141724738153562
1070,-0.4171418774938116,0.4264211354547426,0.8047769364198312,1.4061812709621573,0.31590007133967907,-0.6883515875952951
1080,-0.40868374412347686,0.42436207800514447,0.8099439525165081,1.033828620171814,-0.9135675684951587,-2.4624904202255955
1090,-0.42208004646353736,0.4187511937863748,0.8034394974764817,1.2124338221617532,-0.951471951621769,-2.4074917863542877
1100,-0.42426532358603447,0.4187856197185297,0.7960014809315955,4.580708083169609,2.557155785902629,1.7504868905366866
1110,-0.43229076681657286,0.41524371658299164,0.8054294517609816,2.830089695816394,1.2823227674315298,-0.4040402882472224
1120,-0.40512799574746505,0.44015220982410275,0.8286026122192979,3.9257012690397493,2.0288613160304516,0.24925336065634862
1130,-0.4482581011691902,0.39044516283797437,0.7777542455438097,8.308517109742736,5.090678348576612,-1.0512534870124126
1140,-0.4340367418221531,0.41035692900775017,0.7986791925823317,6.866471241686878,3.2957827826185673,-3.482314298915127
1150,-0.4147195299260012,0.44237562141685594,0.8162899204192603,9.823687295257553,2.3370899606019115,-5.19649774532164
1160,-0.4151489887629424,0.44699975375016426,0.8221072320615505,5.38850107315302,3.271049508297045,-1.334352653594655
1170,-0.44761529370191966,0.3884733008798452,0.7763192371147141,1.5452417933167493,0.638199120212313,2.508504339615584
1180,-0.4309302666115011,0.4354131945480447,0.8070357721116882,5.437216667053338,3.5316012350872903,8.958627787918193
1190,-0.4236743368281868,0.4492221837462223,0.8053485097425156,-2.951018875348958,3.298508102056331,7.287188863892719
1200,-0.4090722483292959,0.4536767510978771,0.818858111942599,-2.7525000835176376,2.219608582294756,6.783329465034707
1210,-0.39406583634433534,0.478606749314039,0.8400131804019205,-1.5638870135887302,2.9564131935105937,7.875824345208563
1220,-0.4086700705232102,0.45580135876610683,0.8260212298248506,0.5936881679057756,3.068238369340862,8.298973758632787
1230,-0.4318647794593925,0.44200410891248776,0.8000352228187642,2.934888269439372,3.1498987596147723,8.591124855125187
1240,-0.40228879296274783,0.47368765198627844,0.8292389244028691,2.451927018653324,1.994928186226162,7.048139153949089
1250,-0.4365451633024199,0.45881087408394333,0.8041978655419675,-5.959398121343229,-4.534135582317213,0.07981523439736149
1260,-0.4201545106922986,0.4653807556954632,0.814098381398134,-0.6049265952751441,0.9570093626831511,4.6893270702266845
1270,-0.4037362410394818,0.47584709645620277,0.8246980263714465,-0.9241555530109877,-1.4251362278956368,1.991392162243864
1280,-0.40951408442136084,0.47446859364903304,0.82161152957892,1.690452135577623,-1.2554928635038591,2.804127809701969
1290,-0.42351667276045923,0.4626892934394174,0.8059881403349011,-0.27861563110255816,-4.430416316622752,0.2296121548918211
1300,-0.38790582805470747,0.48958756297356365,0.846844564514794,-1.1475791236143835,-5.404057966118818,-1.2825552115679797
1310,-0.4332684935906464,0.42896167147411984,0.7975202758092673,0.5855166702942183,-2.5020765166673575,-0.7073520265009461
1320,-0.4012644333508194,0.46565632043560656,0.8280270292858212,1.6826732560001958,-2.1993231924314407,-0.4047739166202198
1330,-0.39937776524974816,0.4711617162857721,0.8276074179039026,3.5256016664422876,0.5114617421107579,1.9451461926095666
1340,-0.40172230553247773,0.47001531090328946,0.8287117914758547,-0.5114256007012105,-2.8698249231386512,-1.676490780306466
1350,-0.40644559546277975,0.46225527147205586,0.8217921714479125,-3.0972131035235297,-5.006025264205384,-3.6884467395404608
1360,-0.4324468187377577,0.43662300464709036,0.8006740999796204,1.3934608923057321,-0.019877394632441314,1.150982103152681
1370,-0.4158368882430127,0.45650723626214745,0.8171110431189286,0.6501349457161705,-0.9046547381914487,0.42320916507487305
1380,-0.4103128178371097,0.46388497809185014,0.8209387541334708,0.3849278197867615,-1.082051268006709,-0.049705281895520204
1390,-0.4342674899827767,0.4386009871377607,0.7943625993340473,-0.5815562057352813,-0.9833173569003367,0.5604169295636124
1400,-0.43217884038655496,0.4403145420663734,0.7989683498261217,-3.43071187685538,-2.8524774701753026,-1.722443351261857
1410,-0.3759280162270913,0.4933574892849737,0.8533716850793653,-2.7740725099285055,-2.691098182381075,-1.9595425717610442
1420,-0.42543750053518464,0.4447280580515254,0.8041251624315267,-1.8677171007571707,-1.99231188636801,-2.396545508026298
1430,-0.3940500740308818,0.47832166783522806,0.835560598262892,-0.461007307375278,-0.16178270240423723,-1.4975564326728101
1440,-0.40533392879470354,0.46576463791025285,0.8251138974049573,0.8196538028410949,1.8662570594168097,0.38671791285428925
1450,-0.4153223383204742,0.4565839839839094,0.8179039637823566,0.30249053285515637,1.5602153610652665,0.1348255968180898
1460,-0.4091114754379255,0.4598044171332463,0.8236126374749732,-3.0257304887979624,-2.1534941941523633,-2.9421961003924864
1470,-0.4034838048773952,0.4641744758672657,0.8255210938587679,-3.403212431188337,-2.5370499506885738,-2.0634460071156484
1480,-0.4008665252422121,0.46559514862031565,0.831013461649918,-1.41546192390497,-0.3998946561238272,0.17394479396311624
1490,-0.4059094915771374,0.4572226749866747,0.823304203256884,-0.12452999509373253,0.9691068922986663,0.7465191417685895
1500,-0.44001824630721664,0.4250651965542831,0.7883524314507677,-3.603003914996208,-2.4192080777990563,-3.101961421190185
1510,-0.39577939874490603,0.46802566985891003,0.8371403444142876,1.5547133686305439,2.2366005836349103,1.3696938388000515
1520,-0.402157208653944,0.4640765144032302,0.8325848859043927,-0.6316434584047362,-0.4966842694020175,-0.3188638251858147
1530,-0.4075597223562741,0.45938752992500853,0.8254703157862159,-2.2599921429857384,-2.237891953449896,-1.3362644200876796
1540,-0.4300286303194026,0.43550438088466376,0.8012246038533437,-2.0962301535430243,-1.8207191066315431,-1.5667620850805273
1550,-0.41344892240365505,0.4531153575119026,0.8172491871812846,-0.17338170244221968,-0.1475899619047335,-0.1725927547564176
1560,-0.41755793160218835,0.4500758190644755,0.8101438680204793,-1.2985979242531753,-1.4225817791348203,-1.3509763743763634
1570,-0.3947743121710565,0.47598997962511297,0.8352942984771847,1.5231328684399488,1.163002980389985,1.3484774267776132
1580,-0.4156112113628213,0.4525767677530519,0.8175748473415124,0.6810521802798006,0.2684692955620455,0.3977117561147768
1590,-0.415406357505256,0.44948183941751496,0.8179670526244395,0.07097846012143039,-0.5653623314665015,-0.5937600810060948
1600,-0.39753539224033596,0.4727318636335445,0.8340854095624334,-0.7821410521036867,-0.7136793382156645,-0.3899992749689985
1610,-0.40254514757054244,0.4678998142475375,0.8353085133903713,-0.6542133615841974,0.05048664096333899,0.37916388215298674
1620,-0.4159741805966784,0.44606170841278153,0.8182332457510462,0.9538032169339427,1.5026933897288002,1.4027739556410999
1630,-0.41742434885243956,0.44650281509545126,0.8148310324903758,1.0387090483062595,1.0462942891116767,0.663275464333055
1640,-0.3940349288226831,0.47056328399241903,0.836464070283996,0.2581419227326027,0.48000995014556425,-0.18132900111649133
1650,-0.43359963551732544,0.4344515596128791,0.7998133328869083,2.022282456156492,1.9733247715441748,1.458129026078279
1660,-0.4090451858123372,0.4559558635899928,0.8213654905151699,1.1315558849215641,1.0801325437251954,1.1476080326692935
1670,-0.38743700954293375,0.48201389373432724,0.8422785319190405,1.3796159955013372,0.6966962999692522,0.8819345662755493
1680,-0.3992754681860246,0.46904287900586994,0.8314460168072909,1.6747094167633714,0.6704277178909581,0.8376547822312175
1690,-0.4076364017964667,0.4589104954734856,0.8202979267297514,0.5663219853611723,1.3644020425205625,0.7031944913449102
1700,-0.41316985148033847,0.45064602972724765,0.8149840486483838,-0.525593602371929,0.6514529114290655,-0.32585238619398615
1710,-0.4125111977950303,0.4566427087585873,0.8158729729767561,-1.6523408484108386,-1.0367609901594692,-1.1050502427362419
1720,-0.40315764544185995,0.4653325085507524,0.8303062448505714,1.2089967863215816,0.7752781335392137,0.7000314793237693
