time_ms,ax,ay,az,gx,gy,gz
0,-0.588720080468116,1.0350045969480193,0.7825691094707616,1.216774897542522,1.5785500773534826,0.4081851112156685
10,-0.607437162091762,1.0214589980128121,0.7709206395827615,-0.5288212038514554,-0.7849339992697418,-0.9660583144155156
20,-0.6576693207536516,0.9677831763002596,0.7149666422658999,-1.527523965594162,-2.2879817959415036,-2.122365535843437
30,-0.6045526007752025,1.0223287727082542,0.7670451020492919,2.8058451315729362,2.1029749923222876,1.878561778131644
40,-0.6161189331431465,1.0144755827948329,0.757454458051381,3.381476772359942,2.894066850317401,2.6059658169429945
50,-0.6277534758932608,1.0028064707773183,0.7459765351483135,0.44909975496454946,0.17704123298744612,0.2661553754017896
60,-0.633130344284197,0.9931079341422285,0.7391526315357778,2.273916430973568,2.4703179877882966,2.2946146153650164
70,-0.6127672976648278,1.0164619526017618,0.7568171233087277,0.16461414845322458,-0.18968819328978279,0.180049148365986
80,-0.625534438476826,1.0025175610423847,0.7431010679342208,-1.135173906180612,-1.251629219430099,-0.8130213676036834
90,-0.6595431586962238,0.9688936477154976,0.7110845579773563,-1.3859394269539458,-1.7248557140954088,-1.2931090651553343
100,-0.6434883511786118,0.9862831273745921,0.7269994986577331,0.7893137966858519,0.1822658948833723,0.7827140487291007
110,-0.6346280319899271,0.9950704515192075,0.7340323741760636,2.399197588179239,1.9570696878789051,2.4569678727373097
120,-0.596892668364178,1.0306655178187476,0.7728103457795727,-2.2366231948137605,-2.241585905726408,-2.2216448822670207
130,-0.6146022096581182,1.0127567035582328,0.7627908879510683,-3.378179699672447,-3.7939135658816596,-3.483180292065622
140,-0.6505868325423816,0.9877472404869523,0.7218394725001092,-0.021715023215071738,-1.2127152683652043,-0.379422814901178
150,-0.6364337293920063,1.0142484529569222,0.7425973333137676,-2.000159437457572,-3.6572839914748805,-3.443828496791336
160,-0.6380919634597981,1.0220869201588174,0.7501678240425617,-0.8416117742846021,-0.7269189504105396,-0.630240438278105
170,-0.6207456951265579,1.0353337965162888,0.7701378430279342,-4.825859735992871,-6.8083850208551056,-9.213848896227201
180,-0.6391991118492072,1.0648932186154838,0.8845628400955045,2.5873525993223954,-16.097817403921773,-1.1165971043401512
190,-0.6641016752757963,1.1556372471905874,1.1741048797711526,5.363038820167824,-48.75080321426513,24.36313029986576
200,-0.5897320216173401,1.0517273096882929,1.1179775112716612,16.03863425420263,-68.64349278741709,47.03257644157879
210,-0.43750101285776827,0.9189112792319728,0.9756737011564799,10.589067723258218,-82.5685913993741,42.374254685575444
220,-0.2567376364784083,0.8857289233579646,0.6931980742590287,8.720687479161057,-74.47932271149791,22.54443367970891
230,-0.1460254839963529,0.9078765768672145,0.6175176944683319,-6.661346871022269,-57.08960243793075,1.5904836156038198
240,-0.15748466980613723,0.9294732736370237,0.6244219401462979,-35.81005945742043,-44.93934802768397,-24.9841785612014
250,-0.4124929901512684,0.7721220907369525,0.5250247158866868,-31.288600303563026,-23.908889493338076,-40.83862801687387
260,-0.8731512990630204,0.44107655885522745,0.46941936425476993,24.207680642114955,3.9145143720191706,-43.54453230584294
270,-0.9043152678990537,0.9814141609475703,0.3203082985880301,-68.49664598207507,12.54561364922994,-34.164595468190086
280,-0.8484714211227714,0.5584364222785166,1.2215683538401634,24.84779019798636,28.17988268424599,-31.047831600169285
290,-0.963117962991162,0.4662029233432964,2.00931341821531,90.92564766790372,65.79015855267654,-12.225772781933642
300,-0.7572493841441705,0.6388449538396467,1.913116464767412,120.10570089907559,96.43253981374335,7.287419210165165
310,-0.536959754809351,0.8204877513731801,1.02811536592973,112.78979731964664,95.53156287394566,15.821318300662453
320,-0.5501124444445332,1.0332925584103112,0.4030973375235153,67.93854921021173,59.54808347039075,17.315616423158758
330,-0.42848994286828207,1.197043153160957,1.0432252910169757,-2.8526101633231336,9.936448859536817,29.19040339880108
340,-0.4347295549639072,1.0171401346465179,0.8948953080727532,4.685445549772307,3.6984425098599294,12.281323191912639
350,-0.4855509732979185,1.0080113651857612,0.8729871225903864,32.79311328085645,5.610630035227201,2.8411727284217
360,-0.5406461654570333,1.1783293427489168,0.7749123441067786,3.6724539703677603,2.2372780800255807,11.159496029192447
370,-0.22578069285366204,1.0741837533939587,1.036407441193348,-19.27205202382695,-24.485182733731676,23.509496893163078
380,0.06476071178766192,0.7413255867776779,1.5760981477637903,-17.442064154913375,-60.50482627569318,32.48354077091917
390,-0.369432259855905,0.7432995283020544,1.7433734605636186,-25.58272089747446,-70.08835590192072,32.6159364060748
400,-0.7772880238663838,0.7029511959198057,0.7364663127808696,40.78762605943013,-52.84625710928857,-19.174525083760084
410,-0.5749019129575191,0.6471482746050624,1.2840105549599248,7.155182725140549,-35.99618367668742,-17.74928093923474
420,-0.7619928784380072,1.573773623923926,-0.15596358255702866,19.48785242552955,-22.780221687152288,-2.3106438788423524
430,-0.7000131146906188,1.59311216167627,-0.17412019789435337,50.5014271625368,-15.608704721869717,-3.9857164941095298
440,-0.7408082081316162,1.1521643899157215,0.39766871472863397,54.0482240115766,-16.254666532822675,-29.973740918631677
450,-0.9146594084606392,1.2200179091816366,0.3023554968827158,54.34122094902947,-17.64214016541676,-57.174343522183975
460,-0.3619609108815349,1.5747747196662576,0.7285498390073283,151.21915460720413,4.162663407493134,-37.50032020926511
470,-0.35789347109917996,1.0868495354679812,2.1336862630862976,60.493518979091526,40.896168800473326,-8.370627640957995
480,-0.4069919829369022,1.409983892551605,1.8785296730347434,32.038925887483224,67.08832938716199,23.828852054869138
490,-0.2725445815160676,1.2073249494345624,1.1892398272776834,-11.948519613867386,54.468082451149556,44.47606302046696
500,-0.4590387178044906,0.9191303896459481,1.3120406104045428,-45.517227461776656,50.29290120139137,62.65211507126773
510,-0.8534101048697292,0.6818906816876911,2.0214340843172067,-78.62569069674858,42.967818375145896,60.35598592059692
520,-0.9544283940748433,0.45482465028845703,2.1147613656244704,-93.9186068236905,20.129617257908166,39.234612807710505
530,-0.5250622254075427,0.8898298507528162,0.9336075533023043,-10.980324582512408,5.5149938730573975,14.76957874329001
540,-1.0425856744409205,0.8604546877317474,0.3807814405094972,20.78139620588768,-10.451368408243638,-6.359966948286207
550,-0.8503815207199433,0.47190079548736147,0.423035647231607,-7.585157822594605,-39.61036910183504,-60.12457880893803
560,-0.6183375645824841,0.5318169371553847,0.620591230744551,-24.409972431428717,-37.883081870469915,-70.85717464959905
570,-0.5989772385162772,0.7936096237802781,0.7468424340843766,-11.240955431342057,-23.763743260628193,-53.42472678429862
580,-0.7299812854741377,0.8517572270976066,0.7177945515369869,0.4033825985915833,-18.294012861786765,-45.92414304442836
590,-0.7857647411738793,0.7001353283867668,0.5965090290609208,-20.2062161418851,-7.753804982251498,-53.896438783038676
600,-0.9277949895011871,0.9815908089911872,0.4900927178468065,-25.003779655280805,6.445746954912675,-52.84683352030549
610,-0.8576899440380749,1.3197496405571911,-0.3162860717193769,-46.598481683684334,34.429568313915134,-18.734598065822404
620,-0.6393239101506973,1.5476532599198571,-0.13910176268800795,-19.01281844631436,50.771978041290225,9.543593592087934
630,-0.48429010564731706,1.3791405422848977,1.062332644084823,-14.208183126671681,57.26879091626419,38.467498337713316
640,-0.3793246909386849,1.080162654610999,1.3922800742882548,-5.783159399418257,52.93552236393844,57.889983388713596
650,-0.3173251616077715,0.9879499471301809,0.5156168879758909,22.94694325682108,52.73706182553842,72.57876390659135
660,-0.8459247561679316,0.6681458475630736,1.2652129513739445,-64.48496126953175,28.975073870758624,55.11476051815342
670,-0.5015842465690603,1.1320736592720966,0.9294996049249548,11.18952329207198,13.491451281436804,21.80222843274774
680,-0.6501315618785544,0.9516098497720751,0.7434144304327963,26.006667475735284,7.811625949084772,9.95543193460601
690,-0.6602632721344169,0.9556513048326768,0.7135803355419484,30.514883150863348,8.773587413176724,12.347028868049737
700,-0.6491006124145614,0.9997178435281976,0.7154209898828437,25.418111541494945,8.620427876490796,16.699291940293335
710,-0.6226386949790883,1.0488210490539707,0.7530107903286416,16.394551579376806,7.477565646935188,18.283557393897368
720,-0.6538346644532927,1.0283995165512476,0.7088308543608969,5.618827977032411,1.1445981313460492,10.354427409745568
730,-0.6253108810652096,1.039834513541129,0.7108593326920659,1.8580003184784617,-0.09468797409610635,6.726844666915527
740,-0.6066103473717765,1.0498787846029556,0.7374701722959259,-1.1157164841333909,-2.2652600006118044,3.7581880677516697
750,-0.6172724639751563,1.0225486551422673,0.732099093762439,-1.0124137434085232,-1.2728829839306732,2.7636479142816643
760,-0.6517804917891826,0.9905576705039174,0.7077622085995161,3.65958869249134,3.464555304427309,6.361837052426251
770,-0.6127030704249992,1.0397441233166438,0.7506980356450393,1.3264168256561228,1.135761764041933,2.063143012869631
780,-0.628326196587388,1.025404321495318,0.7257020700617255,3.318271796774673,3.609053686577107,1.815644010805477
790,-0.6195262925055481,1.02798495364417,0.7223818077116846,1.6215320702809903,2.4326778697724016,0.04855843024023687
800,-0.6280065671380594,1.038386537463721,0.730898813244854,0.2867237329692087,1.55044357325471,-1.6921276915354757
810,-0.604199725354612,1.0476094095033208,0.7495472168523507,1.4648475831457333,1.9691586398490295,-0.6248701885707217
820,-0.6272110144349904,1.025432675006693,0.7309366440001225,-0.9872099319095715,-0.028838067760361408,-2.8655074264873446
830,-0.6262967381996729,1.026131548697318,0.724962129324623,-5.370406628849444,-4.041064622642318,-6.734202444635587
840,-0.641158490938341,1.0087294578672554,0.7029643532567891,-2.2667107176020242,-0.8128695115703377,-2.865517125624667
850,-0.6160692357114327,1.0347486268839328,0.7360523372799141,-3.5689247730508935,-2.0269264328728944,-3.6090359185181313
860,-0.6467333310286545,1.0035118004222106,0.7118242294430887,-1.3539330638518967,-0.44760302839541843,-2.032873482588914
870,-0.6038031480721301,1.033731368559529,0.7539742026586528,-3.3589612840698893,-3.645636428386616,-4.219550250484828
880,-0.6223597898433301,1.0227374500218294,0.7294202612770916,1.0524570874510664,0.37436846271702556,1.0904678017844747
890,-0.5940840893262604,1.056185007414931,0.7551905268731919,3.327217501940183,2.047151786020717,2.480700757633743
900,-0.6192201212049153,1.0349506573558442,0.7291893909756498,3.8611348570718116,2.1085578448115054,2.6261410091032054
910,-0.6148687938723679,1.0442698707525153,0.7324711217468235,0.654647677120856,-0.9166413972928332,-0.3947413004024277
920,-0.6356997851755071,1.0251410642692262,0.7108998933649862,0.30861155896901254,-0.25884765368586404,-1.8980016720886965
930,-0.6342826411827064,1.0110510686177363,0.7130422375209654,-1.6368604918338294,-0.9436858730991269,-4.918270179578602
940,-0.6046100555487737,1.0432716028996898,0.7467170094330735,2.435544615959804,2.649821366469609,-1.020898278983069
950,-0.641468794176569,1.0089871284530887,0.7094184025821406,-0.27337971739178824,0.5693970779239856,-2.8793831578924154
960,-0.6313456232197894,1.0166256099522537,0.720043582826116,-0.171718373724706,-0.9249814190798855,-0.4636477438357923
970,-0.6507736985133266,0.9998961630809265,0.7028130870594124,3.279909447566745,1.0816389669239763,4.54030439320748
980,-0.629803121618034,1.028329963659998,0.7245348165151057,3.898445192015314,2.2546452480418817,4.791466110470445
990,-0.6295120524739554,1.0239884093146034,0.7214531460080803,2.4812758259754073,1.4825237130016014,2.7563187037564276
1000,-0.6309412115969706,1.0311775655941455,0.7290102067335044,-2.0472708209637434,-2.24296916790167,-1.7572189814173593
1010,-0.6439478236099248,1.0099937322991726,0.7088277087578678,1.106927168627951,0.6425677140246083,0.8059401384158249
1020,-0.6394854162341742,1.0110276519329569,0.7120526534614483,-1.3663600363353678,-1.890623311636919,-1.5685371842459832
1030,-0.6187925910051646,1.0308002086290313,0.7337666948272052,3.1152083649651234,2.832009172291895,3.589072653586671
1040,-0.6445027875951427,1.005666149636713,0.7086472926151506,1.1817744438855267,1.013139783572273,2.141589686190181
1050,-0.6252772206116687,1.027380907768421,0.7271060014059707,2.283974018952745,1.8958897393579028,2.916656730770719
1060,-0.6143615732594292,1.0405801395081224,0.7337049376688135,0.7574833787860773,0.5381653824329533,0.6073700442664708
1070,-0.6359561823676462,1.0191762660354686,0.719187383884974,-0.6769924152837097,-0.9833724593945218,-1.4025541288979353
1080,-0.6125439255269155,1.0413819138193754,0.7429708645545348,2.858124643130232,2.7269106892284416,2.013260182305186
1090,-0.6195783239637788,1.0354414873885602,0.733553999665308,-2.761624477462591,-2.9375237169372213,-3.428289291476895
1100,-0.6420479764369456,1.0106838619202976,0.710118820906025,3.1582023758610624,2.927533698583902,2.706526616809552
1110,-0.6179958473307974,1.0302937615654069,0.7330400064300869,0.459935173480472,0.37256164589931723,0.21741921713856488
1120,-0.613732387093222,1.035522313902717,0.732300884691628,0.2720998437719113,0.3924344446709658,0.2835212955062063
1130,-0.6186669450273184,1.0332683380893959,0.7286429283491551,2.0223898910855107,1.7125558762370772,1.7826769499343131
1140,-0.6262968008118182,1.033710269011956,0.7254314614693504,1.158335207191027,1.3418346967732004,0.8615520824502736
1150,-0.6024811119050677,1.0563945583641465,0.7532408567428837,0.17762336611989707,0.49592702653952236,0.09565462063009436
1160,-0.6305561860515903,1.0271698912384866,0.7206825925622449,-1.0142232830862028,-0.6113105081114,-0.9207735376279862
1170,-0.6481770883532896,1.00723200406355,0.6992264298638463,1.1600594164884515,1.3793658954055759,1.5133531810492549
1180,-0.6276546738501356,1.0228071508824208,0.7230449818782135,-1.1662282064322314,-1.4581272561139367,-0.564916861125669
1190,-0.6507931319103272,0.9977680618584482,0.7016927440123842,1.4906723337210042,0.8758895006897165,1.765323411180733
1200,-0.6078042974016453,1.0438884290031207,0.7467456858697066,3.99496610221375,3.1211672504374657,4.312783732442786
1210,-0.6346534574018269,1.0176045953006538,0.7148536782948122,-3.1878983172341955,-3.6601720195199525,-2.8096180289128645
1220,-0.6090671584489109,1.0435967629748517,0.7402500441223586,-0.24874281125252723,-0.4511088214826186,-0.1931938623413551
1230,-0.5999615141509221,1.0545304082595004,0.7509162495534208,-1.341513339612324,-1.2857274991294514,-1.4325819044583799
1240,-0.6410150316323304,1.0152265992732115,0.7102590393906155,3.2301163000657485,3.1462221740868395,3.6274141219437457
1250,-0.6259966739989009,1.030160828057775,0.7241197730585417,0.39948039068534524,-0.4231099279705996,1.7031079596565613
1260,-0.627584792575062,1.0292850782782874,0.7208793172457381,1.4947642453589984,0.6372454027466926,2.824970339254622
1270,-0.6297920241233458,1.0194722564871093,0.7115277239085314,3.9533899107208916,3.819440251803809,4.942416905803578
1280,-0.607117689513012,1.047735753615853,0.741423767585572,0.8592298476003597,0.8201666977174171,1.2020789905223104
1290,-0.6304951611597478,1.021718521694441,0.7151662452643833,0.42528691258074824,0.42703259065036037,0.5546984259348683
1300,-0.605350549285467,1.0457540431877124,0.7389815288626803,1.0827683155099144,0.95166417964297,1.0274576742310007
1310,-0.6473521554977958,1.0087823338288637,0.7010898752560211,2.3020412664342924,2.1035098196510966,2.181133783243049
1320,-0.6159162719341399,1.040406798844028,0.7296997216351124,2.0096987690762047,2.247028450075447,2.4919280685371694
1330,-0.6162995181190988,1.028551090618511,0.7292168686160139,1.676927484554735,1.3604695407133922,1.8231462144583115
1340,-0.6145469235613766,1.0389541927157189,0.7344082496687022,2.1700755390166373,2.089253088278989,2.279009557226605
1350,-0.6062678664562275,1.0512719244433075,0.7454245566489068,-1.5218006565142508,-1.659427645004652,-1.3192268320797782
1360,-0.6114296664167446,1.0487839197431696,0.7389121255412574,-0.7927831782872423,-0.9741028755520734,-0.6038244466248929
1370,-0.6277165164937242,1.0347705456201302,0.7219665748427324,-1.0610342113284719,-1.2822783786385876,-1.1891492213974069
1380,-0.6267385132801897,1.0347067082461667,0.7256019931318384,0.1943108605111222,-0.06368410152109835,-0.20573785022148555
1390,-0.6164967537060256,1.036627803883302,0.7345504242627373,-0.5988913368125728,-0.6189209345946987,-0.2704304095958223
1400,-0.6194980874770886,1.0333605581578147,0.7286640294437484,-1.5582163670731841,-1.9444693912280575,-1.1418645210212552
1410,-0.6392151378367507,1.0169071778370442,0.7133308988271249,-1.541701734749196,-1.5487197028978104,-1.146143949361792
1420,-0.5938263758322087,1.0640564387720186,0.7593329178712553,-0.800420694208946,-0.8985830211172514,-0.984548481881721
1430,-0.6189631221438037,1.0374769437951061,0.7310642635418992,-1.0126043448150535,-0.7996242175804326,-1.4243729467994037
1440,-0.6403094181845767,1.016476799675486,0.7108669386807112,-0.5690209546370102,0.09913927456996285,-0.876380498706417
1450,-0.6282139091525387,1.033782907823362,0.7308218055139389,-0.17581111955162007,0.13697812160240125,-0.5702400349189958
1460,-0.6070338182935845,1.0498341925577288,0.7413730321332168,0.4305764453613309,0.10893514941673647,0.5219689786936719
