time_ms,ax,ay,az,gx,gy,gz
8,-0.818,0.5072,0.327,0.5182,0.5566,-0.2539
21,-0.816,0.5123,0.3238,1.2816,0.5871,1.8835
62,-0.8172,0.524,0.328,-0.5505,-0.8633,-2.3455
75,-0.8175,0.5165,0.3221,-1.207,-0.4816,-2.5745
89,-0.8158,0.5133,0.3177,-0.9322,-1.1533,-1.5211
102,-0.8187,0.5062,0.3214,-0.4131,-1.7946,0.9827
114,-0.8194,0.5155,0.3211,1.4495,-2.7411,3.2881
127,-0.8255,0.5216,0.327,1.3732,-3.474,4.4637
169,-0.8233,0.5165,0.3282,-1.4207,-4.7411,11.7766
181,-0.8382,0.4925,0.3099,5.8312,-7.703,18.0973
194,-1.046,0.3453,0.4393,7.9838,-9.1381,12.2194
207,-0.962,0.4347,0.3692,23.419,-36.6495,8.6011
221,-0.7687,0.3636,0.318,32.1823,-35.9472,3.5934
234,-0.6905,0.4374,0.3385,35.8464,-30.848,-1.9791
274,-0.7838,0.4847,0.3541,53.4342,-40.7869,-2.0554
288,-0.7433,0.4264,0.3873,63.3274,-31.3365,-4.1012
301,-0.6937,0.4964,0.3309,70.8235,-26.7869,-15.0478
313,-0.6578,0.6217,0.2603,65.6327,-6.7564,-23.7653
326,-0.7042,0.7079,0.3665,55.938,10.068,-25.6585
339,-0.7621,0.714,0.4408,39.6022,10.7856,-20.6203
380,-0.7953,0.6478,0.2667,-5.2833,-35.7793,-14.6814
393,-0.5939,0.5914,0.7786,21.2968,-49.1686,-21.5363
406,-0.6954,0.3631,0.4417,31.2052,-52.5885,-8.7272
420,-0.6044,0.5782,0.4449,-23.6192,-42.6343,-0.7577
433,-0.7599,0.8902,0.3338,-22.9933,-38.7564,17.2423
445,-0.8063,0.5577,0.3946,-18.1994,-21.1381,-7.6432
487,-0.6551,1.139,-0.4443,-77.6345,48.923,42.4942
500,-0.9481,0.4276,0.6761,-79.2833,50.0528,15.8072
512,-0.6495,0.1861,-0.1003,-29.0085,76.5413,8.2347
525,-0.7303,0.1258,-0.0295,31.9838,77.4879,3.5324
538,-0.7272,0.0677,0.4837,19.5258,82.8314,6.7843
552,-0.4767,0.1659,0.0826,35.9533,54.9383,-12.8646
592,-0.838,0.4703,0.3341,42.8846,34.4192,12.5095
606,-1.0587,-0.1994,0.7838,42.2739,22.8772,-32.5592
619,-1.1105,0.7892,0.888,60.7014,9.6711,-37.3989
632,-0.8048,0.3236,0.5409,46.8846,-20.9243,-52.2386
644,-1.0013,-0.1071,0.4029,39.022,-32.39,-54.4218
657,-0.9557,1.1173,0.1121,69.0526,-0.5579,-16.9714
699,-0.8121,0.649,0.2015,-3.6192,-1.9625,-18.147
711,-0.828,0.5631,0.2501,-8.352,-6.2373,-17.4753
724,-0.8194,0.5365,0.3375,-6.4436,-2.6953,-16.2386
737,-0.8133,0.5133,0.326,-5.8482,-1.8251,-12.6814
750,-0.8138,0.5152,0.335,-3.8329,-1.2907,-6.0554
764,-0.815,0.5179,0.3363,-2.062,0.0833,-2.3455
804,-0.8129,0.5216,0.336,1.7548,2.923,0.4637
817,-0.8146,0.5257,0.3407,2.5793,3.3963,-2.2539
831,-0.8126,0.5267,0.3409,2.5029,3.3047,-4.9867
844,-0.818,0.5214,0.338,1.7396,2.9841,-5.8417
856,-0.817,0.5192,0.3311,-1.3139,1.1673,-5.9333
869,-0.8148,0.5116,0.3309,-3.9093,-1.2297,-5.7348
911,-0.8212,0.5265,0.3504,-13.4513,-6.3136,-3.2921
923,-0.8072,0.5084,0.3392,-12.2604,-2.5732,1.0744
936,-0.8107,0.5091,0.3433,-13.7719,-0.8938,3.1812
949,-0.8082,0.5077,0.335,-15.8635,0.8314,4.5247
963,-0.8158,0.5023,0.3382,-13.8177,1.7474,8.0209
975,-0.8155,0.5111,0.3426,-10.7795,3.1825,9.2118
1016,-0.8126,0.5304,0.3365,-21.8787,1.2283,-5.2005
1030,-0.818,0.5091,0.3321,-25.0543,0.1444,-6.5134
1043,-0.8082,0.4979,0.3297,-25.2681,-2.0541,-2.834
1055,-0.818,0.5008,0.3267,-21.5734,-4.9549,2.3873
1068,-0.8138,0.5038,0.3358,-20.5505,-6.7106,3.6087
1081,-0.8116,0.5074,0.3389,-18.2299,-8.2831,4.2347
1122,-0.8087,0.4974,0.349,-29.2528,-1.1533,-7.2768
1136,-0.8104,0.4879,0.3463,-30.0162,1.3657,-7.8875
1148,-0.8067,0.4698,0.346,-24.6726,1.5031,-0.1165
1162,-0.8163,0.4747,0.3455,-12.7337,1.9154,13.0438
1175,-0.8146,0.506,0.3409,-11.7413,1.3657,18.6774
1187,-0.8138,0.5316,0.3404,-13.1154,0.007,19.1049
1228,-0.8226,0.5348,0.3348,-31.4818,-3.5045,1.6087
1241,-0.8175,0.5162,0.3277,-42.0314,-7.8862,-3.7043
1254,-0.8129,0.4842,0.3306,-39.3139,-13.8556,-1.5058
1268,-0.8124,0.4894,0.3304,-24.1383,-17.7793,8.2957
1281,-0.818,0.517,0.3477,-19.6803,-17.764,8.3568
1294,-0.8067,0.525,0.3502,-21.1917,-16.9549,-0.6661
1335,-0.807,0.4906,0.3541,-26.3368,-14.3289,-18.6508
1348,-0.8087,0.4806,0.3621,-22.9322,-15.8709,-14.1012
1361,-0.8045,0.473,0.3702,-18.123,-16.8785,-6.7424
1373,-0.805,0.4645,0.3768,-7.2833,-15.306,4.7995
1386,-0.8072,0.4669,0.3822,3.6938,-11.2602,12.2957
1399,-0.8072,0.5045,0.3836,10.6861,-6.8938,12.7537
1440,-0.8065,0.505,0.3721,3.8159,-1.6266,-12.0707
1453,-0.8119,0.496,0.37,0.7625,-4.222,-16.0249
1467,-0.8063,0.4889,0.3797,-2.8558,-7.3213,-16.1318
1480,-0.8087,0.4747,0.3812,-1.9246,-9.2907,-11.8875
1493,-0.8043,0.4759,0.3846,-1.4971,-10.4816,-7.3073
1505,-0.8024,0.4723,0.3931,0.3961,-8.9701,-2.8188
1547,-0.8045,0.4811,0.3922,-0.0162,-2.6953,-5.4142
1559,-0.8016,0.4835,0.3934,0.3045,-2.0083,-5.6432
1572,-0.8033,0.4789,0.3912,-2.2299,-1.8709,-5.7348
1585,-0.7997,0.4711,0.3924,-3.7566,-2.2068,-4.147
1598,-0.798,0.4606,0.3909,-1.5581,-2.1457,0.7232
1611,-0.7997,0.4664,0.3939,1.5258,-2.0236,5.1354
1652,-0.7984,0.4899,0.3914,3.7396,2.4344,3.624
1665,-0.8026,0.495,0.389,1.9533,3.5795,-2.1165
1679,-0.8021,0.4908,0.3905,-0.2299,3.839,-6.3913
1692,-0.8026,0.4828,0.3888,-0.8406,3.2131,-7.9485
1704,-0.8004,0.4772,0.3895,-2.9933,2.3734,-6.6814
1717,-0.8038,0.4693,0.3883,-5.0696,0.5871,-2.8798
1758,-0.8004,0.4901,0.3883,2.3045,-0.1762,6.6774
1771,-0.8016,0.4918,0.3917,-0.0467,-0.2678,1.0744
1784,-0.8031,0.493,0.3892,-2.062,0.0528,-4.544
1797,-0.7972,0.4755,0.3868,-1.1459,0.1444,-6.2081
1811,-0.8014,0.4686,0.39,-0.5658,0.0528,-5.2615
1823,-0.7987,0.4723,0.3858,-0.352,0.1291,-2.1623
1864,-0.8036,0.4835,0.3883,-0.0925,0.6787,3.8682
1878,-0.8011,0.4772,0.3936,0.6861,0.7703,4.082
1890,-0.8009,0.4867,0.389,1.0678,0.7093,3.4408
1903,-0.7992,0.4945,0.3919,-1.5276,-0.0236,-0.3913
1916,-0.8053,0.4801,0.389,-1.1765,-0.4663,-2.9104
1930,-0.8026,0.4757,0.3914,-0.7032,-0.9091,-3.1394
1970,-0.8067,0.4718,0.3883,2.2129,-1.9625,2.998
1983,-0.8006,0.4772,0.3922,2.4113,-2.4205,3.7156
1997,-0.7965,0.4838,0.3949,1.19,-2.0694,2.4331
2010,-0.7989,0.4801,0.4005,0.9609,-0.7717,1.3186
2022,-0.8014,0.4847,0.3997,-0.8406,0.8009,-1.6737
2035,-0.8009,0.4774,0.3931,-0.5352,1.6864,-2.4218
2077,-0.8014,0.4794,0.3912,0.2434,0.465,4.4789
2089,-0.8014,0.4813,0.3927,0.1671,0.0528,4.5553
2102,-0.8021,0.4823,0.3922,0.8999,0.0833,3.6698
2115,-0.8014,0.495,0.387,-0.749,-0.6953,-0.2234
2128,-0.806,0.4845,0.3873,-1.3139,-1.1991,-2.7577
2141,-0.7999,0.4789,0.3873,-0.3062,-1.4129,-2.834
2181,-0.8006,0.4786,0.3924,-0.0772,-0.2068,0.0056
2195,-0.7975,0.4781,0.3936,-1.2375,0.8467,0.8606
2207,-0.8048,0.4803,0.3883,-1.1001,1.6558,2.1889
2220,-0.8021,0.4811,0.3839,-1.2375,2.007,1.5782
2233,-0.8026,0.4874,0.3897,-1.0238,1.7016,0.1583
2246,-0.8031,0.4828,0.3885,-0.3368,0.9993,-1.4753
2287,-0.7989,0.4806,0.3844,-1.3597,-1.764,-1.7653
2300,-0.7997,0.4735,0.3919,-1.0849,-2.5732,-1.689
2313,-0.8016,0.473,0.3931,-0.062,-2.3442,-1.1089
2326,-0.8021,0.4818,0.3978,0.8541,-1.5808,-0.5592
2340,-0.8024,0.4806,0.3963,0.0907,-0.2373,-2.3913
2352,-0.8024,0.4737,0.3983,0.0449,0.6787,-1.918
2393,-0.7994,0.4759,0.3885,-2.5352,1.2589,0.4179
2407,-0.8024,0.4745,0.3834,-2.7642,-0.0083,0.2957
2419,-0.7999,0.475,0.3919,-0.3978,-0.1762,0.3873
2432,-0.7994,0.4794,0.3917,-0.123,0.6176,-0.2081
2444,-0.8036,0.4752,0.3941,0.4571,0.8314,-0.086
2456,-0.8021,0.4794,0.389,0.6861,0.6329,-0.2234
2497,-0.8021,0.4711,0.3912,0.9151,-0.4969,1.4713
2510,-0.8014,0.4757,0.3927,1.2968,-1.5503,2.1431
2523,-0.7989,0.4752,0.3919,2.9915,-0.3747,2.8301
2536,-0.8006,0.4786,0.3944,3.7854,0.007,3.7766
2549,-0.8006,0.4886,0.3888,0.564,0.4802,2.0362
2562,-0.8043,0.4813,0.3919,-1.9551,1.5184,0.0515
2603,-0.7999,0.4745,0.389,-0.8864,1.6864,5.166
2616,-0.7992,0.4676,0.3888,1.8159,2.297,9.1507
2630,-0.7994,0.4818,0.3919,3.2205,2.1291,12.6927
2642,-0.8038,0.4962,0.3905,3.3426,0.6634,10.998
2655,-0.8036,0.5065,0.3853,1.3732,-1.3213,5.9598
2668,-0.8053,0.4984,0.3927,0.3045,-2.6648,1.4255
2710,-0.8006,0.484,0.3992,-3.3139,-2.5885,-2.9714
2723,-0.8033,0.4798,0.3917,-1.0085,-0.619,-0.9562
2735,-0.8026,0.485,0.3866,-1.6955,0.2665,0.1583
2748,-0.8031,0.4881,0.388,-1.4665,0.236,1.6087
2761,-0.8031,0.4879,0.39,-0.7795,-0.1915,1.7614
2774,-0.8024,0.4901,0.389,-0.2757,0.0375,1.3797
2815,-0.8024,0.4811,0.3883,-1.3749,-0.1152,1.7308
2828,-0.8033,0.4818,0.3909,-0.3673,-0.4205,4.4789
2841,-0.8033,0.4918,0.3946,1.4342,-0.7259,6.2652
2854,-0.7989,0.5004,0.3909,1.3426,-0.3595,4.0667
2867,-0.7989,0.4964,0.3919,0.1823,0.0222,0.998
2879,-0.8019,0.4986,0.39,-0.581,-0.619,-0.4066
2921,-0.8021,0.4869,0.3931,-1.0849,-1.7335,2.5095
2934,-0.7992,0.4894,0.3968,0.3045,-0.5885,3.7461
2946,-0.7967,0.4918,0.3983,-0.0009,1.1978,3.2728
2959,-0.7999,0.4967,0.3929,-0.7184,2.8772,2.3415
2972,-0.8021,0.4957,0.3973,-1.665,3.3963,1.166
2985,-0.8036,0.4955,0.3897,-2.5047,2.5718,0.769
3027,-0.8002,0.4884,0.3949,-1.4055,-1.2144,1.1049
3039,-0.8014,0.4991,0.3973,-0.7337,-1.1075,1.7308
3052,-0.8026,0.4947,0.3878,-0.4589,-1.0159,1.7003
3065,-0.8024,0.4984,0.3912,-0.0314,-0.8938,1.395
3079,-0.8009,0.4979,0.3895,0.0907,-1.1533,0.769
3092,-0.8058,0.4996,0.3888,-1.0391,-2.1457,0.7232
3132,-0.8031,0.4803,0.3951,2.1213,-4.1457,8.769
3146,-0.8014,0.4867,0.3978,5.5716,-3.2602,14.8606
3159,-0.8036,0.5072,0.3973,4.8235,-2.5274,18.998
3171,-0.8043,0.5116,0.3953,6.1671,-4.9091,21.4866
3184,-0.8004,0.5209,0.3863,2.3197,-6.3442,16.5553
3197,-0.7977,0.555,0.3971,-8.4284,-8.0694,1.2728
3239,-0.7997,0.5008,0.4112,-3.8635,-2.4358,-14.544
3251,-0.7994,0.4921,0.4088,-1.1001,-3.2297,-9.6585
3264,-0.7953,0.5013,0.4041,-1.2375,-3.1075,-4.7882
3277,-0.7945,0.4964,0.4127,-3.0696,-1.2449,-2.5745
3290,-0.8033,0.5008,0.4115,-5.8635,0.5718,-1.4142
3304,-0.7919,0.5047,0.4034,-6.8253,3.2283,-1.5211
3344,-0.8077,0.4947,0.4024,-0.3673,6.6024,-1.8722
3357,-0.8033,0.4994,0.3988,0.6861,5.0299,-1.7959
3371,-0.8036,0.5038,0.3917,-0.1383,2.694,-2.315
3384,-0.806,0.4979,0.3892,-2.4742,0.0375,-3.0173
3396,-0.8016,0.4957,0.3971,-1.7871,-0.7411,-1.689
3409,-0.8036,0.4982,0.399,-2.9016,0.2512,-1.9333
3451,-0.8036,0.4921,0.4002,1.6327,1.61,2.0209
3463,-0.8006,0.5006,0.3961,1.7548,1.7474,2.5705
3476,-0.798,0.5087,0.3971,0.4419,1.3047,-1.3073
3489,-0.7987,0.5045,0.3971,-2.062,0.923,-5.3226
3502,-0.8002,0.4969,0.3975,-2.6268,1.3352,-7.1852
3515,-0.8028,0.4947,0.3951,-3.3291,1.8696,-7.6737
3556,-0.8006,0.4823,0.3895,-0.2604,1.0299,-2.3302
3569,-0.8033,0.4872,0.3922,0.5335,0.8619,0.5247
3583,-0.8004,0.4896,0.3956,-0.4131,0.3276,2.2499
3595,-0.8009,0.4889,0.3929,-1.1154,-0.0694,2.5247
3608,-0.8067,0.4962,0.3941,-1.2681,0.1138,0.7995
3621,-0.8019,0.4928,0.3934,-1.6803,0.068,-2.3608
3662,-0.8038,0.4808,0.3917,0.4571,0.068,-3.8722
3675,-0.8026,0.4808,0.3934,-0.1536,0.4039,-2.1318
3689,-0.8016,0.4842,0.389,-0.0467,-0.3595,-0.2081
3702,-0.8041,0.4901,0.3963,-1.4665,-0.8785,0.4484
3714,-0.8031,0.483,0.3951,-2.978,-0.9549,-0.9256
3727,-0.8028,0.4791,0.3953,-0.6421,-0.5274,-0.086
3769,-0.7994,0.4891,0.3946,1.19,2.1902,-2.2386
3781,-0.8031,0.4874,0.3902,-0.062,2.1138,-2.7882
3794,-0.8041,0.4845,0.3853,-1.436,1.9764,-2.1928
3807,-0.8006,0.4762,0.3829,-1.1001,1.1673,-0.4829
3820,-0.8026,0.4781,0.3919,-0.9933,0.1291,1.2728
3833,-0.8016,0.4798,0.3902,0.0449,0.068,1.685
3874,-0.8026,0.4825,0.3914,-0.062,0.4955,-1.5363
3888,-0.7997,0.4869,0.3905,-0.9322,-0.1304,-1.7348
3901,-0.8009,0.475,0.389,-0.4436,-0.0694,-1.3684
3913,-0.8038,0.4803,0.3897,0.8235,-0.1457,0.7385
3925,-0.8053,0.4823,0.3963,1.5869,0.694,0.5247
3938,-0.798,0.4874,0.3963,0.3197,0.526,-0.3455
3979,-0.7982,0.4823,0.3888,-1.4971,-0.7259,-1.9791
3992,-0.7987,0.4786,0.3922,-1.8329,-0.619,-2.0707
4005,-0.8031,0.4735,0.3841,-1.5276,0.1902,-0.9256
4018,-0.7987,0.475,0.3919,1.7854,0.3123,1.6545
4031,-0.8021,0.4859,0.3919,3.1289,0.9077,2.3415
4044,-0.8021,0.4874,0.3953,2.0754,1.4115,0.3415
4086,-0.7989,0.4745,0.3946,-1.2681,-0.2068,-2.8188
4098,-0.7999,0.4767,0.3922,-0.2757,0.3276,-1.5363
4111,-0.8019,0.4796,0.388,-0.6574,0.6024,-1.0478
4124,-0.8024,0.4794,0.3934,0.564,0.6329,-0.7424
4136,-0.8033,0.4774,0.3905,0.3808,0.5718,-0.773
4149,-0.8036,0.4823,0.3888,-0.4742,0.3734,-1.8875
4189,-0.8021,0.4733,0.3961,-1.4513,0.8619,-0.4218
4202,-0.8016,0.4762,0.3873,-0.3215,0.3886,0.2194
4214,-0.8038,0.4759,0.3856,0.5487,0.8619,1.1965
4227,-0.8009,0.4779,0.39,0.7472,0.8619,1.4255
