time_ms,ax,ay,az,gx,gy,gz
12,-0.6783,0.8643,0.7177,0.9408,0.2493,0.391
25,-0.6805,0.8655,0.7201,-0.2195,-0.0408,0.3147
38,-0.6817,0.8641,0.7201,-1.1202,0.1272,-0.4182
51,-0.6795,0.8626,0.7196,-1.3035,0.0508,-0.5861
92,-0.6817,0.8606,0.7245,0.7118,0.2035,0.1467
105,-0.6769,0.8567,0.7238,0.7424,-0.1018,0.5895
117,-0.6752,0.856,0.7223,-1.2729,0.1424,0.391
130,-0.6808,0.8685,0.7216,-0.937,0.1882,0.9406
142,-0.6795,0.8621,0.7194,0.4675,0.2493,1.3376
154,-0.6766,0.8645,0.7257,-0.7996,0.3714,0.6353
196,-0.6769,0.866,0.7216,-2.3416,0.5699,-0.4029
209,-0.6803,0.8611,0.7238,-2.5706,0.4631,-0.2044
221,-0.6793,0.8619,0.717,0.7118,0.6005,0.3605
234,-0.6795,0.8641,0.7167,-0.4485,0.7226,0.0856
247,-0.6805,0.8636,0.714,-0.7538,0.0661,-0.6319
259,-0.6769,0.8638,0.715,-2.9981,-0.4988,-1.0136
299,-0.6935,0.8555,0.7275,2.437,-0.8652,0.9864
312,-0.6949,0.8609,0.7265,9.6736,-2.1629,4.0093
325,-0.7206,0.8616,0.737,9.1698,-3.995,7.3681
338,-0.683,0.8707,0.7255,13.5362,-5.0789,9.1849
351,-0.6793,0.8575,0.7201,-0.708,-6.5751,6.8337
364,-0.7071,0.8699,0.8297,-0.0057,-7.1858,7.536
406,-0.6852,0.8313,0.7514,-0.6775,-7.6438,15.2002
418,-0.6835,0.8399,0.7482,0.6049,-8.8652,14.1009
431,-0.6781,0.847,0.7506,3.7347,-9.9186,11.5513
445,-0.6539,0.8877,0.7292,2.2843,-10.6056,8.0704
458,-0.6371,0.8802,0.7428,0.895,-9.9797,4.3452
471,-0.6395,0.8511,0.7878,-2.3722,-10.8499,-3.4716
512,-0.6947,0.8477,0.737,-6.0363,-36.7125,-25.6853
525,-0.6639,0.8028,0.8468,-23.6393,-41.4759,-25.8075
538,-0.6102,0.8758,0.7931,-22.6775,-42.3003,-26.6166
551,-0.5802,0.8897,0.7365,-34.3264,-37.4911,-27.6548
565,-0.5653,0.8238,0.7668,-31.1813,-31.6896,-28.1892
577,-0.6114,0.8406,0.8066,-23.2424,-28.3308,-26.6472
618,-0.6315,0.7625,0.8842,-18.9218,-22.1629,-29.2426
632,-0.6192,0.7837,0.8266,-20.7996,-19.3843,-33.6243
644,-0.5836,0.855,0.787,-17.8531,-14.3766,-34.2655
657,-0.5831,0.7417,0.8437,-27.4867,-9.2163,-35.7464
670,-0.5765,0.7093,0.8114,-33.1813,-7.0637,-44.067
683,-0.5599,0.6578,0.7721,-18.2195,-2.3003,-48.1128
724,-0.598,0.8252,0.7524,4.7271,32.4478,-35.151
737,-0.7267,0.7977,0.8485,6.5133,33.1959,-26.1892
750,-0.8207,0.8423,0.7519,5.2767,21.2111,-18.464
763,-0.7552,0.7925,0.6994,14.3607,15.9745,-16.1281
776,-0.7945,0.802,0.9294,-2.25,9.2264,-14.067
789,-0.6632,0.9292,0.955,-2.0973,2.005,-8.0212
830,-0.6822,0.7994,0.7284,-26.1126,-1.7202,1.765
842,-0.7372,0.6587,0.7204,-37.1813,3.3485,3.0017
856,-0.6339,0.7,0.7565,-21.1966,-6.7736,7.0169
869,-0.7696,0.7581,1.0002,-20.1279,-8.3766,9.994
882,-0.6446,0.7513,0.6659,-15.3493,-5.1553,15.3986
895,-0.6524,0.7466,0.9936,-42.5401,-1.5217,16.1772
936,-0.7748,0.3675,0.6357,-69.5172,-14.6667,0.6353
949,-0.5565,0.429,0.9308,-35.6851,-8.9263,23.0322
962,-0.6756,0.5433,0.5688,-25.7309,0.173,32.3452
975,-0.6842,1.0279,0.6957,1.8263,-0.1171,31.7803
988,-0.7491,0.6766,0.6383,28.5591,8.3256,26.4368
1001,-0.7608,0.9217,0.8241,7.3225,5.7913,31.0169
1042,-0.7879,0.2415,0.8207,-58.6012,-3.8423,1.7956
1056,-0.7567,1.0096,0.5905,-17.0439,7.1348,26.5742
1068,-0.6127,0.2898,0.9333,-45.5019,3.9134,10.62
1081,-0.9095,0.7112,0.5971,-53.105,16.4783,33.9482
1094,-0.745,0.6304,0.9132,-18.0821,9.2111,26.2231
1107,-0.5685,0.7547,0.5712,44.2843,17.4554,39.4139
1148,-0.6197,0.4935,1.5832,-42.4332,12.2798,9.765
1161,-0.5585,0.7046,1.5458,-20.0057,9.8371,13.3986
1174,-0.6368,0.6653,2.1518,-34.8912,11.8676,20.7574
1187,-0.6773,0.7557,0.2773,1.2614,30.173,24.4215
1200,-0.576,0.4195,1.7626,-24.2653,11.7913,14.5131
1213,-0.6488,0.6998,0.7455,30.6049,27.9898,23.5666
1254,-0.912,0.7352,-0.357,33.2462,26.9058,6.4673
1267,-0.8207,0.8235,0.6591,24.2538,9.4096,7.6124
1280,-0.7992,0.6216,0.3034,22.0095,21.8066,1.3986
1294,-0.5958,0.6231,1.1711,52.5286,17.486,8.7269
1306,-0.7193,0.7754,0.5575,11.6584,21.6386,-3.0136
1319,-0.6725,0.8255,0.8852,28.9866,16.2035,0.6353
1361,-0.6288,1.1744,0.9738,49.9485,4.6005,13.4902
1373,-0.6554,0.8765,0.7863,48.3912,8.9821,-1.2884
1386,-0.7528,1.0684,0.8446,8.0095,1.3027,-4.754
1398,-0.6551,0.8501,0.7448,3.9485,1.715,-2.4945
1412,-0.7694,0.8694,0.8337,-16.418,1.776,-13.4258
1425,-0.66,0.8763,0.7172,13.2004,-1.9492,-16.5556
1466,-0.5914,0.7281,0.581,30.6355,-16.3766,-25.9449
1479,-0.7779,1.2071,0.7121,59.2614,-2.4988,11.8566
1492,-0.6476,0.8404,0.7077,21.1088,2.7226,16.7879
1505,-0.7633,0.6595,0.7746,22.1469,-13.9034,-13.0747
1519,-0.6058,0.5635,0.9782,-21.7462,-12.5751,-41.1968
1531,-0.8099,1.251,0.3874,98.3912,-11.0942,-0.7235
1572,-0.5807,0.649,0.7387,17.9332,-12.3308,-23.8686
1586,-0.7215,0.961,0.5407,-17.5019,-4.7125,-4.006
1598,-0.6839,0.8421,0.7555,3.1851,2.2188,7.0627
1611,-0.6534,0.8631,0.6286,9.8569,-5.6286,-9.1357
1624,-0.712,0.836,0.7721,3.7042,-0.1782,-0.0212
1637,-0.6205,0.7056,0.4704,-10.5248,-23.766,-32.9831
1678,-0.6947,0.8487,0.7065,-5.9752,1.1806,-2.6777
1691,-0.6891,0.8523,0.7191,-8.708,2.4783,-6.6014
1704,-0.6874,0.8443,0.7074,-8.9828,3.1043,-8.922
1718,-0.6842,0.8257,0.7072,-8.4027,1.5012,-6.9373
1730,-0.6847,0.8306,0.7072,-6.8149,0.4936,-3.5327
1743,-0.6898,0.8211,0.7177,-9.2118,0.1882,0.5284
1784,-0.6918,0.8238,0.715,-20.6775,0.5241,3.307
1796,-0.6859,0.8101,0.7143,-6.7233,0.8142,6.8185
1810,-0.6954,0.8289,0.7123,-0.3416,1.0737,9.8566
1823,-0.6927,0.8311,0.7087,0.1011,-0.0866,11.6734
1836,-0.6898,0.8418,0.7038,-1.6241,-2.1171,11.1544
1848,-0.6825,0.8121,0.714,-1.3493,-3.2011,12.3452
1890,-0.6832,0.8711,0.7194,0.0401,-2.2545,7.4444
1903,-0.691,0.8614,0.7191,-3.5783,-1.7049,2.8185
1916,-0.6876,0.8538,0.717,-3.6241,-1.2316,-0.2044
1929,-0.6825,0.8438,0.7145,-1.2424,-1.1858,-1.5021
1942,-0.682,0.8445,0.7155,0.6965,-1.9644,-1.1052
1955,-0.6778,0.8484,0.7167,2.0859,-2.3614,-0.1128
1996,-0.6854,0.8548,0.7199,-4.6164,-0.8499,2.4215
2009,-0.6813,0.8501,0.7213,-5.6393,-0.3308,2.6047
2021,-0.6803,0.8492,0.7179,-7.105,-0.0713,2.7727
2035,-0.6832,0.8455,0.7111,-5.1813,-0.2545,3.1391
2048,-0.6781,0.8406,0.7152,-3.5783,-1.3079,3.3528
2061,-0.6822,0.8533,0.717,-0.0668,-1.9339,2.9253
2102,-0.6869,0.8494,0.7196,-0.9981,-0.514,-3.0899
2115,-0.6793,0.8326,0.7304,-0.5859,0.005,-2.3571
2128,-0.6688,0.8414,0.7165,2.8034,0.4478,-0.9983
2140,-0.6857,0.8377,0.7253,8.1011,0.4173,1.3528
2154,-0.6864,0.8392,0.7243,5.7194,-0.2087,2.8032
2167,-0.6849,0.858,0.7191,4.437,-0.3766,4.0093
2208,-0.6795,0.8509,0.7231,2.3607,-0.3919,4.3757
2221,-0.683,0.8567,0.725,6.0859,-0.1476,4.8185
2234,-0.6825,0.8519,0.7257,4.208,-0.2698,2.9253
2246,-0.6764,0.8641,0.7248,1.9485,0.0966,0.5895
2260,-0.6776,0.876,0.7189,-2.8454,-0.4072,-3.0899
2273,-0.6813,0.8511,0.7189,-3.7615,-0.3308,-4.1586
2314,-0.68,0.8399,0.7206,-0.0973,0.2035,-2.5403
2327,-0.6813,0.8504,0.7213,-0.7233,-0.0255,-1.0594
2340,-0.6786,0.8487,0.7201,0.0401,-0.6515,0.5895
2353,-0.6749,0.8499,0.7157,-1.0439,-0.2545,1.0933
2365,-0.6871,0.8504,0.7243,2.2233,-0.2545,2.0398
2379,-0.6837,0.847,0.7216,3.7194,0.6921,2.9711
2419,-0.6891,0.8487,0.7204,0.1164,0.3867,0.5437
2433,-0.6788,0.8575,0.7209,0.9714,0.2188,1.4292
2446,-0.68,0.857,0.7145,3.1393,-0.2087,1.933
2459,-0.6681,0.8448,0.7167,-1.2882,-0.3461,0.5589
2472,-0.6896,0.8599,0.7248,-2.0973,0.0966,0.3605
2484,-0.6849,0.8609,0.7221,-2.8607,-0.2392,0.0551
2526,-0.6791,0.8614,0.7201,0.1164,-0.1018,0.4979
2539,-0.6874,0.8543,0.7245,0.3759,-0.4377,0.0093
2550,-0.6795,0.8584,0.7201,-0.479,-0.6973,-1.1815
2564,-0.6747,0.8533,0.713,-1.9447,-0.0255,-1.7769
2577,-0.6803,0.8492,0.7245,-0.8149,0.2798,-1.9602
2590,-0.6837,0.8511,0.7248,-2.9828,0.2646,-1.6701
2630,-0.6766,0.8489,0.7279,3.1393,-0.1629,3.1238
2644,-0.6771,0.8687,0.7257,-1.0286,-1.0179,1.6887
2657,-0.669,0.854,0.7216,-2.8454,-0.2087,-0.2655
2670,-0.6869,0.858,0.7235,-4.5554,0.5241,-2.0212
2683,-0.6803,0.8528,0.7199,-2.418,0.8142,-1.9296
2696,-0.6839,0.8577,0.7243,-2.4332,0.0814,-1.9144
2737,-0.6835,0.8614,0.7187,-0.1584,-0.1171,0.7574
2750,-0.6686,0.8516,0.7218,-0.4027,0.005,0.7727
2761,-0.683,0.8582,0.7277,-2.7844,-0.1629,0.1314
2775,-0.6793,0.856,0.7235,-3.4714,0.1119,-0.3571
2788,-0.681,0.8531,0.7199,-2.3722,-0.0255,-0.4945
2801,-0.6815,0.8477,0.7196,-2.1889,0.0814,-0.6014
2841,-0.6854,0.8528,0.7296,2.5286,-0.1476,2.9253
2855,-0.6669,0.8516,0.7213,3.6278,0.0203,3.5055
2868,-0.6805,0.855,0.724,-0.0515,0.1119,1.9482
2880,-0.6793,0.8584,0.7262,-1.563,0.1424,0.4826
2894,-0.6778,0.8526,0.7233,-1.166,0.2188,-0.7846
2906,-0.683,0.8543,0.7267,0.6355,0.2951,-0.8915
2948,-0.6771,0.8506,0.7279,0.0859,-0.0713,0.7116
2961,-0.6813,0.8562,0.725,-0.4943,-0.3156,1.0169
2974,-0.6771,0.8565,0.725,0.4675,0.0356,1.4597
2987,-0.6776,0.8492,0.7204,1.124,0.7379,1.5971
3000,-0.6808,0.8531,0.7231,0.6202,0.0661,1.2154
3013,-0.681,0.8545,0.7206,1.0019,-0.0713,1.4902
3053,-0.6781,0.8418,0.7233,-1.5172,0.1882,1.9635
3067,-0.6742,0.8504,0.7301,1.2767,0.5547,2.7727
3080,-0.6798,0.8487,0.7282,11.7347,1.486,4.4368
3092,-0.6778,0.8555,0.7294,11.2156,0.3714,3.9788
3106,-0.6737,0.8653,0.7177,10.3149,0.7989,2.9406
3119,-0.6791,0.8724,0.7233,1.7347,0.3409,-0.006
3159,-0.6837,0.8567,0.7233,3.3683,0.6768,0.2383
3173,-0.681,0.8594,0.7238,4.4065,0.4478,1.078
3186,-0.6781,0.8553,0.7191,3.9485,0.3104,1.7192
3199,-0.6835,0.8658,0.7194,3.3988,-0.1171,1.6582
3212,-0.6827,0.8687,0.7255,2.3759,-0.6667,1.2918
3225,-0.6732,0.8572,0.717,0.6813,-0.2698,0.5437
3265,-0.6761,0.8611,0.7233,0.9103,0.2188,0.1162
3279,-0.6813,0.8597,0.7238,3.9637,0.7073,0.8185
3292,-0.6754,0.8697,0.7282,-1.4409,0.0814,-0.2655
3305,-0.6832,0.8663,0.7201,-3.7462,-0.3156,-1.5632
3318,-0.6769,0.8587,0.7238,-0.9676,0.2951,-1.0441
3330,-0.6805,0.8648,0.726,-2.3569,0.0814,-1.5479
3372,-0.6798,0.8663,0.7213,1.2309,0.1424,1.536
3385,-0.6798,0.8599,0.7194,2.834,0.1272,1.7345
3397,-0.682,0.8672,0.724,0.5286,0.3104,0.6963
3411,-0.6749,0.8658,0.7196,-3.0592,-0.0102,-0.9067
3424,-0.6778,0.8655,0.726,-2.25,0.4783,-1.3342
3437,-0.6803,0.8584,0.727,0.3454,0.631,-1.1968
3477,-0.6847,0.8602,0.7226,2.1927,0.0966,1.2002
3491,-0.6783,0.8609,0.7189,1.2309,0.4783,1.1085
3504,-0.6756,0.8643,0.7177,2.7882,0.402,1.246
3517,-0.681,0.8592,0.7216,2.7271,0.2493,1.246
3529,-0.6764,0.8638,0.7177,-0.4332,0.0814,0.6658
3543,-0.6771,0.8716,0.7228,-3.1813,-0.2392,-1.0441
3584,-0.6727,0.8565,0.7206,-4.0821,0.1882,-0.235
3596,-0.6835,0.8609,0.7228,-1.7767,0.2035,0.3299
3609,-0.6776,0.8606,0.7223,-0.647,0.0814,0.8948
3623,-0.6761,0.8602,0.726,-0.5096,-0.1171,0.8643
3635,-0.6761,0.8658,0.7284,1.0172,0.6768,0.8948
3648,-0.6766,0.8609,0.724,-0.1889,0.9211,-0.1739
3689,-0.6773,0.8582,0.7157,1.1851,0.5852,0.4063
3702,-0.6788,0.8597,0.724,1.6278,0.402,1.0322
3714,-0.68,0.8616,0.7223,2.0248,0.6157,0.4826
3727,-0.6727,0.8638,0.7209,0.9408,0.1882,0.5895
3740,-0.6769,0.8606,0.7218,-2.9523,0.1424,-0.5403
3753,-0.6781,0.8606,0.7213,0.437,0.4936,-0.0976
3794,-0.6764,0.8599,0.7245,1.2309,0.4173,0.7269
3807,-0.6759,0.8643,0.7231,1.2767,0.005,0.7421
