time_ms,ax,ay,az,gx,gy,gz
13,-0.6678,0.8504,0.7257,-3.5477,-0.3461,-1.0136
26,-0.6825,0.8492,0.7348,-3.7462,0.4631,-1.4563
67,-0.6686,0.846,0.7309,0.5439,-0.3461,0.9253
80,-0.6837,0.8489,0.737,-0.6775,0.0508,0.5589
92,-0.6857,0.8431,0.7333,-1.3187,0.2493,0.1467
105,-0.6717,0.8475,0.7299,-0.876,0.0966,-0.1586
117,-0.6725,0.8426,0.7299,-1.4714,-0.3614,-0.7082
130,-0.681,0.8499,0.7323,-1.4561,0.234,-0.8762
171,-0.6791,0.8462,0.7301,-2.0515,0.173,-1.1052
184,-0.6773,0.8311,0.7309,-0.7996,-0.0102,0.6047
197,-0.6781,0.8392,0.7316,1.979,0.2188,2.3605
210,-0.6791,0.8548,0.7304,2.1775,0.5699,1.8872
223,-0.6742,0.855,0.7331,1.7042,0.3562,-0.1281
236,-0.6783,0.8536,0.7333,-3.105,0.2798,-2.067
278,-0.6739,0.846,0.7348,-2.7996,-0.056,-1.5174
290,-0.683,0.8428,0.7309,-3.334,-0.0102,-0.9373
303,-0.6737,0.8365,0.7306,-1.6699,0.7226,0.0704
316,-0.6747,0.8438,0.7326,-1.2882,0.7531,0.4673
329,-0.6832,0.8367,0.7299,0.4065,0.0966,1.3834
342,-0.6827,0.8404,0.735,3.8874,-0.3003,3.7345
383,-0.8175,0.7696,0.8842,35.4294,-20.5293,34.1467
396,-0.8419,0.7349,0.9743,38.3454,-48.2392,27.8872
409,-0.6805,0.8479,1.2072,31.5362,-67.3385,27.1696
422,-0.4332,0.7974,0.9882,22.437,-73.2316,20.4673
435,-0.4779,0.8089,0.9606,-3.1508,-90.3919,-2.754
448,-0.42,0.8223,0.7282,-3.1202,-91.2011,-21.2731
489,-0.607,0.8694,0.7736,-100.296,-38.8041,-53.8991
502,-0.6122,0.7281,0.8102,-84.0821,-32.8957,-57.8075
515,-0.5897,0.6858,0.7751,-58.3264,-22.6515,-59.8075
528,-0.5777,0.7222,0.7292,-32.0057,-11.2621,-58.9373
541,-0.5365,0.7422,0.6994,-39.3035,3.3638,-62.525
555,-0.5372,0.7232,0.7355,-22.647,17.1959,-58.2044
595,-0.8136,0.7708,0.9933,0.0706,3.9287,-29.5174
608,-0.7181,0.9466,0.7443,-3.0897,4.4173,-31.7922
621,-0.6752,0.8985,0.9098,-31.9141,2.0661,-34.006
634,-0.6813,0.9363,0.7555,-41.6546,-1.598,-28.6319
648,-0.6515,0.7376,0.8698,-69.7309,-9.3995,-32.0212
661,-0.5362,1.0894,1.2428,-40.0363,-20.1934,-13.4563
701,-0.4708,0.7549,0.4948,-3.9447,-17.3843,36.2841
714,-0.6048,0.616,0.8546,-25.3035,-14.056,38.9406
728,-0.6505,0.6995,1.0956,-57.8836,-13.4453,31.536
741,-0.9195,-0.1071,0.9086,-78.7844,-1.598,21.8108
753,-0.6727,1.0767,1.1508,-51.1355,0.0203,57.9482
766,-0.7259,1.3785,0.5397,-50.9065,4.1577,77.5513
808,-0.8492,-0.2238,0.9093,19.0324,78.6157,88.6505
821,-0.9005,0.2107,0.3803,-9.5172,82.8295,45.536
833,-0.6586,0.0467,1.1918,-26.5248,80.8295,23.3834
846,-0.546,-0.5844,0.9792,-28.3569,82.8142,6.0246
859,-0.5033,0.1746,1.1803,76.2233,66.8295,-5.2731
873,-0.901,-0.2397,2.3158,116.407,50.1882,-13.8227
913,-0.3436,0.6714,0.2306,153.674,7.1043,-50.8456
926,0.0375,1.2017,0.4323,64.4217,2.0356,-32.0823
939,-0.7342,1.2593,0.2104,103.2,3.4249,-6.8762
953,-0.5607,1.0108,0.6435,-4.1737,0.1882,-18.235
965,-0.6642,1.3853,0.9665,20.4065,-2.0408,9.8414
978,-0.6505,1.1807,0.7641,42.2843,3.4402,13.5055
1020,-0.68,0.8335,0.7133,-16.3416,-2.4988,-20.6624
1032,-0.6791,0.8069,0.716,-12.1737,-2.4224,-15.6701
1045,-0.6915,0.8013,0.7301,-7.3798,-1.9797,-7.5327
1058,-0.6871,0.8025,0.727,-1.1508,-1.0331,1.0322
1071,-0.6854,0.8147,0.7253,0.8187,0.6005,6.9101
1084,-0.6864,0.8257,0.7182,-1.334,0.631,7.8108
1125,-0.6866,0.8392,0.7204,0.437,-0.1782,3.2918
1138,-0.6805,0.8335,0.7231,0.7576,-0.3308,-0.1434
1150,-0.6749,0.8436,0.7196,-0.6012,0.234,-2.7846
1163,-0.6918,0.8269,0.7253,-1.6699,0.5089,-3.9144
1176,-0.6857,0.8201,0.7228,3.6431,0.8295,-1.4411
1189,-0.6788,0.8306,0.7152,3.4294,0.9974,0.0551
1230,-0.6878,0.8357,0.7213,1.8721,0.5547,5.7956
1243,-0.6825,0.8304,0.7179,2.5897,0.1119,5.0933
1256,-0.6859,0.8377,0.7194,2.3759,0.005,3.6124
1269,-0.6813,0.8487,0.7165,0.3149,0.2188,0.1773
1282,-0.6847,0.8389,0.7206,-0.8607,-0.0102,-3.8075
1294,-0.6822,0.8362,0.7182,-1.0744,-0.1476,-4.7846
1335,-0.6857,0.8201,0.7223,5.5362,0.631,5.0017
1347,-0.6825,0.8221,0.7201,6.8798,0.5394,8.6963
1361,-0.6883,0.8467,0.7177,6.9103,-0.0255,9.5208
1374,-0.6815,0.8465,0.7172,2.834,-0.7583,7.307
1387,-0.6835,0.8514,0.7162,-0.5859,-0.7583,3.8566
1400,-0.6795,0.8497,0.7184,-3.6851,-0.3461,0.7574
1441,-0.6822,0.8367,0.7292,0.1622,-0.7889,-0.8609
1454,-0.6813,0.8365,0.7235,3.582,-0.514,-0.3876
1467,-0.6791,0.8355,0.7206,3.979,0.5547,-0.2655
1479,-0.683,0.8392,0.7216,2.4523,0.4783,0.5437
1493,-0.6761,0.8455,0.7162,0.3301,0.6463,0.7574
1506,-0.681,0.8401,0.7179,-2.3569,0.4783,0.8337
1547,-0.6825,0.8501,0.7272,1.4141,-0.3156,2.2231
1560,-0.68,0.8462,0.7204,-0.4638,-0.3156,0.7269
1572,-0.6839,0.8497,0.7228,0.2996,-0.0408,-0.6166
1584,-0.6842,0.8462,0.7228,-0.3111,0.2798,-1.4411
1597,-0.6783,0.8411,0.7265,0.6813,0.8905,-0.8609
1610,-0.6786,0.8436,0.7235,0.3912,0.5852,-0.3418
1651,-0.6837,0.8465,0.7199,2.6507,-0.1476,2.6047
1664,-0.6808,0.8487,0.7211,4.3912,-0.1324,2.3757
1677,-0.6825,0.8504,0.7213,0.6355,0.173,-0.067
1690,-0.683,0.8558,0.725,-0.8302,0.2493,-1.9602
1703,-0.6842,0.8467,0.726,-1.3035,0.0814,-3.2884
1716,-0.6791,0.8387,0.7228,-0.4485,0.6157,-2.2655
1757,-0.6783,0.8521,0.7189,2.0859,1.944,3.1696
1770,-0.6832,0.844,0.7199,-1.3493,1.486,2.9406
1783,-0.6844,0.8433,0.7201,-2.708,1.1348,2.9406
1796,-0.6849,0.8523,0.7165,-1.4256,0.4478,2.1009
1809,-0.6832,0.8538,0.7201,-0.021,-0.4682,0.5437
1822,-0.6857,0.858,0.7253,-1.7462,-0.4835,-1.4563
1863,-0.6827,0.8406,0.7191,-4.5248,-0.5904,-2.6014
1876,-0.68,0.8367,0.725,-2.7691,-0.5446,-0.3418
1889,-0.6798,0.8399,0.7199,0.5133,0.0508,2.162
1902,-0.6813,0.8382,0.7201,2.5591,-0.1629,3.933
1915,-0.68,0.8489,0.7245,4.4828,0.0356,3.1849
1928,-0.6844,0.8523,0.7191,5.2462,-0.3614,1.7956
1969,-0.6861,0.8421,0.7228,-3.7004,-0.1934,-2.6166
1982,-0.6837,0.8428,0.7201,-1.7767,-0.056,-1.0441
1995,-0.6813,0.8389,0.7255,0.9714,0.0966,1.2612
2008,-0.6844,0.844,0.7243,3.5973,0.4783,2.5742
2021,-0.6817,0.8492,0.7191,6.7576,0.4936,3.3834
2033,-0.682,0.8614,0.7099,1.2462,0.173,1.5666
2076,-0.6791,0.8414,0.7201,-1.4256,-0.4988,-0.9373
2088,-0.6769,0.8387,0.7201,1.6126,0.0203,0.162
2101,-0.6822,0.8528,0.7216,2.895,0.2493,0.3605
2114,-0.6852,0.8492,0.7177,2.7424,0.3714,0.1162
2127,-0.68,0.8597,0.7174,2.208,0.1424,-0.525
2140,-0.6837,0.8475,0.7221,-2.021,0.005,-1.9296
2181,-0.6612,0.8348,0.717,-1.3798,0.631,0.8948
2193,-0.692,0.856,0.7262,1.7347,1.486,1.9177
2207,-0.6808,0.8445,0.7233,2.9561,1.486,1.307
2220,-0.6813,0.8497,0.7201,1.063,0.9516,-0.2197
2233,-0.6756,0.844,0.7196,2.895,0.6768,-0.235
2246,-0.6876,0.8543,0.7194,6.2233,1.2722,-0.6014
2287,-0.6793,0.8333,0.7231,-1.6546,0.5852,-0.7998
2300,-0.6788,0.8374,0.7253,2.4981,0.8295,2.0704
2313,-0.6815,0.8479,0.7172,5.6278,1.3943,3.1544
2325,-0.683,0.857,0.7179,2.2385,1.0737,1.8566
2339,-0.6842,0.8623,0.7165,0.2843,1.1043,-0.4792
2352,-0.6859,0.8501,0.7235,1.3378,0.5394,-1.5021
2393,-0.6798,0.8453,0.717,1.1698,0.0203,0.6811
2405,-0.6854,0.8489,0.7199,0.6507,0.1119,1.9482
2419,-0.6822,0.8494,0.7104,-1.1355,0.2188,1.3834
2432,-0.681,0.8516,0.7196,1.6126,0.9058,1.7498
2445,-0.6852,0.8567,0.7167,2.1927,0.402,1.246
2458,-0.6839,0.8462,0.7187,3.8416,0.3867,1.5818
2499,-0.6817,0.8453,0.7189,6.7576,0.0661,5.5055
2512,-0.6798,0.8602,0.7189,6.3607,0.5699,4.4826
2525,-0.6805,0.8626,0.715,5.7805,1.0737,3.2154
2538,-0.6756,0.868,0.7138,-1.5172,0.5699,0.3605
2551,-0.6803,0.8621,0.7196,-1.8531,0.7684,-1.5632
2564,-0.6839,0.8538,0.7235,-0.708,0.6615,-1.2426
2605,-0.6805,0.8555,0.7089,2.6202,0.4325,2.9711
2618,-0.6815,0.8645,0.7172,2.9866,0.2951,2.7879
2631,-0.6795,0.866,0.7121,-0.2806,-0.056,0.4521
2644,-0.6788,0.8677,0.7191,-3.0134,-0.2087,-2.6777
2657,-0.6839,0.8614,0.7191,-2.25,0.0966,-3.609
2670,-0.6871,0.8553,0.7209,-4.5248,-0.1782,-3.9907
2711,-0.6776,0.8484,0.7218,-1.334,-0.5598,0.5589
2724,-0.6864,0.8558,0.7177,1.292,-0.1934,1.7803
2737,-0.6832,0.8655,0.7211,-0.4943,-0.3156,0.4521
2751,-0.6793,0.8604,0.7162,-0.1431,-0.1018,-0.2197
2762,-0.6795,0.8599,0.713,-0.7538,-0.4224,-0.6777
2774,-0.683,0.8621,0.7155,-5.3951,-0.0713,-1.7922
2815,-0.6798,0.854,0.7231,-0.5706,0.1424,1.0017
2828,-0.6822,0.8589,0.7174,0.2385,-0.1324,0.4521
2841,-0.6827,0.8609,0.7162,0.7882,0.0661,0.5589
2853,-0.6803,0.856,0.7162,-1.8683,0.2798,-0.0976
2866,-0.6854,0.8516,0.7174,-2.021,0.4325,0.4063
2879,-0.6791,0.8553,0.713,-0.0668,0.3256,1.475
2920,-0.6842,0.8623,0.7235,3.0782,0.7531,0.2078
2933,-0.6808,0.866,0.7138,0.4675,-0.2087,-1.2273
2946,-0.682,0.8606,0.7145,-2.8607,-0.1476,-2.0976
2960,-0.6842,0.8536,0.7199,-2.2806,-0.6056,-1.2273
2972,-0.6781,0.8521,0.7143,-1.8683,-0.2087,0.1467
2985,-0.6776,0.8519,0.7267,1.0172,0.8905,1.246
3027,-0.6783,0.8623,0.7174,-1.9141,-0.1629,-0.693
3039,-0.6759,0.8606,0.716,-2.5554,-0.2545,-0.9067
3052,-0.6786,0.8511,0.7233,-4.0515,0.0508,-1.2273
3065,-0.682,0.8497,0.7235,-2.0515,0.4325,-0.2044
3078,-0.68,0.856,0.7182,0.5591,0.4631,0.9406
3091,-0.6786,0.8558,0.7187,2.6813,0.1577,1.9024
3132,-0.6839,0.858,0.7113,0.7729,0.3562,-0.9983
3145,-0.6786,0.8602,0.7172,-1.0439,-0.1476,-1.1205
3158,-0.68,0.8511,0.7201,-0.937,-0.1171,-0.1128
3169,-0.6837,0.8492,0.7194,0.2691,0.3409,1.8719
3183,-0.6832,0.8616,0.7238,2.3607,0.4936,3.2918
3196,-0.6781,0.8536,0.7157,4.1622,0.4783,2.9406
3237,-0.6805,0.8589,0.7218,-6.1431,0.005,-3.8075
3250,-0.6859,0.8526,0.7209,-4.3722,-0.0866,-2.754
3263,-0.6783,0.8487,0.7187,-0.9676,-0.514,-0.235
3276,-0.6788,0.8516,0.7233,1.3988,-0.1629,1.7192
3289,-0.6803,0.8501,0.716,5.6278,0.2646,3.7498
3302,-0.6854,0.8633,0.7211,4.3301,0.5241,2.9864
3343,-0.6827,0.8553,0.7204,-1.4867,0.4783,-1.9754
3356,-0.6878,0.8531,0.7165,-0.0821,0.3104,-0.9373
3369,-0.6771,0.8516,0.7191,1.3683,-0.1171,0.7727
3381,-0.682,0.8575,0.717,3.9485,0.173,2.9864
3394,-0.6747,0.8689,0.7172,1.1088,0.631,2.6353
3407,-0.6893,0.8645,0.7209,1.7805,0.86,2.0856
3448,-0.6786,0.8633,0.7201,-2.3264,-0.1782,-1.0289
3461,-0.683,0.858,0.7179,-1.8989,-0.1171,-0.4029
3474,-0.6808,0.8592,0.716,-1.1202,-0.2087,0.5284
3487,-0.6825,0.8531,0.7228,2.5744,0.3867,2.62
3500,-0.6861,0.8604,0.7187,3.521,0.234,3.1696
3513,-0.6835,0.865,0.7126,4.7424,0.4936,3.7345
3554,-0.6808,0.8648,0.7245,0.1927,0.6615,-1.38
3567,-0.6773,0.8589,0.7106,-0.0057,0.2493,-1.5327
3580,-0.6788,0.8636,0.7152,-4.4485,-0.3461,-1.8991
3593,-0.6866,0.8589,0.7233,-2.6622,-0.0255,-1.0441
3606,-0.6825,0.8582,0.7145,-1.563,-0.1934,-0.296
3619,-0.6822,0.8538,0.7145,0.8492,-0.056,0.7879
3660,-0.6864,0.8575,0.7152,0.8492,1.0279,0.2231
3673,-0.6803,0.865,0.7157,1.0324,0.4173,-0.4182
3686,-0.683,0.8653,0.7143,0.9866,0.173,0.1009
3698,-0.681,0.8567,0.7152,2.6965,0.3867,1.3986
3712,-0.6825,0.8631,0.7196,4.4523,0.6005,2.4063
3725,-0.6781,0.8687,0.7182,4.4675,0.6615,2.2841
3766,-0.682,0.8645,0.7172,2.2843,0.0508,0.8032
3779,-0.6734,0.8604,0.7133,2.7729,0.4631,0.6658
3792,-0.6744,0.877,0.7177,0.9866,0.173,0.9101
3805,-0.6859,0.8665,0.7167,0.2233,-0.1476,-0.296
3817,-0.6717,0.866,0.7145,-2.021,0.3562,-1.0441
3830,-0.6822,0.8648,0.7162,-1.0286,0.1424,-0.0823
3871,-0.68,0.8687,0.7182,2.2843,0.5547,1.1085
3884,-0.6788,0.8707,0.7172,-0.1584,0.1424,0.6353
3896,-0.6781,0.8653,0.7145,-1.9294,-0.0408,0.7116
3909,-0.6813,0.8667,0.7172,-0.1737,0.2646,0.6353
3921,-0.6771,0.8733,0.7196,-1.7767,-0.224,0.0246
3934,-0.6844,0.8704,0.7155,-3.334,0.3714,-1.6243
3975,-0.6844,0.8626,0.7162,2.5744,0.0966,0.8337
3988,-0.6781,0.8663,0.7184,3.3072,0.234,1.7192
4001,-0.6795,0.8633,0.7184,2.5744,0.2951,2.3299
4014,-0.6849,0.8711,0.7135,3.2767,0.7379,1.7803
4027,-0.6771,0.8714,0.7148,-1.6241,0.4631,0.162
4040,-0.682,0.8728,0.7155,-1.9905,0.7989,-0.8304
4080,-0.6808,0.858,0.7182,2.5286,0.0508,2.162
4094,-0.6795,0.8694,0.7167,2.4065,-0.056,2.5284
4107,-0.6744,0.879,0.7133,-0.7996,0.1577,1.2918
4120,-0.682,0.8692,0.7172,-1.2882,0.5241,0.3452
4133,-0.6795,0.8682,0.7148,0.1469,0.3409,0.5131
4146,-0.6771,0.8692,0.7167,0.7882,0.0508,0.5131
4187,-0.6786,0.8689,0.7162,1.124,0.1882,0.6658
4200,-0.6776,0.8672,0.7209,-0.3416,0.7226,0.1925
4213,-0.6737,0.8685,0.715,-0.2042,0.8753,0.3452
4225,-0.6813,0.8697,0.7189,1.4446,0.3867,1.0933
4238,-0.6786,0.8719,0.7106,1.3072,0.2951,1.0017
4251,-0.6754,0.8716,0.7118,0.1622,0.3104,0.6811
4291,-0.6795,0.8726,0.7172,0.4828,0.4783,0.7574
4305,-0.6813,0.8748,0.7167,1.7194,0.1272,1.2918
4318,-0.6795,0.8675,0.7099,2.2843,0.1119,0.6811
4331,-0.6791,0.8792,0.7162,2.2996,0.0814,0.5284
4344,-0.6791,0.8753,0.7174,1.5668,0.1272,-0.0976
4357,-0.6759,0.8736,0.7174,0.4523,0.5852,-0.2502
4398,-0.6771,0.8741,0.7135,1.4446,0.3562,1.0169
4411,-0.6749,0.8704,0.7113,-0.5096,-0.1324,0.4826
4423,-0.681,0.8763,0.7167,1.2004,0.2188,0.2383
4437,-0.6803,0.8716,0.7179,0.2996,0.3409,-0.7998
