time_ms,ax,ay,az,gx,gy,gz
12,-0.6422,0.8191,0.8202,-0.4027,0.2493,0.4673
52,-0.6422,0.8233,0.8163,1.9179,0.3409,0.162
66,-0.6415,0.8226,0.8151,-0.2195,0.3104,-0.6319
78,-0.6424,0.8128,0.8188,-2.3111,0.2188,-0.7082
90,-0.6356,0.8194,0.8166,-0.2958,0.6463,0.1467
102,-0.6354,0.8189,0.8139,-0.1737,0.631,0.1009
114,-0.6407,0.8218,0.8161,0.4217,0.1424,0.3299
155,-0.6383,0.8186,0.8131,-1.6546,0.3256,-0.7846
168,-0.64,0.8206,0.8178,-0.2042,0.2798,0.1009
180,-0.6444,0.816,0.8141,1.8569,-0.1934,1.0322
193,-0.6385,0.8179,0.8166,4.1011,0.1424,2.0398
206,-0.6351,0.8269,0.8214,5.8874,0.0814,2.6811
220,-0.6412,0.8243,0.8173,4.1164,-0.2545,2.2231
261,-0.6586,0.8099,0.87,8.4065,-2.3003,2.3757
274,-0.704,0.8328,1.0595,-4.5554,-13.995,-7.7159
287,-0.6837,0.834,0.9518,-22.4943,-26.8194,-18.6166
300,-0.6642,0.7337,1.0504,-18.3722,-38.8805,-11.0899
313,-0.6153,0.7666,0.9853,-31.2729,-51.0484,-15.0899
326,-0.4535,0.6824,0.9843,-48.5248,-59.369,-29.0136
367,-0.4552,0.846,0.7174,-67.6699,-15.2774,-26.0823
380,-0.4898,0.7649,0.7179,-62.9981,-2.8194,-22.9525
393,-0.5536,0.7186,0.8039,-58.1889,6.5852,-19.9602
406,-0.6576,0.5838,0.8515,-50.5248,5.8829,-25.5632
419,-0.8192,0.5818,0.9572,-24.7844,-0.514,-27.2121
432,-0.7928,0.7537,0.8627,-20.0668,-7.4606,-30.006
473,-0.5751,0.7857,1.0287,-73.8225,-6.4377,-31.7006
486,-0.6144,0.7974,0.6332,-99.8378,-7.2927,-29.8075
499,-0.6688,0.4659,0.9533,-103.349,-6.9415,-27.4258
511,-0.692,0.4563,0.9728,-82.418,-8.7278,-21.4258
524,-0.6195,0.5093,0.9748,-75.4103,-8.3766,-12.9831
538,-0.6788,0.4607,0.9494,-66.1584,-5.3843,-8.6319
579,-0.6983,0.4905,1.2167,-71.2882,-10.7431,20.8337
592,-0.7125,0.2405,0.6901,-32.8607,-2.9415,51.6276
605,-0.8382,1.4368,-0.1788,-16.5554,7.9592,102.254
618,-0.9864,1.6717,0.5114,68.437,12.4173,142.33
631,-0.5243,0.1453,0.9904,123.231,50.4936,158.742
644,-0.7691,-0.7663,1.3166,125.811,65.089,118.773
685,-0.5658,0.9463,0.6415,75.4141,46.6463,38.849
698,-0.5631,0.6336,0.6906,122.987,34.4631,28.6811
710,-0.5013,0.3365,1.0365,87.5668,18.5547,-6.0365
723,-0.6371,0.5655,0.8551,96.6202,9.5623,-3.8075
737,-0.5318,1.177,1.3969,118.376,-12.0713,-32.7082
750,-0.7855,0.5584,1.2245,94.4065,-22.0102,-43.5174
790,-0.6244,1.055,0.8061,-50.5554,-4.7125,-25.5021
804,-0.6656,0.8145,0.8197,-13.4867,-3.7812,-12.6777
817,-0.6437,0.8467,0.7843,-21.1508,-5.9339,-15.5327
830,-0.6715,0.8055,0.7694,-12.2042,-2.056,-13.2731
843,-0.6529,0.7977,0.7978,-4.1279,-1.2621,-9.7769
855,-0.641,0.7925,0.8085,1.8874,-1.4759,-5.5937
897,-0.6419,0.8208,0.8185,8.1469,-1.7049,5.7956
910,-0.6461,0.8296,0.8219,1.3836,-1.4759,3.704
922,-0.6373,0.8196,0.8234,0.1775,0.0661,1.933
935,-0.6485,0.8291,0.8261,-0.3111,0.5089,-0.5403
948,-0.6398,0.8272,0.8107,-3.4714,-0.1171,-3.5632
961,-0.6405,0.8267,0.8134,-3.792,-0.1629,-4.6166
1001,-0.6376,0.813,0.8205,-3.1966,-0.1018,-2.8609
1015,-0.6332,0.815,0.8149,-5.4409,0.5547,-2.6166
1028,-0.6434,0.8108,0.8195,-3.3187,0.2798,-2.1434
1041,-0.6329,0.8113,0.8168,-5.334,0.2798,-2.2197
1054,-0.6517,0.8086,0.818,-1.4561,-0.2545,-0.525
1066,-0.6395,0.7984,0.8222,1.6278,-0.0102,0.9864
1108,-0.6366,0.8184,0.8087,7.6736,0.4173,1.9177
1121,-0.6366,0.8248,0.818,-3.5019,0.0661,-1.2426
1133,-0.6417,0.8116,0.8222,-5.5783,-0.2392,-1.7464
1146,-0.6402,0.8023,0.8178,-3.7004,-0.3614,0.3452
1160,-0.6315,0.8116,0.8122,-2.3264,-0.1171,1.2765
1173,-0.6424,0.8101,0.819,-1.3187,0.1882,0.1467
1214,-0.6446,0.8306,0.8217,-4.1431,-0.056,-1.9754
1227,-0.6419,0.8089,0.8278,-3.0134,0.2493,-1.9907
1240,-0.6312,0.8089,0.8078,-3.105,0.2646,-1.1815
1253,-0.6322,0.8121,0.8234,-6.0973,1.1959,-2.9983
1265,-0.6461,0.8067,0.819,-6.5401,0.4478,-3.9449
1279,-0.6376,0.7962,0.8129,-2.9523,-0.2698,-2.2502
1319,-0.6419,0.8047,0.8192,6.4065,0.9516,4.2536
1332,-0.641,0.8145,0.8175,5.6278,0.4325,4.1773
1345,-0.6427,0.8211,0.8136,4.0248,0.3256,1.994
1359,-0.6332,0.8255,0.8117,-1.5935,0.1119,-1.7006
1372,-0.6415,0.8047,0.8214,-5.8073,0.4325,-2.0823
1384,-0.6363,0.8079,0.8124,-0.5096,0.4631,-0.9067
1426,-0.6459,0.8143,0.8175,4.6507,-0.3308,0.6047
1439,-0.6368,0.8133,0.8192,1.1546,-0.2087,0.1467
1452,-0.6388,0.8103,0.8239,-0.0515,0.2798,0.5437
1464,-0.6393,0.8155,0.8112,0.3607,0.2188,0.5589
1476,-0.6383,0.8145,0.82,0.1317,0.0508,0.4215
1489,-0.6398,0.8147,0.818,-0.0821,0.0356,-0.3418
1529,-0.6376,0.8221,0.8139,1.7347,0.2951,0.9101
1543,-0.649,0.8123,0.8195,0.4065,-0.0408,1.3223
1556,-0.6456,0.8186,0.8258,0.1927,-0.0102,1.0933
1569,-0.6422,0.8199,0.8124,0.2996,-0.1171,0.162
1580,-0.6302,0.8157,0.8105,-0.6928,-0.5293,-1.3647
1594,-0.6361,0.8145,0.8149,-1.4714,-0.2087,-0.6014
1635,-0.6395,0.8133,0.8122,0.0859,0.0661,0.2841
1647,-0.6368,0.8125,0.8166,-0.2958,-0.3766,0.8032
1659,-0.6393,0.8211,0.8124,-3.2118,0.3256,1.5208
1673,-0.6449,0.8172,0.8197,-1.8836,0.7837,1.5208
1686,-0.6356,0.816,0.8205,-1.4409,0.4783,1.0322
1699,-0.6361,0.8177,0.8105,-2.2042,-0.1934,-0.2044
1740,-0.6346,0.8064,0.82,4.2538,-0.514,-0.3571
1753,-0.6354,0.8162,0.819,4.2385,0.6921,0.3757
1766,-0.6454,0.8186,0.8232,4.9256,0.4936,0.2383
1778,-0.6451,0.8113,0.8163,4.2385,0.2493,0.7116
1791,-0.6361,0.816,0.8149,5.3988,0.2951,1.9177
1805,-0.6376,0.8284,0.8139,-0.8302,-0.1171,0.8643
1845,-0.6415,0.8143,0.8151,-1.5325,0.0661,-0.3418
1858,-0.6385,0.8082,0.8166,1.8874,0.2951,-0.5403
1872,-0.6373,0.8182,0.8178,-0.8607,0.4478,-1.7006
1885,-0.6463,0.8155,0.8234,-3.6393,0.0356,-2.4334
1898,-0.6351,0.8096,0.8134,-3.4256,-0.4682,-1.3495
1910,-0.6388,0.8108,0.8192,0.4828,-0.4988,-0.0518
1952,-0.6398,0.8172,0.8149,2.2385,0.7531,1.1849
1965,-0.639,0.815,0.8212,0.1317,0.6463,0.3757
1977,-0.6388,0.8223,0.8161,-0.0973,0.402,-0.1586
1990,-0.6402,0.8133,0.8141,-0.5401,-0.0408,-0.8151
2002,-0.6393,0.8106,0.8134,1.5515,-0.056,-0.1739
2015,-0.6429,0.8157,0.8175,3.5362,0.0814,0.9101
2056,-0.6415,0.8228,0.8222,-0.2347,0.0203,0.0093
2069,-0.6393,0.8143,0.8141,-0.876,-0.2392,0.0246
2080,-0.639,0.8133,0.8122,0.2691,0.0203,0.391
2092,-0.6385,0.8125,0.8173,1.063,0.1272,0.7574
2105,-0.638,0.8186,0.8124,1.7194,0.2493,0.1314
2119,-0.6439,0.816,0.8195,1.3988,0.3104,-0.4487
2159,-0.6356,0.8172,0.8171,-2.1279,-0.4835,-0.8304
2172,-0.6346,0.8082,0.821,-1.3951,0.402,-0.1739
2185,-0.6346,0.8133,0.818,1.9332,0.2798,1.0933
2199,-0.6395,0.8157,0.8178,3.5973,0.8447,1.5818
2212,-0.6415,0.8201,0.8158,2.1011,1.0585,0.4368
2224,-0.6439,0.8196,0.8188,0.9256,0.1424,-0.5708
2266,-0.638,0.8123,0.8183,2.3149,0.1272,1.1849
2279,-0.6363,0.8167,0.8205,3.9637,0.5241,2.1467
2291,-0.6424,0.8174,0.8207,5.0172,0.7531,2.5895
2304,-0.6446,0.8238,0.8144,4.3149,0.5394,2.162
2318,-0.641,0.8331,0.8136,-0.1584,-0.1476,0.1009
2331,-0.64,0.8184,0.8156,-2.0057,-0.4682,-0.6777
2371,-0.6419,0.8228,0.8251,-1.792,-0.0408,-0.8609
2385,-0.6439,0.8162,0.8161,-1.105,0.173,-0.1739
2398,-0.6378,0.8228,0.8166,0.4981,0.4325,0.1773
2411,-0.6437,0.8208,0.8173,0.9714,0.4325,-0.1892
2422,-0.6419,0.8191,0.8144,-0.0973,0.2188,-0.5098
2435,-0.6402,0.8182,0.8185,-1.5477,-0.285,-0.5403
2475,-0.6368,0.816,0.8224,1.0782,0.0966,0.9864
2488,-0.6429,0.8174,0.8136,2.2233,0.86,1.1849
2501,-0.6449,0.8291,0.8139,0.8187,0.7531,0.2841
2515,-0.6437,0.8228,0.8139,-2.9828,0.2951,-1.5632
2528,-0.6432,0.8213,0.8183,-3.1813,-0.4682,-1.5785
2541,-0.6354,0.8133,0.8146,-2.1431,-0.3461,-1.0289
2581,-0.6454,0.8208,0.8173,3.1546,0.7073,1.0169
2594,-0.64,0.823,0.8153,2.5897,0.2798,0.7116
2608,-0.6373,0.8177,0.8144,1.7042,0.0661,0.0704
2620,-0.6378,0.8206,0.8139,3.4599,-0.224,0.7116
2633,-0.6356,0.8169,0.8127,2.8187,-0.1629,0.5895
2646,-0.6383,0.8194,0.8175,0.2385,0.173,0.0856
2688,-0.6376,0.8216,0.809,-0.2958,0.0661,-0.0365
2700,-0.6373,0.8172,0.8173,1.4599,0.1119,0.5742
2713,-0.641,0.8226,0.8205,3.1088,0.402,0.9711
2727,-0.6341,0.824,0.8188,-2.1431,0.1119,-0.2197
2740,-0.6393,0.8182,0.8149,-2.4485,0.4631,-1.1205
2753,-0.6395,0.8162,0.8156,-1.8989,0.4478,-0.6777
2793,-0.6456,0.8235,0.8173,1.5515,0.2798,0.849
2807,-0.6417,0.8306,0.8107,-3.5172,0.1272,-1.2121
2820,-0.6378,0.8208,0.8107,-4.7233,-0.1171,-2.3266
2832,-0.6383,0.8111,0.8127,-2.8454,-0.224,-1.4411
2845,-0.6373,0.8189,0.8161,0.2233,0.4783,-0.3418
2858,-0.6454,0.8182,0.8173,0.5591,0.6157,-0.296
2900,-0.6361,0.8289,0.8134,-4.9828,-0.5293,-1.609
2912,-0.6395,0.8062,0.8173,-3.0592,-0.4835,-1.609
2925,-0.6358,0.8052,0.8166,-0.1737,0.0356,0.0246
2938,-0.6393,0.8138,0.8195,4.1164,0.5394,1.3681
2952,-0.6456,0.8199,0.8163,2.7271,0.7837,0.9253
2965,-0.6395,0.8211,0.8195,1.7042,0.1424,0.5589
3005,-0.6383,0.8118,0.8144,-1.8836,0.005,-0.5098
3018,-0.6368,0.816,0.8153,0.2233,0.2646,0.3147
3031,-0.638,0.8111,0.8185,1.353,0.2493,0.8643
3044,-0.6422,0.8194,0.8146,2.3454,0.2035,0.4368
3056,-0.6429,0.8255,0.8166,1.1851,0.5394,-0.7998
3069,-0.6415,0.8189,0.8163,-0.5706,0.1577,-1.8075
3111,-0.6393,0.8145,0.8129,-0.7233,-0.2545,0.5437
3124,-0.6388,0.8186,0.8166,1.4904,-0.1018,0.9711
3136,-0.6376,0.8089,0.8161,2.8187,0.2035,1.0475
3149,-0.6432,0.8157,0.8188,2.6355,0.5547,1.246
3162,-0.641,0.8245,0.8139,0.8798,0.3714,0.1467
3176,-0.6432,0.8155,0.8136,-2.2653,-0.0102,-0.4334
3216,-0.6446,0.8099,0.8219,6.7271,-0.6056,6.0093
3229,-0.6334,0.8243,0.8171,1.582,-0.5446,6.3452
3243,-0.6471,0.8194,0.8122,6.208,-0.6209,7.3986
3256,-0.6334,0.8567,0.8102,3.6431,-0.514,3.9024
3269,-0.66,0.8694,0.8402,6.7271,-2.9415,3.4444
3281,-0.6485,0.8838,0.8805,12.2996,-7.5522,6.9406
3323,-0.6512,0.8116,0.8134,13.6889,-6.1018,-0.9983
3336,-0.6424,0.846,0.7968,12.9561,-4.7431,0.8643
3348,-0.6461,0.8172,0.8207,8.6813,-5.4148,0.391
3361,-0.6454,0.8516,0.8024,-5.7615,-6.514,-1.8991
3375,-0.6,0.7869,0.7555,-9.2118,-2.8041,-2.8304
3388,-0.6073,0.8545,0.7978,-2.7538,-0.1629,-1.5021
3428,-0.6268,0.8147,0.8173,-1.4103,0.1577,0.849
3441,-0.6144,0.8157,0.8227,-0.7691,1.4096,0.3299
3455,-0.6068,0.8206,0.8097,-1.8531,2.1882,-1.6548
3468,-0.6097,0.8499,0.8107,-4.1431,3.2264,-2.4945
3481,-0.6178,0.8213,0.8327,-4.0515,3.8218,-1.7769
3493,-0.6383,0.8169,0.8361,-3.8378,3.6844,-2.2655
3535,-0.6315,0.8282,0.8107,-3.7767,1.089,-1.7159
3548,-0.6241,0.8421,0.8207,-0.708,0.9516,-0.006
3559,-0.6102,0.8343,0.8149,-3.4409,1.7302,-0.9831
3572,-0.6253,0.8304,0.8256,-4.3416,2.7837,-1.6395
3586,-0.6481,0.8479,0.8288,-5.0592,2.2646,-2.6319
3599,-0.6544,0.8309,0.8315,-4.3874,0.7989,-0.8456
3639,-0.6253,0.8128,0.8258,-4.7386,1.8371,1.2002
3653,-0.6339,0.8064,0.8212,-0.8302,1.5165,0.4521
3666,-0.6385,0.8282,0.8212,-2.4485,1.8218,-0.464
3679,-0.6317,0.8333,0.8227,-2.3874,1.9287,-0.0823
3691,-0.6349,0.8152,0.8217,-1.4867,1.944,-0.693
3704,-0.6358,0.8189,0.8183,-2.0515,2.402,-0.8762
3746,-0.641,0.7918,0.8302,1.4141,-0.5751,0.8948
3758,-0.6283,0.7994,0.8251,0.666,-1.0026,-0.3571
3771,-0.6249,0.8221,0.8119,4.0248,-0.9263,-1.151
3785,-0.6263,0.8548,0.8092,3.582,-0.1629,-1.0289
3798,-0.6466,0.8572,0.8229,2.0095,0.5241,0.0856
3811,-0.6444,0.8221,0.829,-0.4943,0.3256,0.2841
3851,-0.629,0.8103,0.8149,-1.3798,0.5241,0.8337
3865,-0.6446,0.8284,0.8171,-1.2118,0.4936,0.2231
3878,-0.6466,0.8284,0.831,1.4141,0.1882,0.2383
3891,-0.6322,0.823,0.819,1.063,0.5852,0.0704
3903,-0.6324,0.8311,0.8188,0.5286,0.7531,0.7421
3916,-0.6256,0.8128,0.8275,-0.5554,0.631,-0.296
3958,-0.6407,0.8289,0.818,-0.4943,-0.0102,0.1314
3970,-0.6378,0.8213,0.83,1.2767,0.5699,2.0246
3983,-0.63,0.8145,0.8173,3.2614,0.5547,2.9101
3997,-0.6376,0.8135,0.8254,1.8569,0.7073,1.0475
4010,-0.6466,0.825,0.8214,0.9714,0.2646,-0.2655
4022,-0.6346,0.8157,0.8224,-0.0057,-0.0713,-0.1128
4064,-0.6402,0.8279,0.8288,2.8187,-0.0255,1.3986
4077,-0.6407,0.8252,0.8219,2.2538,0.0966,0.5589
4090,-0.6388,0.8411,0.8224,0.4981,-0.0102,-0.9525
4101,-0.6256,0.8379,0.8151,0.1927,0.2951,-1.2731
4115,-0.621,0.8287,0.8092,-0.4332,1.0737,-1.2121
4128,-0.63,0.8143,0.8207,0.5286,1.2417,-1.4563
4168,-0.6444,0.8414,0.8131,0.834,-0.056,-0.1434
4182,-0.6395,0.8328,0.8139,-0.937,-0.0713,0.1467
4195,-0.6412,0.8238,0.8214,0.0095,-0.1171,0.6353
4207,-0.6307,0.8208,0.8239,1.3378,-0.3308,1.4292
4219,-0.6302,0.825,0.8161,2.5439,-0.5446,1.3681
4232,-0.639,0.8221,0.8222,4.1469,-0.3308,1.5971
4274,-0.6383,0.8206,0.8234,1.0782,0.3256,0.7574
4286,-0.6383,0.8453,0.821,-1.2118,-0.1476,0.2536
4299,-0.63,0.8357,0.8175,-1.0744,0.005,0.3452
4313,-0.6393,0.8311,0.8183,-2.7844,-0.224,-0.3876
4326,-0.6358,0.8309,0.8214,-2.25,-0.1476,-0.4792
4339,-0.6385,0.8321,0.8192,0.3454,0.1882,0.5589
4379,-0.6393,0.8291,0.8163,0.6507,0.0508,0.4673
