time_ms,ax,ay,az,gx,gy,gz
13,-0.6612,0.8692,0.7614,1.353,0.1577,0.7421
26,-0.6669,0.8667,0.7587,0.8187,-0.3919,0.391
67,-0.6642,0.8636,0.7658,-1.7004,0.1272,-0.5098
79,-0.6622,0.8655,0.7602,0.895,0.2035,0.4979
92,-0.6561,0.8609,0.7609,0.6202,0.2035,0.7574
104,-0.6607,0.8658,0.7646,0.7424,0.2951,1.0627
117,-0.6632,0.8707,0.7592,0.7576,0.2493,0.2994
130,-0.6659,0.8677,0.7521,-1.0439,0.173,0.1162
171,-0.6605,0.8736,0.7668,0.4217,-0.8194,2.3452
184,-0.6607,0.8765,0.7607,2.4523,-0.1476,2.7421
197,-0.6693,0.8704,0.7614,2.0095,-0.0713,1.6276
210,-0.69,0.8704,0.7755,8.4217,-1.3385,4.7269
223,-0.7757,0.8316,0.7777,8.834,-1.0789,7.7345
237,-0.6961,0.793,0.756,8.4217,-2.8499,13.4902
277,-0.7289,0.8934,0.8368,33.7805,-19.7965,3.7192
290,-0.7352,0.8711,0.8988,25.6584,-31.7354,0.5742
304,-0.6058,0.7474,0.8175,1.1546,-36.9263,-6.0823
317,-0.5882,0.763,0.7841,-14.0057,-39.6286,-18.3418
329,-0.5326,0.7359,0.6593,-21.9447,-32.1629,-30.0365
342,-0.4906,0.8833,0.6525,-26.5096,-19.6591,-38.754
384,-0.5514,0.8189,0.758,-19.5477,11.9134,-32.2044
397,-0.586,0.8243,0.7367,-16.1889,18.005,-34.8609
409,-0.9064,0.9744,0.9738,-15.9599,10.5394,-30.0823
422,-0.7833,0.9786,0.7563,-10.5706,2.5699,-12.464
435,-0.6888,0.9068,0.8026,-8.8454,4.234,-11.609
449,-0.6068,0.7688,0.9528,-22.3111,-6.2087,-20.7235
489,-0.6649,0.7684,0.8683,-12.6775,-4.4988,-6.1434
502,-0.6891,0.7681,0.7455,-12.6622,-3.6744,-6.3266
515,-0.6554,0.7832,0.736,-9.8531,-8.3919,-5.5937
528,-0.6705,0.7728,0.8549,-12.3874,-4.6973,0.4979
541,-0.6607,0.75,0.8693,-2.3722,-6.0408,1.7192
555,-0.5917,0.8738,0.9081,-5.2424,-11.1095,0.5437
595,-0.67,0.7596,0.7885,-11.9141,-3.9797,-5.2121
609,-0.6507,0.8003,0.8061,-21.3798,-5.3843,-5.1052
622,-0.6205,0.8853,0.7858,-31.2271,-9.1553,-1.3647
634,-0.6888,0.7098,0.7462,-17.6546,-4.0255,-3.0136
647,-0.6725,0.7862,0.7953,-15.9752,-3.5522,-4.006
660,-0.6473,0.7798,0.8136,-28.5859,-4.9415,-7.3495
702,-0.6229,0.7244,0.767,27.0477,3.1501,16.8337
714,-0.6527,0.7876,0.8029,2.1011,4.0508,10.5742
727,-0.6642,0.5794,0.7992,-28.7691,0.5394,-1.4411
740,-0.6561,0.69,0.8075,-18.1126,2.9974,6.4826
753,-0.638,0.6954,0.8246,-21.0134,1.6386,3.9788
767,-0.6346,0.6214,0.7902,-5.4103,1.1195,-3.609
807,-0.6905,0.9061,0.6108,16.5744,17.6539,25.1085
820,-0.7135,0.805,0.6481,18.0248,11.0279,9.2307
834,-0.5943,0.6165,1.0238,-2.2195,14.402,5.3681
847,-0.651,0.8145,0.4814,23.4752,29.3638,17.6429
859,-0.6742,0.8519,0.831,5.4752,12.9821,4.7421
872,-0.5707,0.6709,0.9687,10.1927,16.9363,5.994
914,-0.8075,0.9324,0.3354,32.1164,18.0966,12.2231
926,-0.5956,0.7383,1.1403,29.7347,9.2264,9.765
939,-0.7232,0.7615,0.58,30.5744,13.3791,7.8719
952,-0.5934,0.8846,1.0238,57.8874,10.8753,14.5589
965,-0.6129,0.8179,0.8891,63.3836,8.4325,18.0398
979,-0.6507,0.7195,0.6464,51.3225,10.3715,4.2689
1019,-0.5826,0.709,0.8786,50.6049,-2.9415,7.475
1033,-0.6798,1.0887,0.7563,98.3759,-3.7507,8.8337
1046,-0.6927,0.5293,0.5692,23.5362,-21.0942,-32.7846
1058,-0.5174,1.012,0.7235,4.3912,-16.4988,-10.7388
1071,-0.6681,0.8865,0.5043,7.9637,-12.2087,-12.8609
1084,-0.6815,1.0477,0.6303,26.7118,-0.4835,7.3528
1125,-0.6639,0.9007,0.7289,-8.4638,-2.8499,-3.7006
1138,-0.6654,0.8763,0.7477,-15.2271,-1.1553,-6.6014
1151,-0.6712,0.8572,0.7548,-9.7615,0.7379,-6.3418
1165,-0.6503,0.8482,0.7697,-20.6928,1.3333,-8.6624
1178,-0.6661,0.8558,0.7665,-20.5554,1.486,-6.4182
1190,-0.6586,0.8335,0.765,-20.7538,2.0814,-3.7311
1232,-0.6676,0.8399,0.7665,-14.4485,1.8676,7.5513
1244,-0.6661,0.8611,0.7743,-12.1584,1.7913,5.7345
1257,-0.6695,0.8382,0.7624,-10.1737,0.8295,5.9024
1270,-0.6627,0.8438,0.7658,-9.7004,0.7684,6.0551
1283,-0.6607,0.857,0.7638,-3.1813,0.9516,5.1391
1296,-0.6617,0.8467,0.765,-5.3645,1.2264,2.0093
1337,-0.6647,0.8289,0.7646,-8.6164,-0.3156,0.2536
1350,-0.6637,0.8323,0.7648,0.6202,-1.2011,5.0475
1363,-0.6542,0.8318,0.7646,3.9332,-1.995,7.2918
1376,-0.6593,0.8411,0.7629,7.6889,-2.7278,10.1009
1389,-0.6573,0.8543,0.7687,8.4523,-2.8957,10.3757
1402,-0.6634,0.8648,0.7709,8.834,-3.2011,9.933
1444,-0.649,0.8807,0.7716,0.1622,-0.7736,-0.6166
1456,-0.662,0.865,0.768,-2.876,0.0356,-4.6777
1469,-0.6605,0.8509,0.7672,-2.708,0.3562,-4.2197
1482,-0.661,0.8465,0.7692,0.8492,-0.5598,-0.922
1495,-0.6564,0.8438,0.7604,3.6431,-1.2621,1.933
1507,-0.6588,0.8648,0.7721,7.7194,-0.7431,4.1467
1548,-0.6578,0.8614,0.7716,0.1622,0.5699,-0.2502
1562,-0.6629,0.8648,0.7736,-1.1202,0.6157,-1.3037
1574,-0.6605,0.8689,0.7597,-1.9599,-1.0179,-2.0212
1587,-0.6527,0.8562,0.7668,-6.2653,-0.7736,-3.1815
1600,-0.6644,0.8543,0.776,-5.8378,-0.7431,-1.8991
1613,-0.6625,0.8609,0.7743,-6.6928,-0.7278,-2.5556
1654,-0.6607,0.8536,0.7697,-10.3569,0.3562,-6.1892
1667,-0.6571,0.8279,0.7648,-0.3569,-0.0408,-1.8075
1680,-0.6627,0.8443,0.7685,4.7729,-0.3919,0.5742
1693,-0.6605,0.8553,0.7716,4.834,-0.514,1.0017
1706,-0.659,0.8506,0.776,3.3378,0.0203,0.5437
1719,-0.6581,0.8467,0.7731,2.5439,0.5089,1.0169
1760,-0.6603,0.8577,0.7665,0.4675,-0.0713,0.4979
1773,-0.6546,0.8523,0.7687,-3.2576,-0.7736,-1.5021
1786,-0.6576,0.8521,0.7714,-3.9447,-0.1934,-2.5403
1799,-0.6625,0.8494,0.7702,-1.3035,0.0661,-2.464
1812,-0.6656,0.8482,0.767,-1.8378,0.0661,-2.8915
1826,-0.659,0.8392,0.7646,0.0095,0.173,-1.9449
1866,-0.6612,0.8477,0.7719,2.4217,-0.0408,1.3681
1879,-0.6598,0.856,0.7672,1.0782,-0.1018,0.8032
1892,-0.6603,0.8501,0.7746,-2.0973,-0.2087,-0.6777
1905,-0.6593,0.8519,0.7736,-1.7615,-0.3919,-1.2731
1918,-0.6546,0.8531,0.7729,-3.5172,0.2951,-2.7235
1931,-0.6593,0.857,0.7782,-1.9905,0.4631,-4.9983
1972,-0.6644,0.8387,0.7694,-4.4943,0.0814,-3.6853
1985,-0.6554,0.8399,0.7748,-1.1202,-0.6667,-1.2731
1998,-0.6564,0.8504,0.7704,-3.105,-0.3308,-1.2273
2012,-0.6644,0.8394,0.7714,-1.7462,-0.453,-0.525
2025,-0.6605,0.8404,0.767,-0.1737,-0.1629,0.2841
2037,-0.6634,0.8428,0.7719,1.1546,-0.3919,0.5284
2078,-0.651,0.8472,0.7663,1.0019,0.3256,1.475
2091,-0.6722,0.8453,0.7785,-0.2806,0.0508,0.5895
2103,-0.6564,0.8482,0.769,0.208,0.3562,-0.006
2115,-0.6573,0.8433,0.7768,-1.7462,-0.1629,-0.754
2128,-0.6615,0.8455,0.7741,-1.5019,-0.0102,-0.3571
2141,-0.6612,0.845,0.7702,-1.9599,-0.2545,0.0246
2182,-0.6559,0.8462,0.7716,0.9103,-0.2392,0.5895
2195,-0.6556,0.8494,0.7741,1.2156,0.1882,-0.0823
2208,-0.6466,0.8531,0.7721,1.7805,0.5699,-0.464
2221,-0.6612,0.8436,0.7672,1.1851,0.2798,0.2536
2234,-0.6632,0.847,0.768,0.5591,0.0203,0.8795
2246,-0.6622,0.8514,0.7685,0.8492,-0.3919,1.3681
2288,-0.6622,0.8497,0.7777,3.5057,0.7989,0.8337
2301,-0.6544,0.8533,0.7694,3.2462,1.0279,-0.1739
2314,-0.6651,0.845,0.776,1.5057,0.7226,-1.0747
2327,-0.6578,0.8494,0.7704,-0.3264,0.2951,-1.1205
2340,-0.6554,0.8457,0.7729,0.0401,-0.1629,-0.2808
2353,-0.6546,0.8482,0.7658,2.5286,-0.1018,0.8032
2394,-0.6483,0.8201,0.7704,0.7729,0.2188,0.1162
2407,-0.6539,0.836,0.7721,0.2996,0.5699,0.7116
2419,-0.6564,0.8379,0.7687,-2.418,0.7837,0.3147
2432,-0.6593,0.8411,0.7704,-0.0515,0.631,1.6429
2445,-0.6578,0.8516,0.7753,2.3912,0.2493,2.1773
2458,-0.661,0.8521,0.7712,1.4752,0.4936,0.0856
2499,-0.6566,0.8421,0.7765,0.0706,0.4783,-0.4182
2512,-0.6603,0.8396,0.7694,1.6278,0.6157,1.1544
2525,-0.6654,0.846,0.7655,0.9103,0.8447,2.1314
2538,-0.6629,0.8499,0.7724,5.124,0.4783,2.4673
2551,-0.6556,0.8477,0.7763,2.9866,-0.056,0.9406
2563,-0.6532,0.8528,0.7724,0.6965,0.3867,-0.693
2605,-0.6571,0.8492,0.7702,-1.2882,-0.3308,-0.7388
2618,-0.6595,0.8479,0.7753,0.2843,-0.5293,0.7727
2630,-0.652,0.8475,0.777,1.5973,-0.1934,1.2154
2643,-0.6542,0.8462,0.7758,-0.7691,-0.3156,1.0322
2656,-0.6603,0.8533,0.7729,-0.5248,-0.056,0.2078
2669,-0.6539,0.8562,0.7719,-2.479,0.1119,-0.922
2710,-0.6578,0.8414,0.7712,0.5897,-0.2392,1.3681
2723,-0.6583,0.8416,0.7702,2.3301,0.2646,2.7879
2736,-0.6593,0.8499,0.7702,2.3454,0.0203,1.4292
2749,-0.6573,0.856,0.7741,2.5591,0.8753,0.0856
2762,-0.6507,0.8506,0.7746,3.5362,0.5089,-1.4105
2775,-0.6571,0.8497,0.7709,-1.0897,0.5089,-1.5174
2816,-0.6559,0.8487,0.7709,0.6049,0.0966,2.5589
2829,-0.6544,0.8626,0.7719,1.0477,0.1119,1.8872
2842,-0.661,0.8506,0.7819,0.834,0.2951,0.0246
2856,-0.6586,0.8523,0.7755,-0.6622,0.5699,-0.9831
2867,-0.6583,0.8475,0.7729,-0.8912,0.3409,-0.7846
2879,-0.6593,0.8489,0.7685,1.4141,0.3867,-0.1281
2920,-0.6556,0.8516,0.768,2.7118,0.3714,2.2536
2933,-0.6586,0.8575,0.7707,0.5286,0.6921,0.1925
2945,-0.6532,0.8279,0.7567,-8.2347,0.4325,-3.151
2958,-0.6605,0.8355,0.7672,-1.0592,0.5241,-2.5403
2971,-0.661,0.8477,0.7665,0.1011,-0.2698,-1.8838
2985,-0.6595,0.847,0.7702,2.6965,-0.3766,0.0093
3025,-0.6932,0.8592,0.7694,4.6355,0.4173,2.2383
3038,-0.6593,0.8626,0.7709,5.8111,0.2798,1.2002
3051,-0.6629,0.8687,0.769,1.4294,0.7837,-1.2273
3065,-0.659,0.8511,0.7746,-3.8225,0.631,-2.2197
3077,-0.6564,0.8523,0.7719,-0.3111,0.234,-1.1052
3090,-0.6559,0.8497,0.7714,-0.0973,0.0508,0.391
3130,-0.6615,0.8636,0.7736,0.9103,0.234,0.8337
3144,-0.6561,0.8565,0.7697,-0.1584,-0.2545,-0.1434
3156,-0.6564,0.8558,0.7704,0.3149,0.3256,-0.4334
3168,-0.6578,0.8558,0.7736,-1.5935,0.1577,-1.0899
3182,-0.6642,0.8558,0.7655,-0.7844,-0.056,-0.296
3194,-0.6561,0.8499,0.7692,0.4828,-0.0866,0.6353
3235,-0.6556,0.8614,0.7687,-2.4332,-0.0713,-0.6319
3249,-0.6532,0.8499,0.7724,-2.6164,0.0356,-1.0899
3261,-0.6568,0.8516,0.7707,1.0019,0.2188,0.2689
3274,-0.6637,0.8528,0.7699,1.6278,0.1577,0.9559
3287,-0.6544,0.8589,0.7692,-0.6012,-0.1171,0.3757
3301,-0.6564,0.8523,0.7672,-0.2195,-0.0713,-0.1128
3341,-0.6566,0.8606,0.7653,0.8645,0.3714,0.2383
3354,-0.6583,0.8577,0.7751,-0.0668,0.1424,-0.2044
3366,-0.6627,0.8516,0.7699,0.9561,0.3409,1.0627
3380,-0.6642,0.856,0.7699,1.2614,-0.0866,1.1391
3392,-0.6549,0.8562,0.7751,2.9256,0.1882,1.6734
3405,-0.6576,0.8565,0.7751,2.5744,0.3714,1.6734
3447,-0.662,0.8641,0.7714,4.4675,0.5852,3.4139
3459,-0.6546,0.8538,0.768,3.4752,0.0508,2.849
3472,-0.6627,0.8614,0.7655,1.582,-0.2087,2.1009
3485,-0.651,0.8577,0.7621,1.3683,0.0814,1.0475
3498,-0.6571,0.868,0.7682,0.2996,0.631,-0.6472
3511,-0.662,0.8694,0.7712,0.4828,0.2188,-1.6243
3552,-0.6524,0.857,0.7685,0.6049,0.234,0.4368
3565,-0.662,0.8658,0.769,0.0095,-0.1171,0.5589
3578,-0.6612,0.8582,0.7621,-0.2958,0.1119,0.4368
3589,-0.6603,0.8592,0.769,-0.8607,0.402,-0.1739
3601,-0.6578,0.8658,0.7665,0.2385,0.1882,-0.6319
3614,-0.6542,0.8636,0.7702,-1.8683,-0.1324,-1.3342
3654,-0.6576,0.8594,0.767,-0.2347,0.2188,-0.4182
3667,-0.6554,0.855,0.7699,0.4981,0.234,0.2383
3680,-0.6564,0.8592,0.7685,-0.0668,0.3104,0.2841
3692,-0.6515,0.8623,0.7611,-0.1126,-0.0102,0.2994
3704,-0.6559,0.8567,0.7709,0.3759,-0.2545,0.4215
3716,-0.6593,0.8516,0.7668,2.4828,0.173,1.5513
3758,-0.6612,0.8536,0.7677,-3.9905,-0.3614,-0.4487
3770,-0.6583,0.8621,0.7743,-0.8149,-0.4988,0.2689
3782,-0.6532,0.8611,0.769,1.7347,-0.1476,0.1162
3795,-0.6586,0.8604,0.7687,2.5897,0.173,0.1009
3808,-0.6593,0.8587,0.7712,0.5897,0.1882,0.2994
3821,-0.6542,0.8623,0.7716,1.1851,0.4173,0.6353
3862,-0.6571,0.8597,0.776,-1.334,0.1119,-1.8991
3876,-0.6593,0.8592,0.7682,-0.2806,0.2493,-1.7922
3888,-0.6532,0.8582,0.7663,1.6126,0.2646,-0.3724
3901,-0.6544,0.8572,0.7736,-0.0057,0.5241,-0.1739
3913,-0.66,0.8562,0.7692,1.8111,0.2646,1.1085
3926,-0.6551,0.8599,0.7721,0.6355,-0.0255,0.6811
3967,-0.6564,0.8553,0.7648,-3.4714,-0.1171,-1.8686
3980,-0.6556,0.8567,0.7746,-2.2958,0.3256,-0.7693
3994,-0.6576,0.855,0.7685,-2.9523,-0.2087,-0.2502
4006,-0.6566,0.8531,0.7721,-2.0821,-0.1476,-0.2502
4019,-0.6549,0.8499,0.7697,2.4523,0.1424,1.1085
4032,-0.6581,0.856,0.7743,3.4141,0.7073,1.765
4074,-0.6566,0.8545,0.7704,0.834,0.3104,0.5742
4086,-0.659,0.8567,0.7675,1.063,0.2188,0.1162
4099,-0.6593,0.8614,0.7731,2.1011,-0.1324,0.8643
4112,-0.6615,0.8633,0.7687,1.3683,0.4936,0.6047
4125,-0.66,0.8636,0.777,1.124,0.3867,-0.0976
4139,-0.652,0.8655,0.7643,-1.5935,0.234,-1.3037
4179,-0.6598,0.8604,0.7672,0.5133,-0.3308,2.2689
