time_ms,ax,ay,az,gx,gy,gz
7,-0.6791,0.8038,0.7438,-0.9218,-0.0866,-0.4945
19,-0.6766,0.8086,0.7423,-0.5401,-0.1018,-0.464
60,-0.6805,0.8052,0.7458,-1.8989,0.5241,-0.7998
73,-0.6778,0.8125,0.7399,-0.3874,0.9669,-0.296
85,-0.6813,0.8038,0.7421,0.666,0.631,-0.525
96,-0.6783,0.8062,0.7384,-0.8607,0.3104,0.0093
109,-0.6766,0.8025,0.7423,-0.3264,0.0966,-0.2044
121,-0.6734,0.8001,0.735,-0.8912,-0.0102,-0.0212
161,-0.6771,0.7972,0.7448,0.2538,0.3562,0.6658
175,-0.6773,0.8084,0.7397,-0.1126,0.8447,-0.1128
187,-0.6844,0.8101,0.7426,1.0477,0.4173,0.4215
200,-0.6815,0.8089,0.7382,-1.3798,0.4325,-0.006
213,-0.6808,0.8057,0.7411,-1.9141,0.3256,0.0093
226,-0.6857,0.8028,0.7489,-0.4943,0.0661,0.4215
267,-0.7357,0.8111,0.7675,19.3225,-2.1782,13.7498
281,-0.766,0.8772,0.8185,20.6355,-7.4148,21.078
293,-0.7992,0.7706,0.8373,7.3988,-20.5598,13.7192
306,-0.7611,0.7432,0.9049,25.3988,-27.4148,13.9788
319,-0.6942,0.7859,0.8439,45.6736,-33.5827,16.4673
332,-0.6009,0.6446,1.0053,41.2614,-43.1247,5.9177
373,-0.5135,0.8536,0.7575,-63.563,-39.3232,-27.6548
386,-0.4349,0.8475,0.6889,-33.4103,-26.4224,-27.4411
399,-0.4117,0.8623,0.5929,-39.3951,-9.7049,-28.5556
412,-0.4867,0.856,0.675,-35.8531,5.715,-22.525
425,-0.6009,0.8936,0.7016,-31.0897,14.1577,-18.5708
439,-0.6842,0.7161,0.7838,-29.563,19.4707,-18.006
479,-0.8751,0.877,0.8573,10.834,4.2646,-21.3495
492,-0.6903,0.7605,0.9811,12.5744,2.6921,-19.6395
505,-0.6866,0.7168,0.8686,-5.6393,-0.5293,-25.7922
518,-0.6249,0.928,0.7919,9.8111,0.2493,-16.0518
531,-0.5804,0.7476,1.112,-8.6317,-0.8805,-23.9907
544,-0.6727,0.7105,0.7904,-8.8454,-7.2011,-29.1205
585,-0.6014,1.0603,0.9733,-15.2576,-3.3537,-8.2655
598,-0.7269,0.6541,0.5116,-53.8836,-9.9797,-27.2884
611,-0.6607,0.5159,0.4604,-55.2882,-6.6973,-19.3953
624,-0.7069,0.8172,1.1979,-97.166,-9.1705,-21.6701
637,-0.8526,0.4732,0.4208,-110.311,0.3256,-19.4869
651,-0.7469,0.2671,0.3622,-83.6699,-4.2087,-1.7464
691,-0.4518,0.6109,1.2841,-98.1431,0.1119,29.4444
704,-1.0814,1.4068,0.2914,-105.731,7.0432,50.6353
717,-0.8204,0.9058,0.1496,-10.8149,8.2951,59.0322
731,-0.9713,-0.5161,1.3066,-82.4485,18.4173,49.4292
743,-0.8697,1.0879,-0.2677,-1.4409,43.6844,92.0856
756,-0.8753,0.2183,1.6039,7.2156,56.8905,97.1391
797,-0.6334,0.3331,1.9308,39.7195,52.9211,23.6429
810,-0.5848,0.5022,0.3468,66.834,51.1501,11.5055
823,-0.5111,0.459,0.7858,67.8111,52.3714,7.9635
837,-0.7101,0.5176,1.8129,73.3378,15.5318,15.2765
849,-0.4869,0.3138,1.3214,96.8187,12.6615,-3.838
862,-0.514,0.5467,0.9906,59.4446,2.2646,-29.0594
903,-0.7735,1.6375,1.0089,41.4141,-10.8347,-7.8533
917,-0.744,0.9781,0.8605,17.7653,-6.7736,-8.6166
929,-0.6444,1.0198,0.8014,8.9561,-2.7583,4.5589
942,-0.7218,0.897,0.6725,-8.7538,-2.3003,-5.38
955,-0.7337,0.8497,0.6037,-13.2729,4.0814,-3.8991
968,-0.7237,0.8331,0.6591,-15.2882,0.173,-4.525
1009,-0.6979,0.8316,0.7272,-6.7996,-3.8576,3.994
1022,-0.6761,0.8238,0.7248,-2.708,-2.1171,6.5131
1035,-0.6849,0.8326,0.7304,-1.6851,-0.1476,4.9101
1048,-0.69,0.8277,0.717,3.8111,0.9363,4.5895
1060,-0.6883,0.846,0.7052,0.6202,0.2951,2.2231
1074,-0.6886,0.8387,0.7055,-5.9905,-0.8652,-0.7998
1115,-0.6857,0.8235,0.7206,-13.3645,-1.0026,-1.9907
1128,-0.6883,0.8252,0.7145,-9.3645,-0.911,-1.6395
1141,-0.6839,0.8265,0.7111,-9.2118,-0.9263,-1.4869
1154,-0.6756,0.7994,0.7152,-9.4103,-0.1171,-0.9831
1167,-0.6903,0.8235,0.7265,-1.7767,0.1119,1.4902
1180,-0.6866,0.8194,0.7196,4.6202,0.9211,3.1238
1221,-0.6927,0.837,0.713,0.9866,0.0814,2.8185
1234,-0.6922,0.8267,0.7148,0.3301,-0.285,3.1238
1247,-0.6878,0.8321,0.7113,-1.4103,-0.6056,2.3299
1260,-0.6854,0.8387,0.7145,-2.9676,-1.1553,0.6505
1273,-0.6854,0.8301,0.7211,-9.2271,-0.8652,-2.0823
1286,-0.6817,0.8165,0.7201,-3.8073,0.4631,-1.8075
1327,-0.6886,0.8404,0.7089,-1.0439,-0.5751,-1.2579
1340,-0.6864,0.8323,0.7182,-5.5019,-0.9568,-2.2197
1353,-0.6866,0.8167,0.7228,-3.0286,-0.7889,-1.3953
1366,-0.6866,0.816,0.7174,0.5744,0.0661,0.2536
1378,-0.6857,0.8226,0.714,1.1393,0.3867,0.4063
1390,-0.6861,0.8235,0.7113,2.2233,0.4478,1.3834
1431,-0.6952,0.8299,0.7152,-1.1508,0.234,0.8185
1445,-0.6852,0.8189,0.7189,-0.479,-0.6515,0.5589
1457,-0.6944,0.8199,0.7182,2.7882,-0.4224,2.1925
1470,-0.7052,0.8226,0.7194,4.9256,-1.8881,3.8108
1483,-0.8104,0.8145,0.7365,20.1011,-4.2545,7.6124
1496,-1.1612,0.8821,0.8256,33.6889,-14.6973,5.3223
1537,-0.7726,0.6019,0.727,38.2385,-117.171,-8.6319
1550,0.0639,0.7747,0.3866,40.5133,-91.0942,-4.9525
1563,0.4872,0.8526,0.2558,19.6278,-44.9721,6.7116
1576,0.3317,0.7444,0.3356,18.3607,-2.4072,11.5208
1589,-0.0672,0.7962,0.5531,27.521,30.7073,7.6887
1602,-0.5155,1.0008,0.8146,2.9103,58.86,2.2841
1643,-0.7806,0.9617,0.8212,-4.3874,2.3104,-1.5632
1656,-0.5389,0.8863,0.6505,0.6049,4.4173,-2.3113
1669,-0.4996,0.816,0.6418,4.437,10.8905,1.1391
1682,-0.5592,0.7581,0.6923,0.9408,15.1806,-2.235
1695,-0.6913,0.7959,0.8009,2.6049,16.3104,-2.0976
1708,-0.7608,0.7911,0.8515,3.1088,11.2417,2.849
1749,-0.681,0.845,0.7658,11.1851,2.005,10.4979
1762,-0.6627,0.8521,0.7445,13.3378,2.1272,12.8795
1775,-0.6153,0.8887,0.7155,10.8645,4.8905,12.5131
1788,-0.597,0.879,0.7174,5.6278,7.1806,9.078
1801,-0.6332,0.9122,0.7563,3.1393,7.7302,3.7498
1814,-0.7272,0.95,0.8105,-2.6622,6.4478,0.1314
1855,-0.6351,0.8545,0.7265,-5.3798,0.9058,-4.3724
1868,-0.6107,0.8411,0.7216,0.0553,3.1806,-2.1128
1881,-0.6131,0.8538,0.7311,-2.0515,4.6005,-0.6472
1894,-0.6288,0.8536,0.7445,-4.0668,6.7073,2.5284
1906,-0.6798,0.8692,0.767,3.5668,8.4936,7.4139
1920,-0.7294,0.8929,0.7943,3.5515,5.1653,8.7879
1961,-0.6214,0.8746,0.7184,1.1088,0.0814,-0.754
1975,-0.61,0.8921,0.7191,-2.6164,2.2646,-0.0518
1987,-0.6168,0.8592,0.7411,-1.9294,4.2493,-0.1281
2000,-0.6695,0.8787,0.7648,-2.9523,5.2417,0.4368
2013,-0.7232,0.8636,0.7865,-4.2653,2.6463,-1.2731
2026,-0.7252,0.8848,0.7697,-2.5248,0.631,-1.6701
2067,-0.6227,0.8374,0.7277,-0.937,1.7302,-0.0365
2080,-0.6659,0.8565,0.7419,1.1698,2.2493,-0.2197
2093,-0.6986,0.8846,0.7641,1.7042,0.9363,0.9864
2106,-0.6905,0.8936,0.769,1.6889,0.234,2.9101
2119,-0.6507,0.8782,0.756,0.7424,-0.224,3.307
2132,-0.6222,0.8587,0.736,-4.0515,1.1195,0.4521
2173,-0.6913,0.8719,0.7489,3.521,-0.6973,-0.1281
2185,-0.6503,0.868,0.7209,7.3988,0.5241,1.704
2198,-0.6127,0.8623,0.7079,1.9637,3.4249,1.5208
2212,-0.6327,0.8919,0.7275,-3.5783,5.6234,1.078
2225,-0.6942,0.8941,0.7741,-4.021,4.2798,1.475
2237,-0.7147,0.8877,0.7677,-5.1355,1.8066,0.2994
2279,-0.6388,0.8728,0.7165,-6.8302,0.7684,-1.6853
2292,-0.652,0.856,0.7331,-4.8149,2.7837,-0.7846
2305,-0.6908,0.8648,0.7607,-2.9218,2.7073,0.3757
2318,-0.7123,0.8594,0.7741,-0.7844,0.4936,1.1238
2332,-0.691,0.8641,0.7589,-0.8912,-1.3232,-0.5098
2344,-0.6495,0.8602,0.7409,-0.7691,-1.5369,-0.4182
2385,-0.6749,0.8755,0.7521,-3.4409,2.1119,-1.38
2399,-0.6827,0.8731,0.7519,-3.6699,1.3638,-1.5479
2411,-0.6903,0.854,0.7577,-2.0973,0.7379,-1.4411
2424,-0.6764,0.8575,0.7436,2.0859,-0.8957,-1.6853
2437,-0.6503,0.866,0.7355,2.5286,-0.4682,-0.464
2449,-0.662,0.8833,0.7401,0.1164,0.6768,1.4902
2491,-0.6717,0.8536,0.745,0.0095,-1.14,-0.8304
2504,-0.6588,0.8699,0.7406,-1.4409,-0.5598,-1.9907
2517,-0.6398,0.8819,0.7301,-0.6622,0.631,-2.3418
2530,-0.6327,0.8819,0.7326,-2.1584,3.2569,-0.7082
2543,-0.6581,0.8611,0.7397,-1.2118,4.1119,0.391
2555,-0.6769,0.867,0.7487,0.8492,3.715,1.3528
2597,-0.6783,0.8338,0.7462,9.1088,-0.4988,2.4063
2610,-0.6393,0.856,0.7182,4.7882,-0.2545,-3.1357
2623,-0.6432,0.878,0.7257,4.2233,1.4402,-3.9602
2636,-0.6503,0.8938,0.7316,2.6507,2.5852,-1.4869
2649,-0.6571,0.9036,0.7419,-0.8302,3.2264,0.1925
2662,-0.6835,0.8741,0.7519,-3.0897,2.9669,-0.7082
2703,-0.6673,0.8672,0.7433,3.292,-0.3003,1.1849
2716,-0.6595,0.8702,0.7353,3.6431,0.1272,1.9635
2729,-0.6424,0.865,0.7233,-1.563,0.9974,-0.0823
2742,-0.6503,0.8721,0.7338,-3.9294,1.7913,-1.6548
2755,-0.6661,0.857,0.7448,-5.3187,1.8371,-1.9296
2768,-0.6813,0.8819,0.7455,-4.4332,1.5928,-2.2044
2808,-0.6786,0.8636,0.7409,-0.4638,1.318,0.2078
2822,-0.6835,0.8587,0.7487,0.9866,1.547,0.9101
2835,-0.6832,0.847,0.7441,0.3912,-0.1476,-0.006
2848,-0.6744,0.8565,0.734,-0.2042,-1.0637,-1.1357
2861,-0.6612,0.8714,0.7345,-1.3951,-0.7278,-1.1205
2873,-0.6598,0.8772,0.7348,-2.9676,0.3867,-0.693
2915,-0.6932,0.8697,0.7414,0.2538,1.9592,0.8185
2928,-0.6893,0.8533,0.7397,-1.2576,0.3256,0.8337
2940,-0.6803,0.8555,0.7455,1.7958,-0.8499,0.4826
2954,-0.6588,0.8558,0.734,0.2385,-0.7889,0.2078
2966,-0.6407,0.8606,0.7194,-1.8378,0.631,-1.2273
2979,-0.6617,0.8765,0.734,-1.4561,1.7913,0.3605
3020,-0.6908,0.8582,0.7472,2.666,-0.3156,0.2536
3033,-0.6781,0.8794,0.737,3.2614,-1.3385,1.2612
3046,-0.6493,0.8677,0.7238,0.6813,-0.5446,0.391
3059,-0.6393,0.8619,0.7135,-2.6164,0.7684,-0.9373
3072,-0.6644,0.8738,0.7353,-3.0897,2.0966,0.162
3085,-0.6793,0.8638,0.7477,-2.6164,1.8829,1.2002
3126,-0.6656,0.8714,0.7296,2.2385,-0.5446,0.391
3138,-0.6461,0.8833,0.7204,0.1469,0.0661,0.9406
3151,-0.6534,0.8636,0.7257,0.1622,0.9821,0.0704
3164,-0.6761,0.8746,0.7419,-0.2806,1.7455,0.162
3177,-0.6878,0.8728,0.7414,-0.0363,1.1348,0.0856
3190,-0.683,0.8746,0.7416,0.6813,0.3562,0.0551
3231,-0.6566,0.8663,0.7348,0.9103,2.3256,0.7879
3244,-0.6725,0.8567,0.7377,2.3454,2.8295,0.2841
3256,-0.6864,0.8702,0.7392,1.7653,1.4707,0.4673
3270,-0.6761,0.8768,0.7379,0.3912,0.8295,0.8032
3282,-0.68,0.8758,0.7382,1.5362,0.5547,0.5742
3294,-0.6629,0.867,0.7375,1.7805,0.9821,0.4368
3336,-0.6932,0.8899,0.7333,2.4981,1.3485,1.078
3349,-0.692,0.8829,0.7467,3.124,0.4478,2.3299
3362,-0.6798,0.8562,0.7326,3.979,-0.5446,3.5513
3375,-0.6788,0.8733,0.7399,6.1622,-0.7278,3.7498
3388,-0.6444,0.867,0.7206,1.4294,-0.8499,0.9864
3401,-0.6571,0.8877,0.7267,0.2996,0.6768,-0.2502
3442,-0.6918,0.8826,0.7311,-0.9523,0.4631,-2.006
3456,-0.6822,0.8599,0.7382,-0.8149,-0.3156,-1.1205
3468,-0.6781,0.8653,0.7377,1.1851,-0.8041,-1.4105
3481,-0.6715,0.887,0.7262,2.3301,-0.7125,-0.2808
3494,-0.6588,0.8714,0.726,-0.0057,-0.056,0.8337
3507,-0.6654,0.8707,0.7326,0.5591,0.7684,-0.0976
3548,-0.6463,0.8477,0.7035,12.5897,3.5928,2.1925
3560,-0.6983,0.9024,0.7441,8.8798,2.6005,3.5666
3574,-0.6847,0.8636,0.727,-0.6317,1.318,-0.006
3587,-0.7025,0.875,0.7406,-2.876,0.7989,-0.8762
3601,-0.6805,0.8641,0.7426,-1.6088,-1.0179,-0.1739
3613,-0.6651,0.8726,0.7333,-0.2195,-0.911,-0.6624
3654,-0.6771,0.8821,0.7301,1.7958,0.9211,0.9253
3666,-0.6795,0.8772,0.7316,1.0172,0.6157,0.6047
3680,-0.671,0.8636,0.7323,-0.479,-0.0713,-1.2579
3693,-0.6739,0.8816,0.7262,-0.4943,0.0203,-1.1052
3705,-0.67,0.876,0.7306,0.4065,0.0203,-1.3647
3719,-0.6769,0.8777,0.726,1.582,0.1272,-0.5403
3760,-0.6852,0.8804,0.7279,0.834,0.0356,0.9711
3773,-0.67,0.8711,0.7314,1.8569,0.0508,2.0246
3786,-0.6571,0.8755,0.7218,0.4675,0.631,0.3452
3799,-0.6576,0.8721,0.7221,-0.7538,0.6463,-0.4334
3811,-0.6737,0.8843,0.7353,-0.3722,0.86,-0.9678
3823,-0.6776,0.8934,0.7296,0.4981,0.4173,-0.0365
3865,-0.6747,0.8765,0.7318,-3.792,1.1653,-0.4334
3877,-0.6759,0.8724,0.7331,-2.418,1.4554,0.2383
3890,-0.6908,0.8597,0.7372,-0.4485,0.7073,0.3147
3902,-0.6842,0.875,0.7282,1.292,0.402,0.7421
3916,-0.671,0.8775,0.7311,0.1011,-0.3156,0.2078
3929,-0.6661,0.8802,0.7262,-0.8454,-0.1324,-0.9067
3970,-0.6744,0.8777,0.7272,-1.8683,0.8447,-2.0365
3983,-0.6669,0.8853,0.7279,-2.9828,0.9821,-1.4105
3997,-0.6603,0.8687,0.7284,-2.1126,1.1348,-0.8762
4009,-0.6822,0.8636,0.7482,-1.9447,0.9363,-0.693
4022,-0.6866,0.8519,0.7431,-1.8378,-0.0713,-1.5785
4036,-0.6844,0.8746,0.7343,-0.5248,-0.5598,-1.0136
4076,-0.6678,0.8899,0.7184,-3.9599,0.7379,1.5818
4088,-0.6752,0.868,0.7231,0.8187,1.1959,2.9711
4102,-0.6854,0.8741,0.7272,0.3301,0.402,2.8032
4115,-0.6825,0.8772,0.7443,0.834,-0.7736,2.1467
4128,-0.6664,0.877,0.7267,1.6126,-0.6667,0.8948
4141,-0.6444,0.8636,0.7177,-1.1508,0.7226,-1.1052
4182,-0.6883,0.8814,0.7362,-2.1126,1.1501,-0.6777
4195,-0.6871,0.8667,0.7316,-0.9828,0.3714,-1.0594
4208,-0.6864,0.8865,0.7358,-1.4409,0.173,-0.8304
4221,-0.6676,0.8699,0.7277,-0.8607,-0.1782,0.2841
4233,-0.6583,0.8577,0.7311,-2.0515,0.234,-0.4334
4246,-0.659,0.8843,0.7262,-1.8683,1.2111,0.2536
4287,-0.6886,0.8663,0.7392,1.582,0.0203,0.5284
