time_ms,ax,ay,az,gx,gy,gz
12,-0.6891,0.8218,0.7228,0.1164,0.005,0.0551
24,-0.6827,0.8213,0.7184,0.4981,0.2798,0.3757
36,-0.6839,0.8211,0.7148,-0.021,0.3104,0.1773
48,-0.6893,0.8218,0.7231,-0.0515,0.173,-0.3113
88,-0.6866,0.8248,0.7199,-0.1126,0.5852,-0.6166
102,-0.6881,0.8218,0.7238,-0.5248,0.631,-0.464
114,-0.6888,0.815,0.7179,-2.1737,0.3714,-0.6624
127,-0.6871,0.8213,0.7174,-0.418,-0.1018,-0.5556
139,-0.6913,0.8167,0.7216,0.4065,-0.2392,-0.6166
151,-0.6927,0.8177,0.7201,2.9408,0.0203,0.391
191,-0.6871,0.8125,0.7235,3.7347,0.0661,2.5131
205,-0.7032,0.8311,0.7231,4.1317,-0.7431,3.1238
218,-0.7042,0.8216,0.7333,6.1622,-2.2545,5.475
231,-0.7215,0.8086,0.7575,9.1851,-4.7431,8.9711
244,-0.6944,0.8565,0.7275,14.6507,-9.5522,13.9788
257,-0.6837,0.7757,0.8151,19.5668,-16.9263,9.6124
298,-0.6937,0.7,0.8893,65.9485,-43.598,3.9788
311,-0.5045,0.8208,0.8876,52.1317,-54.8194,-3.7159
324,-0.513,0.7632,0.7716,3.5515,-53.0637,-19.2121
337,-0.4366,0.8267,0.7336,-28.2653,-45.766,-26.8915
350,-0.4098,0.7322,0.6689,-21.5172,-32.9415,-31.5021
363,-0.4823,0.8731,0.58,-30.9828,-13.0179,-38.4029
404,-0.7535,0.8118,0.8532,-10.1279,25.1043,-38.3113
417,-0.9437,0.9419,0.86,-16.4943,12.2035,-22.6319
430,-0.774,0.7962,0.8861,0.0553,1.1348,-24.4029
443,-0.5846,1.013,1.0351,2.3301,-5.0179,-30.4487
456,-0.608,0.9629,0.7438,-13.4409,-7.4911,-36.7388
469,-0.4847,0.7627,1.1032,-35.5172,-15.2163,-38.2808
510,-0.5834,0.7378,0.8764,-3.166,-13.9034,-5.9296
523,-0.6732,0.5911,0.5649,-31.334,-9.9492,-8.3266
537,-0.8431,0.8389,0.1681,-37.3645,-16.5751,-8.8915
549,-0.8316,1.0777,0.8612,-44.4485,-11.1095,5.5818
562,-0.3265,0.9949,0.7016,-5.5935,-17.9797,37.4597
575,-0.6319,0.959,0.8302,-22.0821,-22.1018,40.5284
616,-0.5575,0.3589,0.7453,-66.5248,12.3104,86.6658
629,-0.9107,0.8941,1.1857,-54.0668,18.7531,62.7574
643,-0.9601,0.981,0.4753,-5.105,27.6997,82.162
655,-0.9068,0.3077,0.6369,-74.3263,68.7684,112.513
668,-0.7811,-0.0722,0.724,-21.8073,69.8218,75.9788
681,-0.4115,1.2461,-0.6947,60.5744,76.7989,83.9635
722,-0.6466,0.6228,1.3153,59.1698,37.1959,-7.1205
735,-0.5267,0.5235,2.2782,165.979,20.2493,16.7421
748,-0.452,0.9383,1.8114,218.59,9.8066,-2.4792
761,-0.6993,-0.1916,0.7821,153.322,-11.3232,-37.2579
774,-0.5738,1.8848,0.2404,118.3,-5.5369,-22.006
787,-0.868,1.2398,0.9391,77.521,-6.0102,-15.4258
828,-0.7381,0.9759,0.6664,-1.0134,7.8066,-19.609
842,-0.6964,0.8658,0.5954,-24.2347,-9.995,-25.5785
854,-0.7357,0.92,0.6176,-12.2958,-2.6209,-12.5708
867,-0.7079,0.8416,0.693,-5.9141,-4.9263,-2.4182
880,-0.6727,0.8338,0.7067,-9.5325,-5.9492,3.2154
893,-0.6857,0.8277,0.6982,-10.3111,-4.4682,6.5742
934,-0.6932,0.8423,0.7182,-9.6393,1.6234,5.6124
947,-0.6876,0.8406,0.7155,-1.3493,3.9592,3.994
960,-0.6908,0.8499,0.7008,-5.8073,2.7226,-0.5556
973,-0.6896,0.844,0.7023,-6.1431,0.5241,-3.5327
986,-0.6842,0.8455,0.7072,-11.5935,-1.5827,-6.0365
1000,-0.6866,0.8223,0.7062,-11.7615,-3.0179,-5.9144
1040,-0.6869,0.8218,0.7143,2.5133,-1.2316,-0.464
1053,-0.6898,0.8318,0.7145,-1.2118,-0.3614,0.9711
1067,-0.6893,0.8279,0.713,-1.0439,-0.4377,1.3834
1079,-0.6866,0.8294,0.7116,-2.0668,-0.4224,1.6429
1092,-0.6869,0.8265,0.7079,-0.0363,-0.682,2.5589
1105,-0.6808,0.8335,0.7087,3.9485,-0.5446,2.3605
1146,-0.6918,0.8309,0.7113,-2.8302,-0.1782,-2.6777
1160,-0.6876,0.8331,0.7155,-4.8454,-0.3614,-3.151
1172,-0.6805,0.8333,0.7079,-8.0057,-0.9873,-3.3342
1185,-0.6842,0.8228,0.7101,-7.8683,-1.0484,-3.4105
1199,-0.691,0.8143,0.7165,-6.3111,-1.369,-3.0747
1211,-0.6883,0.8152,0.7113,-3.563,-1.5064,-1.4716
1252,-0.6891,0.8267,0.7082,7.3683,-0.2545,4.5589
1265,-0.6822,0.8333,0.7111,7.521,-0.3461,4.5742
1277,-0.6893,0.8406,0.7182,1.9485,-0.6362,1.8108
1291,-0.6861,0.8313,0.7162,3.9179,-0.7736,1.1696
1304,-0.6815,0.8392,0.7194,2.9561,-0.7125,-0.1281
1317,-0.6886,0.8353,0.7145,-0.7386,-0.7431,-1.3037
1358,-0.69,0.8326,0.717,-0.0057,-0.4072,-0.235
1371,-0.6913,0.8282,0.7165,2.834,-0.5904,0.4368
1383,-0.6839,0.8279,0.7148,2.2691,-1.0026,0.6353
1397,-0.6754,0.8306,0.7145,1.2767,-1.7965,0.8795
1410,-0.6817,0.8362,0.7148,-0.0057,-2.514,0.4673
1423,-0.6915,0.8267,0.7191,1.6736,-2.224,1.3986
1464,-0.693,0.8304,0.7211,-1.166,-0.682,1.5666
1477,-0.6844,0.8313,0.7243,-0.4638,-0.6667,2.1009
1490,-0.6827,0.8311,0.726,-3.6393,-0.6667,1.4444
1502,-0.6837,0.8367,0.7206,-1.1813,-0.6056,0.9253
1516,-0.6857,0.8416,0.7194,-6.2958,-0.9415,-0.4487
1529,-0.6874,0.8353,0.7145,-8.6775,-0.224,-2.067
1570,-0.6837,0.8338,0.7216,-0.3111,0.5547,-2.1128
1583,-0.682,0.8392,0.7172,-0.1584,0.6768,-2.9373
1596,-0.6822,0.8262,0.7145,-2.937,0.3562,-3.8991
1609,-0.6854,0.8274,0.7204,-2.5248,0.2493,-3.4716
1622,-0.6874,0.8201,0.7216,-0.1737,-0.0408,-2.235
1635,-0.6808,0.8182,0.7157,2.9408,0.7531,-0.922
1675,-0.6844,0.8335,0.717,2.4675,0.2035,1.4139
1689,-0.6847,0.8331,0.713,-1.5477,0.2035,-0.9373
1702,-0.6876,0.8269,0.7216,-4.2806,-0.514,-1.838
1715,-0.6886,0.8255,0.7189,-2.9523,-0.4988,-0.8762
1728,-0.6813,0.8252,0.7187,2.6049,-0.0102,1.1849
1740,-0.6795,0.8228,0.7235,3.124,0.0203,1.8566
1782,-0.6878,0.8155,0.7243,-4.4332,2.5852,-1.4563
1795,-0.6827,0.8179,0.725,4.4675,3.7455,1.994
1808,-0.6861,0.8182,0.7226,13.1393,3.8218,5.8872
1821,-0.68,0.835,0.7113,13.353,3.4249,6.7879
1834,-0.6854,0.847,0.7084,4.4828,1.3943,5.4597
1846,-0.6893,0.8348,0.7157,0.4217,0.3104,3.6887
1888,-0.6878,0.8565,0.7099,-3.9447,-1.2316,-4.7693
1902,-0.6896,0.8597,0.7038,-19.9141,-3.4148,-13.5937
1914,-0.6942,0.8357,0.717,-23.3798,-3.9492,-18.6777
1927,-0.6874,0.8072,0.7226,-20.876,-2.7889,-18.922
1940,-0.6759,0.7925,0.7272,-9.5019,-1.1858,-12.2808
1953,-0.6795,0.8033,0.7206,-1.9447,-0.224,-7.1357
1994,-0.6888,0.7984,0.7277,-0.1889,0.8295,1.0475
2007,-0.7235,0.8008,0.7362,9.0782,0.8905,5.3834
2020,-0.6883,0.7835,0.7289,11.5515,0.7226,9.4444
2033,-0.6864,0.8311,0.716,8.8798,1.2722,8.9711
2045,-0.704,0.8333,0.7199,4.6507,0.7226,8.2078
2059,-0.6908,0.8208,0.7228,2.2233,0.4783,5.5971
2100,-0.692,0.8326,0.7204,1.5973,0.0203,-0.6624
2112,-0.6927,0.8252,0.7221,2.9866,-0.1934,-2.3418
2127,-0.6852,0.8218,0.7199,6.2538,-0.8957,-3.3037
2140,-0.6888,0.8301,0.7189,-6.0668,-1.9492,-5.3647
2153,-0.6918,0.8194,0.7187,-10.6622,-2.3308,-5.8991
2165,-0.6842,0.8096,0.715,-10.4638,-1.766,-3.6701
2206,-0.6852,0.8135,0.7206,2.7424,-0.0866,5.4902
2219,-0.6861,0.8123,0.7265,7.292,0.3867,7.1849
2232,-0.6905,0.8177,0.7213,10.6049,0.1424,7.5971
2245,-0.683,0.8235,0.7189,13.2156,0.2035,6.8948
2258,-0.683,0.854,0.7101,11.3072,-1.3537,3.7803
2271,-0.6852,0.8409,0.7184,-4.937,-2.1324,-1.6548
2312,-0.6817,0.8189,0.7301,-0.0668,0.7837,-0.0976
2325,-0.6876,0.8135,0.7253,1.4599,1.1348,1.4902
2337,-0.6881,0.8252,0.7172,2.2691,1.1806,2.5742
2351,-0.6893,0.826,0.7253,0.6202,0.6921,2.6047
2364,-0.6822,0.8316,0.7216,-1.4409,-0.0102,1.0933
2377,-0.6793,0.8301,0.7204,-4.7538,-0.514,-0.5556
2418,-0.6852,0.8272,0.7179,0.7424,0.86,0.1467
2431,-0.6852,0.8262,0.7189,0.2385,1.2722,-0.1281
2443,-0.6908,0.8206,0.7233,0.2385,1.3638,-0.1128
2457,-0.6861,0.8186,0.7235,5.6889,1.5165,1.5666
2470,-0.6805,0.8206,0.7206,5.582,1.1348,2.2689
2483,-0.682,0.8223,0.7201,5.7042,0.6005,3.933
2523,-0.6817,0.8316,0.7213,4.5591,0.5547,4.1773
2536,-0.6827,0.847,0.7213,1.9179,0.3562,1.704
2550,-0.6815,0.8431,0.7201,-2.3569,0.0661,-1.2731
2563,-0.6866,0.8291,0.726,-5.4714,-0.2545,-2.5708
2576,-0.6852,0.8145,0.7211,-1.4103,0.0508,-0.7693
2589,-0.6786,0.8199,0.7216,1.8569,0.0814,1.5818
2630,-0.6805,0.8331,0.726,-2.5096,0.402,-0.525
2643,-0.6844,0.8323,0.7191,-5.2882,-0.224,-0.7235
2656,-0.6842,0.8289,0.7204,-3.3187,0.3409,0.2536
2669,-0.6837,0.8289,0.7255,-0.6928,0.4173,1.5666
2681,-0.683,0.8289,0.7255,2.6813,0.3256,1.7956
2694,-0.6881,0.8392,0.7213,-0.8454,0.005,0.4979
2736,-0.6859,0.8289,0.7243,-2.7538,-0.0713,-1.6243
2749,-0.6839,0.823,0.7177,-1.2424,0.1424,-1.4411
2761,-0.6747,0.8252,0.7272,-0.7538,0.1882,-0.922
2774,-0.6822,0.8228,0.7201,2.666,0.6463,0.8948
2787,-0.6849,0.836,0.7201,0.5744,0.402,0.9559
2801,-0.6898,0.8277,0.7299,-0.2958,0.4173,1.2307
2842,-0.6869,0.8243,0.7189,0.7882,0.1882,1.704
2854,-0.6813,0.8252,0.7182,2.6355,0.2493,3.2612
2868,-0.6861,0.8331,0.7196,4.1469,0.1577,3.9482
2881,-0.6869,0.8404,0.7204,1.353,-0.5598,3.3223
2894,-0.6783,0.8326,0.7172,1.1088,-0.4224,3.475
2907,-0.6761,0.8377,0.7204,-1.2271,-0.2698,2.5284
2948,-0.6761,0.834,0.724,-1.8073,0.5394,-1.4411
2961,-0.683,0.8338,0.7165,-1.1202,0.4783,-1.1052
2974,-0.6815,0.8365,0.7255,-5.4103,-0.0866,-2.4487
2987,-0.693,0.8382,0.7262,-5.4256,-0.1934,-2.6472
3000,-0.6869,0.8311,0.7213,-1.4409,-0.0408,-1.3037
3013,-0.6874,0.8299,0.7221,0.2385,-0.2087,0.5131
3054,-0.6776,0.8343,0.7143,-0.6622,-0.285,2.2383
3067,-0.6803,0.8387,0.7216,-1.8378,0.1272,1.0627
3080,-0.6874,0.8362,0.7243,-1.8073,0.631,-0.2808
3093,-0.6849,0.8348,0.7245,-0.1279,0.4631,-0.8456
3105,-0.6876,0.8304,0.7167,-1.4256,0.005,-1.2731
3118,-0.6795,0.8338,0.7184,-1.1813,-0.4682,-0.754
3159,-0.6891,0.8338,0.7267,-0.3569,0.6615,-0.0212
3171,-0.6798,0.8299,0.7253,0.895,0.7989,0.3605
3183,-0.6781,0.8272,0.7228,1.1393,0.4478,0.7421
3197,-0.6844,0.8331,0.7206,-1.1813,0.3409,0.3299
3210,-0.6847,0.8331,0.7235,-2.7386,0.1119,-0.7693
3223,-0.6842,0.8343,0.7194,-3.8836,-0.1476,-1.2884
3264,-0.6854,0.8299,0.7262,3.6736,0.005,0.7727
3277,-0.6815,0.8294,0.7187,1.0782,0.3409,0.6811
3290,-0.6864,0.8304,0.7209,-0.0821,0.2951,0.9101
3302,-0.6813,0.834,0.7179,0.6049,0.402,1.1696
3316,-0.6832,0.8377,0.7216,1.4294,0.402,1.3986
3329,-0.6881,0.8404,0.7194,-0.2653,-0.0713,0.62
3370,-0.6839,0.8223,0.7194,-1.7157,-0.1934,-0.9067
3383,-0.6813,0.8287,0.7218,-1.5172,0.5089,-0.6777
3396,-0.6874,0.8343,0.7294,0.3149,0.7379,-0.296
3409,-0.6859,0.8309,0.7243,0.6049,0.4783,-0.6319
3421,-0.6817,0.8365,0.7191,-0.5096,0.0661,-0.3266
3433,-0.6822,0.8343,0.7213,-2.4485,-0.1629,-1.1052
3474,-0.6805,0.8284,0.7238,1.5973,0.4631,0.8795
3487,-0.6839,0.8389,0.7179,0.0095,0.173,-0.5861
3499,-0.6842,0.8272,0.7221,-2.2042,0.2646,-1.6395
3512,-0.6825,0.8282,0.7257,-2.647,0.0661,-1.7311
3525,-0.6795,0.8265,0.7211,-2.3569,0.0661,-1.1205
3538,-0.6844,0.825,0.7253,-1.3645,0.402,-0.3571
3579,-0.6832,0.8309,0.7221,-0.0668,-0.056,-0.0365
3592,-0.6825,0.8269,0.7211,0.9714,-0.1324,0.2536
3604,-0.6847,0.8248,0.7248,1.3988,0.2798,0.1925
3617,-0.6857,0.8279,0.724,2.4523,-0.0102,0.6505
3630,-0.6822,0.8328,0.7209,-0.0515,0.0508,0.8337
3643,-0.6849,0.8269,0.7253,-0.1431,0.0203,0.0093
3684,-0.6844,0.8267,0.7182,-1.4409,0.6463,-0.1586
3697,-0.6832,0.8252,0.727,-1.8683,-0.0408,0.4979
