time_ms,ax,ay,az,gx,gy,gz
13,-0.6605,0.834,0.7633,3.3683,0.6157,3.4139
25,-0.6664,0.8482,0.7685,3.8111,0.0966,3.7192
39,-0.6656,0.8428,0.7621,3.7042,0.3256,2.5131
51,-0.6603,0.8409,0.7668,2.7424,0.5089,1.246
92,-0.6673,0.8401,0.7609,-3.3493,-0.285,-3.3647
106,-0.6612,0.8374,0.7602,-3.2271,-0.1324,-2.9983
119,-0.6607,0.8316,0.7585,-3.7462,-0.1934,-1.7769
132,-0.6617,0.8289,0.7589,-1.1355,0.005,0.9406
144,-0.6598,0.8362,0.7677,0.5439,0.1119,2.2689
157,-0.6659,0.8409,0.7616,0.5286,0.6463,1.5971
199,-0.6647,0.835,0.7702,-1.334,0.005,-0.9831
212,-0.6639,0.8389,0.7636,0.5286,0.2188,-0.2197
223,-0.6666,0.8326,0.7589,1.4294,-0.1018,0.9101
236,-0.6651,0.8401,0.7672,2.208,-0.4377,2.2841
249,-0.6727,0.8465,0.7638,4.8492,-1.0026,4.1009
262,-0.6766,0.8372,0.7677,6.0095,-1.2316,7.3681
303,-0.7147,0.8326,0.8351,27.3988,-7.2163,20.5742
316,-0.6703,0.7579,0.8297,29.9637,-15.0942,15.9635
329,-0.6627,0.7481,0.8605,29.0935,-20.7889,8.7727
343,-0.6476,0.7156,0.8163,15.3988,-26.6362,-8.1281
356,-0.6273,0.8821,0.7843,0.0401,-23.7354,-18.8609
369,-0.6153,0.9288,0.7924,-0.1889,-21.6133,-16.3876
409,-0.5638,0.8746,0.7096,-12.6012,-6.224,-20.7998
423,-0.5885,0.9405,0.7157,-15.9752,0.0814,-18.1892
436,-0.535,0.9644,0.6703,-10.0057,7.9898,-12.922
449,-0.536,0.9439,0.6877,-8.418,17.3638,-7.6395
462,-0.621,0.9344,0.7531,-14.3111,21.5776,-6.1281
474,-0.8565,0.8704,0.9147,-18.6928,12.2798,-9.9296
515,-0.6339,0.8143,0.7726,1.124,0.4478,0.5742
528,-0.6595,0.8445,0.8087,-12.9981,-0.7889,0.6353
541,-0.6766,0.8189,0.7709,-1.3493,-1.2774,4.5589
555,-0.651,0.8362,0.8175,-6.1279,-6.4682,0.4826
567,-0.6407,0.8333,0.8151,-13.2424,-7.0484,-2.3418
580,-0.6439,0.8189,0.8844,-4.4943,-7.8728,-4.067
622,-0.6368,0.8865,0.8244,-15.3493,-6.7125,-6.1281
634,-0.6439,0.7935,0.7868,-23.3493,-7.9797,-8.3418
647,-0.6712,0.8213,0.7961,-12.5248,-5.3843,-4.5098
661,-0.6586,0.8628,0.7494,-16.7996,-4.5904,-1.5021
673,-0.5987,1.0489,0.8141,0.1011,-3.5675,15.2765
686,-0.6573,0.6912,0.7865,-8.0515,-5.3995,0.2078
728,-0.6603,0.6182,0.766,-49.9905,-1.4606,0.62
741,-0.6749,1.1839,0.7633,-4.2653,7.7913,25.2002
753,-0.6109,0.899,0.7504,-2.647,6.0814,17.2002
766,-0.7328,1.5193,0.4674,68.5744,11.5012,43.3376
779,-0.609,0.3843,0.7924,-12.1737,0.3104,-4.3876
792,-0.7281,0.7884,0.7087,-9.792,7.1043,8.2841
833,-0.6468,0.803,0.7074,16.7729,18.1882,16.62
846,-0.5936,0.909,1.017,23.7958,25.0127,32.3299
860,-0.7018,0.7154,0.8244,-7.5325,10.1882,4.6047
873,-0.6051,0.9319,1.0468,43.7195,18.8295,16.2536
885,-0.6307,0.7613,0.9494,25.2004,14.9516,13.246
898,-0.7079,0.6724,0.6464,10.0401,18.005,4.9406
939,-0.6415,0.8291,0.7919,11.7805,13.2569,3.8566
953,-0.7408,0.7832,0.5866,20.2385,11.9134,0.3299
965,-0.6866,0.8091,0.7394,-2.1279,4.3104,-1.2884
979,-0.587,0.7576,0.82,23.0019,11.3485,-0.0976
992,-0.6236,0.8987,0.9276,48.2233,3.2722,-1.838
1004,-0.7352,0.8321,0.7589,7.8569,3.2569,-8.6166
1046,-0.6878,0.6185,0.8029,-5.5935,-4.7278,-16.1434
1059,-0.5826,1.0584,0.5636,21.4446,-7.1553,-7.8686
1072,-0.6388,0.7491,0.675,17.2614,-10.7125,-13.5937
1085,-0.722,0.8067,0.9679,11.582,-14.6515,-14.8609
1097,-0.7015,1.1097,0.7663,10.6965,-7.8118,-13.6243
1111,-0.6119,0.7134,0.7394,-33.1966,-8.9263,-19.9449
1151,-0.6744,0.875,0.7521,-5.7767,0.3256,-2.9983
1164,-0.6678,0.865,0.7589,-0.6622,0.6463,-4.3571
1177,-0.6671,0.8394,0.755,-8.4943,1.715,-6.0518
1191,-0.662,0.8465,0.7597,-9.1355,1.6997,-4.8915
1203,-0.6678,0.8655,0.7526,-7.8225,1.7913,-2.0212
1216,-0.6664,0.8414,0.7621,-11.5019,1.547,0.6505
1257,-0.6634,0.8372,0.7511,-7.3187,1.0127,8.6505
1271,-0.6673,0.8506,0.7541,-5.0134,1.3638,11.4139
1284,-0.6678,0.8626,0.7553,-1.3798,0.3562,12.1162
1296,-0.6629,0.8558,0.7494,-7.0439,0.1119,11.4139
1310,-0.671,0.8555,0.7619,-6.9676,-0.3919,12.4063
1322,-0.6669,0.8526,0.756,-3.8836,-1.1858,14.6505
1363,-0.6588,0.8582,0.7536,-3.4256,-4.3919,10.2994
1377,-0.6564,0.8829,0.766,-3.0134,-2.3766,4.6047
1389,-0.6671,0.8863,0.7768,-3.792,-0.453,-2.5861
1403,-0.6688,0.8733,0.7655,-5.6088,-0.0713,-7.4258
1416,-0.6583,0.8589,0.7472,-3.1202,-0.7736,-7.5937
1429,-0.6571,0.8619,0.7587,-2.5401,-1.7812,-5.7922
1469,-0.661,0.8614,0.7567,5.6126,-0.8041,2.7421
1482,-0.662,0.8692,0.768,6.4675,0.005,2.0704
1496,-0.6571,0.8777,0.7563,5.521,0.1424,0.2078
1508,-0.6595,0.8699,0.7609,0.9103,0.1424,-1.609
1522,-0.6639,0.8592,0.7663,0.437,0.4478,-1.5327
1535,-0.6634,0.8672,0.7614,0.8492,0.3409,-0.3571
1575,-0.6629,0.8685,0.7594,-1.1966,0.1577,-2.4945
1588,-0.6607,0.8692,0.7619,-2.0821,-0.0713,-4.006
1602,-0.6583,0.8682,0.7582,-2.7386,-0.0713,-3.9144
1615,-0.6634,0.8543,0.7585,-1.8989,-0.3308,-2.8762
1627,-0.6578,0.8553,0.7626,1.3988,-0.056,-0.7388
1641,-0.6629,0.8587,0.7597,3.7958,0.234,1.5208
1682,-0.6634,0.8623,0.7624,2.9561,0.1424,1.6582
1694,-0.6632,0.8719,0.7582,1.292,0.1577,0.1162
1707,-0.6627,0.8709,0.7616,0.4981,0.2035,-0.5403
1721,-0.659,0.8655,0.7631,-2.9523,0.3256,-1.0747
1733,-0.662,0.8663,0.7624,-0.9676,0.3867,-0.8456
1747,-0.6659,0.8685,0.7607,-0.3874,-0.3156,-0.9983
1787,-0.67,0.8562,0.7575,0.9103,0.402,-0.235
1801,-0.6651,0.8623,0.7641,-2.2042,-0.0102,-1.0747
1814,-0.66,0.8626,0.7555,-0.3264,-0.5446,-0.2655
1826,-0.6527,0.8628,0.756,-0.4638,-0.224,-0.6472
1838,-0.6603,0.8543,0.7663,0.7576,0.4631,-0.235
1851,-0.6581,0.8487,0.7665,2.8492,1.0432,0.391
1892,-0.6622,0.8599,0.7655,2.3301,0.4173,0.0551
1904,-0.6556,0.847,0.7643,8.8798,1.4554,2.1009
1917,-0.6659,0.8619,0.7614,8.5133,0.9058,1.6734
1931,-0.6549,0.8726,0.7602,5.0935,0.3409,0.4979
1944,-0.6673,0.8677,0.7619,1.5515,-0.0102,-0.1586
1956,-0.6625,0.8763,0.757,-1.2118,-0.8652,-0.4792
1997,-0.6615,0.865,0.7543,-3.4867,-0.1018,-0.9373
2010,-0.6639,0.8604,0.7624,0.0095,0.1577,1.0169
2023,-0.6581,0.8682,0.7597,1.2004,0.2493,1.5055
2037,-0.6586,0.8665,0.7611,0.2385,0.1424,0.2231
2049,-0.6583,0.8704,0.7609,-1.4867,0.005,-0.8609
2061,-0.6625,0.8665,0.7621,-1.8836,0.3256,-2.0212
2103,-0.6586,0.8519,0.7614,2.0553,-0.0866,2.6353
2116,-0.6588,0.8665,0.7619,3.8569,0.6921,3.1849
2128,-0.6669,0.8714,0.7614,4.4828,0.631,2.0246
2141,-0.66,0.8768,0.7653,3.3683,0.6921,0.2231
2154,-0.66,0.8811,0.7609,-0.708,-0.2698,-2.2502
2168,-0.6622,0.8663,0.7607,-3.6393,-0.4835,-3.0289
2208,-0.6625,0.867,0.7602,2.5744,0.3562,1.9482
2222,-0.659,0.8746,0.7599,0.7271,0.2188,0.7116
2235,-0.66,0.8755,0.7607,-2.1737,-0.3766,-1.5785
2248,-0.6612,0.8697,0.7624,-4.5401,-0.3614,-2.6777
2260,-0.6598,0.8633,0.7638,-3.6088,-0.285,-2.7693
2273,-0.6598,0.857,0.756,-1.7767,-0.1476,-1.5785
2314,-0.6627,0.867,0.7577,0.0248,0.6768,-0.3724
2328,-0.6576,0.8694,0.7592,-0.0363,0.1577,-1.4716
2341,-0.661,0.8626,0.7592,-0.7996,-0.1934,-1.4258
2354,-0.6651,0.8589,0.7567,-0.9218,-0.285,-0.9525
2365,-0.659,0.8665,0.7655,-0.4485,-0.1934,-1.151
2378,-0.6617,0.8626,0.7633,-1.0286,0.2646,-0.922
2419,-0.6629,0.8655,0.7629,2.7576,0.3104,0.7727
2432,-0.6559,0.8643,0.7597,0.208,0.1577,0.8795
2444,-0.6627,0.8658,0.7589,0.6813,0.2493,0.6047
2456,-0.661,0.8643,0.766,-0.4943,0.0966,-0.235
2469,-0.6595,0.8643,0.766,-1.7462,0.3256,-0.6777
2481,-0.6629,0.8587,0.7611,-2.6317,-0.0255,-1.4411
2522,-0.6627,0.8641,0.7563,4.7729,0.2035,1.9482
2535,-0.6639,0.8738,0.7607,3.3988,0.7531,0.1314
2549,-0.6615,0.8702,0.7638,-1.5477,0.8295,-2.4029
2561,-0.6568,0.8616,0.7502,-1.5325,1.4249,-3.6243
2574,-0.6571,0.8592,0.758,-0.6164,1.6692,-3.1663
2587,-0.6642,0.8555,0.7582,-1.1202,1.2264,-2.8151
2629,-0.6642,0.8553,0.7626,1.4446,-0.453,1.8261
2641,-0.6634,0.8663,0.7567,1.9027,0.0508,2.2994
2654,-0.6625,0.8685,0.7633,1.2614,0.6615,0.4521
2667,-0.6673,0.866,0.7587,-0.9981,0.3714,-1.2426
2680,-0.6671,0.8648,0.7565,-1.1966,-0.285,-1.6243
2693,-0.6546,0.8611,0.7531,-1.4409,-0.6362,-1.6243
2734,-0.6639,0.8614,0.755,0.8645,0.0356,1.5513
2747,-0.6664,0.8687,0.765,-0.7691,0.0814,1.0017
2760,-0.6615,0.8616,0.7609,-0.418,-0.0866,0.162
2773,-0.6605,0.8626,0.7553,-0.8149,0.1882,0.0398
2786,-0.6554,0.8582,0.7624,2.5591,0.5089,1.8261
2798,-0.6644,0.8602,0.7616,3.0935,0.6768,2.3605
2839,-0.6615,0.8682,0.7582,-0.7386,0.6005,-1.1815
2852,-0.6622,0.8655,0.7587,-2.6164,1.1195,-1.2884
2866,-0.6634,0.8548,0.757,-0.8607,1.2875,-0.4182
2878,-0.6422,0.8411,0.7582,0.437,1.4096,0.5589
2891,-0.6791,0.8677,0.7643,-5.1508,1.3333,-0.235
2905,-0.6637,0.8699,0.7602,-2.6164,0.86,-2.0365
2945,-0.6634,0.8606,0.7619,0.9256,0.2798,1.6734
2958,-0.659,0.8594,0.7553,1.7958,0.4173,1.933
2972,-0.6632,0.8675,0.7528,0.1622,0.5547,1.0475
2984,-0.6612,0.8685,0.7619,0.8798,0.1272,1.0933
2997,-0.6632,0.8582,0.7599,0.437,-0.0408,0.6047
3010,-0.6622,0.8648,0.7504,-0.4638,-0.5598,0.2994
3051,-0.662,0.8709,0.7548,2.5439,0.1882,1.536
3064,-0.6583,0.8694,0.756,0.4675,0.1272,0.0246
3076,-0.6639,0.8675,0.7629,-1.3798,-0.1018,-1.4716
3090,-0.67,0.8633,0.7609,-2.021,-0.1476,-1.2273
3103,-0.662,0.8697,0.7567,-0.9065,-0.1018,-0.9373
3115,-0.6605,0.8553,0.758,1.3072,0.3867,0.3147
3156,-0.6581,0.8743,0.7582,0.9256,0.4631,1.3681
3170,-0.662,0.8728,0.7599,2.0859,0.402,0.5742
3182,-0.6603,0.8675,0.7572,-0.4332,0.1882,-0.693
3195,-0.6625,0.8726,0.7555,-0.5554,0.0203,-1.7769
3209,-0.6612,0.865,0.7614,-1.2729,-0.2698,-1.8686
3222,-0.6625,0.8638,0.7597,0.0401,-0.3156,-0.7693
3262,-0.6561,0.8599,0.7626,-2.25,-0.3156,0.6505
3275,-0.6603,0.8709,0.7607,-1.6393,0.3104,0.2994
3289,-0.6634,0.8714,0.7638,-0.2806,0.4325,-0.296
3301,-0.6607,0.868,0.7604,0.3454,0.3714,-0.6014
3313,-0.6634,0.8711,0.7555,0.6507,0.2188,-0.7235
3325,-0.6649,0.8672,0.7575,0.9408,0.3867,-0.0518
3366,-0.6581,0.8653,0.7621,1.3836,0.3867,0.5437
3379,-0.6632,0.8741,0.7643,-0.7233,0.8295,-0.2655
3391,-0.6571,0.8619,0.755,1.1698,1.0127,-0.1739
3405,-0.6625,0.8692,0.7546,-0.3569,0.6005,-1.0289
3417,-0.6637,0.8736,0.758,0.4217,0.3104,-0.4792
3430,-0.66,0.8614,0.7589,0.3454,-0.3156,-0.0365
3472,-0.6644,0.8687,0.7577,-2.6928,-0.2698,-1.5327
3484,-0.6625,0.8616,0.7572,-3.1508,-0.285,-1.3037
3497,-0.6573,0.8567,0.7592,-1.4103,0.0661,0.3757
3510,-0.6571,0.8628,0.7521,1.6126,0.402,1.0322
3523,-0.6615,0.8645,0.766,0.5591,0.3409,0.7116
3537,-0.6617,0.8687,0.7558,-2.647,-0.3003,-0.8151
3578,-0.6632,0.867,0.7533,-2.0057,-0.1629,-1.0289
3591,-0.6595,0.8616,0.7619,-1.6546,0.4325,-0.6319
3603,-0.6615,0.8536,0.7543,0.4675,0.5394,0.4826
