time_ms,ax,ay,az,gx,gy,gz
8,-0.652,0.7686,0.7965,-0.6317,1.1806,0.6658
49,-0.6546,0.7642,0.8036,0.3607,0.3104,-0.0823
62,-0.65,0.7684,0.8019,0.9103,0.1882,0.1467
73,-0.6537,0.7684,0.8017,0.8187,0.1577,-0.006
86,-0.6544,0.771,0.7973,0.9103,0.2035,-0.5861
98,-0.6512,0.7637,0.7997,0.5591,0.6005,-0.6166
110,-0.6532,0.7662,0.7904,-0.1431,0.7226,-0.067
151,-0.6578,0.7652,0.7997,1.3836,0.7989,1.7192
163,-0.6556,0.7715,0.798,1.0477,0.5852,1.2765
176,-0.6498,0.7657,0.8004,0.0706,0.2035,0.2536
189,-0.6564,0.771,0.7951,-0.2347,0.0661,-0.1434
201,-0.6556,0.7659,0.7975,0.1927,0.3409,0.1925
213,-0.6549,0.7684,0.7941,1.7347,0.0356,0.5437
254,-0.6583,0.7686,0.8087,-0.0363,0.7531,-0.754
267,-0.6603,0.7693,0.8083,-0.7538,2.5089,2.4368
280,-0.6756,0.7515,0.8244,-7.0744,6.6005,12.5131
293,-0.6571,0.7408,0.852,7.1393,9.9745,25.933
306,-0.6398,0.698,0.9408,18.3607,5.6386,33.2765
319,-0.672,0.743,0.8942,22.7882,2.3714,32.1162
360,-0.6263,0.9136,0.9936,8.8492,-20.514,2.3757
373,-0.5714,0.8577,1.0002,4.1775,-21.1553,2.1009
386,-0.5528,0.8448,0.9713,-2.1889,-19.9492,-0.754
399,-0.5641,0.7911,0.9469,-12.1431,-16.1782,-6.9831
413,-0.5316,0.8245,0.8925,-17.9752,-12.6515,-9.3342
426,-0.5477,0.8304,0.8588,-23.792,-7.3843,-10.4334
466,-0.5499,0.7674,0.7462,-22.5554,3.5165,-13.838
479,-0.5431,0.7247,0.6803,-19.4867,11.4402,-12.8151
492,-0.5209,0.7276,0.685,-21.7309,16.5699,-11.4869
505,-0.5743,0.7322,0.6733,-19.8378,21.0432,-7.8991
519,-0.5821,0.6551,0.6357,-16.937,23.0127,-11.3037
531,-0.5934,0.7373,0.5732,-10.0363,29.1043,-14.0823
572,-0.6366,0.8497,0.4809,-6.3874,44.9058,-4.7235
585,-0.6676,0.8782,0.3593,-9.2118,52.6463,-3.6395
599,-1.5057,0.8589,1.0873,-5.105,18.5241,-0.7846
611,-1.1891,0.7486,0.6552,-23.334,-18.682,-8.067
624,-0.7516,0.9234,0.3695,-21.9752,14.4173,3.1544
637,-0.8641,0.7386,1.0714,4.3454,1.089,-15.1815
679,-0.722,0.8453,0.3844,-9.792,14.3562,5.8719
691,-0.5873,1.3047,-0.0379,12.9103,13.1348,21.3681
704,-0.858,0.7759,0.5114,-15.0286,-5.827,13.5666
717,-0.7174,0.8755,0.7472,-28.6012,1.1195,2.2231
730,-0.7662,0.7806,-0.4991,27.1546,7.6692,8.4521
743,-0.6876,0.4344,1.5148,13.6889,-15.4148,-8.4029
784,-0.6385,0.4427,1.623,9.6736,-7.6591,0.6047
797,-0.4154,0.5076,1.7868,-1.0592,7.5165,-13.5785
810,-0.5856,1.0008,1.1081,21.2767,-5.995,-8.7693
823,-0.745,0.3714,0.953,9.9943,-15.995,-8.9678
837,-0.5687,-0.2019,1.5504,50.437,-20.5598,-4.5098
849,-0.7503,0.438,0.6134,20.8034,-4.4835,2.6811
890,-0.6063,0.7342,0.8495,0.3301,5.5012,-3.1052
903,-0.6422,0.7254,0.9218,-11.8989,17.6539,1.8719
916,-0.6786,0.6983,0.8254,-19.4103,12.2493,5.5055
929,-0.5755,0.7044,1.0719,10.6355,4.8295,23.4139
942,-0.5697,0.6382,1.1388,7.9179,-3.369,28.8337
956,-0.6842,0.5411,0.9066,22.0706,-17.2163,23.8414
996,-0.6019,0.8299,0.7621,0.1011,-21.4453,4.7269
1009,-0.578,0.8086,0.8019,-17.0439,-12.224,-4.9525
1023,-0.6039,0.8213,0.8051,-24.5401,-5.6744,-8.5861
1035,-0.6293,0.8501,0.8122,-25.9447,-3.3385,-6.4029
1048,-0.6097,0.8504,0.7367,-29.4103,0.4631,-2.6472
1062,-0.6068,0.8304,0.6816,-35.9752,5.9898,-2.2502
1102,-0.5521,0.7532,0.5673,-44.1889,25.4707,-5.2884
1115,-0.5575,0.7652,0.5614,-42.7844,35.1653,-4.235
1129,-0.5895,0.7561,0.6005,-38.9828,43.6539,3.0322
1141,-0.6437,0.6521,0.6269,-21.7767,45.6692,8.6811
1154,-0.671,0.6763,0.6388,-27.0286,44.2035,4.1162
1167,-1.0731,0.7491,0.9545,-40.5706,6.005,8.5895
1208,-0.7518,0.5498,0.5326,58.4828,5.1195,9.6582
1221,-0.9078,0.5477,0.8886,-21.4103,4.5852,-13.7922
1235,-0.6053,0.3965,0.6676,-7.0897,8.9058,-27.9296
1247,-0.7272,0.5652,0.7521,20.9256,5.089,-19.5327
1260,-0.8316,0.2964,1.0705,18.1775,3.5012,-26.296
1273,-0.7943,0.9607,0.6371,11.8111,10.0356,-7.1968
1315,-0.8028,0.9124,0.5107,21.2156,9.547,-27.3953
1327,-0.8199,0.472,1.3251,14.5439,-3.3843,-23.2121
1340,-0.7235,0.6351,0.7804,21.4446,5.7913,-23.0441
1354,-0.7943,0.6739,0.9291,33.7347,4.6615,-17.7006
1366,-0.4874,0.587,0.2504,16.5591,8.005,-14.7693
1379,-0.8334,0.4815,0.599,32.5439,5.1653,-22.7693
1420,-0.8192,1.0525,0.7611,29.2614,5.7302,-12.235
1434,-0.4427,0.3594,0.3529,-22.5096,-4.4682,-28.5403
1446,-0.8143,1.2066,0.7152,31.979,-5.8576,-3.8075
1459,-0.7494,1.0052,1.1564,31.7347,-2.4224,-4.3571
1472,-0.847,0.8116,1.2428,42.5133,-9.8423,-5.7464
1485,-0.7501,0.8003,0.6076,14.6507,-5.369,-9.0441
1526,-0.7494,1.0257,0.5585,27.8874,-1.2011,18.6505
1539,-0.6048,0.9761,0.713,-19.4256,7.0279,9.6887
1553,-0.6373,0.5743,1.1899,-20.9676,-3.7049,3.9482
1566,-0.5328,1.6419,0.0851,26.8645,-1.2621,26.0398
1578,-0.6686,1.0298,0.8632,-19.8989,-1.5522,29.3528
1591,-0.2735,1.6006,0.3654,48.3607,-8.056,31.6582
1632,-0.6007,0.7535,1.2206,-8.418,-11.766,18.162
1645,-0.6361,0.4624,0.6347,2.1011,-12.3156,15.1391
1659,-0.8734,0.6294,0.7572,-48.1737,-8.9263,0.7269
1671,-0.5548,-0.2646,0.789,-46.479,-3.827,8.7116
1684,-0.5941,-0.163,0.9691,-84.6012,2.0203,17.5513
1697,-0.7467,0.1717,0.8227,2.4828,-2.7889,-8.6624
1738,-0.6903,0.6031,0.7265,3.9027,5.8218,8.3605
1751,-0.6871,0.6304,0.7419,16.5133,2.6463,25.536
1764,-0.6615,0.5801,0.7799,19.353,-0.9873,33.5818
1777,-0.5375,0.3023,0.6642,23.7042,-6.5751,0.2536
1790,-0.4081,0.1963,0.7941,2.3301,-4.8347,-18.4487
1804,-0.8004,0.4693,0.64,29.5973,-1.0942,-7.5021
1844,-0.6925,0.4534,0.8476,53.9027,-9.1095,-33.5785
1857,-0.536,0.5381,0.5378,18.2996,-1.5827,-29.5479
1870,-0.7623,0.9939,0.9843,57.063,-5.827,-19.9449
1884,-0.693,0.6363,0.9362,46.0248,-2.6362,-24.1434
1897,-0.8004,0.4976,0.7941,48.2538,-11.3232,-28.8609
1909,-0.7101,0.9593,0.9987,31.5668,-0.7431,-15.3342
1950,-0.881,0.8045,1.069,46.8034,-8.6362,7.078
1964,-0.5387,0.6526,0.5517,0.0095,-3.9339,-13.0441
1976,-0.6048,0.7947,0.7528,-5.334,-7.9797,-14.0365
1989,-0.5702,0.6573,0.1588,-22.479,3.1653,-19.5632
2003,-0.8351,0.8321,0.9501,30.0706,-12.9568,-15.8227
2015,-0.628,0.6556,0.9374,8.2385,0.2798,-20.1586
2056,-0.67,0.6783,1.2768,3.582,-9.4759,-9.9602
2069,-0.7298,0.9173,0.6444,15.3683,-5.6896,-6.3876
2082,-0.6341,0.7278,0.3988,-14.9065,0.3714,-6.5708
2095,-0.7879,0.6387,1.0522,15.8569,-2.1782,2.5437
2109,-0.8168,0.7271,1.0754,-10.3264,1.776,-4.1434
2121,-0.6434,0.8201,0.6054,-0.5554,-0.9873,-8.5861
2162,-0.5816,0.7832,1.1039,1.7042,-1.6133,11.2918
2175,-0.651,0.5181,0.6921,-39.3035,-0.6209,-0.6472
2188,-0.598,0.4942,0.9198,8.3149,-7.9339,3.4902
2201,-0.69,1.1331,1.0297,13.8721,-9.0026,18.0704
2214,-0.4332,0.8191,0.6967,3.1851,3.4096,28.4368
2227,-0.7386,0.9053,0.8669,-55.3187,-1.0484,6.7116
2269,-0.3978,0.784,0.8134,-25.4714,-12.6515,17.4292
2281,-0.7301,0.5276,1.2372,-63.5019,-2.8957,21.0475
2294,-0.6273,0.4119,0.5573,-17.6699,-7.9034,11.307
2307,-0.3866,1.1275,0.4504,6.3607,-15.5064,8.6811
2320,-0.6156,1.087,0.6427,21.6889,-8.1629,14.9406
2333,-0.7643,0.5411,0.9721,-9.9752,-11.7354,6.6505
2374,-0.6744,0.7352,0.7921,4.208,-1.1705,-13.8991
2387,-0.6539,0.698,0.7685,6.9714,-1.2011,1.4139
2401,-0.6798,0.6988,0.7856,22.5744,-2.0255,16.4979
2413,-0.6402,0.7242,0.7675,26.5744,-1.6286,23.2307
2426,-0.6625,0.7564,0.7821,25.2309,-2.056,21.7192
2439,-0.6661,0.7747,0.7851,24.4217,-2.9568,17.9635
2480,-0.6639,0.7774,0.7846,2.5897,-1.2774,-5.0441
2493,-0.6605,0.7701,0.7868,-0.2958,-1.5064,-7.1357
2506,-0.6571,0.7559,0.7826,-0.2806,-2.1782,-5.2121
2519,-0.6625,0.7515,0.786,1.063,-2.514,-0.6319
2532,-0.6632,0.7532,0.7895,7.6431,-2.3766,5.6582
2545,-0.6642,0.761,0.7824,10.6355,-2.8652,10.4063
2586,-0.6546,0.7989,0.7829,7.5057,-2.7431,5.8719
2599,-0.65,0.7837,0.7917,2.4217,-1.6286,2.6658
2612,-0.659,0.7786,0.7975,0.5744,-1.3385,1.6429
2625,-0.6542,0.783,0.7909,-0.6317,-1.0331,1.246
2639,-0.6603,0.7815,0.7968,-1.3798,-0.5446,0.6505
2651,-0.6593,0.7842,0.7853,-2.3416,0.1424,-0.0212
2692,-0.6566,0.7825,0.7868,-0.1279,-3.0331,-1.7311
2706,-0.6564,0.7779,0.7941,-1.1966,-3.4911,-1.9449
2718,-0.6517,0.7728,0.8024,-0.3569,-2.5446,0.4826
2731,-0.6534,0.7781,0.7921,-0.1431,-1.1705,1.9177
2744,-0.6549,0.785,0.7956,0.437,-0.8194,2.2231
2757,-0.6566,0.7857,0.789,-0.8149,-0.6515,0.3299
2798,-0.6568,0.7808,0.8002,-2.2806,0.631,-1.0441
2811,-0.6586,0.7832,0.7961,-1.7157,0.234,-1.0441
2824,-0.6556,0.7806,0.7912,-1.3187,-1.0026,-0.922
2837,-0.6581,0.7725,0.7946,0.5133,-1.9339,-0.6472
2850,-0.6493,0.7767,0.7917,0.7424,-2.2087,0.1467
2863,-0.6537,0.7713,0.7958,1.1851,-2.1171,0.62
2904,-0.661,0.7759,0.7929,-2.6164,1.318,2.162
2917,-0.6564,0.7791,0.7934,-2.0668,1.1653,2.6047
2930,-0.6566,0.7801,0.798,-2.876,0.9058,3.4444
2943,-0.6527,0.7757,0.7912,-4.5706,0.3256,2.8795
2956,-0.6522,0.7852,0.7934,-5.7309,0.1424,2.0398
2969,-0.6566,0.7815,0.8009,-7.9599,-0.285,-0.3113
3010,-0.6542,0.7754,0.7917,-4.8302,-0.8652,-5.4258
3024,-0.6539,0.7679,0.7863,-2.021,-0.5446,-3.0136
3035,-0.6505,0.7676,0.7958,0.1469,-0.1324,0.1009
3049,-0.6537,0.7723,0.7939,-0.25,-0.0713,1.2307
3062,-0.6578,0.7742,0.8061,-0.6928,0.0203,0.8337
3075,-0.6554,0.7747,0.7965,-1.8073,0.7989,-0.5098
3116,-0.6537,0.763,0.799,0.8798,0.3256,-0.5403
3129,-0.6559,0.7688,0.7951,1.7653,-0.0102,0.6811
3142,-0.6534,0.7725,0.7948,3.2156,-0.4224,1.2765
3155,-0.65,0.7732,0.7948,0.9714,-0.7278,1.8108
3168,-0.6581,0.7742,0.7951,0.5133,-1.1858,1.475
3181,-0.6488,0.7757,0.7946,1.2309,-1.2011,1.0169
3222,-0.6576,0.7771,0.798,1.5668,1.0127,0.6811
3235,-0.6551,0.7732,0.8004,2.3607,1.2264,0.5742
3248,-0.6559,0.7769,0.7958,2.7882,0.6768,0.5131
3260,-0.6576,0.7762,0.7948,0.5897,0.3256,0.6505
3273,-0.6588,0.7779,0.7973,0.1775,-0.4988,0.1467
3285,-0.6534,0.7781,0.7973,-0.2347,-1.0942,-0.3876
3326,-0.6549,0.7698,0.7912,-0.7538,-0.4072,-0.2197
3339,-0.6564,0.7759,0.7963,0.3454,0.2951,0.5437
3351,-0.6527,0.7708,0.799,0.2691,-0.1934,1.0475
3364,-0.65,0.7676,0.7965,-0.4485,0.2646,2.2078
3377,-0.6564,0.7754,0.797,1.1851,0.5852,3.6887
3390,-0.6537,0.7789,0.7919,2.8645,0.5547,4.0398
3431,-0.6593,0.784,0.798,0.5439,-0.2392,0.6505
3444,-0.6576,0.7884,0.8012,-2.0363,0.4325,-0.6777
3457,-0.6564,0.7789,0.7992,-2.1431,1.0279,-1.2579
3470,-0.6583,0.7752,0.8002,-1.7309,0.4631,-1.1663
3483,-0.6573,0.7764,0.7902,-0.8454,-0.4835,-0.5403
3496,-0.6549,0.7703,0.7912,1.1851,-1.2927,0.7269
3537,-0.6524,0.7832,0.8046,2.5744,0.2646,2.1925
3550,-0.6527,0.7806,0.7968,0.7729,0.7379,2.5437
3563,-0.6503,0.782,0.7917,0.0859,1.318,1.994
3576,-0.6564,0.7915,0.797,-0.5554,1.3027,0.7269
3589,-0.65,0.7852,0.7943,-1.0286,0.9974,-0.3876
3602,-0.65,0.7735,0.7926,-1.3798,1.3333,-0.8151
3642,-0.6546,0.7813,0.7985,1.5057,0.2951,1.8872
3655,-0.6544,0.7835,0.8036,2.7882,0.0508,2.7574
3669,-0.652,0.7876,0.7951,2.1775,-0.0408,2.4063
3682,-0.6512,0.7894,0.7973,1.3378,-0.3614,0.8795
3695,-0.6524,0.7886,0.7931,-1.1813,-0.4835,-0.8609
3708,-0.6595,0.7869,0.7912,-1.9599,-0.7736,-2.4792
3749,-0.6507,0.7771,0.7963,0.0248,0.6157,2.1467
