time_ms,ax,ay,az,gx,gy,gz
9,-0.6606,0.4619,0.6777,-0.5942,-0.2385,-1.5738
21,-0.6586,0.4558,0.6758,-0.2736,-0.3149,-0.673
33,-0.6564,0.4531,0.6782,0.3676,-0.437,0.1667
44,-0.6593,0.4529,0.679,0.9936,0.2806,1.0216
86,-0.6581,0.4614,0.6775,0.0623,0.9828,-0.2761
99,-0.6618,0.4636,0.6814,0.3523,0.25,-0.3677
112,-0.6567,0.4612,0.676,0.8867,-0.2996,-0.444
124,-0.6601,0.4582,0.6753,0.1081,-0.4675,-0.5967
136,-0.6591,0.4602,0.6765,0.4592,-0.5897,0.2888
149,-0.6569,0.4614,0.6775,0.1081,-0.2385,0.0598
189,-0.6581,0.4585,0.6777,0.4745,1.0592,0.4873
201,-0.6632,0.4602,0.676,0.7035,1.2729,-0.0318
215,-0.6579,0.4609,0.6772,0.2913,1.3187,-0.4135
228,-0.6562,0.4585,0.6853,-0.0751,0.9523,-0.383
240,-0.6603,0.4578,0.6794,1.1615,0.9981,0.1361
253,-0.6581,0.4553,0.6785,1.0546,1.2424,0.9147
294,-0.665,0.4597,0.6831,-1.1438,0.6164,1.9987
307,-0.6645,0.4575,0.6804,-2.9606,0.5859,1.6934
320,-0.6674,0.4768,0.6819,-6.1209,0.708,0.3041
333,-0.6784,0.4885,0.6965,-18.9301,1.2577,-3.6349
347,-0.6515,0.488,0.8303,-29.4797,-7.1088,-2.5204
360,-0.7497,0.4087,0.5784,-35.8919,-16.1622,17.8766
400,-0.6154,0.5625,0.6843,-3.1896,-41.8874,25.8155
413,-0.5834,0.6736,0.7629,-16.0446,-38.9714,31.8155
426,-0.5441,0.6316,0.6313,-23.3881,-37.5362,46.014
440,-0.5544,0.5161,0.7104,-33.8309,-28.4828,29.6628
452,-0.588,0.5693,0.751,-42.2278,-29.9943,22.0598
465,-0.6232,0.5874,0.7883,-48.4721,-30.4828,23.785
507,-0.5329,0.4436,0.6865,-47.3576,-28.208,23.2506
520,-0.529,0.3311,0.6909,-48.1973,-20.208,16.0598
533,-0.5402,0.2773,0.6999,-38.6553,-16.8492,3.4338
545,-0.5746,0.2593,0.731,-32.4568,-11.979,-5.9402
558,-0.5998,0.2949,0.769,-21.5103,-11.9637,-10.902
571,-0.5817,0.3784,0.7654,-11.9225,-11.9485,-10.5662
613,-0.6535,0.4006,0.8081,-19.3423,-15.3225,-14.2914
625,-0.6332,0.4126,0.7268,-8.808,-14.5591,-14.0776
638,-0.6054,0.4905,0.719,-12.2584,-13.75,-17.2685
651,-0.5417,0.4644,0.6755,-15.4797,-3.353,-19.0089
664,-0.5905,0.4419,0.6472,-25.3729,4.6317,-20.1234
678,-0.8927,0.5752,0.7983,-22.0904,-6.2843,-18.9784
718,-0.7983,0.209,0.4761,-12.8538,11.0744,-17.8028
731,-0.8075,0.3586,0.4028,42.4745,35.792,13.0216
744,-0.5973,0.3359,1.1645,76.2607,54.6775,40.9453
758,-0.5321,0.5601,0.6326,24.6882,57.9905,49.0216
770,-0.4836,0.3613,0.8794,35.7874,52.0515,22.6247
783,-0.5424,0.6428,0.5749,3.7111,50.418,40.2277
824,-0.7087,0.4656,0.3389,15.5584,22.8912,27.9987
837,-0.7113,0.4985,0.6118,14.6577,27.5477,16.8384
850,-0.5961,0.3718,0.7834,-4.6095,8.937,11.9987
863,-0.5995,0.3435,0.9194,-7.7393,9.9141,9.5102
876,-0.611,0.3745,0.7439,-8.8843,11.1202,9.2659
889,-0.6491,0.3496,0.9006,-13.3576,-2.5897,2.0598
930,-0.5607,0.4932,0.7534,31.1615,-44.1011,-0.0624
943,-0.5539,0.5322,0.6787,28.3371,-40.8492,-3.1005
956,-0.54,0.5896,0.6592,30.3829,-32.6507,-3.0547
970,-0.5448,0.5815,0.6934,16.9172,-24.1622,-4.673
982,-0.5832,0.5852,0.7078,4.4134,-18.5133,-8.5814
995,-0.5956,0.5642,0.7131,-7.8614,-14.6965,-12.3982
1037,-0.4721,0.1829,0.7412,-19.037,-32.4981,-35.2227
1049,-0.8388,0.1672,0.5959,-16.3194,-18.0706,-30.0165
1062,-0.4933,0.2092,0.8362,-18.9148,-18.6049,-22.0318
1075,-0.7619,0.4167,0.6658,-16.5484,-19.9637,-12.3219
1089,-0.6899,0.4495,0.5041,13.3752,-13.1698,-26.2456
1102,-0.7428,0.2139,0.8567,11.3294,-8.7118,-22.3372
1142,-0.6103,0.4351,0.7356,-28.7316,-2.4065,-11.2685
1155,-0.7438,0.6953,0.7051,-29.6782,-2.6507,-4.7341
1169,-0.6686,0.6411,0.6812,-25.6629,0.5706,-8.8257
1181,-0.6523,0.4922,1.094,9.7416,12.3416,-13.7875
1194,-0.7506,0.5754,0.479,3.1004,17.1966,-3.986
1207,-0.6586,0.4299,0.7234,8.3981,17.6241,-0.8257
1248,-0.591,0.3389,0.9646,-1.8614,12.2348,14.7773
1261,-0.588,0.5549,0.3525,13.7722,15.4409,40.4415
1274,-0.3803,0.7681,0.6877,26.1233,3.3035,42.6247
1287,-0.6916,0.4321,0.4717,18.8256,-0.0248,3.7697
1301,-0.642,0.3987,0.7593,-2.1057,-1.9943,-13.07
1313,-0.8625,0.2742,0.6418,-18.4568,2.5859,36.5025
1354,-0.6147,0.4529,0.7493,8.9783,-0.4065,8.5025
1366,-0.6293,0.3369,0.7092,3.589,1.8073,8.1056
1380,-0.6308,0.4468,0.7329,10.0623,3.0897,5.7392
1393,-0.6225,0.4624,0.7368,7.3142,2.7386,3.6323
1406,-0.6247,0.4558,0.7358,3.7111,1.5477,0.6857
1419,-0.6281,0.4568,0.7427,6.2455,1.6699,1.8002
1460,-0.6335,0.4673,0.7346,7.5126,1.4256,6.1361
1473,-0.6254,0.4634,0.7349,6.1386,1.3035,5.9376
1486,-0.6339,0.4341,0.7295,1.8485,0.1126,1.0369
1499,-0.6064,0.1265,0.7546,-15.3881,-0.2538,-21.8028
1512,-0.6037,0.5266,0.8599,3.6958,-3.8721,-12.7646
1525,-0.7043,0.4058,0.5508,-9.2813,2.6317,-6.1998
1566,-0.7621,0.3977,0.4785,-13.098,6.6622,4.6399
1579,-0.5065,0.5259,0.9807,1.8638,10.1279,-8.902
1592,-0.4919,0.5706,1.0271,9.0699,7.8073,-7.6807
1605,-0.6657,0.3955,0.6311,-4.9148,10.8302,-11.2227
1619,-0.6811,0.3145,0.4407,-21.6629,14.2958,-20.3372
1631,-0.5859,0.5322,0.8574,-18.4416,13.563,-12.7799
1672,-0.6664,0.5374,0.6743,-7.1896,13.1966,8.4109
1686,-0.57,0.4917,0.8186,-4.6095,13.4103,11.9987
1698,-0.6672,0.4936,0.7107,-7.6019,16.0363,21.9376
1711,-0.6613,1.0083,0.2727,29.0852,16.418,51.4796
1724,-0.5956,0.593,0.6982,12.0623,2.7386,24.2735
1737,-0.6479,0.2275,0.5674,-4.6858,2.7233,-1.1005
1778,-0.5395,0.2229,0.8098,-8.0446,1.0897,1.098
1791,-0.4526,0.6294,0.8323,-3.3118,-10.9866,32.9911
1804,-0.7238,0.7837,0.5518,18.1233,2.5554,19.4949
1817,-0.6708,0.4465,0.7288,9.7264,6.2348,-6.8715
1830,-0.6029,0.5898,0.8459,16.276,-6.3607,17.8613
1843,-0.632,0.477,0.7085,11.0546,-7.3072,13.1132
1884,-0.652,0.4575,0.6946,2.6577,-1.3225,-0.0013
1897,-0.654,0.4727,0.709,1.2836,-0.834,0.9911
1910,-0.6452,0.4758,0.7122,2.7951,-0.9103,1.5712
1923,-0.6447,0.4836,0.7097,1.9249,-0.8187,0.6705
1937,-0.6481,0.4775,0.7036,-0.579,-1.75,-0.383
1949,-0.6493,0.4751,0.7078,-0.9912,-2.2233,-0.673
1990,-0.6418,0.479,0.7117,0.4592,0.0057,0.8537
2002,-0.6454,0.4829,0.7097,-0.7164,0.479,0.2125
2015,-0.6469,0.4788,0.7114,-1.9683,0.7844,0.4109
2028,-0.6466,0.4773,0.7056,-0.9759,0.7691,0.6094
2040,-0.6393,0.4741,0.7012,-0.7316,1.0744,1.098
2053,-0.6432,0.4746,0.7124,2.734,1.9294,2.014
2094,-0.6513,0.4839,0.7075,2.6882,4.3874,2.3651
2107,-0.6427,0.4814,0.7083,0.6729,4.9065,2.5636
2120,-0.6488,0.4783,0.7061,4.8409,6.3416,4.1972
2132,-0.6496,0.4788,0.7065,6.1691,7.7615,5.0522
2146,-0.6469,0.4871,0.7095,4.4134,9.1355,4.5331
2159,-0.6549,0.4885,0.7019,6.276,10.479,4.9453
2200,-0.6527,0.4897,0.6953,5.1615,14.479,4.5941
2213,-0.682,0.4685,0.7456,11.0088,14.9065,4.1667
2226,-0.6632,0.5044,0.6877,8.2607,17.8989,2.1209
2239,-0.6603,0.4858,0.6846,9.3294,20.1737,1.3117
2252,-0.6635,0.5032,0.6724,13.9707,21.5172,1.3728
2265,-0.6654,0.5068,0.6731,9.4668,21.5477,-0.1234
2306,-0.6725,0.49,0.6548,11.0546,21.0897,-3.7723
2320,-0.6762,0.5012,0.6528,14.8256,19.8378,-3.1769
2332,-0.6784,0.512,0.655,15.3447,18.6164,-3.528
2345,-0.6818,0.5081,0.6553,13.1004,17.8836,-3.7723
2358,-0.6816,0.509,0.6504,8.963,16.1126,-6.1998
2371,-0.682,0.5029,0.6343,6.1386,14.479,-6.9326
2412,-0.6835,0.5022,0.6313,11.0088,8.1431,-3.3601
2425,-0.685,0.5032,0.6362,9.8638,6.0668,-4.2761
2438,-0.684,0.4983,0.6321,9.5432,4.2195,-4.0013
2451,-0.6884,0.5027,0.6313,11.0241,3.6699,-2.7036
2464,-0.6835,0.501,0.6362,11.4974,3.1966,-2.9936
2477,-0.6889,0.5059,0.6396,12.5966,3.5325,-3.5585
2518,-0.6838,0.5012,0.6299,10.1844,2.0821,-5.5585
2531,-0.6842,0.4939,0.6335,9.7416,0.7691,-5.3906
2544,-0.6869,0.4973,0.6313,10.9325,0.2958,-3.3753
2558,-0.6784,0.4971,0.6274,11.6653,-0.5439,-0.7646
2570,-0.6798,0.5066,0.635,12.5508,-1.2004,0.4567
2583,-0.6872,0.5039,0.6357,11.7722,-0.7423,0.0293
2624,-0.6838,0.5127,0.6421,13.4974,0.1737,-0.2761
2637,-0.6828,0.5181,0.6436,11.1004,0.9218,-2.3524
2651,-0.682,0.5129,0.6448,10.5203,1.4714,-3.3295
2663,-0.682,0.5095,0.6301,13.8027,1.9599,-2.383
2676,-0.6899,0.5154,0.6372,15.8333,1.7767,-1.6654
2689,-0.6808,0.5156,0.6353,16.9325,2.5554,-2.1998
2729,-0.6845,0.5164,0.6306,9.0394,0.0973,-7.3295
2743,-0.6916,0.5098,0.6272,8.7493,-1.5362,-6.8715
2756,-0.685,0.5081,0.6387,8.4592,-4.0401,-5.5433
2769,-0.6869,0.5122,0.6333,7.2073,-6.4828,-3.8791
2782,-0.6869,0.5164,0.6367,7.8333,-8.6202,-3.07
2795,-0.6825,0.5166,0.6394,3.421,-11.8416,-4.0624
2836,-0.6835,0.5085,0.6511,-1.9072,-15.8111,-2.9936
2849,-0.675,0.5095,0.6621,-1.4339,-14.5439,-2.1234
2862,-0.6776,0.512,0.6594,-4.1973,-13.2309,-2.902
2875,-0.6723,0.5151,0.6592,-8.2278,-12.0095,-4.215
2888,-0.6664,0.5029,0.6628,-8.8385,-10.1927,-4.4135
2901,-0.6698,0.4963,0.6707,-7.266,-9.292,-3.3448
2942,-0.6684,0.509,0.6731,-5.2202,-5.6126,-1.986
2955,-0.6659,0.4993,0.6692,-8.808,-4.8798,-3.0089
2968,-0.6703,0.4993,0.6738,-6.9912,-3.9485,-2.7494
2982,-0.6672,0.4985,0.6733,-5.7393,-3.2004,-2.2914
2995,-0.6684,0.4929,0.6655,-4.5637,-3.0324,-1.6654
3007,-0.6708,0.4936,0.6709,-4.1057,-3.2004,-1.1921
3048,-0.6669,0.4927,0.6802,-5.4034,-3.1088,-0.9631
3061,-0.6657,0.4888,0.6743,-3.953,-1.8263,-0.4898
3075,-0.6645,0.4915,0.6833,-3.0675,-1.3378,0.3499
3087,-0.662,0.4919,0.6797,-1.0522,-0.834,0.9605
3100,-0.6635,0.4927,0.6719,-0.3958,-0.4981,1.2659
3113,-0.6601,0.4985,0.6741,-0.5026,-0.3759,0.6857
3154,-0.6618,0.4915,0.6787,0.2149,0.3722,0.8384
3166,-0.6654,0.4932,0.6738,1.2836,0.7691,1.1285
3179,-0.6654,0.4949,0.6733,0.9325,0.3416,0.8079
3193,-0.6669,0.4963,0.6738,0.5508,0.1279,0.6705
3205,-0.6676,0.4971,0.6736,-0.1209,-0.0248,0.8384
3217,-0.6667,0.4927,0.6768,-0.7622,0.4485,0.5483
3258,-0.6672,0.5017,0.6694,1.3294,0.6317,2.2125
3271,-0.6667,0.4956,0.6787,1.1768,0.7996,1.9835
3284,-0.6657,0.4988,0.675,-0.2278,0.6317,1.1132
3297,-0.6664,0.4985,0.6738,-0.3042,0.2347,0.4109
3309,-0.6647,0.4927,0.6729,0.2302,0.5554,0.9605
3320,-0.6625,0.4973,0.6733,1.4974,0.4027,1.2201
3363,-0.6691,0.4978,0.6711,-0.4874,0.2958,-0.2608
3375,-0.6613,0.4976,0.6785,-0.4721,0.6622,0.1209
3387,-0.6647,0.4958,0.6719,0.6119,1.2118,1.159
3399,-0.6676,0.4973,0.6763,1.3905,1.1966,1.159
3413,-0.6676,0.498,0.6702,2.3371,0.9523,1.6323
3426,-0.6672,0.5034,0.6687,1.4516,0.0363,0.7163
3468,-0.6681,0.499,0.6726,-0.9301,-0.437,0.2888
3480,-0.6669,0.4985,0.678,-0.0141,0.25,0.7315
3492,-0.6684,0.501,0.6787,0.4134,-0.0401,0.5178
3504,-0.6637,0.4995,0.677,0.1233,0.021,-0.2608
3516,-0.6645,0.4954,0.6694,-0.0751,0.2958,-0.4746
3528,-0.6642,0.4961,0.6746,-0.7622,-0.1317,-0.3524
3569,-0.6652,0.5039,0.6819,1.0699,-0.0095,0.4262
3582,-0.6667,0.5044,0.6765,0.5661,0.2347,-0.3524
3595,-0.6647,0.5,0.6772,-1.0522,-0.1775,-1.2379
3607,-0.6657,0.4968,0.6802,-1.7087,-0.3301,-0.7646
3620,-0.6672,0.4978,0.6768,-0.9606,0.0363,0.9605
3632,-0.6632,0.4976,0.6741,0.734,0.6928,2.243
3673,-0.6664,0.5061,0.676,-0.6248,0.1279,-0.9173
3686,-0.6696,0.4988,0.6787,-2.3652,0.1279,-2.383
3699,-0.6672,0.4983,0.6755,-1.2813,0.1279,-0.9478
3712,-0.6645,0.4961,0.6748,0.2149,0.3111,0.8231
3724,-0.6701,0.4971,0.6785,1.2531,0.3874,2.3193
3737,-0.6686,0.5017,0.6709,1.131,0.1126,2.4567
3778,-0.6632,0.4998,0.6794,-1.1591,0.021,-1.6959
