time_ms,ax,ay,az,gx,gy,gz
13,-0.6532,0.7383,0.7978,-3.7767,0.6615,-0.525
26,-0.6617,0.7381,0.7956,-1.7615,-0.7278,-0.3266
39,-0.6544,0.7393,0.7997,0.4675,-1.6744,-0.2655
52,-0.6578,0.7344,0.8083,2.0706,-1.6744,-0.2655
93,-0.6605,0.7391,0.8061,-0.1431,0.4478,0.2536
106,-0.6534,0.7425,0.7973,0.2691,1.4096,0.4979
118,-0.6503,0.741,0.7985,-0.3264,0.4325,0.0246
131,-0.6542,0.7373,0.7973,0.666,-0.2392,0.7116
144,-0.6534,0.7356,0.7946,1.7347,-0.514,0.9711
157,-0.6556,0.7391,0.8012,1.0782,0.0203,2.1314
198,-0.6639,0.742,0.8063,0.7729,-0.285,1.0169
210,-0.6568,0.7469,0.7943,-1.1813,2.0356,1.4902
223,-0.6522,0.7405,0.7997,-1.7157,2.9211,1.0933
236,-0.6586,0.7359,0.8105,0.6355,2.4631,1.246
250,-0.6769,0.7271,0.8183,4.4065,0.9974,6.9406
263,-0.6742,0.7159,0.8258,9.979,1.6081,16.1772
304,-0.6908,0.6524,0.8964,23.6431,-6.8652,27.5055
317,-0.7181,0.7083,0.9408,28.834,-15.9644,21.8566
330,-0.681,0.7461,0.9223,24.7424,-17.827,17.4597
342,-0.6095,0.8113,0.9076,15.0019,-14.0255,12.7116
355,-0.6039,0.847,0.9176,6.5133,-7.827,7.3986
369,-0.578,0.8221,0.9262,-0.8607,-3.3995,3.0475
410,-0.568,0.8013,0.8957,-12.876,3.6234,-8.296
423,-0.565,0.7823,0.8864,-15.7615,3.1043,-10.7846
435,-0.578,0.7994,0.8566,-15.334,2.2035,-9.2884
448,-0.5621,0.7457,0.8217,-15.8225,3.3027,-8.2655
462,-0.5834,0.7669,0.7748,-21.0134,7.1959,-6.3876
475,-0.5494,0.7813,0.7355,-20.2958,10.7684,-11.8533
515,-0.5939,0.7745,0.7028,-22.1584,28.0966,-5.1205
529,-0.6395,0.7959,0.693,-19.5935,28.005,-2.5098
542,-0.6622,0.8326,0.6645,-19.5783,27.9745,1.3528
554,-0.6593,0.7644,0.5846,-24.3264,29.3027,3.3223
568,-0.6583,0.7435,0.5646,-15.4714,31.2111,1.5513
580,-0.671,0.7137,0.5573,-17.166,33.5776,-4.3266
621,-1.0397,0.9029,0.81,-16.0363,36.5241,-7.6548
634,-1.3544,0.7581,0.9023,6.5286,-19.5828,-13.9449
647,-0.9483,0.6692,0.5866,7.4752,-16.0408,0.9101
660,-0.8651,0.8599,0.1112,3.063,1.9898,3.8566
674,-0.7452,0.6028,0.8022,-16.876,2.6005,-3.6395
687,-0.9288,0.7349,0.6669,3.0477,10.5241,-9.3342
728,-0.8187,1.1153,0.5175,47.1393,-11.14,11.3376
741,-0.6065,0.9126,0.1999,32.3454,-3.995,17.4139
753,-0.7716,0.7998,0.3622,-10.4027,-18.285,3.0169
766,-0.3924,0.4283,0.8134,-23.105,3.0279,16.5895
780,-0.8453,0.8079,1.0973,7.4141,-14.3156,5.4444
793,-0.5157,0.8687,0.1151,-19.8531,1.1195,-9.7159
833,-1.0084,0.711,1.019,8.7882,-20.8957,-16.4182
846,-0.4383,0.6741,1.1896,3.292,1.3943,-2.006
859,-0.5348,0.7029,1.0099,-23.0134,9.3944,3.3834
873,-0.3544,0.6885,1.2409,-8.2653,11.5928,4.8643
885,-0.639,0.7474,0.8017,13.3225,7.1195,1.9024
898,-0.5528,0.7561,0.8991,-2.021,13.6386,7.2918
939,-0.6341,0.6404,0.9472,-13.8989,4.4631,27.4139
953,-0.7367,0.5818,0.9735,-2.0515,-8.4072,28.9864
966,-0.6695,0.4771,0.9521,8.9408,-17.4148,13.536
979,-0.6622,0.594,0.912,11.582,-22.1782,-0.0518
992,-0.651,0.7066,0.8398,9.1393,-22.3156,-8.5403
1005,-0.6144,0.8309,0.7472,-4.6012,-15.1705,-10.693
1046,-0.6263,0.7393,0.7826,-53.6546,-1.1858,-11.2579
1058,-0.6166,0.6871,0.734,-18.0057,0.8142,-9.0594
1072,-0.5516,0.6785,0.6545,-90.9523,2.9669,-20.8151
1085,-0.5045,0.8179,0.5827,-28.5706,13.2875,-10.8151
1098,-0.5355,0.7417,0.5636,-30.0821,22.9211,-8.4792
1110,-0.5655,0.7613,0.5602,-30.9676,31.1501,-8.4334
1152,-1.5416,0.5108,1.1161,-28.2806,-3.0331,6.849
1165,-0.859,0.4722,0.5307,2.0401,-5.6591,24.1009
1177,-0.6153,0.566,0.8102,8.1164,-9.4606,5.3223
1191,-0.7909,1.073,0.3559,11.8416,-2.5751,-8.464
1204,-0.8067,0.9544,0.5177,11.5057,-2.1934,-22.6166
1217,-0.9977,0.8206,0.8866,1.3683,1.8676,-24.6624
1258,-0.7962,0.7444,0.3202,24.7271,-2.4682,-9.7006
1271,-1.0123,0.3995,1.5548,67.4904,-2.8041,-20.9831
1284,-0.5257,0.8208,0.1803,7.4904,2.6768,-29.6853
1297,-0.808,0.668,0.6325,0.6965,0.3867,-28.4334
1309,-0.7391,0.5503,0.36,-4.4943,16.6768,-29.8686
1323,-0.7533,0.6001,0.6588,-1.1508,-0.8347,-23.7769
1364,-0.68,0.6651,0.0932,12.5744,12.4173,-6.9373
1376,-0.6319,0.6912,0.1108,-9.6393,8.2646,-10.6472
1390,-0.7757,0.8484,0.8402,39.1851,-3.4301,-3.4258
1403,-0.6517,1.0198,0.5187,22.4828,-8.7431,-8.1434
1416,-0.7601,0.9451,1.3844,6.1622,-9.0789,0.2383
1429,-0.6217,0.7635,0.9862,3.6431,-1.9492,7.0933
1470,-0.7923,1.7466,0.2099,-21.8531,-9.4301,19.6124
1483,-0.4625,0.8733,1.1466,-4.6317,-13.7812,22.8185
1496,-0.6073,0.9224,0.9721,-25.792,-6.9873,19.8108
1509,-0.8233,0.0462,1.3908,15.3225,-9.4148,18.0093
1521,-0.608,0.9666,0.8703,11.0324,-11.3079,12.3605
1534,-0.9447,0.4678,1.1723,4.3759,-7.8576,25.6276
1576,-0.7557,0.0774,0.6869,-14.6164,-8.3919,7.765
1588,-0.4813,1.0862,0.4911,-68.4943,4.6157,14.0093
1601,-0.4859,0.2439,0.8351,-52.0515,6.173,-10.7235
1615,-0.6991,0.3926,0.6552,-10.021,-4.224,-17.0289
1628,-0.6629,0.42,0.6576,-24.4943,1.9592,-14.8304
1641,-0.628,0.4588,0.7536,-6.6928,-5.9339,-6.7388
1682,-0.5777,0.0328,0.2902,0.4828,-5.4759,-11.5021
1695,-0.576,0.3497,0.3351,-11.2882,3.6539,-16.1739
1708,-0.6383,0.5713,1.0636,-4.6012,-7.3232,-27.7617
1720,-0.3207,-0.1428,0.058,3.7653,8.0814,-36.6624
1734,-0.4393,0.5472,0.6576,46.5439,-3.4759,-36.4487
1747,-0.5294,0.6966,0.2921,58.6355,4.9669,-8.235
1787,-0.263,0.5079,0.4931,36.1011,1.6692,-26.4334
1800,-0.9632,0.5872,0.8017,41.6736,-0.6362,-20.296
1814,-0.8556,0.8426,0.9906,56.3454,-7.4759,-8.9525
1827,-0.6542,0.5152,0.1286,0.2691,12.0203,-1.6701
1840,-0.7921,0.899,1.1195,24.2691,2.8753,1.307
1852,-0.5543,0.771,0.2191,-20.0363,2.5547,-3.8991
1894,-0.7626,0.9827,0.9635,15.5973,-2.9568,-7.4105
1907,-0.7123,1.4307,0.2939,37.7042,-1.3232,6.7421
1919,-0.6656,1.0542,0.9025,9.1698,2.3104,12.9101
1933,-0.5577,0.5267,1.1664,38.1927,5.7608,21.0017
1946,-0.6556,0.8667,0.7077,35.0782,-1.8881,19.7956
1959,-0.6085,1.2876,0.3153,-15.0134,11.5623,28.1773
2000,-0.587,1.3282,0.6737,10.7118,-2.8347,27.475
2012,-0.3734,0.3987,0.4909,-23.4256,1.8066,39.9024
2025,-0.8526,0.8814,1.0109,-6.8149,-2.5446,29.8566
2038,-0.7923,0.2373,1.1193,0.0553,-4.4224,24.0704
2052,-0.5785,1.0049,0.5343,3.9027,-15.0942,33.3834
2065,-0.7728,0.4808,0.6249,-40.7386,-2.2392,18.6811
2106,-0.7359,0.108,0.9562,-27.0286,-8.6667,-0.1892
2119,-0.4964,0.5572,0.5585,-30.25,-8.1018,8.391
2132,-0.4537,0.4151,1.1261,10.9561,-11.1553,6.6047
2145,-0.6358,0.3206,0.6488,-4.3416,-9.1553,-8.2808
2158,-0.631,0.4607,0.807,-0.8149,-15.2316,-30.4334
2171,-0.6559,0.5606,0.7609,-7.8073,-8.4224,-17.4716
2211,-0.659,0.6915,0.7768,16.1622,-8.4072,20.4673
2225,-0.6615,0.7269,0.7961,16.834,-6.3308,22.162
2238,-0.6627,0.7535,0.797,10.5439,-5.7507,15.8108
2251,-0.6586,0.7527,0.8002,4.1927,-3.9339,5.4444
2263,-0.659,0.7466,0.799,0.0859,-2.514,-2.9831
2276,-0.6556,0.7359,0.7926,-4.5096,-2.5293,-9.3647
2318,-0.6576,0.6919,0.8007,-2.2042,-3.2011,-5.8686
2331,-0.6588,0.6963,0.8009,2.5286,-1.8728,0.849
2344,-0.6588,0.7015,0.8,7.3072,-1.9034,5.1696
2356,-0.651,0.7151,0.799,8.4065,-2.1324,5.6887
2369,-0.6498,0.7215,0.8009,6.0248,-2.285,2.5895
2382,-0.6512,0.7293,0.7973,1.5057,-3.1705,-1.8991
2424,-0.6571,0.71,0.8014,0.3912,-1.7049,-1.4258
2437,-0.6568,0.711,0.8039,2.0401,-1.2621,0.1467
2450,-0.6476,0.7127,0.7978,2.7729,-2.3308,1.7498
2462,-0.6483,0.7124,0.8061,1.8874,-2.682,3.0475
2475,-0.6512,0.7159,0.8061,-0.1737,-2.3156,3.0169
2488,-0.6549,0.7171,0.8119,0.3607,-0.7583,2.5742
2529,-0.652,0.7288,0.799,-2.6928,-0.682,0.0246
2542,-0.6537,0.7154,0.808,-0.1584,-1.2011,-0.0823
2555,-0.65,0.7178,0.8063,0.7729,-1.2927,-0.2655
2568,-0.6539,0.711,0.8078,1.1851,-1.1247,-0.4182
2582,-0.6522,0.7161,0.8068,2.0553,-0.453,0.4215
2595,-0.6507,0.7178,0.8026,2.1011,-0.4072,0.6963
2635,-0.6564,0.7168,0.8114,2.6965,0.1577,0.8795
2648,-0.6427,0.7154,0.8031,2.5897,0.9058,1.9635
2661,-0.6468,0.72,0.8009,0.9866,1.9592,1.9482
2674,-0.6568,0.7193,0.8051,0.5744,2.3714,1.5055
2688,-0.6522,0.7212,0.8007,1.3378,1.7455,1.7803
2701,-0.6559,0.7259,0.8026,-0.2347,0.7073,0.7574
2741,-0.6485,0.7251,0.8026,-0.7844,-1.3537,0.3605
2754,-0.6522,0.7229,0.8097,-1.2118,-1.5217,0.4826
2767,-0.6505,0.722,0.8029,-0.479,-1.3995,1.475
2781,-0.6515,0.7178,0.808,-0.0821,-0.8652,2.5284
2794,-0.6583,0.7239,0.8109,1.1088,0.0661,2.4215
2807,-0.6549,0.7261,0.8048,0.2538,0.9211,1.8719
2847,-0.6549,0.7203,0.8041,1.0172,0.7837,1.3223
2861,-0.6429,0.73,0.7997,-0.3874,0.6768,1.5666
2874,-0.6493,0.7256,0.798,0.1317,0.402,0.5589
2886,-0.6529,0.7256,0.807,-1.8225,-0.1476,-0.9831
2900,-0.6573,0.7242,0.8061,-2.5096,-0.3308,-1.5937
2913,-0.6568,0.7205,0.8058,-2.3874,-0.4377,-1.2426
2953,-0.6532,0.719,0.8056,2.1317,-0.0713,3.6429
2967,-0.6551,0.7325,0.8031,4.4675,-0.1476,3.4444
2979,-0.6551,0.7303,0.8026,3.7194,-0.9873,1.8261
2993,-0.6512,0.7349,0.807,0.5744,-0.0713,-0.4487
3005,-0.65,0.7232,0.807,-2.4332,-0.0408,-1.4716
3017,-0.6544,0.7271,0.8034,-2.9828,0.4631,-1.6853
3058,-0.6505,0.7251,0.807,-0.7386,-0.285,1.4597
3072,-0.6556,0.7239,0.8073,2.0706,-0.8805,1.5055
3084,-0.6532,0.7261,0.8105,2.1927,-0.4072,1.1544
3098,-0.6466,0.7276,0.8114,-0.25,0.3562,0.162
3110,-0.6554,0.7234,0.809,-0.2958,0.0966,-0.2197
3121,-0.6512,0.7264,0.8066,0.1011,-0.1324,-0.5556
3163,-0.6551,0.7259,0.8022,3.0477,-1.8118,0.2078
3176,-0.6534,0.7264,0.8014,3.0172,-2.0255,-0.2502
3188,-0.6515,0.729,0.8112,3.2767,-1.2316,0.0398
3202,-0.6505,0.73,0.8141,1.9943,-0.7736,-0.067
3214,-0.6461,0.729,0.8085,-1.8378,0.4173,-1.1205
3228,-0.6549,0.7273,0.8068,-2.8302,1.0737,-1.6243
3269,-0.6544,0.7205,0.8097,2.3759,-0.8957,1.1696
3281,-0.6485,0.7181,0.8036,3.3988,-1.2621,3.0475
3295,-0.6427,0.7229,0.809,1.3988,-0.0408,4.6353
3307,-0.6551,0.729,0.8141,0.5439,0.1424,3.0933
3320,-0.6498,0.7327,0.8066,0.6507,-0.224,1.3223
3334,-0.6473,0.731,0.8046,0.2843,-0.9568,0.3299
3375,-0.6637,0.7242,0.8158,-2.4943,0.0203,-2.1739
3388,-0.6515,0.7234,0.8061,-2.1126,0.4936,-1.6548
3400,-0.6437,0.7205,0.8031,-1.334,0.7226,-0.4487
3414,-0.6488,0.7207,0.8117,-0.1431,-0.4377,1.1238
3427,-0.6505,0.7276,0.8114,2.6355,-1.0942,2.0551
3439,-0.6488,0.7281,0.8048,2.2538,-1.6591,1.3528
3480,-0.6505,0.7288,0.8095,-1.7309,-0.0866,-2.1128
3494,-0.649,0.7225,0.8139,-1.5783,0.4631,-0.9983
3506,-0.6415,0.7198,0.8068,-1.6851,1.1806,0.2841
3520,-0.6478,0.7217,0.8105,-1.5325,0.7989,1.7345
3533,-0.6527,0.7195,0.8073,0.6813,0.5394,3.0322
3545,-0.6476,0.7298,0.8053,1.7194,0.5089,3.6124
3587,-0.6498,0.7366,0.8087,-1.5783,-1.2011,-1.7617
3599,-0.6549,0.7259,0.8141,-0.708,-0.8499,-2.0212
3613,-0.649,0.7259,0.8144,-0.5248,-0.4835,-2.2502
3626,-0.6473,0.7271,0.8056,-1.2729,0.1424,-2.3724
3639,-0.6556,0.7288,0.8063,-0.3722,-0.3308,-1.2273
3651,-0.6471,0.7247,0.8073,0.4675,-1.0179,-0.5708
3693,-0.6485,0.7232,0.809,1.2309,-0.3919,1.2612
