time_ms,ax,ay,az,gx,gy,gz
0,-0.6344,0.6548,0.7478,2.7035,-3.75,2.8384
12,-0.6347,0.6448,0.7554,2.9325,-4.2233,3.9529
25,-0.6239,0.6528,0.7549,4.5661,-4.5591,5.7086
37,-0.6369,0.6394,0.7671,1.6348,-4.7271,5.5712
78,-0.6457,0.6675,0.7673,2.4592,-9.6278,9.556
92,-0.6447,0.6255,0.7815,1.8485,-11.8111,10.4109
104,-0.6484,0.6213,0.7864,2.0623,-14.4828,9.4033
118,-0.6344,0.6511,0.7859,6.276,-15.3988,11.846
131,-0.6225,0.6916,0.7695,7.7264,-15.521,17.0369
143,-0.6415,0.6685,0.7751,7.3447,-16.2843,21.785
184,-0.6278,0.6877,0.7908,0.3981,-25.3072,22.4262
198,-0.5856,0.6748,0.7732,2.0317,-25.7194,23.8002
211,-0.5617,0.6519,0.7747,5.2226,-22.0706,22.8842
223,-0.5563,0.6753,0.7874,7.65,-19.0019,20.5636
237,-0.5656,0.6973,0.8123,8.0623,-17.3836,20.1361
249,-0.5634,0.676,0.7908,9.5432,-15.0172,17.4644
291,-0.5202,0.7319,0.7651,4.7798,-7.3225,8.3651
304,-0.5121,0.7275,0.7852,0.505,-2.666,3.2048
316,-0.5241,0.7488,0.8093,-2.579,1.2729,-0.8562
330,-0.5531,0.7432,0.8118,-6.1515,3.1355,-3.0395
342,-0.5644,0.7388,0.8225,-8.3042,4.6775,-3.9555
355,-0.5722,0.699,0.8149,-7.7851,5.4714,-3.7723
397,-0.5978,0.7148,0.8123,-6.7927,7.0592,-5.0242
410,-0.59,0.7012,0.7886,-7.8919,7.0592,-5.528
422,-0.5922,0.7012,0.8054,-8.3194,7.0286,-6.6578
436,-0.579,0.6887,0.7991,-7.6477,7.166,-6.7799
449,-0.5763,0.6934,0.8037,-7.5866,7.8683,-8.1234
461,-0.5807,0.7004,0.8096,-7.1286,8.5859,-8.5509
503,-0.5932,0.6997,0.7949,-9.7545,9.9294,-9.0395
516,-0.612,0.6802,0.7893,-8.6553,9.4714,-8.3982
528,-0.6181,0.6653,0.802,-7.9072,8.4485,-8.1845
542,-0.6237,0.6553,0.8103,-5.8461,6.8149,-7.3448
555,-0.6132,0.6528,0.7974,-3.2049,5.2271,-6.673
568,-0.6032,0.6648,0.7908,-3.3729,4.647,-6.444
609,-0.6108,0.6719,0.79,-4.4416,4.4027,-6.1845
621,-0.6142,0.6748,0.7827,-4.6706,3.8378,-6.154
635,-0.612,0.6699,0.7903,-3.9988,3.3645,-4.2608
647,-0.6154,0.6602,0.7852,-2.9301,3.0592,-2.7799
661,-0.6198,0.656,0.7961,-2.3194,2.0821,-1.8486
674,-0.6029,0.6555,0.7849,-1.7698,1.6851,-1.986
715,-0.6117,0.6545,0.7917,-1.6782,1.3798,-1.7265
727,-0.6078,0.6545,0.7773,-2.1973,0.9981,-2.5051
741,-0.6164,0.6562,0.7859,-1.7393,0.5706,-1.8028
754,-0.6044,0.6582,0.7798,-1.3881,0.9981,-1.7112
766,-0.6078,0.6672,0.7903,-1.0064,0.6775,-1.3906
780,-0.6076,0.6721,0.7834,-0.4721,0.8149,-0.7036
821,-0.6049,0.6487,0.7844,-1.7087,0.6164,-0.8104
834,-0.6068,0.6414,0.7837,-2.0293,0.6012,-0.8104
847,-0.6066,0.6599,0.7913,-1.5103,-0.1622,-0.673
860,-0.6032,0.6604,0.7869,-1.2813,0.2195,-0.0929
873,-0.6,0.6594,0.7859,-2.8996,0.1279,-0.673
886,-0.609,0.6716,0.7822,-2.7011,0.8912,-0.7952
926,-0.601,0.6509,0.7732,-2.6858,0.7538,-0.7188
940,-0.6056,0.6475,0.7815,-3.9683,0.8912,-0.902
952,-0.6151,0.646,0.7866,-2.6553,0.708,-0.7036
966,-0.6178,0.6433,0.7861,-1.2049,0.2195,0.0598
978,-0.6198,0.6443,0.7832,0.2455,-0.8798,0.5941
992,-0.6147,0.6504,0.7859,2.1997,-1.4141,1.327
1032,-0.5988,0.6702,0.7832,-1.6935,-0.3149,-1.0242
1045,-0.6047,0.6633,0.7847,-1.8156,0.5554,-0.5662
1059,-0.61,0.6621,0.7903,-2.2736,0.647,-0.3219
1072,-0.6117,0.646,0.7859,-1.495,0.021,0.2125
1085,-0.6164,0.6396,0.7788,-0.6553,-0.6202,-0.215
1098,-0.6112,0.645,0.7915,-0.3805,-1.0935,0.9147
1138,-0.5981,0.6626,0.782,2.4592,-1.4599,1.3728
1152,-0.5951,0.6672,0.7759,1.5584,-0.3607,0.5483
1165,-0.5917,0.6663,0.7747,-0.4568,0.0973,-0.4746
1178,-0.6064,0.6497,0.791,-1.4645,0.25,-1.3295
1191,-0.6054,0.6465,0.7886,0.2607,-0.0401,-0.8868
1203,-0.611,0.635,0.7952,0.5203,-0.208,0.2888
1244,-0.6059,0.6548,0.7898,0.6424,-1.1851,0.5331
1258,-0.6105,0.6497,0.7932,0.2607,-2.5591,-0.3677
1271,-0.6156,0.6624,0.7795,0.0928,-2.5897,-0.4898
1284,-0.6076,0.6604,0.7744,0.7187,-2.7729,0.4873
1296,-0.6032,0.6621,0.7683,-0.2431,-2.1317,0.6094
1309,-0.6017,0.6721,0.7788,-2.2126,-1.8111,0.7315
1351,-0.6095,0.6343,0.7979,2.8867,-3.2462,3.1438
1363,-0.5951,0.6663,0.7834,4.1539,-2.9714,3.4796
1376,-0.589,0.6736,0.7866,2.0317,-2.1164,2.5789
1390,-0.588,0.6768,0.7778,-0.2278,-0.9561,1.7544
1402,-0.592,0.666,0.7888,-2.869,-0.3301,1.556
1415,-0.6061,0.6462,0.7969,-2.8538,-0.6202,1.388
1457,-0.6144,0.6626,0.7942,1.2073,-2.6049,3.0216
1469,-0.5981,0.6672,0.7952,1.4516,-2.9256,3.7544
1482,-0.5944,0.6675,0.7981,0.7951,-2.3301,4.243
1495,-0.5807,0.645,0.8027,1.3447,-2.3149,3.9224
1508,-0.5834,0.6631,0.8,2.7187,-1.0477,2.7315
1521,-0.5717,0.6687,0.7913,2.8562,0.1279,1.9224
1563,-0.5976,0.6821,0.7783,-5.7851,4.4332,-3.8639
1576,-0.6066,0.6631,0.7805,-5.4339,5.563,-2.2914
1589,-0.6105,0.6431,0.7803,-3.7545,5.0286,-2.0624
1602,-0.5998,0.6689,0.7971,-2.8538,4.6164,-1.1311
1615,-0.5924,0.658,0.7913,-3.0064,5.0286,-1.4669
1628,-0.5805,0.6763,0.7969,-3.1438,5.9294,-1.4822
1669,-0.5981,0.6677,0.7798,-4.9912,5.4409,-2.0929
1681,-0.6173,0.6255,0.7957,-7.8614,4.9981,-5.6501
1694,-0.632,0.6487,0.7678,-5.8461,3.8531,-6.7952
1708,-0.6464,0.6411,0.7578,-6.2584,1.7462,-5.9707
1721,-0.6222,0.6396,0.7634,-6.411,1.8073,-5.8181
1734,-0.609,0.6265,0.7871,-6.5942,1.7462,-5.2532
1775,-0.602,0.6291,0.791,-3.4492,1.334,-3.3448
1788,-0.5985,0.6624,0.7839,-4.4874,1.7157,-4.444
1800,-0.6025,0.6628,0.7783,-5.6782,2.4332,-3.9707
1814,-0.6071,0.6457,0.7749,-6.4263,3.105,-2.9478
1827,-0.6115,0.6304,0.7734,-5.3881,2.9523,-2.5204
1839,-0.6151,0.6233,0.7847,-5.4339,2.5859,-2.5051
1881,-0.6264,0.635,0.7703,-5.8614,0.7233,-2.6272
1894,-0.6139,0.6221,0.7683,-3.7545,1.2577,-2.0929
1907,-0.6213,0.637,0.782,-3.6324,1.1202,-2.0318
1919,-0.6147,0.6228,0.7832,-3.8309,1.0439,-1.0547
1932,-0.6186,0.6162,0.7891,-2.5942,0.4638,-1.5433
1945,-0.6115,0.6294,0.781,-0.8385,0.4485,-0.9936
1987,-0.6105,0.6294,0.7859,-1.6935,0.7996,-0.9326
1999,-0.6076,0.6233,0.7842,-0.869,0.937,-0.383
2012,-0.6064,0.6143,0.7859,-1.5103,1.0439,-1.3143
2025,-0.6098,0.6169,0.7798,-1.0828,0.6775,-1.0853
2038,-0.6083,0.6208,0.7791,-1.1286,1.334,-1.4364
2050,-0.6017,0.6392,0.7649,-1.7393,1.7767,-2.1845
2092,-0.6161,0.6255,0.7734,-5.2355,3.8531,-3.7875
2105,-0.6112,0.6128,0.7759,-4.7011,3.7462,-3.6807
2117,-0.6049,0.6121,0.7837,-4.5484,3.2424,-3.757
2131,-0.6132,0.6204,0.7761,-4.2278,3.5325,-2.5356
2144,-0.6154,0.6184,0.78,-4.0904,3.1508,-2.2303
2157,-0.6088,0.6235,0.7747,-5.5866,2.479,-1.7723
2197,-0.6271,0.5972,0.7751,-5.0828,-0.4675,-2.6425
2211,-0.6147,0.6006,0.769,-3.8003,-0.1927,-2.1998
2224,-0.6034,0.6069,0.7717,-4.8843,0.1279,-3.4364
2236,-0.6086,0.6248,0.7791,-7.6629,0.8149,-4.5814
2250,-0.6205,0.6201,0.7744,-9.5103,1.0134,-4.0013
2263,-0.6237,0.5979,0.7786,-8.6095,0.2195,-3.3143
2303,-0.6227,0.603,0.7705,-7.7087,-1.7958,-4.0624
2317,-0.6039,0.6077,0.7571,-9.0828,-1.063,-3.1463
2330,-0.592,0.6047,0.76,-11.2965,0.876,-4.7952
2343,-0.5968,0.6003,0.7705,-12.5637,2.021,-5.2685
2356,-0.5851,0.5811,0.7703,-12.7469,3.8683,-7.9707
2368,-0.5873,0.604,0.7917,-16.2889,3.792,-8.4288
2410,-0.6073,0.5483,0.7322,-33.5408,10.7233,-18.0165
2423,-0.6403,0.5518,0.7847,-32.4721,9.5783,-19.1769
2436,-0.6559,0.5471,0.8174,-29.098,6.0057,-19.0089
2449,-0.7751,0.5056,0.8242,-25.8309,1.2118,-19.6654
2462,-0.6794,0.583,0.7249,-13.4645,-1.8263,-17.0089
2475,-0.6608,0.5764,0.7068,-26.0446,-2.1317,-14.8562
2516,-0.7826,0.4966,0.5115,-39.4187,6.1126,-14.5814
2529,-0.6386,0.4856,1.0315,-18.7316,21.2271,-2.3524
2542,-0.6833,0.5496,0.6494,-28.3194,26.2348,9.4949
2555,-0.571,0.4832,1.0845,-21.1591,30.6164,9.7544
2567,-0.6606,0.468,0.4629,-3.4492,21.0286,12.8079
2581,-0.4613,0.208,1.4478,-16.8385,21.7767,12.701
2622,-0.6025,0.4861,0.8889,9.6195,10.2806,18.6705
2635,-0.6012,0.4302,0.8823,26.276,8.9523,21.0064
2647,-0.6188,0.4639,0.811,41.421,11.1813,28.4109
2661,-0.6303,0.4717,0.8032,49.2989,5.1813,24.9911
2674,-0.6835,0.3936,0.9739,51.2378,-15.4752,7.9834
2686,-0.6503,0.5471,0.8435,69.3447,-35.5362,7.9987
2727,-0.5531,0.7261,0.6904,28.1997,-22.3912,3.5102
2741,-0.5656,0.687,0.7043,7.8485,-14.7882,0.7468
2753,-0.5761,0.6438,0.7397,-2.2431,-11.3836,-3.4517
2767,-0.5749,0.5891,0.7234,-7.6324,-7.7042,-8.215
2780,-0.5844,0.5894,0.7222,-10.9301,-4.5439,-10.9784
2793,-0.5985,0.5623,0.73,-16.7469,-1.3378,-13.0242
2834,-0.6374,0.5435,0.802,-20.6706,0.9065,-13.986
2847,-0.6547,0.5142,0.8726,-17.3576,-4.6965,-14.9326
2860,-0.6403,0.5103,0.8413,-8.7469,-7.75,-16.5967
2873,-0.6259,0.5056,0.7502,-7.9683,-10.3301,-17.3295
2886,-0.6564,0.4897,0.7334,-7.495,-9.4904,-19.07
2899,-0.6557,0.5073,0.7073,-12.0141,-7.6889,-8.215
2940,-0.5526,0.3862,0.7957,-16.5484,-6.0095,-27.7723
2953,-0.682,0.5083,0.759,-7.5713,-3.8569,-14.8715
2966,-0.5475,0.158,0.5945,-22.2889,-1.582,-31.1616
2979,-0.6139,0.4714,0.7668,-7.2202,0.6775,-10.1234
2992,-0.6979,0.6365,0.7234,6.1997,-0.666,-8.4135
3005,-0.6923,0.6357,0.6624,1.8791,2.5706,-12.7036
3046,-0.5172,0.5339,0.8723,-23.3881,11.3951,-2.154
3059,-0.6574,0.4812,0.5369,-19.1438,8.9828,-4.9326
3072,-0.5207,0.5186,1.1145,-18.0904,11.0897,-3.6807
3084,-0.6183,0.4985,0.7725,-7.9072,9.0286,6.7621
3097,-0.6005,0.4582,0.9028,7.0088,6.3111,4.7468
3111,-0.6589,0.5122,0.896,3.6348,10.7233,21.6323
3151,-0.5902,0.3435,0.877,3.2836,5.6699,24.1514
3164,-0.5878,0.3022,0.7161,18.3218,3.4103,3.5712
3178,-0.5754,0.5969,0.9031,35.2073,-0.1317,15.1896
3191,-0.6105,0.3921,0.7314,21.65,6.0057,7.3728
3204,-0.6225,0.4956,0.7676,20.3218,2.2806,7.6018
3216,-0.6706,0.5095,0.5845,19.131,0.8454,8.2735
3258,-0.6496,0.5244,0.6948,7.0394,-2.5744,-1.5891
3271,-0.6339,0.4861,0.748,6.3523,0.4027,0.0598
3283,-0.6466,0.5222,0.709,6.4897,1.0286,-2.1082
3297,-0.6562,0.5561,0.6357,6.963,0.0363,-20.612
3310,-0.63,0.3674,0.635,-7.9835,1.0134,-22.1387
3323,-0.6542,0.4382,0.5833,-22.4416,4.5096,-22.5051
3364,-0.5619,0.4592,0.8049,-17.1438,14.25,-13.9402
3377,-0.7509,0.5891,0.5742,-28.3347,8.3874,-8.0471
3390,-0.6213,0.5249,0.7624,-28.411,8.7691,-11.4059
3402,-0.6735,0.4233,0.7417,-19.3729,15.5172,-9.3295
3416,-0.6491,0.5212,0.6921,-25.7545,2.8302,-8.9173
3429,-0.6252,0.5962,0.9414,-13.2965,13.1355,-0.4898
3469,-0.5282,0.6218,0.9697,-6.411,9.7462,13.7697
3482,-0.6515,0.6023,0.6084,6.7493,9.4409,21.4644
3496,-0.6337,0.4958,0.7656,-14.0141,0.6317,4.7621
3509,-0.5834,0.571,0.7114,0.3218,8.6317,23.5254
3522,-0.5981,0.3169,0.7246,-15.4797,2.1584,9.4644
3534,-0.6042,0.1919,0.7063,-6.0599,-1.7042,-4.5356
3576,-0.6178,0.4473,0.6804,4.9783,-4.0706,12.3346
3589,-0.6415,0.7268,0.8423,16.1691,-4.7271,19.4338
3601,-0.6466,0.4351,0.7134,6.7645,-0.0553,1.6628
3614,-0.6571,0.4863,0.7163,0.7798,0.9218,3.556
3627,-0.6515,0.4897,0.7136,1.9249,0.2653,6.6857
3641,-0.6552,0.5002,0.727,1.7874,-0.5439,9.2354
3682,-0.6576,0.4924,0.7458,11.192,-0.1317,18.0293
3695,-0.7204,0.49,0.8296,12.0317,-8.0553,15.7239
3708,-0.7174,0.4907,0.7312,21.9249,-18.0095,11.7392
3721,-0.6672,0.4863,0.7324,30.0317,-19.582,14.2277
3734,-0.62,0.5271,0.7166,29.1004,-20.1775,15.388
3747,-0.6166,0.5278,0.7202,26.4134,-19.0324,15.0369
3787,-0.5834,0.6072,0.7195,11.5279,-9.5515,11.1285
3801,-0.5773,0.6072,0.7273,5.0852,-5.979,8.5025
3813,-0.5971,0.5945,0.7449,0.276,-2.9408,4.6399
3827,-0.6139,0.582,0.7559,-2.8538,-1.5057,2.7926
3840,-0.62,0.5478,0.7561,-2.9454,-1.0935,1.7086
3852,-0.6195,0.5356,0.7532,-0.9148,-0.3149,2.4567
3893,-0.643,0.5522,0.7495,5.5279,-4.1469,6.2888
3907,-0.6305,0.5505,0.7458,6.6729,-4.4217,5.9987
3919,-0.6029,0.5688,0.7354,3.192,-2.8034,4.7315
3933,-0.6059,0.5762,0.748,0.1539,-1.3836,3.327
3946,-0.6183,0.5676,0.7639,-0.579,-0.6813,1.8308
3959,-0.6339,0.5669,0.7681,0.0928,-1.2614,1.6323
3999,-0.6242,0.5554,0.748,2.902,-1.8721,3.0369
4013,-0.6227,0.5625,0.748,1.8333,-1.0172,2.8842
4026,-0.6171,0.5693,0.7478,1.0241,-0.208,2.6399
4038,-0.6225,0.5691,0.7668,0.3523,-0.1164,1.7086
4052,-0.6191,0.5657,0.7561,1.3294,-0.2843,1.0827
4065,-0.6161,0.5769,0.7649,1.4363,0.2958,0.7163
4106,-0.6308,0.5737,0.7693,-0.1057,2.1126,1.2048
4119,-0.6339,0.5564,0.7595,0.047,0.5859,1.2506
4132,-0.63,0.5681,0.7627,2.2455,-0.1622,0.7926
4144,-0.6164,0.571,0.7412,3.5126,0.2347,1.6018
4158,-0.6144,0.5923,0.7546,1.4363,1.3187,1.388
4171,-0.6208,0.592,0.7554,-1.4187,1.9599,0.2125
4211,-0.631,0.5561,0.7615,1.9859,0.479,0.8537
4225,-0.6205,0.5713,0.7539,2.5508,0.7386,1.1743
4238,-0.6161,0.5793,0.74,2.4439,0.5859,1.2354
4251,-0.6249,0.593,0.7461,0.4745,1.6393,0.6094
4264,-0.6261,0.592,0.772,-1.7545,1.8225,0.3804
4277,-0.6217,0.5749,0.7551,-1.5561,1.9141,-0.2914
4318,-0.6354,0.5637,0.7566,0.0165,2.021,-0.0165
4330,-0.6376,0.5803,0.7529,0.3218,1.3645,0.3346
4343,-0.6266,0.5776,0.748,-0.2278,1.1813,0.3499
4357,-0.6232,0.5825,0.7512,-0.7011,0.937,0.3193
4369,-0.6154,0.5754,0.7615,-0.6858,1.3493,0.5178
4382,-0.6242,0.574,0.7627,-0.35,1.5325,0.5178
4423,-0.6342,0.5745,0.7378,-1.6477,2.8912,-0.444
4436,-0.6379,0.5752,0.7449,-2.0904,2.0821,-0.4135
4449,-0.6305,0.5759,0.7458,-2.9301,2.3111,-0.8257
4461,-0.6318,0.5637,0.7568,-2.5637,1.9752,-0.9784
4475,-0.6286,0.5662,0.7556,-1.5713,1.7004,-0.5356
4488,-0.6242,0.5659,0.7517,-0.8385,1.5172,-0.2761
4528,-0.6313,0.5605,0.7488,-1.0522,1.3951,-0.444
4542,-0.6293,0.5752,0.7517,-0.6706,0.8454,-0.6272
4554,-0.6359,0.5706,0.7466,-0.0446,0.7386,-0.5356
4566,-0.6249,0.5781,0.7373,-0.0141,0.6928,-0.4746
4578,-0.6327,0.5764,0.7539,-0.4721,0.5554,-0.2303
4589,-0.6269,0.5664,0.7473,-0.3347,0.7233,-0.383
4631,-0.6269,0.5676,0.7439,-0.9606,0.6928,-0.1387
