time_ms,ax,ay,az,gx,gy,gz
12,-0.7284,0.3529,0.5638,0.1518,0.8314,-0.7119
25,-0.7272,0.3514,0.5733,0.2129,0.8009,0.1125
37,-0.7284,0.3492,0.5709,-0.5505,0.3276,-0.086
49,-0.7272,0.3524,0.5714,-0.2146,-0.0236,0.3873
90,-0.7252,0.3558,0.5711,-0.1688,-0.0999,-0.605
103,-0.7284,0.3524,0.5692,0.7319,-0.2984,-0.4524
115,-0.7311,0.3539,0.5697,-0.5963,0.6176,-0.8035
126,-0.7269,0.3519,0.5684,-1.436,0.2207,-0.7424
140,-0.7301,0.3509,0.5728,-1.6803,0.3734,-0.3302
152,-0.7296,0.3483,0.5716,0.564,0.2665,0.2194
194,-0.7257,0.359,0.5682,0.2892,0.3581,0.1431
207,-0.7272,0.3573,0.568,-1.9246,0.5718,-0.9409
219,-0.7267,0.3505,0.5728,-2.8406,0.8772,-2.1776
233,-0.7272,0.3519,0.5682,-2.1688,0.297,-2.3302
246,-0.7296,0.35,0.567,-1.2681,-0.0083,-2.1165
259,-0.7284,0.3502,0.5645,-1.2528,-0.1304,-1.1241
299,-0.7262,0.3514,0.5728,-0.9627,0.1444,0.5858
312,-0.725,0.3541,0.5643,0.1213,0.1291,0.6621
324,-0.7262,0.3505,0.5662,0.6556,0.2665,0.3568
337,-0.7291,0.3512,0.5709,0.1365,0.0222,-0.3302
349,-0.7264,0.3561,0.5701,-0.1078,0.4955,-0.6814
361,-0.7276,0.3492,0.568,-0.6879,0.9993,-1.0325
401,-0.7291,0.3475,0.5736,-1.207,0.3581,0.5553
415,-0.7296,0.348,0.5699,-0.352,0.4192,1.2576
428,-0.7281,0.3531,0.5684,-0.2604,0.8619,0.0973
441,-0.7296,0.3524,0.5682,-1.1612,0.4802,-1.2005
454,-0.7264,0.3536,0.5711,-3.4207,0.7093,-2.6814
466,-0.7294,0.347,0.5618,-4.1536,0.6176,-3.5669
508,-0.7259,0.3407,0.5658,-0.8406,-0.3289,1.166
521,-0.7276,0.3404,0.5645,1.4342,-0.6953,3.5934
534,-0.7262,0.347,0.5684,5.7548,-1.6419,6.1431
547,-0.7247,0.3487,0.5633,7.8159,-2.1152,6.1278
559,-0.7294,0.358,0.5745,7.2358,-2.2068,5.4713
573,-0.7242,0.3531,0.5677,6.4266,-1.9014,5.1049
614,-0.7291,0.3426,0.5755,16.8541,-4.6801,12.3873
626,-0.7235,0.3539,0.5877,13.3121,-6.4205,12.0056
640,-0.6962,0.3382,0.6558,6.6098,-11.3365,7.5171
653,-0.5819,0.2218,0.9027,-11.1001,-27.703,-10.4829
666,-0.86,0.5604,0.4466,12.3808,-34.8327,-13.5058
679,-0.526,0.1708,0.942,-3.6955,-20.7259,-2.4218
720,-0.9288,0.1083,0.6383,36.8541,-15.9014,-48.1776
733,-0.5743,0.2911,0.939,-7.9856,-8.3289,-3.0631
746,-0.8363,0.1861,0.4039,-18.8864,-22.5885,-37.5058
759,-0.8834,0.711,0.5062,26.8388,-14.6495,-19.4295
772,-1.0311,0.6608,0.3155,22.0449,-17.1839,-4.086
785,-0.597,0.1378,0.4591,4.3961,-6.5121,-19.4447
826,-0.6576,0.0882,0.0877,16.7777,8.6482,-16.086
839,-0.7345,0.3541,0.8184,15.1289,19.6405,-18.0096
852,-0.7562,0.3946,0.5819,-4.6726,8.8009,-4.5287
865,-0.6554,0.4623,0.7484,-16.3368,25.3352,-28.9867
878,-0.7186,0.4127,0.366,-11.207,34.5413,-22.6508
891,-0.85,0.4996,0.5855,-38.1994,30.7856,-16.4676
932,-0.7054,0.7213,0.6771,-15.0543,8.2665,29.5476
945,-0.7438,0.1561,0.453,-26.0162,-10.5274,24.1431
958,-0.8768,0.7635,0.451,-48.7795,-4.7717,41.1049
971,-0.6239,0.744,0.931,16.7014,-8.0541,31.624
984,-0.7284,0.284,0.5758,-31.7261,-4.6495,1.5476
998,-0.6979,0.0621,0.5233,-19.9856,-4.5579,6.9369
1038,-0.6857,0.2999,0.6307,-4.1383,-9.3671,3.5782
1051,-0.7181,0.3331,0.5645,-5.9398,-14.3747,10.3415
1064,-0.6632,0.2818,0.6495,4.6403,-13.4282,10.769
1077,-0.7025,0.2789,0.6163,14.5029,-8.3747,11.914
1090,-0.7533,0.3053,0.5357,16.5182,-12.0694,11.395
1103,-0.8548,0.172,0.1644,44.2587,-2.1762,-7.4447
1144,-0.9076,0.681,1.078,50.3655,24.3734,-14.0554
1157,-0.8819,0.0206,0.0343,36.9304,23.6558,-12.605
1170,-0.921,0.61,0.2926,24.5487,24.8772,-7.0325
1183,-0.9606,0.9571,0.9947,27.4342,25.0604,-11.7348
1196,-0.7208,0.3771,0.5697,13.5411,23.4879,-20.6661
1209,-0.6593,0.3463,0.5887,-13.6192,36.0528,-29.3226
1250,-0.6102,0.298,0.63,-13.3291,51.9459,-19.4447
1263,-0.6686,0.587,0.1851,17.5106,38.9535,2.998
1276,-0.9972,0.67,-0.1198,-3.7871,26.297,6.769
1289,-0.8321,0.0272,0.4437,-30.9933,18.465,6.7079
1302,-0.6361,0.7643,0.9473,-56.9933,2.297,29.8377
1315,-0.6302,0.4405,0.6397,-19.7261,-21.5656,30.9217
1356,-0.6234,0.1764,0.7862,-36.4436,-37.3976,25.9904
1369,-0.5978,0.4632,0.856,0.106,-35.6877,13.5171
1382,-0.6466,0.6285,0.8448,-32.7032,-19.8709,3.1202
1395,-0.6981,-0.1034,0.2904,4.8846,-9.3671,-14.9256
1408,-0.7565,-0.1986,0.1148,-63.8635,-46.619,22.0667
1421,-0.7638,0.0887,0.2496,-14.0162,-13.0923,-6.376
1462,-0.7347,0.256,0.3487,9.2968,-10.4969,8.4331
1475,-0.6881,0.3573,0.6263,0.8693,-11.0159,6.6163
1488,-0.7403,0.3016,0.5255,-0.0009,1.0299,1.6698
1501,-0.7247,0.3182,0.5472,4.1671,1.8696,2.6774
1514,-0.7242,0.3104,0.5555,7.1136,1.2436,5.0591
1527,-0.7257,0.3136,0.5555,9.877,0.0375,7.685
1568,-0.723,0.3282,0.5531,-3.2833,1.778,-2.1928
1581,-0.7272,0.3258,0.557,-3.6345,1.1978,-2.7272
1594,-0.7245,0.3163,0.5543,-1.436,0.8772,-2.1623
1606,-0.725,0.3121,0.5587,3.419,-0.0541,0.1736
1620,-0.7298,0.3207,0.5501,-0.978,-0.3289,1.2118
1633,-0.725,0.327,0.5584,-0.581,0.6176,0.5858
1674,-0.7237,0.3185,0.5548,0.0144,-0.0846,-1.3837
1687,-0.7242,0.3199,0.5606,2.4877,0.1596,-0.1928
1700,-0.7237,0.3194,0.5513,4.8083,-0.3289,1.2423
1713,-0.724,0.3321,0.5513,0.5182,-0.6343,-0.147
1724,-0.7284,0.3255,0.5577,-0.7032,-0.1304,-1.9791
1738,-0.7223,0.3219,0.5638,-0.6268,0.3886,-2.147
1779,-0.7252,0.3163,0.5523,0.6251,-0.3442,-0.0707
1792,-0.725,0.3224,0.5548,1.2816,-1.3366,0.6163
1805,-0.7276,0.3207,0.554,0.3808,-1.4282,-0.0707
1817,-0.7225,0.3209,0.5545,0.1213,-1.6419,-0.773
1831,-0.723,0.3248,0.5545,1.7243,-0.848,-1.0478
1844,-0.7291,0.3199,0.5562,-2.6268,-0.2526,-2.4676
1884,-0.7269,0.3185,0.5518,1.5869,-0.2984,1.5018
1898,-0.7213,0.3248,0.555,1.6022,-0.3442,1.9904
1911,-0.723,0.3197,0.5582,1.5869,-0.3136,1.7003
1924,-0.7228,0.3187,0.5538,2.2587,-0.2373,2.0667
1937,-0.722,0.3248,0.5584,2.6556,-0.6648,1.853
1950,-0.7284,0.3236,0.555,-0.749,-0.2526,0.1431
1991,-0.7259,0.3216,0.5557,-1.4207,-0.3136,-1.3837
2004,-0.7245,0.3204,0.5611,-1.5123,-0.2526,-1.46
2017,-0.7233,0.3163,0.5575,-0.123,-0.4663,-0.5745
2029,-0.7201,0.318,0.5589,1.4342,-0.9701,0.6316
2042,-0.7264,0.3185,0.5572,2.1976,-0.6343,2.082
2055,-0.723,0.3258,0.5587,3.1442,-0.6343,2.1583
2097,-0.7269,0.3214,0.5582,-2.7795,-0.161,-2.6661
2110,-0.722,0.3187,0.556,-3.3749,-0.8022,-3.002
2123,-0.7247,0.3177,0.5557,-3.665,-0.4205,-2.1318
2136,-0.723,0.316,0.5516,-1.8024,-0.9243,-0.4829
2149,-0.7272,0.3177,0.5584,0.6556,-0.8938,1.2423
2161,-0.722,0.3265,0.5614,0.1976,-0.3747,-0.147
2203,-0.7228,0.3175,0.5575,-4.5658,0.6634,-4.086
2216,-0.7206,0.3085,0.5562,-5.1307,0.8314,-2.4829
2229,-0.7206,0.3121,0.5484,-2.1536,-0.0999,-0.4066
2242,-0.7264,0.3107,0.5553,0.5029,-0.7106,1.9293
2255,-0.7233,0.3182,0.5575,2.3045,-0.6343,2.2957
2268,-0.7223,0.3265,0.5596,1.0678,0.0222,-0.2692
2309,-0.7223,0.3121,0.5582,-1.665,-0.2984,-2.2234
2322,-0.7235,0.305,0.5592,-1.1765,-0.4816,-0.2234
2335,-0.7208,0.3111,0.5609,-0.3826,-0.6801,1.0591
2348,-0.7174,0.3133,0.5587,0.564,-0.9091,1.5629
2361,-0.7181,0.3172,0.5557,1.3884,-0.2831,2.0362
2373,-0.7211,0.3214,0.5592,0.4877,0.526,0.7385
2415,-0.7228,0.3138,0.5513,1.5411,-0.3136,-0.086
2428,-0.7264,0.317,0.5582,1.9991,-1.1991,0.0973
2440,-0.7228,0.317,0.5575,-0.6268,-0.5274,-0.4676
2453,-0.7228,0.3099,0.5616,0.2434,-0.5732,0.4789
2466,-0.7189,0.3111,0.5553,1.19,-0.619,0.769
2479,-0.7211,0.3133,0.5626,1.2205,-0.0999,1.0438
2519,-0.7201,0.316,0.5577,-1.6039,0.7551,-2.0554
2533,-0.723,0.3155,0.5548,-2.5352,0.4802,-2.544
2545,-0.7259,0.3094,0.5592,-2.4742,0.3886,-2.0707
2559,-0.7201,0.3121,0.5484,-1.6955,-0.3442,-1.4142
2571,-0.7245,0.3129,0.5553,0.5793,-0.6801,-0.4524
2584,-0.7208,0.3109,0.5606,0.4571,-1.0617,-0.1165
2626,-0.7201,0.3141,0.5584,-3.1765,0.4497,-2.2997
2639,-0.7189,0.3053,0.5606,-2.2452,0.4344,-1.002
2652,-0.7242,0.3075,0.5596,-0.2604,0.4955,0.2652
2665,-0.7196,0.3126,0.5626,0.8693,0.4039,0.5553
2676,-0.7223,0.3109,0.5589,0.335,0.2207,0.082
2689,-0.7228,0.308,0.5565,1.6174,-0.3136,-0.086
2730,-0.7181,0.3087,0.5599,-1.0696,0.1138,-1.9485
2742,-0.7223,0.3099,0.5596,0.2434,-0.4816,-0.6661
2756,-0.7179,0.3046,0.5589,0.0602,0.2665,-0.5287
2768,-0.7186,0.305,0.5501,0.8693,0.3276,-0.0402
2780,-0.7206,0.3097,0.5567,1.3579,-0.5579,1.3034
2792,-0.7223,0.3094,0.5579,3.9991,-0.161,2.8911
2834,-0.7193,0.3133,0.557,-1.3749,0.5871,-1.46
2847,-0.7218,0.3121,0.5584,-0.9322,0.236,-1.1699
2860,-0.723,0.3116,0.5587,-1.3597,-0.4816,-0.8493
2873,-0.7218,0.3085,0.5616,-0.5963,-0.3595,0.0056
2885,-0.7206,0.3055,0.5601,1.2205,-0.2678,0.6316
2898,-0.7198,0.3075,0.5601,2.4113,-0.4358,1.7919
2939,-0.7189,0.3153,0.5587,-4.4131,0.8161,-3.1547
2952,-0.7189,0.3099,0.5599,-4.5658,0.9688,-3.0631
2965,-0.7181,0.307,0.5579,-3.5734,1.3047,-2.0249
2978,-0.7228,0.3043,0.5594,-0.4284,0.8772,0.7385
2989,-0.7203,0.307,0.5584,1.6022,0.007,2.0209
3002,-0.7223,0.3065,0.5604,1.9228,0.1902,1.9293
3044,-0.7215,0.3114,0.5631,-2.81,-0.3136,-2.6966
3057,-0.7225,0.3063,0.5658,-1.6345,-0.3136,-1.2768
3070,-0.7228,0.3089,0.5638,-0.1688,-0.7106,0.4942
3082,-0.7184,0.3092,0.5582,1.5564,-0.4969,1.4255
3096,-0.7213,0.3158,0.5577,1.5411,-0.5274,0.8759
3109,-0.7198,0.3185,0.5572,-1.0085,-0.2373,-1.7195
3150,-0.7215,0.3097,0.556,0.9151,-0.9396,0.1889
3163,-0.723,0.3072,0.555,1.6785,-1.3976,0.5553
3176,-0.7247,0.3097,0.5699,3.2358,-1.7182,0.5095
3189,-0.7203,0.3158,0.5604,0.4877,-1.0312,-0.5287
3202,-0.7203,0.3129,0.5584,-0.5047,-0.4053,-0.9867
3215,-0.722,0.3094,0.5628,-2.7642,0.007,-1.0325
3255,-0.7196,0.3058,0.556,1.0831,0.0222,2.4179
3269,-0.7198,0.2867,0.5509,1.48,0.0528,1.685
3282,-0.7184,0.3214,0.5592,2.2739,-0.0541,0.4789
3295,-0.7215,0.3085,0.5633,-0.0772,0.2665,-1.3531
3308,-0.7201,0.3153,0.5604,-1.5276,-0.0846,-2.4524
3321,-0.7196,0.3048,0.5538,-2.1536,-0.1457,-1.9333
3362,-0.7167,0.3065,0.5567,-0.581,-0.222,0.1431
3375,-0.7228,0.3077,0.5596,0.9457,0.068,0.8453
3386,-0.7179,0.3068,0.5596,1.7701,0.0222,1.7919
3400,-0.725,0.3143,0.5609,-0.2604,-0.0083,1.1965
3413,-0.7198,0.3153,0.5631,-1.8024,0.0222,0.0209
3426,-0.714,0.3136,0.5665,-2.0772,0.3123,-1.1089
3467,-0.7179,0.3068,0.5621,0.9151,-0.1304,0.1278
3480,-0.724,0.3038,0.5562,1.2663,-0.6801,0.6927
3493,-0.7184,0.3124,0.5592,0.8083,-0.7564,0.7232
3505,-0.7184,0.3097,0.5599,-0.6268,-0.5579,-0.1012
3518,-0.7179,0.3055,0.5611,-1.2528,-0.2831,-0.147
3531,-0.7196,0.3087,0.5628,-2.1841,0.3428,-0.5287
3571,-0.7206,0.306,0.5577,-2.1994,1.0451,-0.4371
3585,-0.7189,0.2999,0.5523,-0.5658,0.465,1.0591
3598,-0.7189,0.3148,0.5604,0.4877,-0.5885,1.5171
3611,-0.7201,0.3077,0.5594,-1.9398,0.1291,0.5553
3624,-0.7242,0.3092,0.5606,-1.5581,0.7551,-0.1012
3636,-0.7191,0.3097,0.5587,-1.2528,0.5566,-0.5898
3678,-0.7218,0.2987,0.5535,0.5945,-0.0846,0.5247
