time_ms,ax,ay,az,gx,gy,gz
10,-0.7626,0.3094,0.4288,0.8541,-0.4816,0.7843
22,-0.7635,0.3094,0.4325,1.6938,-0.39,1.4408
35,-0.7638,0.3116,0.4344,1.8922,-0.3595,1.6392
76,-0.7606,0.3114,0.431,-1.8329,0.297,-2.086
89,-0.7587,0.317,0.4334,-2.5047,0.0222,-2.4676
102,-0.7599,0.3089,0.4346,-1.8482,0.0833,-1.7653
115,-0.7633,0.307,0.4329,-0.1536,0.2207,-0.8035
127,-0.7628,0.3072,0.4376,2.5793,-0.1304,1.853
140,-0.7618,0.3155,0.4327,3.48,-0.5121,3.0133
181,-0.7608,0.3197,0.4371,-2.52,-0.3289,-3.7806
194,-0.763,0.3063,0.4356,-1.7413,0.2512,-3.4142
207,-0.7596,0.3055,0.4346,-0.9475,-0.2984,-1.2463
220,-0.7626,0.3065,0.4381,0.9762,-0.8022,1.4866
233,-0.7616,0.3138,0.4325,2.8693,-1.0312,3.5171
246,-0.7618,0.3175,0.4325,1.8922,-0.9396,2.3568
287,-0.7611,0.3055,0.4325,-1.2833,0.5413,-2.376
300,-0.7643,0.3065,0.4339,0.1365,-0.5427,0.7232
312,-0.7608,0.3104,0.4388,0.8388,-1.1686,2.5553
324,-0.7638,0.3068,0.4351,1.8922,-1.2755,4.1431
338,-0.7584,0.3136,0.4315,2.0144,-1.6724,5.2728
351,-0.7579,0.3177,0.4273,-0.0467,-0.8022,1.8682
393,-0.764,0.3043,0.4322,-2.4742,-3.2144,-1.0631
405,-0.7582,0.3055,0.4412,1.5716,-2.2068,2.6621
418,-0.755,0.3236,0.4366,-0.4284,-0.7869,0.7385
431,-0.7601,0.3192,0.4366,-3.7108,1.0909,-3.4142
444,-0.7626,0.3172,0.4381,-2.8253,1.7169,-3.9027
457,-0.7611,0.3175,0.4386,-2.7184,1.4726,-3.5516
498,-0.7582,0.3002,0.4329,-1.665,2.8161,-0.3455
511,-0.7618,0.3038,0.4342,-1.4818,3.1825,1.2881
524,-0.7574,0.3065,0.4256,2.8999,2.1444,4.6163
537,-0.7633,0.3092,0.4278,6.1823,0.6634,7.1965
550,-0.7626,0.3089,0.4356,10.2281,-0.8633,8.2499
563,-0.7577,0.3033,0.4471,10.3655,-2.0541,7.5629
605,-0.3656,-0.0819,1.4254,-26.4284,-64.8022,-23.7806
618,-0.5389,0.1793,0.6021,-18.8711,-50.4511,-8.7272
631,-0.5904,0.1942,0.8587,-28.123,-51.7946,-17.0783
643,-0.4786,0.4579,1.0494,-22.9169,-56.2678,-25.3989
656,-0.1615,-0.2384,1.5396,-32.6268,-38.9396,-28.7882
669,-0.3661,-0.0089,0.6685,-37.8787,-52.2373,-28.2234
711,-0.8248,0.2792,0.1563,-28.1536,-51.932,-17.3226
724,-0.7228,0.2435,0.8736,-9.3902,-42.0388,-13.1394
736,-0.4828,0.214,0.5208,-45.2223,-49.2907,-12.2234
749,-0.3805,0.4918,1.0965,-40.6421,-54.0388,-7.5058
763,-0.7608,0.3846,0.5843,-9.3749,-50.8938,-34.147
776,-0.338,0.3551,1.1036,-39.9551,-31.7182,-23.5516
816,-1.1424,0.7821,0.5872,8.4419,-44.9549,3.5629
829,-0.8988,0.1898,0.4359,23.9533,-34.4969,-2.2539
842,-0.4134,-0.2035,0.651,6.8083,-27.3365,-18.2692
855,-0.9127,0.6351,0.5482,-11.5276,-27.3213,-21.0325
869,-0.4357,0.253,0.7933,-4.4436,-7.2297,-15.3226
881,-0.756,0.3619,0.5338,18.9762,-11.077,-9.8722
923,-0.7938,0.1886,0.0084,5.0984,30.9535,-44.4371
935,-0.8988,0.8033,0.3653,29.1289,-4.5274,0.1278
948,-0.2313,0.41,0.6827,36.9762,33.4421,-39.1241
962,-0.6337,-0.4508,-0.5768,102.076,40.7245,-31.46
974,-0.5177,-0.0761,0.6219,38.3503,26.6176,-20.086
988,-0.7008,1.1236,0.7545,76.0602,44.4497,-24.6966
1028,-0.7452,0.2921,0.5594,20.7472,22.9383,-11.6585
1041,-0.7316,0.4891,0.4784,35.0678,29.1215,-3.6585
1055,-0.7167,0.2787,0.4788,-2.4284,29.2436,-19.5669
1068,-0.607,0.1969,0.5557,18.8235,49.8696,-18.9256
1080,-0.7557,0.225,0.3761,32.3808,48.1138,-13.5058
1093,-0.6134,0.1229,0.4515,38.8999,45.3505,1.5324
1135,-0.6234,0.4564,1.0382,31.1442,31.6406,24.3873
1147,-0.7943,0.2423,0.273,-14.0314,43.6558,13.3644
1160,-0.5646,0.3163,0.8297,10.0296,26.3886,-0.4676
1174,-0.7687,0.2364,0.619,-19.6345,16.4955,-8.3913
1186,-0.8121,-0.0553,0.5184,-0.8864,27.5489,6.5858
1199,-0.8063,0.4088,0.3346,-15.5276,31.778,-1.918
1241,-0.9608,0.5116,0.3092,-0.3062,6.4039,22.4789
1253,-0.7962,0.4857,0.8023,-38.1994,6.0222,32.1431
1266,-0.8402,0.1302,0.1114,-96.5505,1.5642,41.1049
1279,-0.6202,0.0685,0.6229,6.4724,-15.8862,45.4713
1292,-0.6605,0.5316,0.6307,-18.9933,-14.5274,25.8072
1306,-0.9667,0.5563,0.3118,-20.2604,-4.7411,10.54
1346,-0.9825,0.5577,-0.091,-20.581,-26.9854,29.8072
1359,-0.8006,0.2125,0.5406,-36.581,-29.764,21.0438
1373,-0.7181,0.2237,0.1583,-1.3139,-18.2526,21.7766
1386,-0.7696,-0.2186,0.4801,-38.9169,-27.3824,20.8606
1398,-0.8348,0.6005,0.2955,-38.291,-28.222,17.3797
1411,-0.6459,-0.1315,0.2498,-5.9246,-5.7182,-13.0631
1453,-0.7528,0.1649,0.3692,-9.7108,-12.8785,10.7995
1465,-0.7015,0.0409,0.3985,4.0754,-7.8862,8.311
1478,-0.7377,0.2599,0.4886,-4.3826,-1.4129,-3.3531
1491,-0.7357,0.2806,0.4998,0.6403,-1.535,0.3721
1504,-0.7384,0.2882,0.5116,3.7396,-2.7106,5.1354
1517,-0.7433,0.3234,0.5489,13.6327,-2.7106,12.5095
1559,-0.7147,0.1693,0.4779,37.7548,-0.7869,20.4026
1571,-0.652,-0.0719,0.3704,62.0144,15.8848,5.0896
1585,-0.8221,-0.0553,0.6126,83.0526,-5.0465,-2.773
1598,-1.0829,-0.2584,0.3878,49.5716,36.526,-53.1699
1610,-0.7457,-0.1222,-0.1969,61.1594,28.5108,-29.6432
1624,-1.0487,0.8841,0.5033,117.266,27.6253,-10.3913
1664,-1.3385,0.6039,1.0614,35.6938,20.1291,0.0209
1678,-1.013,1.1166,1.1309,44.6709,40.4344,-17.3684
1691,-0.7193,0.4989,0.5089,34.7167,59.8696,-38.8798
1704,-0.8685,0.1842,0.4771,29.0067,47.7932,-43.7959
1716,-0.7828,0.5077,0.4989,3.2968,37.0299,-22.4371
1730,-0.7342,0.1451,0.4283,24.6403,23.7016,2.2347
1771,-0.7318,0.4068,0.5599,20.7014,30.9383,3.4713
1783,-0.642,0.0807,-0.0968,41.48,59.4421,4.8453
1796,-0.892,0.3824,0.0011,29.7396,46.0528,14.6774
1809,-0.7943,0.129,0.4823,-7.2986,44.6787,41.1812
1822,-0.8263,0.3304,0.5179,3.7396,38.1596,17.3644
1836,-0.8312,0.5787,0.067,-0.0162,18.8161,18.2499
1876,-0.899,0.6173,-0.0055,-12.6574,28.3276,22.0667
1890,-0.7059,-0.4767,1.4242,-88.1536,19.9154,-0.376
1903,-0.787,-0.6452,0.8136,-49.0543,-1.6877,-2.5898
1915,-0.7518,0.5922,0.856,-50.6268,-0.5427,26.4484
1928,-1.0541,-0.0595,0.0123,-47.2681,6.4802,12.8453
1941,-0.4571,0.1893,0.3658,-71.1765,-5.764,18.8911
1983,-0.9366,0.5392,0.2288,-34.3062,-24.4816,24.311
1995,-0.7772,1.2569,0.9561,-35.5734,-21.1686,19.0896
2008,-0.8334,-0.0641,0.1388,-58.5658,-29.2907,13.9293
2021,-0.8668,0.7941,0.671,-65.2986,-36.0846,26.1583
2035,-0.8534,0.1048,0.3402,-62.8253,-19.6419,-4.9562
2048,-0.8602,0.2789,0.359,-23.0543,-43.8098,16.8911
2089,-0.7513,0.0294,-0.1042,-20.6574,-10.4816,-14.147
2101,-0.5751,0.379,0.6317,-11.2223,-48.8022,7.624
2114,-0.8111,0.2638,0.0338,-6.1078,7.5795,-7.1241
2127,-0.7743,0.3082,0.5743,-2.5505,-2.9701,-0.1623
2140,-1.1561,0.128,-1.2087,26.793,-34.8633,-1.5821
2153,-0.7577,0.4772,0.533,-9.5581,-48.7717,8.0362
2194,-0.7877,0.4476,0.4288,-21.6345,0.1291,-15.1089
2207,-0.8077,0.399,0.3006,1.3732,-13.9778,-6.4371
2220,-0.776,0.3426,0.4205,3.6938,-4.6495,0.8148
2233,-0.7867,0.3404,0.3756,4.1976,-6.222,1.4255
2246,-0.7772,0.358,0.4188,4.1671,-1.7335,4.2805
2259,-0.7775,0.3702,0.4185,5.9686,-2.0846,4.6927
2300,-0.7745,0.3602,0.4293,-1.3597,-0.848,-4.2997
2313,-0.7745,0.3475,0.4366,-3.5734,-0.2984,-3.8417
2326,-0.774,0.348,0.4317,-1.436,-0.5274,-2.1318
2339,-0.7721,0.3505,0.4349,0.5182,-0.3747,-0.2692
2351,-0.7713,0.3617,0.4325,0.2281,-1.3824,-1.5363
2364,-0.7777,0.3509,0.4339,-1.7566,-0.5427,-4.6203
2405,-0.7694,0.3448,0.4342,-1.3902,-1.5198,-0.7577
2418,-0.7753,0.3414,0.432,-0.2757,-1.9167,1.8682
2431,-0.7696,0.3441,0.4359,1.8312,-1.1075,3.853
2444,-0.7696,0.3541,0.4329,3.251,-0.9854,3.914
2458,-0.7726,0.3597,0.4361,-0.2452,-1.2907,-1.3379
2470,-0.7728,0.3507,0.4378,0.0296,0.0222,-2.6356
2511,-0.7718,0.3412,0.4317,1.48,-1.4282,1.3034
2524,-0.774,0.3451,0.4388,3.5869,-1.077,3.8835
2537,-0.7694,0.3607,0.4405,0.2129,-1.1533,0.0667
2551,-0.7726,0.3473,0.4386,-1.3139,0.1596,-1.5821
2563,-0.7723,0.3553,0.4351,-1.665,0.1902,-1.2463
2576,-0.7687,0.3526,0.4356,-2.3978,0.1902,-2.4371
2617,-0.7696,0.3497,0.4393,-3.1765,-0.3442,-1.6737
2630,-0.7679,0.3456,0.4351,-2.81,-0.3289,-1.0783
2643,-0.7677,0.3395,0.4398,-1.2223,0.236,0.2957
2656,-0.7731,0.3412,0.4383,0.8235,0.4344,2.5247
2669,-0.767,0.3512,0.4364,-0.352,0.0222,1.9293
2682,-0.7691,0.349,0.4317,-1.8635,-0.5732,1.7003
2723,-0.7694,0.3404,0.4305,0.1671,-0.1762,-2.1012
2736,-0.7699,0.3424,0.4339,1.2205,-0.6037,-0.7119
2749,-0.7696,0.3514,0.4344,0.9609,-1.3518,0.0362
2762,-0.7691,0.3487,0.4361,-0.0467,-2.3136,-0.8493
2776,-0.7699,0.3495,0.4346,-2.7184,-1.6114,-2.1776
2788,-0.7679,0.3446,0.4388,-2.4589,-0.7869,-1.8264
2829,-0.7706,0.3387,0.4376,2.6861,-0.222,2.4789
2842,-0.7662,0.3463,0.4366,3.3732,-0.5427,3.166
2855,-0.7674,0.3612,0.4371,-0.2757,-0.3289,0.2194
2868,-0.7701,0.3539,0.4342,-1.894,0.068,-2.9867
2881,-0.775,0.3483,0.4298,-2.352,-0.0541,-2.9409
2894,-0.7691,0.3402,0.4371,-1.7719,-0.9854,-2.6508
2935,-0.7674,0.349,0.4354,1.5258,-0.3136,2.2347
2948,-0.7733,0.3544,0.44,-0.81,-0.4969,0.3721
2961,-0.7679,0.349,0.4327,-0.352,-0.7564,-1.5821
2974,-0.7687,0.3446,0.4376,-1.1001,-0.1762,-2.1623
2988,-0.7689,0.3478,0.4383,-1.4971,-0.0999,-1.7348
3000,-0.7694,0.3412,0.4366,0.4266,-0.1457,-0.2844
3041,-0.7657,0.3553,0.4393,1.7548,0.007,1.9598
3054,-0.7648,0.358,0.4486,-1.2681,-0.2678,-1.7348
3067,-0.7706,0.3461,0.4334,-2.062,0.6024,-3.5974
3080,-0.7723,0.3429,0.4361,-2.3368,0.068,-3.1241
3094,-0.7684,0.3356,0.4383,-2.0314,-0.2068,-1.2463
3106,-0.7696,0.3387,0.4378,0.8235,-0.619,0.6011
3147,-0.7726,0.3553,0.4346,-0.2452,0.0833,-2.8798
3160,-0.7694,0.3424,0.4361,-2.4894,0.3428,-5.0173
3173,-0.7716,0.3409,0.4366,-2.7337,-0.2526,-2.9562
3187,-0.7696,0.3375,0.4364,-1.0696,-1.077,-1.7195
3199,-0.7711,0.338,0.4405,0.6861,-1.1839,0.1278
3212,-0.7713,0.337,0.443,3.3426,-0.619,0.4026
3253,-0.7706,0.3422,0.4346,5.4953,0.0222,3.5476
3266,-0.7684,0.3434,0.4344,5.8464,-0.6343,4.7995
3279,-0.7713,0.3566,0.4432,4.2129,-1.6114,4.2499
3292,-0.7726,0.3497,0.4415,4.9457,-2.4358,6.0209
3305,-0.765,0.35,0.4346,6.6403,-2.9243,6.3415
3318,-0.7667,0.3568,0.4459,5.8159,-2.6801,4.8301
3359,-0.8597,0.3172,0.4537,2.5793,-7.2907,-0.0402
3372,-0.7987,0.3424,0.4566,2.4571,-8.2831,8.7232
3385,-0.7914,0.3089,0.461,3.4648,-11.2602,12.5858
3398,-0.9064,0.378,0.4515,0.5335,-21.0312,-9.5058
3411,-0.8824,0.3868,0.5064,6.1365,-22.848,2.6774
3425,-0.7528,0.4222,0.4508,6.7777,-24.3137,10.8301
3465,-0.7313,0.4161,0.4564,0.5945,-12.4053,11.8224
3478,-0.7247,0.4039,0.4444,0.1671,-5.7335,12.1889
3491,-0.732,0.4203,0.4476,0.1213,3.4726,12.8911
3504,-0.715,0.4115,0.4703,1.251,9.3047,13.5934
3517,-0.7316,0.3902,0.4735,-4.0925,12.9993,15.7003
3530,-0.744,0.3854,0.4727,-6.0314,11.3047,15.3492
3571,-0.7604,0.3622,0.472,-10.2452,15.5031,4.2499
3584,-0.7594,0.3426,0.4578,-7.5429,16.1444,2.2957
3598,-0.7765,0.3778,0.4205,-5.1001,17.6711,1.7156
3610,-0.798,0.3939,0.4405,-4.5658,16.6482,-0.1623
3623,-0.7721,0.3612,0.4825,-10.0467,16.1902,-3.2463
3637,-0.9264,0.2452,0.693,-15.2528,13.61,-8.8951
3678,-0.7828,0.3568,0.4381,-0.7642,1.3963,-7.0478
3689,-0.7796,0.3661,0.4378,2.7625,0.0833,0.4179
3703,-0.7696,0.3822,0.4395,0.2892,-0.4816,0.2347
3716,-0.7757,0.392,0.4403,-4.0772,0.694,-3.9027
3729,-0.7753,0.3839,0.4459,-6.749,0.7703,-8.9562
3742,-0.7779,0.3678,0.4408,-7.7719,2.2512,-10.834
3783,-0.7726,0.3683,0.4356,0.2587,1.5031,0.7843
3796,-0.7731,0.3785,0.4405,-1.1307,1.1825,0.2652
3809,-0.7733,0.378,0.4349,-6.1078,1.8543,-3.5211
3823,-0.7767,0.3729,0.4337,-8.4742,2.0222,-7.2921
3835,-0.7784,0.36,0.4312,-7.9551,2.2054,-7.5211
3848,-0.7733,0.3512,0.4339,-6.5047,1.7016,-6.6203
3889,-0.7716,0.3607,0.4327,-3.6039,0.7398,-1.7195
3902,-0.7733,0.3629,0.4281,-4.1841,1.2589,-2.315
3915,-0.7735,0.3622,0.4364,-4.7032,0.6329,-3.8417
3928,-0.7745,0.3509,0.4351,-3.436,1.2741,-4.1012
3941,-0.7745,0.3546,0.4261,-0.4742,1.1673,-3.3531
3954,-0.7735,0.3483,0.4305,-1.1001,2.1902,-3.689
3995,-0.776,0.3556,0.4239,-2.0925,0.465,-1.1547
4009,-0.774,0.3583,0.4266,-2.5352,0.6024,-2.086
4021,-0.7738,0.3534,0.4327,-2.6116,1.1825,-2.2539
4034,-0.7711,0.348,0.4246,-0.3368,1.6864,-0.7119
4047,-0.7733,0.3497,0.4278,0.9151,1.4726,0.3415
4060,-0.7735,0.349,0.4239,1.8617,1.4879,0.8759
4101,-0.7735,0.3578,0.4254,-2.6421,0.9688,-2.0554
4114,-0.7779,0.35,0.4295,-2.9016,0.0986,-3.2157
4128,-0.776,0.349,0.4217,-0.6268,0.465,-2.4371
4140,-0.7713,0.3519,0.4254,1.1747,0.6024,-2.7577
4153,-0.7721,0.3407,0.4234,3.5411,0.0222,0.2194
4166,-0.7762,0.3509,0.4249,1.8159,-0.1457,1.624
4207,-0.7731,0.358,0.4303,-2.8558,0.4344,-2.0554
4220,-0.7743,0.3519,0.4273,-3.3444,0.7093,-4.2692
4233,-0.7753,0.3451,0.4281,-2.4131,0.9535,-4.5745
4246,-0.7753,0.3363,0.4237,-0.1841,0.5108,-2.3455
4259,-0.7726,0.3409,0.4183,2.5029,0.0375,0.7079
4272,-0.7723,0.3463,0.4281,1.7243,-0.4358,1.9446
4313,-0.7718,0.3424,0.4234,-0.6116,0.4344,-1.918
4326,-0.7713,0.3434,0.4298,-0.2452,0.4344,-1.9027
4339,-0.7713,0.3434,0.4261,-0.9169,0.7398,-2.1318
4352,-0.7731,0.3404,0.4202,0.3045,-0.4969,-0.2539
4364,-0.7738,0.3487,0.4237,-0.1994,-1.4282,1.0133
4377,-0.7733,0.3456,0.4266,-1.0543,-1.7335,0.2805
4418,-0.774,0.3414,0.4254,-0.4131,1.2894,-0.834
4431,-0.7735,0.3382,0.4222,1.1594,0.8314,0.6621
4444,-0.7772,0.3402,0.4268,2.6709,-0.0388,2.5858
4457,-0.7745,0.3524,0.4227,2.2739,-0.848,2.8911
4471,-0.7713,0.3573,0.4281,-1.1765,-1.0312,-0.605
4483,-0.7753,0.347,0.4205,-2.581,0.0222,-3.0173
4524,-0.7731,0.3412,0.4227,0.0907,-0.0694,0.6316
4537,-0.774,0.3424,0.4229,1.2816,-0.3289,2.6011
4550,-0.7696,0.3502,0.4266,1.19,-0.4663,1.6545
4563,-0.775,0.3561,0.4285,-1.0238,-0.6495,-1.4447
4576,-0.7718,0.3434,0.4242,-0.52,-0.161,-2.0096
4590,-0.7757,0.3441,0.4261,-0.7948,-0.1152,-1.3531
4630,-0.7711,0.3407,0.4285,1.5869,-0.0388,0.9827
4643,-0.7709,0.3483,0.4276,1.6327,0.0986,1.4866
4656,-0.7723,0.3522,0.4271,-1.2528,0.1902,-0.6814
4670,-0.7713,0.3495,0.4256,-3.3139,1.0451,-3.2157
4682,-0.7721,0.3417,0.4234,-2.9169,0.8467,-2.7577
4695,-0.7701,0.3368,0.4251,-0.8253,0.2207,-0.9256
4736,-0.7706,0.3456,0.4276,2.4113,-0.848,1.9293
4749,-0.7726,0.3529,0.4261,0.3961,-0.3289,0.7537
4761,-0.7718,0.3473,0.4268,-1.0391,0.5718,-1.6585
4775,-0.7706,0.3409,0.4283,-0.2146,0.8925,-0.9256
4786,-0.7689,0.3446,0.4251,0.3045,0.8772,-0.6203
4798,-0.7748,0.3412,0.4242,-0.0009,0.4192,-0.4524
4839,-0.7711,0.3443,0.4295,2.4877,-1.0465,2.8148
4852,-0.7699,0.3483,0.4307,1.3121,-0.4816,1.624
4865,-0.7687,0.3544,0.4259,-0.4284,0.1291,-1.5516
4879,-0.7723,0.3448,0.4254,-2.3062,1.0146,-3.8111
4892,-0.7726,0.3417,0.4259,-1.1001,1.0757,-2.7119
4904,-0.7765,0.3356,0.4244,1.877,0.8619,-0.8188
4945,-0.7767,0.3563,0.4288,1.7854,-1.0465,0.8911
