time_ms,ax,ay,az,gx,gy,gz
12,-0.7305,0.9213,0.6793,0.8791,0.1935,-0.031
52,-0.732,0.9206,0.6793,1.6119,-0.0813,0.885
65,-0.7337,0.9262,0.6842,0.6195,0.1477,0.4575
78,-0.7359,0.9255,0.6803,0.0394,-0.3408,0.03
91,-0.7379,0.9225,0.6759,0.3142,-0.1271,-0.0768
102,-0.7313,0.9245,0.6815,-0.5713,-0.4782,-0.6264
114,-0.7296,0.9225,0.6788,-0.037,-0.7072,-0.1837
156,-0.7364,0.9215,0.6771,-0.9072,-0.4019,0.2285
168,-0.7313,0.9269,0.6776,-0.1591,0.4989,0.5033
181,-0.7293,0.9228,0.6752,0.2073,0.6821,1.343
194,-0.733,0.9228,0.6808,-0.5561,0.2851,0.7781
208,-0.7349,0.9252,0.6844,-1.8843,-0.3256,-0.5043
221,-0.7318,0.9235,0.681,-0.7545,0.2393,-0.2753
261,-0.732,0.9242,0.6832,1.1081,0.7279,0.8239
275,-0.7364,0.9233,0.6844,0.4058,0.4378,0.1522
287,-0.7344,0.9269,0.6783,-1.182,0.4531,-0.3669
300,-0.7381,0.9218,0.672,-1.0904,1.0485,-0.7944
313,-0.7337,0.9206,0.6793,-0.5713,0.6363,-0.0463
326,-0.7271,0.9211,0.6915,-0.7393,-0.463,-0.3058
366,-0.7347,0.924,0.6825,-0.3881,1.3233,0.3049
379,-0.7315,0.9198,0.6722,0.2073,0.6057,1.282
393,-0.7369,0.9245,0.6783,-0.5255,-0.5851,1.1751
406,-0.7408,0.9384,0.6859,-10.0064,-1.6538,-1.7257
418,-0.733,0.934,0.7042,-13.5026,-2.9668,-4.5043
432,-0.752,0.9352,0.6937,-23.2889,-4.4477,-9.4661
473,-1.2418,1.0834,0.9754,-24.0828,-82.6462,38.5491
485,-1.0665,0.8525,1.0116,7.1081,-104.234,69.8163
498,-0.6905,0.7768,0.7684,-4.2202,-127.18,73.9995
512,-0.3184,0.6813,0.5751,-0.8156,-109.318,69.0682
525,-0.2474,0.7199,0.5819,-17.4568,-85.2721,47.5873
538,-0.2596,0.8766,0.4798,-21.5484,-58.3408,26.4423
579,-0.5074,0.9574,0.921,-65.35,-17.9897,-31.7715
592,-0.5501,1.0031,0.8548,-67.182,-14.4782,-44.7028
605,-0.5606,0.9638,0.8439,-47.0599,-8.2034,-40.1379
617,-0.7479,0.829,0.6739,-22.7851,7.4912,-23.5119
630,-0.6192,0.9381,0.7938,-35.4874,8.5905,-48.5043
644,-0.5538,0.9015,1.149,-13.4416,-7.4553,-24.0463
684,-0.8031,0.7751,0.754,27.7645,5.2622,-14.5043
697,-0.7518,0.9084,0.8736,23.6882,13.018,-16.1074
710,-0.6195,0.9604,0.827,0.5584,10.5905,-8.4585
723,-0.6717,0.9486,0.8951,6.5432,6.0867,-3.8173
737,-0.651,0.8505,0.8248,5.963,-0.0355,1.9232
749,-0.6507,0.8383,0.902,12.589,0.5599,-5.7104
791,-0.668,0.9098,0.8956,-13.4568,19.0485,-14.3974
804,-0.6488,0.6867,0.7247,-22.8156,29.247,-22.3669
816,-1.0611,0.9548,1.2626,0.8333,1.5828,-18.7791
829,-0.8455,0.7597,0.7367,-5.4568,-4.4935,-6.4585
842,-0.6956,0.747,0.8197,11.5813,-3.0278,-9.7257
856,-0.6688,0.8844,0.8336,10.1462,-1.4248,-1.7409
897,-0.6859,0.7868,0.8727,16.0394,-1.0889,-13.97
909,-0.7457,0.695,0.9627,31.3371,2.0561,-12.0005
923,-0.7366,0.414,0.8817,-0.0064,-8.7225,-48.3669
936,-0.92,1.091,0.69,99.1081,-5.4401,-8.6264
949,-0.9429,-0.3297,0.6354,-21.6248,-2.9515,-62.7028
962,-0.6839,1.3503,0.4696,-21.2584,-4.4019,-74.8249
1003,-0.5833,1.5605,1.2816,80.2989,25.3844,-10.0158
1015,-0.7227,0.9455,0.5863,43.3676,30.0256,-25.2524
1028,-0.7332,0.9277,0.608,-3.2125,39.5828,-25.3745
1041,-0.7659,1.0204,0.443,-4.8461,31.9798,8.4728
1054,-0.668,1.2187,0.214,0.0241,61.9951,32.9155
1067,-0.4217,1.0363,0.6188,-54.3729,45.079,60.656
1109,-1.3614,0.3183,1.9007,-102.693,16.5905,23.9842
1121,-0.7628,0.797,1.5079,-58.9988,20.6821,48.3354
1134,-0.7152,0.9892,0.7716,-3.3652,3.4302,25.2972
1147,-0.7061,0.5036,0.7269,0.3752,3.0485,-10.3211
1161,-0.7215,0.7233,0.7245,35.1539,6.3309,23.4346
1173,-0.7032,0.7814,0.7682,58.589,6.7584,49.0682
1215,-0.7037,1.3581,0.548,21.7035,-6.8599,-31.4356
1228,-0.7186,0.8942,0.7142,38.589,-17.5164,-54.9165
1240,-0.4183,1.0219,0.8622,81.7798,-13.8981,-34.0158
1253,-0.6107,0.7856,0.974,31.8409,-8.3408,-57.2219
1266,-0.6029,1.184,0.9171,63.5203,-3.0431,-36.9929
1279,-0.4908,1.5951,0.9559,53.3981,3.9187,-17.5272
1320,-0.7154,0.8547,0.8648,-16.2965,28.4836,-10.2142
1333,-0.952,1.2008,-0.2414,-5.7164,33.9645,-12.9165
1346,-0.5992,1.2651,0.7323,-35.9606,62.8958,2.5491
1360,-0.6954,0.9513,0.9471,-39.8385,32.3157,-1.0539
1372,-0.7659,0.6515,0.8558,-24.7851,30.4378,11.7247
1385,-0.8399,0.7016,0.3522,-29.2736,43.476,9.5568
1427,-0.4334,1.2328,0.6805,-10.3271,11.4912,18.3049
1440,-0.6966,0.7353,1.0841,-47.9454,3.5981,6.1827
1452,-0.4586,0.5627,1.5502,-22.2965,-3.5469,37.9079
1465,-0.4627,1.3,0.8544,-45.4416,-9.8981,45.9842
1478,-0.6624,0.8693,0.693,-31.6553,-8.4477,32.8545
1491,-0.4346,0.5534,0.6708,53.2149,-8.4782,10.1064
1532,-0.8018,0.778,0.7145,11.734,11.2012,16.2438
1545,-0.7564,0.8559,0.6317,14.7111,11.2622,28.3507
1558,-0.7425,0.8913,0.6798,16.1004,8.3309,26.5339
1571,-0.734,0.9189,0.6754,12.4974,6.2241,19.0835
1584,-0.7459,0.9176,0.6996,5.5203,3.3386,9.1751
1597,-0.7137,0.8871,0.7677,5.1386,-2.5698,2.4881
1638,-0.6595,0.568,1.3619,12.4974,-4.0049,5.1598
1652,-0.7357,0.7734,0.8536,35.5661,-39.7149,-2.5959
1664,-0.9561,1.2841,0.1629,20.6348,-35.8981,-11.9852
1677,-0.619,0.6796,0.5384,-12.037,-60.6309,-34.3364
1691,-0.9522,0.9958,0.6615,43.963,-41.8217,-15.6493
1703,-0.8311,1.4484,0.588,-1.5332,-32.0202,-12.7638
1744,-1.127,0.8905,0.3641,-10.5561,-35.7454,-7.573
1758,-0.7711,0.7411,0.7652,-5.5179,-22.1576,-16.2295
1770,-0.6219,0.8698,0.868,-1.7622,-15.6538,-6.3822
1783,-0.7928,1.0661,0.6129,-11.3805,-12.982,-6.2448
1797,-0.7591,0.779,0.7513,6.7111,-15.0278,-13.4203
1809,-0.794,0.9308,0.5948,-14.6324,-5.6538,-15.4814
1850,-0.7093,0.8393,0.7613,-3.5332,-2.1729,2.2133
1863,-0.7144,0.8461,0.7425,-0.0217,-1.8981,7.3278
1876,-0.6951,0.849,0.7962,4.2378,-1.7607,10.5797
1889,-0.6866,0.8507,0.7933,3.0623,-2.5546,9.8468
1902,-0.6903,0.8627,0.7958,4.4516,-1.608,8.0453
1915,-0.6778,0.8634,0.7923,2.9859,-0.5088,4.2591
1956,-0.6895,0.8654,0.7938,-2.0064,-1.5469,-0.5196
1968,-0.6876,0.863,0.7894,-3.1515,-2.4782,-0.2295
1982,-0.691,0.8542,0.7904,-1.9606,-3.4859,1.5568
1995,-0.6856,0.8632,0.7884,-0.4034,-2.524,4.2743
2008,-0.6846,0.8617,0.7967,0.0088,-2.5088,4.6713
2021,-0.6881,0.8683,0.7962,0.3752,-2.8599,4.1675
2062,-0.6893,0.8642,0.7992,-3.9912,-1.8675,-2.5806
2075,-0.6876,0.8586,0.7972,0.1157,-0.6309,0.3507
2088,-0.6812,0.8539,0.8099,1.8409,-0.4782,2.8239
2100,-0.6771,0.8537,0.8009,4.8485,-0.0507,4.3354
2113,-0.6893,0.8688,0.7892,6.0852,0.7431,4.7629
2127,-0.6944,0.8815,0.7919,2.65,0.9569,3.8926
2168,-0.6822,0.8735,0.7923,-0.0828,-0.8141,1.6331
2180,-0.6766,0.8766,0.7936,0.9707,-0.0813,1.7094
2194,-0.6988,0.8798,0.8031,-0.0675,-0.3866,1.4957
2207,-0.6649,0.8603,0.7919,1.5661,-0.1882,1.9079
2219,-0.6851,0.8652,0.8009,2.589,0.1019,1.7858
2232,-0.6871,0.8813,0.7999,5.8104,0.4836,2.03
2274,-0.682,0.8771,0.7938,2.7722,-0.4172,-0.9318
2286,-0.682,0.8766,0.8011,2.1768,-0.6156,-1.1455
2299,-0.6876,0.871,0.7975,1.505,-0.4324,-0.3669
2313,-0.6861,0.873,0.7933,2.9401,0.0867,1.9232
2326,-0.6846,0.8717,0.798,4.8485,0.5447,3.9842
2339,-0.6773,0.8705,0.7906,8.192,0.4989,5.5568
2379,-0.679,0.8876,0.7948,3.9936,2.2546,0.7629
2392,-0.6824,0.8861,0.7919,4.9859,2.8806,0.2743
2406,-0.6798,0.8837,0.7865,2.4974,2.5905,-0.489
2419,-0.6756,0.8827,0.7872,0.65,0.8195,-0.2448
2431,-0.689,0.8837,0.7897,1.1539,0.5447,0.9461
2444,-0.6856,0.8871,0.7938,2.2226,0.7584,2.4423
2485,-0.689,0.8898,0.787,0.4363,0.8042,-0.3669
2498,-0.6932,0.8954,0.787,1.5508,1.8271,-0.1684
2510,-0.6864,0.8905,0.7909,2.4974,1.247,-0.1532
2524,-0.6815,0.8835,0.7911,1.2455,-0.5698,-0.7028
2537,-0.6827,0.8832,0.7914,-1.0446,-1.0584,-1.0539
2549,-0.6871,0.8844,0.7936,0.2226,-0.9057,0.2743
2590,-0.6788,0.884,0.8014,0.8791,-0.7378,1.0529
2604,-0.6707,0.883,0.7904,-0.1896,-0.5393,-0.2753
2617,-0.6934,0.8866,0.7987,0.6653,0.0256,-0.3974
2629,-0.689,0.8888,0.7892,3.7951,0.8653,1.3736
2641,-0.6783,0.8908,0.7899,3.963,1.476,2.885
2654,-0.6854,0.8854,0.7894,3.1844,0.4836,2.6407
2696,-0.6842,0.8962,0.7945,1.0623,-0.1729,1.0835
2708,-0.6861,0.8893,0.7835,1.9172,-0.2492,1.7094
2721,-0.681,0.8918,0.7967,2.4058,-0.1882,1.5568
2734,-0.6785,0.8908,0.7887,1.5966,0.0561,1.8163
2748,-0.6817,0.8964,0.7906,0.818,0.163,0.7018
2761,-0.6812,0.8952,0.794,2.5584,0.8348,1.3736
2802,-0.6893,0.8966,0.7853,4.2684,0.8806,2.4575
2815,-0.6822,0.8959,0.7875,3.6271,0.8653,2.0148
2827,-0.68,0.9018,0.7933,2.2531,0.2241,0.9461
2840,-0.6815,0.8976,0.7796,0.5279,-0.1576,-0.1379
2852,-0.6793,0.8964,0.787,0.9096,-0.1576,0.1522
2865,-0.6944,0.8976,0.7919,1.8256,0.3004,0.7171
2905,-0.6771,0.884,0.7909,-2.1591,-0.2034,0.2438
2919,-0.6729,0.8893,0.7999,-1.7011,-1.2263,1.5568
2932,-0.6817,0.8974,0.7945,1.1081,-0.1271,2.9003
2944,-0.6839,0.903,0.7875,3.4592,1.705,2.1675
2957,-0.6856,0.9118,0.785,3.1691,2.2851,0.9919
2970,-0.6795,0.8984,0.7845,0.8638,0.6973,0.2133
3011,-0.6773,0.8979,0.7897,-3.7927,-1.2263,-1.8936
3024,-0.6824,0.8923,0.7877,-0.495,-0.6462,0.4117
3037,-0.6788,0.8949,0.7848,2.9401,0.6821,3.511
3051,-0.6788,0.9025,0.7867,4.3294,0.8042,3.8621
3063,-0.6793,0.902,0.7943,1.1539,0.0256,1.9995
3076,-0.6846,0.9076,0.7867,-0.9377,-0.2645,-0.0616
3118,-0.6812,0.8971,0.7843,0.2836,0.2393,0.7629
3130,-0.6802,0.9045,0.7919,0.2073,0.5141,1.0529
3143,-0.6837,0.9084,0.7887,-0.7545,0.0409,0.5644
3156,-0.6817,0.9013,0.784,-0.9072,-0.2798,-0.26
3169,-0.6781,0.9108,0.7811,-0.9835,0.4531,-0.5806
3181,-0.7025,0.8984,0.7897,-3.6095,-0.524,-1.2982
3221,-0.6827,0.8974,0.7923,-2.0217,0.2546,-0.2906
3234,-0.6768,0.8959,0.7867,2.0699,1.1859,1.0224
3247,-0.6842,0.9057,0.7855,1.902,0.6668,0.0606
3260,-0.6849,0.904,0.7872,0.36,0.2393,-1.0997
3273,-0.679,0.9025,0.7919,-0.0522,0.1019,-1.344
3286,-0.6827,0.9001,0.7921,-2.3271,-0.9362,-1.7257
3327,-0.6812,0.904,0.7916,2.9401,0.7889,2.4881
3340,-0.6837,0.9074,0.7879,0.7416,0.4073,-0.1074
3353,-0.6788,0.9052,0.7865,-1.5637,-0.0202,-2.6722
3366,-0.6817,0.8954,0.7884,-0.9835,0.2699,-2.1226
3379,-0.6829,0.8964,0.7872,0.0394,0.4989,-0.4585
3392,-0.6795,0.8974,0.7848,1.4745,0.6363,0.9919
3433,-0.6805,0.9035,0.7865,0.9707,0.3004,0.5339
3446,-0.6817,0.9015,0.7843,0.9707,0.4683,0.2743
3459,-0.6834,0.9006,0.7921,0.0699,0.3462,0.0148
3471,-0.679,0.9047,0.7914,-1.4416,-0.2034,-0.6112
3484,-0.6827,0.901,0.7853,-0.3576,0.0714,-0.5959
3496,-0.6834,0.903,0.7882,-0.4797,0.2241,-0.4127
3537,-0.6827,0.902,0.7826,0.9707,-0.0202,0.4423
3550,-0.6802,0.9015,0.7879,1.1386,0.0103,0.8087
3563,-0.6837,0.8996,0.7911,0.4363,0.1477,-0.2142
3575,-0.6827,0.9101,0.7877,-0.8003,-0.6462,-1.115
3589,-0.6805,0.9027,0.7899,-0.3423,-0.1271,-1.0845
3602,-0.6802,0.8984,0.7911,0.0852,-0.0202,-0.9471
3642,-0.68,0.8993,0.7848,1.6729,-0.0202,1.0224
3655,-0.6717,0.8893,0.7926,0.9554,-0.0202,0.7629
3668,-0.6778,0.8988,0.7867,-0.0522,0.2088,-0.3058
3680,-0.6878,0.8988,0.7904,1.3676,0.8806,-0.3822
3692,-0.6878,0.904,0.7838,2.3142,0.9416,0.4423
3705,-0.6822,0.9006,0.7936,3.1233,0.8042,0.8087
3747,-0.6822,0.9047,0.7894,0.421,0.0409,-0.6875
3760,-0.6842,0.902,0.7833,0.9249,0.4683,-0.6722
