time_ms,ax,ay,az,gx,gy,gz
11,-0.6805,0.918,0.6945,0.8645,0.2035,0.5437
24,-0.6744,0.9214,0.695,-1.1355,-0.3156,-0.4945
37,-0.6759,0.917,0.6982,-0.3569,0.3104,-0.6014
49,-0.6835,0.9134,0.6967,1.582,0.4478,-0.1128
91,-0.6776,0.9063,0.6964,-1.6699,0.1577,0.0856
104,-0.682,0.9131,0.6947,-0.4943,0.1119,0.5437
115,-0.6744,0.9173,0.6989,-0.708,0.4478,0.5589
128,-0.6849,0.9217,0.6955,0.3301,0.2035,-0.1739
140,-0.6842,0.9234,0.6977,0.3607,0.0203,-0.6777
152,-0.6744,0.9207,0.6881,-3.1966,-0.6515,-2.2655
193,-0.6725,0.907,0.6979,-4.2195,-0.056,-0.4029
206,-0.6759,0.9039,0.6969,1.7042,0.8753,2.0093
219,-0.6864,0.9141,0.6977,3.7805,1.1653,3.0933
232,-0.6944,0.9292,0.7001,2.9103,0.3256,2.0551
245,-0.7093,0.9178,0.7069,1.3836,-1.6744,1.7498
257,-0.725,0.9124,0.7126,9.7042,-3.1095,5.6734
299,-0.8878,0.7991,0.8683,14.3149,-31.7354,-1.8991
312,-0.8241,0.8614,0.819,9.9027,-46.453,-9.5479
325,-0.6891,0.8526,0.915,0.2385,-57.0179,-24.8151
339,-0.4957,0.9527,0.5746,9.2309,-49.5827,-22.4182
351,-0.3812,0.9776,0.6496,-1.8378,-37.4301,-17.3647
364,-0.3204,1.021,0.6379,-12.7233,-24.0713,-12.8304
405,-0.4613,0.9808,0.5534,-46.6622,19.3027,-3.5632
419,-0.6925,0.8948,0.7265,-51.8531,28.1424,-9.609
431,-1.0113,0.8196,0.9594,-49.8225,12.7684,-14.4182
444,-1.0091,0.8565,0.748,-22.9828,-1.6744,-13.9296
457,-0.7904,0.9214,0.7172,-7.334,7.2875,-9.5632
470,-0.6771,0.9139,0.6049,-25.9752,4.5241,-20.235
511,-0.7101,0.9673,0.1239,31.1393,52.0814,13.7498
524,-0.6354,0.7715,1.8483,20.6813,48.9669,5.3834
537,-0.6578,0.9507,1.1784,-2.7691,23.3944,-0.8151
550,-0.6703,0.8548,1.1291,14.9866,21.8066,0.4063
563,-0.4979,0.9019,1.0165,18.0095,12.5547,0.7879
576,-0.6708,0.9248,0.7709,2.4065,12.173,0.1467
617,-0.7154,0.8201,0.7497,47.4141,-0.285,21.2612
630,-0.7044,0.8475,0.9301,73.3683,-8.1782,35.5666
643,-0.6837,0.9329,0.9626,53.7805,-30.5598,30.1162
656,-0.7044,0.8553,0.8561,23.063,-46.1018,17.307
670,-0.6983,1.0882,0.6505,-4.4332,-46.1018,15.078
682,-0.496,0.9683,0.5849,-31.4103,-36.5751,11.3376
723,-0.7372,0.8226,0.7858,-19.7157,-4.3156,-16.7388
737,-0.9381,0.9544,0.8913,-9.0439,-12.9873,-13.3647
749,-0.7848,0.764,0.6789,1.8416,-6.7889,-12.1892
762,-0.7601,0.5069,0.9337,-29.5477,-11.3843,-34.525
775,-0.7223,0.7242,0.6918,-2.8454,-7.3232,-33.2426
788,-0.7137,0.9073,0.456,-28.9981,-2.224,-31.2426
829,-0.7413,0.7745,0.4767,-30.1126,17.486,-20.1281
842,-0.6471,0.773,0.4308,9.5362,26.8447,-9.0289
855,-0.64,0.858,0.9096,15.0477,14.2188,-2.5556
868,-0.659,0.9622,0.7831,1.9027,23.6692,14.4215
881,-0.6424,0.9092,0.8175,-8.9065,9.5165,12.0856
895,-0.6244,1.0347,0.9372,-7.8531,14.005,31.8872
935,-0.6625,0.6392,0.6325,3.7805,2.234,22.6658
948,-0.7477,0.6558,0.6552,21.4904,0.9974,12.1314
961,-0.692,0.8506,0.8029,37.0172,0.1577,15.3223
974,-0.6781,0.7286,0.7526,19.979,-7.2469,3.3223
987,-0.7574,0.847,0.5536,45.5515,-3.4911,-5.3495
1000,-0.7801,0.7066,0.7472,19.3683,1.0585,-15.2121
1041,-0.786,0.972,0.2636,-3.2729,19.0737,-11.1815
1054,-0.7926,0.971,-0.0836,-10.9065,20.1424,-16.8609
1067,-0.6205,1.0801,1.1083,35.3988,23.1043,0.1925
1080,-0.6766,0.9334,0.9069,5.9179,21.4707,0.0551
1093,-0.6771,1.0611,1.0378,-23.7767,27.318,8.9406
1106,-0.5882,1.3199,0.2719,-33.5172,11.6539,19.4597
1147,-0.6664,0.8707,0.8232,-0.3874,-1.0179,14.2536
1160,-0.6771,0.9087,0.6317,19.8111,-6.4377,4.6658
1173,-0.6959,0.6936,0.6579,18.4523,-4.6973,-7.9907
1186,-0.7135,0.9046,0.643,26.9866,-1.4148,3.0627
1199,-0.6693,0.9021,0.6325,16.4828,1.2875,5.2002
1212,-0.7096,0.91,0.6837,11.4446,2.4173,7.1085
1253,-0.6876,0.9153,0.6957,-0.8149,4.1272,3.8261
1266,-0.6769,0.9241,0.6894,-3.1966,4.0356,0.9406
1279,-0.6803,0.9168,0.6818,-9.6088,3.1195,-3.7311
1292,-0.6817,0.8938,0.6752,-15.3493,2.8295,-7.838
1305,-0.7123,0.8782,0.7008,-20.2195,1.1806,-10.2655
1318,-0.6808,0.9046,0.6789,-8.708,1.089,-2.7998
1358,-0.6847,0.9082,0.6867,-9.3187,0.2646,-2.525
1372,-0.6871,0.8914,0.6916,-10.1584,0.0508,-4.7998
1385,-0.6944,0.888,0.6908,-4.8912,0.5089,-2.9525
1398,-0.6793,0.8973,0.6857,-0.1431,0.2035,-0.4487
1410,-0.6769,0.8877,0.6869,-2.3416,-0.5751,-0.7998
1422,-0.6876,0.8855,0.6911,-0.0363,-0.9263,0.6963
1464,-0.6852,0.898,0.6916,4.4828,-0.4072,1.8108
1477,-0.6888,0.9053,0.6938,4.4981,-0.5751,1.1391
1490,-0.6876,0.9063,0.6864,-0.1584,-0.9873,-1.4716
1503,-0.6893,0.8892,0.6921,-1.8378,-0.8347,-1.151
1516,-0.6827,0.8916,0.6933,0.2996,-0.7583,0.9864
1529,-0.6793,0.8907,0.6899,1.6126,-0.285,2.5131
1570,-0.6891,0.9029,0.6928,-2.1584,-0.8041,-2.0212
1583,-0.6881,0.898,0.6918,-2.021,-0.8347,-2.7082
1596,-0.682,0.8846,0.696,-1.5172,-0.5751,-2.2197
1609,-0.6805,0.8892,0.6857,3.4141,-0.6667,0.7269
1622,-0.6854,0.8919,0.6938,6.6202,-0.3308,2.4521
1635,-0.6817,0.8938,0.6891,4.0401,0.2798,2.3605
1675,-0.6803,0.8978,0.6925,-0.4485,-0.4377,1.307
1689,-0.6759,0.8941,0.6845,1.063,-0.3003,1.0169
1702,-0.6878,0.8926,0.6969,2.0401,-0.5598,0.9253
1715,-0.6769,0.9036,0.6896,-1.166,-0.6515,-0.3113
1728,-0.6827,0.9009,0.6879,-1.8683,-0.6209,-1.0594
1740,-0.6783,0.8965,0.6964,-0.7691,-0.4835,-0.922
1782,-0.6871,0.8926,0.6957,-6.6622,-0.4835,-1.7922
1795,-0.6737,0.8855,0.6913,-4.0668,-0.4377,-0.3266
1807,-0.6857,0.8809,0.6955,-0.5401,0.3562,1.4597
1821,-0.6881,0.8956,0.6955,6.1317,0.402,3.8719
1834,-0.6871,0.9036,0.695,4.1775,0.1882,1.5513
1847,-0.6793,0.8951,0.6925,4.9866,-0.4224,1.0933
1888,-0.6852,0.8926,0.6991,5.9332,-0.224,0.2994
1901,-0.681,0.898,0.6903,8.437,-0.0102,1.6734
1914,-0.6717,0.8978,0.693,10.2843,0.2646,1.5208
1927,-0.6808,0.9024,0.6872,5.4752,0.3104,-0.4487
1939,-0.6898,0.9004,0.6942,5.2309,0.3562,-0.4487
1953,-0.6866,0.9026,0.6935,6.5897,-0.3156,0.4826
1994,-0.6813,0.9126,0.6855,13.7653,0.0356,1.9482
2006,-0.683,0.9158,0.6874,8.5286,0.3562,-0.6014
2020,-0.6849,0.9104,0.6879,6.5439,0.0661,-2.2044
2032,-0.683,0.9026,0.6889,9.9637,0.1119,-0.8762
2046,-0.6869,0.9092,0.6886,10.1469,-0.0408,0.6047
2059,-0.6815,0.9124,0.6845,3.6126,0.0661,0.849
2100,-0.6788,0.9165,0.6808,0.6813,0.2493,-0.7235
2113,-0.6847,0.9122,0.6823,-0.4027,-0.0713,-1.7159
2126,-0.6869,0.9129,0.6901,-1.7462,-0.453,-2.1739
2139,-0.683,0.9144,0.684,-1.5477,-0.2698,-1.2579
2152,-0.682,0.9126,0.6884,-2.5706,-0.3614,-0.4029
2165,-0.6822,0.9082,0.6906,-0.5401,-0.4072,0.0093
2205,-0.6815,0.9122,0.685,7.0324,0.4325,1.0627
2219,-0.6795,0.9168,0.6899,4.9714,0.6615,-0.1739
2232,-0.6832,0.9124,0.6903,-0.1279,0.1577,-1.4869
2245,-0.682,0.908,0.685,0.5133,0.1577,-0.7388
2257,-0.6876,0.909,0.6859,-1.2882,0.5394,-0.5403
2270,-0.6866,0.9095,0.6877,-1.8531,0.0966,-0.525
2311,-0.6808,0.9104,0.6889,4.6965,0.1119,0.4521
2323,-0.6791,0.9183,0.6823,2.7729,0.8295,0.5589
2336,-0.6847,0.9117,0.6864,1.6584,0.6615,0.391
2350,-0.6813,0.9146,0.6877,-0.6928,0.234,0.0093
2362,-0.682,0.9131,0.6864,-2.3874,-0.1934,-0.5403
2375,-0.6791,0.9134,0.6835,-5.0592,-0.6973,-1.4716
2416,-0.6847,0.9051,0.6889,-1.8073,0.0814,-2.3724
2429,-0.6837,0.9061,0.6957,0.2538,0.234,-1.2121
2442,-0.6771,0.9046,0.6894,0.7118,0.4783,-0.067
2455,-0.6886,0.9058,0.6886,0.5897,0.3409,0.6658
2467,-0.683,0.9085,0.6816,-3.0744,0.0661,-0.6624
2480,-0.6827,0.9014,0.6925,-3.5935,-0.0713,-0.3418
2521,-0.681,0.9148,0.6872,2.9103,0.2646,0.2231
2533,-0.6844,0.9119,0.6828,1.6889,0.3256,-0.0518
2546,-0.6778,0.908,0.6842,0.3149,0.173,0.7269
2559,-0.68,0.9102,0.6828,-0.9981,0.173,0.9253
2572,-0.6839,0.9104,0.6852,-2.0668,-0.1324,1.246
2585,-0.6781,0.9058,0.6847,-1.2576,-0.224,1.307
2626,-0.681,0.9102,0.6847,-4.1584,-0.5598,-1.2426
2639,-0.6835,0.9063,0.6908,-4.2653,-0.285,-1.5785
2652,-0.68,0.9029,0.6837,-2.5706,-0.1018,-0.7235
2665,-0.683,0.9085,0.6921,-1.7309,0.0508,0.0704
2677,-0.6815,0.9102,0.6891,-1.1355,0.173,0.4673
2690,-0.6835,0.9048,0.6903,-1.8531,0.0356,0.1925
2732,-0.6835,0.9058,0.6921,-1.9905,-0.1629,1.4292
2745,-0.6808,0.9104,0.6859,-3.2576,0.1882,1.0017
2758,-0.672,0.9082,0.6855,-6.7233,0.173,-0.2502
2770,-0.6857,0.9039,0.6894,-3.4561,0.2188,0.4063
2784,-0.68,0.9117,0.6889,-3.5783,-0.056,-0.006
2797,-0.6832,0.9036,0.6881,-3.8225,-0.1629,-0.6014
2838,-0.6786,0.8873,0.6945,-1.0744,0.0661,0.4215
2850,-0.681,0.8995,0.6947,1.0324,-0.056,1.704
2864,-0.6766,0.9029,0.6964,5.979,0.7073,3.2307
2877,-0.6791,0.908,0.6899,4.7118,1.1501,2.9864
2890,-0.6835,0.9112,0.6864,2.1164,0.4936,1.7803
2903,-0.6791,0.9068,0.6911,2.4217,0.4325,1.246
2944,-0.6832,0.9051,0.6921,1.9332,0.4173,1.5513
2957,-0.6861,0.91,0.6908,2.9714,0.5089,2.9406
2970,-0.6771,0.9039,0.6901,3.2004,0.5394,3.6276
2982,-0.6803,0.9136,0.6859,3.9027,0.6005,4.2536
2996,-0.6788,0.91,0.684,2.8798,0.1119,4.8337
3009,-0.6835,0.9183,0.6833,4.5133,-0.0408,4.9253
3049,-0.6815,0.9156,0.6925,0.1164,0.6463,1.4902
3063,-0.6803,0.917,0.6842,-0.2958,0.5699,0.5895
3076,-0.6839,0.9131,0.6896,-0.9065,0.4478,0.0398
3088,-0.6849,0.9202,0.6886,-0.5248,-0.3614,-0.1892
3100,-0.6756,0.9129,0.6874,-1.6088,-0.5598,-0.4487
3113,-0.6803,0.9148,0.6879,-0.6928,-0.0713,-0.3571
3154,-0.6896,0.9185,0.6918,-0.7386,0.3562,0.0398
3167,-0.6876,0.9136,0.693,-0.6317,0.0966,-0.1892
3179,-0.6778,0.9136,0.6972,-0.8454,-0.3461,-0.2808
3191,-0.6744,0.9063,0.6906,-1.0592,0.0814,0.0704
3204,-0.6793,0.9163,0.6869,-1.2729,0.3104,0.1009
3216,-0.6808,0.9202,0.6859,-3.0744,0.1424,-1.0441
3258,-0.6825,0.9183,0.6901,2.1622,-0.3766,0.5437
3271,-0.6798,0.9129,0.6879,1.8416,-0.0408,0.62
3283,-0.6788,0.9183,0.6855,0.8798,0.0508,0.4979
3297,-0.6798,0.9141,0.6828,0.9866,0.2188,0.5742
3309,-0.6759,0.9136,0.6903,-0.3111,0.4936,0.1773
3321,-0.6813,0.9185,0.6869,0.0095,0.5394,-0.525
3362,-0.6837,0.9192,0.6857,-1.8836,-0.453,-1.0441
3375,-0.6798,0.9129,0.6921,-3.2271,-0.7125,-1.838
3388,-0.6786,0.9224,0.6901,-1.9447,-0.285,-1.8686
3401,-0.6832,0.9068,0.6903,0.1164,-0.1782,-0.8609
3413,-0.6788,0.9153,0.6881,-1.3951,-0.3614,-0.7388
3426,-0.6764,0.9185,0.6867,-2.4332,-0.0408,-0.693
3467,-0.6817,0.9131,0.6952,-1.1813,0.0814,-0.9983
3480,-0.6769,0.9117,0.6881,0.895,0.2188,-0.6472
3492,-0.6786,0.9109,0.6862,-0.1431,-0.3766,-0.4487
3504,-0.6859,0.908,0.6874,-0.2042,-0.1324,0.3452
3516,-0.6835,0.9151,0.6923,-1.8225,-0.4988,0.4521
3529,-0.6793,0.9161,0.6901,-3.0134,-0.1018,-0.4182
3570,-0.6822,0.9056,0.6913,-0.1737,0.7073,-1.1815
3582,-0.6805,0.9068,0.6901,2.8034,0.6463,0.8795
3596,-0.6803,0.9063,0.6903,2.895,0.631,1.8566
3609,-0.6837,0.9114,0.6933,2.9561,0.5547,1.765
3622,-0.6813,0.9168,0.6881,0.2385,0.3104,1.246
3635,-0.6793,0.9129,0.6906,-0.7233,-0.0102,-0.4029
3676,-0.68,0.9078,0.6889,-2.3722,-0.1629,-2.6014
3689,-0.6849,0.9053,0.6903,1.2309,0.5547,-0.3876
3702,-0.6813,0.907,0.6859,0.2385,0.3256,-0.1128
3714,-0.6835,0.9048,0.6894,1.0935,0.4936,1.078
