time_ms,ax,ay,az,gx,gy,gz
12,-0.7257,0.3187,0.5584,3.0067,-1.1686,2.2652
24,-0.7259,0.3282,0.5528,2.2129,-0.3595,1.395
37,-0.7245,0.3287,0.5548,0.7319,0.2207,-0.5745
50,-0.7254,0.3273,0.5477,-1.1765,0.6787,-2.0554
91,-0.7235,0.319,0.5523,0.3961,0.0986,0.6927
104,-0.724,0.319,0.5509,1.5106,0.2818,2.1431
117,-0.7316,0.3226,0.5516,3.0525,-0.1304,2.6469
130,-0.7289,0.3339,0.5555,0.6251,0.1596,0.5858
143,-0.7247,0.3295,0.5526,-1.7108,0.3734,-1.8264
156,-0.7301,0.3226,0.5496,-0.123,0.2207,-2.0554
197,-0.7252,0.3185,0.5538,-0.2146,-0.3747,-0.2234
210,-0.7284,0.3212,0.554,1.0678,-0.4053,0.998
222,-0.7259,0.3234,0.5545,1.3579,-0.161,1.456
236,-0.7235,0.3268,0.5567,0.8693,0.0375,-0.2997
247,-0.7269,0.3204,0.5516,0.3197,0.2207,-1.231
260,-0.7267,0.3282,0.5638,-1.0849,-0.3136,-1.5821
301,-0.7269,0.3165,0.5543,0.5335,-0.2678,-0.0096
314,-0.7254,0.3221,0.5423,1.9228,-0.619,1.2576
327,-0.7264,0.3255,0.5582,1.2663,-0.0541,0.9675
340,-0.7218,0.3263,0.5501,1.4342,0.236,0.7995
353,-0.7257,0.3224,0.5516,0.7777,0.6329,0.1125
366,-0.7279,0.3197,0.5577,1.3732,0.068,1.227
407,-0.7245,0.3238,0.555,-0.9933,-0.3442,-0.5745
420,-0.724,0.3255,0.554,-0.6879,-0.3595,-1.3531
433,-0.7472,0.318,0.5655,-0.7795,-0.8633,-2.147
446,-0.7289,0.3238,0.5562,0.8999,-0.7106,-0.544
458,-0.7267,0.3151,0.5511,1.2358,-0.8327,0.6774
472,-0.7262,0.3209,0.5562,2.6861,-1.1533,1.9904
513,-0.7311,0.3263,0.5579,0.3197,-2.9854,1.9751
525,-0.7308,0.3197,0.5596,3.3426,-4.8938,6.4026
538,-0.7347,0.3041,0.5504,6.9151,-7.2144,13.3186
552,-0.7176,0.2987,0.5584,17.251,-10.3289,27.2881
565,-0.7472,0.2926,0.5697,34.9609,-14.619,39.3034
577,-0.806,0.2352,0.5909,32.4266,-13.6114,47.395
618,-0.8448,0.2123,0.6114,83.2968,-97.0923,-12.834
632,-0.6297,0.3746,0.5267,86.3808,-90.9091,-1.6737
644,-0.565,0.3854,0.6168,82.5793,-82.6953,6.2805
658,-0.4545,0.4576,0.5616,77.3426,-70.2373,8.2805
671,-0.3802,0.4684,0.5369,68.4419,-42.848,-1.8111
683,-0.3797,0.4112,0.5362,54.6861,-10.4053,-21.4905
724,-0.609,0.3922,0.7796,19.1747,42.7703,-72.7424
737,-0.7506,0.7162,0.6561,31.8159,42.3123,-47.2768
751,-0.8334,0.4408,0.7208,23.0067,35.0451,-26.1928
764,-0.8636,0.2789,0.7384,34.2281,24.9383,-29.7043
777,-0.7584,0.3009,0.6783,51.5564,14.236,-19.3073
790,-0.6568,0.3841,0.6925,61.6632,4.5108,-9.6737
830,-0.7096,0.5755,0.5999,0.3961,26.3581,-6.8798
844,-0.6603,0.5113,0.5941,-12.2299,39.1673,0.2041
857,-0.7103,0.473,0.6524,-27.8787,45.6253,-5.4295
869,-0.9549,0.2311,1.356,-52.6116,-54.3747,-50.7424
883,-0.7008,0.2508,0.6009,-22.7948,14.9993,-8.4371
896,-0.6871,0.3627,0.6173,-28.3062,0.1749,-1.3226
936,-0.8094,0.3544,0.1458,-24.8864,52.7398,12.3263
949,-0.7547,0.3949,0.524,-34.7948,57.0299,17.3797
963,-0.8299,0.7233,0.7203,-35.9398,46.7703,32.1736
976,-0.7132,0.5277,0.5706,17.4342,82.8467,32.0362
989,-0.7162,1.0856,0.66,14.0449,80.0833,36.9064
1001,-0.6747,0.2176,0.7425,-19.8024,67.4573,28.3568
1043,-0.5013,-0.0831,0.972,-14.2452,47.1673,20.2194
1055,-0.931,0.8453,0.1212,26.335,47.1215,57.3492
1068,-0.9488,0.6617,0.148,-2.9475,43.5489,32.7537
1081,-0.995,0.7994,-0.1198,29.8922,33.0299,38.7232
1095,-0.6693,0.1554,0.7889,-5.0696,8.923,18.3873
1108,-0.7159,0.2997,0.6502,2.3197,13.2283,25.853
1148,-0.5812,0.3351,0.7943,-8.123,-63.535,1.7766
1162,-1.0951,0.2914,0.7169,-8.4894,-102.207,-9.6279
1175,-1.0172,0.3302,0.5233,21.9838,-126.955,-18.2081
1188,-0.8758,0.4576,0.4149,43.6632,-122.054,-9.7501
1200,-0.6783,0.5155,0.4173,38.4419,-100.298,-6.9714
1213,-0.6297,0.495,0.5623,24.1671,-81.1686,-0.5134
1255,-0.5004,0.4711,0.5794,5.3426,-33.3671,-20.0096
1268,-0.4989,0.5934,0.5252,-11.5581,-10.8022,-31.2157
1281,-0.557,0.579,0.5428,-22.1688,20.9841,-36.7119
1293,-0.6246,0.5655,0.5692,-37.1459,41.2283,-37.9791
1307,-0.6485,0.3597,0.5985,-36.9169,55.6405,-42.1928
1319,-0.7467,0.2674,0.6683,-39.9551,50.6635,-35.1241
1360,-0.7462,0.3927,0.9417,25.8617,-28.5579,7.5629
1374,-0.923,-0.1076,0.4869,21.1136,-23.7793,20.5705
1386,-0.6178,0.3585,0.5047,29.2663,-14.0236,-10.7882
1400,-0.7933,0.6485,0.6497,75.8312,14.1291,-22.0402
1413,-1.0707,0.1634,0.2738,47.7243,-2.1762,-5.7501
1426,-0.6937,0.5389,1.1812,59.2358,19.8543,-36.4982
1466,-0.6205,0.3988,0.6163,-2.6726,22.1596,-34.6661
1480,-0.806,0.4791,0.5645,-4.2452,30.6329,-38.2539
1493,-0.7118,0.473,1.0467,-0.3673,43.1825,-36.2386
1506,-0.7032,0.7408,0.8079,-25.1765,54.8467,-3.5821
1518,-0.9054,0.577,-0.2043,2.793,53.6405,2.7232
1531,-0.4816,-0.0175,0.9505,-18.1078,58.2818,10.9675
1573,-0.9244,0.1127,0.7137,-124.031,21.3047,24.1736
1585,-0.4979,-0.0062,1.2664,-36.6879,12.5413,17.3797
1598,-0.5753,-0.1976,0.5338,-75.9245,-5.2907,19.1049
1611,-0.6847,-0.1181,0.4576,-51.6039,-8.5121,15.8224
1625,-0.7486,-0.7401,0.5113,-47.4665,-31.5961,22.5553
1638,-0.734,0.0543,0.4596,-25.4665,-22.2373,16.5247
1678,-0.7257,0.3224,0.5892,10.2281,-9.5198,8.2499
1691,-0.6407,0.2494,0.7325,17.022,-19.8556,9.3034
1705,-0.545,-0.0758,0.5213,15.7701,-18.6343,-10.773
1718,-0.5526,-0.1412,0.242,28.5029,-7.4434,-26.0707
1731,-0.5223,-0.1344,0.2701,45.7396,2.3123,-21.1089
1743,-0.9283,0.5091,0.8055,98.6251,19.9612,-20.0096
1785,-0.8216,0.6481,0.6082,25.1289,20.6176,1.3644
1798,-0.775,0.4239,0.5247,0.5487,23.9917,-8.2844
1810,-0.763,0.5897,0.7059,11.9075,43.5184,-6.4066
1823,-0.8387,0.4286,0.3016,10.2434,45.3199,-10.0249
1837,-0.8212,0.2882,0.6563,-16.3368,52.7093,-5.2005
1850,-1.0567,0.4586,0.149,-44.8864,42.1138,3.5324
1890,-0.6422,0.1427,0.953,-30.1536,45.7474,12.0362
1904,-0.5733,0.1539,0.6942,-18.3062,16.6024,-4.1928
1917,-0.785,0.1642,0.6346,-50.352,14.5718,17.4102
1930,-0.8644,0.5633,0.359,-23.1154,7.9306,11.395
1942,-0.8102,0.1954,0.6009,-17.1307,-17.3671,22.6774
1955,-0.7325,0.079,0.712,-37.5887,-13.0465,11.1049
1997,-0.7228,0.0694,0.4986,-36.7337,-23.4434,25.0133
2009,-0.8026,0.6354,0.3919,-30.6879,-12.6495,4.1278
2022,-0.7447,0.2338,0.4491,-11.0543,-17.3976,0.9522
2036,-0.8006,0.3426,0.4078,-15.4665,-6.0999,-11.2005
2049,-0.7621,0.4271,0.4762,-6.749,-5.8251,-3.6737
2062,-0.7743,0.423,0.4622,-10.2299,-7.5045,-1.0783
2102,-0.7755,0.4142,0.4788,-4.1994,1.381,1.0438
2115,-0.7711,0.4205,0.4827,-4.7642,2.3123,0.0515
2128,-0.7706,0.4166,0.4845,-4.6421,2.6787,-0.9714
2142,-0.7743,0.4076,0.4715,-4.0467,1.8085,-1.0936
2155,-0.7755,0.4205,0.4676,-5.1612,0.7551,-0.9867
2167,-0.7743,0.4059,0.4703,-4.81,0.4955,-1.4753
2208,-0.7733,0.411,0.4784,2.4266,-0.0846,1.5171
2221,-0.7679,0.4127,0.4764,2.9609,-0.9396,1.5324
2235,-0.7755,0.4093,0.4784,5.5106,-0.6037,2.1583
2247,-0.7738,0.4144,0.4818,5.9075,1.152,1.8682
2260,-0.7565,0.4657,0.5042,3.5411,3.4421,3.5629
2273,-0.7704,0.4244,0.4774,8.9915,4.9993,-0.2081
2315,-0.7709,0.4259,0.4744,-2.7184,8.8314,-13.9791
2327,-0.777,0.4144,0.4727,-4.9933,9.9612,-15.8417
2340,-0.7738,0.4234,0.4705,-5.665,11.0451,-15.6432
2354,-0.7601,0.3851,0.4664,-0.5505,12.4192,-12.2997
2366,-0.7706,0.389,0.4593,2.2587,11.1978,-13.5211
2380,-0.7691,0.3702,0.4232,-3.3902,8.5718,-16.8646
2420,-0.7713,0.3758,0.4517,-17.5887,-12.7717,-8.0096
2433,-0.7684,0.3612,0.4605,-7.8787,-12.1457,-2.2234
2446,-0.7655,0.3978,0.4762,-1.7871,-11.764,0.8759
2459,-0.7626,0.3859,0.481,0.0449,-9.3976,-2.8035
2473,-0.7677,0.3851,0.4805,-0.291,-6.161,-5.2157
2486,-0.7696,0.3783,0.4625,11.7701,-7.764,-3.5669
2526,-0.7674,0.4471,0.4957,32.6098,-22.2526,4.5247
2539,-0.7699,0.3907,0.4864,29.5106,-26.5274,4.6774
2553,-0.7574,0.4,0.4981,23.3732,-27.2907,2.4637
2566,-0.7572,0.4003,0.504,15.648,-26.6953,-1.0631
2579,-0.7545,0.3981,0.5152,10.8388,-26.1304,-0.5898
2591,-0.7528,0.3895,0.5189,4.6556,-22.6037,-1.9638
2632,-0.7508,0.4051,0.5308,6.3045,-13.8251,-13.3989
2646,-0.7491,0.4027,0.5409,-1.3444,-10.0694,-19.7959
2658,-0.7447,0.3778,0.5304,-3.7719,-6.848,-21.0936
2672,-0.7423,0.3607,0.5362,0.0449,-6.2373,-15.689
2684,-0.744,0.3534,0.5345,2.7319,-7.5503,-6.5745
2697,-0.7464,0.3558,0.5272,5.5564,-10.3289,4.2041
2739,-0.7452,0.3912,0.5567,3.648,-10.5732,12.8759
2751,-0.7413,0.3993,0.5611,0.7319,-6.8938,9.4255
2765,-0.7428,0.4029,0.5653,-2.291,-1.0312,4.311
2778,-0.7394,0.3929,0.5567,-3.5276,3.7016,-0.1318
2790,-0.7464,0.3854,0.5499,-1.5429,5.2589,0.3263
2803,-0.7455,0.3944,0.5472,0.9457,4.0222,2.6621
2845,-0.746,0.4037,0.5492,4.2434,-4.6037,10.5247
2857,-0.7525,0.3885,0.5528,4.8846,-4.0236,8.6163
2870,-0.7435,0.401,0.5455,2.6709,-2.1457,5.6698
2883,-0.7472,0.4003,0.5494,2.6861,-1.4434,3.0591
2897,-0.7496,0.3885,0.5477,8.1823,-2.1457,4.0209
2909,-0.7474,0.3976,0.5499,9.7396,-3.4892,4.3263
2950,-0.7472,0.3978,0.5565,11.4953,-7.0007,1.1049
2964,-0.7428,0.4151,0.5658,6.9457,-5.3213,-0.1623
2976,-0.7508,0.3981,0.5626,10.9457,-4.2831,2.2805
2989,-0.7452,0.411,0.5667,20.7319,-4.39,5.7614
3003,-0.744,0.4173,0.5662,22.3655,-5.4587,7.3797
3015,-0.7399,0.4305,0.5709,15.9838,-4.8022,3.6698
3056,-0.7401,0.431,0.576,16.9915,0.2665,-1.7195
3069,-0.7374,0.431,0.5745,15.9838,1.7932,-2.0707
3083,-0.7389,0.4335,0.5711,15.4953,2.0528,-1.231
3095,-0.7428,0.4239,0.5606,15.6632,0.7398,0.0362
3108,-0.7435,0.4249,0.5699,13.5106,-0.4358,-0.7577
3122,-0.7457,0.4261,0.5714,11.1136,-1.1991,-1.1699
3163,-0.7418,0.4164,0.5719,8.4266,-4.3289,-1.0478
3175,-0.742,0.4264,0.5794,12.2129,-4.7259,0.5095
3188,-0.743,0.4364,0.5772,9.0373,-4.4663,-0.376
3202,-0.7411,0.4481,0.5867,10.8693,-3.5808,-2.2386
3214,-0.7386,0.452,0.5819,5.1594,-2.3747,-7.2615
3227,-0.7345,0.4422,0.5855,3.709,-1.2755,-8.8493
3268,-0.7364,0.4176,0.5804,3.0678,-0.39,-7.5363
3282,-0.7391,0.4217,0.5748,5.9075,-1.4892,-4.4066
3294,-0.7379,0.4205,0.5814,6.3197,-3.1381,-3.0325
3308,-0.7401,0.4247,0.5833,3.1747,-3.9167,-2.2081
3320,-0.7367,0.4169,0.5887,6.2892,-4.6343,1.166
3333,-0.7359,0.4181,0.5909,7.8922,-4.6953,3.4102
3374,-0.732,0.4447,0.587,6.9151,-0.6037,-1.2463
3387,-0.7347,0.4452,0.5853,0.0296,0.465,-5.7043
3400,-0.7362,0.4398,0.5863,-3.3597,0.9077,-8.8035
3413,-0.7357,0.4288,0.5841,-4.8711,1.4573,-9.6127
3427,-0.7364,0.4125,0.5828,-3.3444,1.3047,-7.002
3439,-0.7352,0.4166,0.5804,4.4113,-0.6037,-0.9867
3480,-0.7325,0.4545,0.5902,6.4113,-1.5503,-1.7195
3493,-0.7362,0.4396,0.5929,1.8464,-0.8633,-7.1852
3507,-0.7379,0.4374,0.5958,-3.4971,-0.6343,-10.7577
3519,-0.7347,0.4208,0.5885,-3.4818,-0.6343,-10.2386
3532,-0.7357,0.4134,0.5846,-0.3978,-1.1381,-7.2463
3546,-0.7333,0.4173,0.5875,-0.0925,-1.9167,-4.9562
3587,-0.7313,0.423,0.5875,-0.3978,-4.2373,-4.2692
3599,-0.732,0.42,0.5921,-4.1688,-3.6419,-7.0478
3612,-0.7318,0.4115,0.5941,-3.4971,-2.4205,-6.5898
3626,-0.7296,0.4195,0.5938,-5.3444,-1.6419,-6.7882
3638,-0.733,0.4042,0.5904,-3.8177,-0.848,-5.5974
3651,-0.7311,0.4103,0.5924,-1.3444,-1.2907,-3.4447
3693,-0.7323,0.4,0.5982,-2.3215,-0.6648,-4.9562
3706,-0.7272,0.4015,0.599,-0.9933,-0.6801,-3.7043
3718,-0.7289,0.3981,0.5955,-0.4436,-0.619,-2.9714
3732,-0.7291,0.3966,0.5894,-3.4207,-0.4663,-5.4142
3745,-0.7303,0.4022,0.5919,-2.8406,-1.3518,-4.8798
3757,-0.7291,0.3995,0.5924,-4.0772,-0.8633,-5.3684
3798,-0.7323,0.3939,0.5943,2.1976,1.1062,1.0591
3811,-0.7281,0.4005,0.6021,1.4648,1.2741,0.8301
3825,-0.7291,0.4003,0.5902,-1.3139,1.3505,-0.9409
3837,-0.7284,0.3983,0.5889,-1.5581,0.9993,-1.2005
3850,-0.7281,0.3917,0.5926,-0.7032,0.7703,-0.8188
3864,-0.7289,0.4025,0.5897,-0.4284,0.3123,-0.4982
3904,-0.7259,0.4049,0.5909,0.5793,-0.5121,-0.1318
3918,-0.7242,0.3983,0.5919,-0.5047,-0.0846,-1.9333
3930,-0.7298,0.392,0.5994,-0.291,1.0451,-3.5669
3943,-0.7284,0.4005,0.5921,-0.3215,0.8772,-4.2081
3957,-0.7267,0.3968,0.5936,-0.8253,-0.0388,-3.9944
3969,-0.7272,0.3846,0.5946,0.5487,-0.9396,-1.7959
4010,-0.7211,0.4083,0.5987,2.2587,-0.9549,-0.4982
4023,-0.7276,0.3985,0.595,-1.0849,0.6024,-3.7348
4037,-0.7284,0.3956,0.5924,-3.1765,0.9077,-4.8646
4049,-0.7289,0.39,0.5936,-3.3444,1.1825,-4.834
4063,-0.7281,0.3834,0.5972,-0.5352,0.236,-2.5134
4076,-0.7242,0.3871,0.5892,-0.1841,-0.0846,-1.1089
4117,-0.7267,0.381,0.5936,-0.8711,0.2054,-0.2081
4129,-0.7279,0.3907,0.5963,0.3808,0.236,1.1354
4142,-0.7272,0.3885,0.5882,1.022,0.4955,1.7156
4155,-0.7279,0.3942,0.5894,2.0754,0.7398,2.8606
4168,-0.7252,0.3946,0.5887,-0.6116,1.0604,0.8301
4182,-0.7272,0.391,0.596,0.4877,1.2131,0.5858
4222,-0.732,0.392,0.5907,1.3426,0.6482,-2.8646
4236,-0.7291,0.3929,0.5872,-0.581,0.5566,-3.7348
4249,-0.7269,0.3902,0.5902,-1.9856,-0.0388,-3.9791
4262,-0.7306,0.39,0.5867,-2.8558,-0.2831,-3.6585
4274,-0.7254,0.3854,0.5897,-2.5658,-0.7411,-2.8493
4288,-0.7313,0.3868,0.5887,-2.5658,-0.5274,-3.1547
4329,-0.7272,0.3819,0.587,1.9533,-0.1152,-1.1241
4341,-0.7269,0.3878,0.5948,0.0907,0.1749,-1.9333
4355,-0.7264,0.3817,0.588,-0.749,0.7551,-3.3226
4368,-0.7279,0.3859,0.5929,-2.1383,1.0604,-4.376
4380,-0.7306,0.3763,0.588,-1.0543,0.7551,-3.5669
4394,-0.7279,0.3788,0.5843,-1.7871,-0.161,-2.4829
4434,-0.725,0.3893,0.5904,0.5182,0.0528,-1.3379
4448,-0.7289,0.3834,0.5926,-0.2604,0.2818,-2.544
4460,-0.724,0.3812,0.5897,-1.8787,0.0375,-3.3837
4474,-0.7247,0.38,0.5919,-2.352,0.4802,-3.9485
4487,-0.7223,0.3736,0.5929,-1.8635,0.8467,-3.8264
4499,-0.7276,0.379,0.5836,-1.7261,1.152,-3.4753
4541,-0.7276,0.3783,0.5941,-2.1994,-0.0541,-2.2997
4553,-0.7218,0.3749,0.5909,-3.7719,0.4955,-3.231
4566,-0.7262,0.3773,0.5963,-4.9016,1.2131,-4.605
4580,-0.723,0.3722,0.5933,-2.9627,1.5642,-4.2234
4592,-0.7279,0.3649,0.5907,-0.5047,2.1902,-2.7119
4606,-0.7257,0.3697,0.5843,2.2281,1.0299,-0.8798
4647,-0.7257,0.3678,0.588,0.2129,0.3886,-1.0325
4660,-0.7233,0.3661,0.5882,0.3655,-0.3289,-0.2386
4671,-0.7235,0.3675,0.5828,1.877,-0.2831,1.227
4685,-0.7201,0.3702,0.586,3.6174,-0.39,2.7079
4697,-0.7254,0.3729,0.5904,2.4419,-0.2984,1.9598
4710,-0.7262,0.3795,0.5943,0.5487,-0.1304,0.0362
4751,-0.7237,0.3656,0.5872,-1.0085,0.5871,-1.5363
4765,-0.7242,0.3661,0.5838,1.3884,-0.1457,1.8988
4777,-0.7208,0.371,0.5848,2.2739,-0.5121,2.7537
4790,-0.7242,0.3749,0.5887,3.3732,-0.5427,3.5018
4803,-0.7228,0.3795,0.5841,0.6556,-0.2068,1.0591
4816,-0.724,0.3754,0.5867,-1.1154,1.0299,-1.0783
4857,-0.7294,0.3651,0.5867,1.5869,0.7245,-1.0173
4871,-0.7223,0.37,0.5843,2.6403,-0.2526,1.0896
4883,-0.7252,0.3714,0.5804,2.8083,-0.8022,1.5324
4897,-0.7254,0.3749,0.588,-1.2528,-1.2449,-0.5745
4910,-0.7247,0.3744,0.5877,-1.5734,-0.8327,-0.4676
4922,-0.7245,0.3707,0.5907,-1.9093,0.2207,-0.9409
4963,-0.725,0.3656,0.5853,0.5335,1.6253,0.4026
4977,-0.7284,0.3717,0.5843,0.7625,0.8925,0.5095
4988,-0.7291,0.3751,0.5882,0.0602,-0.1457,0.7385
5000,-0.7269,0.3741,0.5867,-3.1612,-0.2526,-1.6279
5014,-0.7252,0.3658,0.5926,-2.2146,-0.2984,-1.4142
5027,-0.7267,0.3705,0.5836,-1.6497,0.0986,-1.2157
5067,-0.7247,0.3768,0.5858,3.4953,-0.2373,1.6392
5080,-0.7254,0.3732,0.5894,-0.4742,-0.0083,-1.1394
5094,-0.724,0.3661,0.5865,-1.0849,0.4192,-1.7959
5106,-0.7208,0.3671,0.5836,-0.291,-0.0694,-1.9638
5119,-0.7257,0.3646,0.5848,-0.0467,0.2818,-1.1547
5133,-0.7254,0.3651,0.5794,1.8006,-0.6343,1.3339
5174,-0.7262,0.3741,0.5889,-0.6268,-1.3518,0.082
5187,-0.7225,0.3739,0.5911,-0.4436,-0.8938,-1.2005
5199,-0.725,0.3675,0.5911,-1.0849,-0.4511,-2.3913
5212,-0.7267,0.3627,0.5863,0.3655,-0.5427,-1.4295
5225,-0.7237,0.3653,0.5816,1.2052,-1.1533,0.4026
5238,-0.7257,0.3707,0.5863,1.1594,-1.3671,1.227
5279,-0.7247,0.3685,0.5894,-4.0009,-0.3595,-1.9638
5292,-0.7215,0.3644,0.5877,-1.9551,0.1138,-0.7577
