time_ms,ax,ay,az,gx,gy,gz
13,-0.7608,0.3475,0.4544,-1.2223,0.9383,-1.2615
53,-0.765,0.3402,0.4581,0.1671,-0.0541,0.6469
67,-0.765,0.3417,0.4615,0.5793,-0.6801,1.0896
79,-0.7655,0.3397,0.4574,0.4877,-0.6495,1.1049
93,-0.7645,0.3412,0.4622,0.2434,-0.1915,0.9522
105,-0.763,0.3407,0.4561,0.2892,0.1291,1.1354
118,-0.7616,0.3436,0.4605,-1.6192,-0.1304,-0.1165
159,-0.7628,0.338,0.4554,-0.8253,-0.2526,-0.0707
172,-0.763,0.3373,0.4534,0.8235,-0.1457,0.4789
184,-0.7652,0.3397,0.4552,0.6251,-0.4816,0.3568
195,-0.7604,0.3385,0.4571,1.251,-0.7106,0.769
209,-0.7638,0.3451,0.4588,1.2358,-0.8327,0.4637
222,-0.7648,0.3456,0.4564,-0.8406,-0.7564,-1.6737
263,-0.7628,0.3414,0.4576,0.7319,-0.5885,1.166
275,-0.7601,0.3382,0.4532,2.3045,-0.2068,2.6316
289,-0.7621,0.349,0.4566,2.2587,-0.3595,2.2194
302,-0.7587,0.3512,0.4647,-0.1078,0.6024,-1.1241
315,-0.7635,0.3436,0.4635,-2.5658,1.7322,-4.4829
328,-0.7599,0.34,0.4588,-2.6268,2.0528,-5.0631
369,-0.7623,0.3326,0.4586,0.9762,-0.4816,2.4484
382,-0.7611,0.3436,0.4581,2.335,-0.1915,3.1049
395,-0.7618,0.3439,0.46,3.7701,0.1902,2.1431
408,-0.7657,0.3424,0.4547,2.9915,1.5489,0.3721
421,-0.7611,0.3348,0.4605,4.2129,2.0833,0.7079
434,-0.7628,0.328,0.4627,8.1671,1.1825,4.1278
475,-0.7335,0.2572,0.5296,1.0525,-12.4358,5.7156
488,-0.6825,0.2218,0.7945,-3.8024,-14.1304,1.2881
502,-0.8937,0.4679,0.2911,12.6251,-21.5198,-0.6508
514,-0.5768,0.1488,0.8033,-16.8558,-31.9014,-7.9027
527,-0.5741,0.4532,1.0572,-4.291,-43.2602,-4.2081
540,-1.3585,0.3968,-0.5578,-16.581,-36.619,-7.5211
581,-0.7106,0.5121,0.7493,-22.4742,-50.3595,5.4102
594,-0.8929,0.3175,0.1868,-64.4742,-69.3824,-10.5134
607,-1.0931,0.4828,0.1436,-10.062,-37.9472,-8.9714
620,-1.0492,0.4972,0.0567,-38.7337,-29.7488,5.7766
634,-0.7045,-0.0695,0.3346,4.3045,-33.5503,-11.4753
647,-1.4242,0.8172,0.2286,12.335,-56.6801,-22.147
687,-0.6349,0.0792,0.7313,-15.8329,-24.9091,-12.315
701,-0.6488,0.1935,0.5882,-38.5047,-23.764,-9.46
714,-0.795,0.4286,0.514,-8.2604,-24.2831,-10.1318
726,-0.3487,0.0799,0.9112,-6.3368,-24.9396,-24.2386
739,-0.8302,0.3363,0.6002,-18.7948,-26.4205,-33.9638
752,-0.3446,0.1041,0.9237,-38.5505,-27.3824,-37.7043
794,-0.9056,0.244,0.2054,-19.8787,-12.8785,-22.315
806,-0.7091,0.2901,0.6051,1.877,3.839,4.8301
819,-0.6129,0.1439,0.6888,2.0449,-8.1762,1.3644
832,-0.7223,0.3424,0.546,-4.5505,-12.0541,-3.0325
845,-0.8404,0.4369,0.5033,-11.7871,-5.4282,-1.4447
858,-0.6749,0.2616,0.6063,0.335,-0.8022,4.4789
899,-0.629,0.1649,0.6715,0.0907,-8.0541,-6.2386
912,-0.6869,0.2259,0.6251,11.4953,-1.0312,4.6163
925,-0.6769,0.3155,0.6546,6.3808,-7.1381,-2.8646
938,-0.7042,0.223,0.6063,2.564,-8.848,1.853
951,-0.7938,0.3993,0.4884,7.48,-7.8098,3.2118
964,-0.3998,-0.006,0.7559,4.0754,-9.1533,-13.5974
1005,-0.7203,0.4042,0.5772,9.0678,-4.6648,-8.8035
1018,-0.9708,0.2506,0.2381,40.8235,55.1673,-57.5058
1031,-0.5448,-0.4259,0.3548,20.3808,-5.0923,12.5705
1044,-0.7726,0.6935,0.7601,28.1213,8.9841,-7.8417
1057,-1.0221,0.4215,0.8534,25.1136,28.3123,-31.4295
1071,-0.7079,0.2701,0.5601,41.9686,18.5718,-13.2615
1111,-0.5843,0.2521,0.5409,15.0067,14.1444,-13.918
1125,-0.5465,-0.3974,0.1034,-1.2986,17.7169,-19.3531
1138,-0.6405,-0.1017,0.1615,10.5793,14.8619,-7.5363
1150,-0.7054,0.2965,0.473,11.5716,31.3657,-16.7577
1163,-0.6039,0.0755,0.4674,44.2129,24.465,-10.6661
1176,-0.8121,0.1073,0.033,36.0755,48.6024,-14.4066
1217,-0.6017,0.0655,0.1661,30.8083,48.7398,-12.9256
1230,-0.6698,0.298,0.6043,7.8464,24.297,-4.773
1243,-0.6395,0.3275,0.7244,17.8464,33.3505,-8.2692
1256,-0.5743,0.4169,1.2877,10.4571,34.7093,-1.7348
1269,-0.8636,0.3605,0.2655,13.0373,29.3505,-1.6432
1282,-0.67,0.1678,0.6883,10.9457,19.7169,-9.6127
1324,-0.4842,-0.1598,1.2274,-11.3139,24.007,6.1889
1336,-0.6949,0.3622,0.7408,-13.9246,19.9001,19.3186
1349,-0.6715,-0.0067,0.8104,-16.7642,19.9917,8.9217
1362,-0.6788,0.3802,0.5377,5.2663,7.2741,16.7843
1375,-0.7423,0.1688,0.5955,-26.5352,5.7169,34.2041
1388,-0.7076,0.4383,0.4759,-40.9933,-2.9091,38.9675
1429,-0.6996,0.8661,0.5338,-12.123,-10.2678,50.8606
1442,-0.6712,1.288,0.744,50.5182,-9.4129,11.5782
1455,-0.6947,0.7267,0.4593,3.8312,-20.1457,33.624
1469,-0.6637,0.1644,0.9019,-83.6345,-13.5808,12.3263
1482,-0.9371,0.473,0.651,-47.1917,-19.8251,27.6392
1494,-0.6959,0.0109,0.6178,-25.7413,-19.5656,13.7308
1535,-0.7662,0.3446,0.5677,-42.5658,-20.4511,24.6774
1548,-0.7189,0.1344,0.45,-7.8482,3.3505,-2.2081
1561,-0.7294,0.2601,0.5186,5.6022,2.3734,8.6163
1574,-0.722,0.2445,0.5133,14.4419,-1.6724,13.8682
1587,-0.7257,0.263,0.5257,20.1976,-4.5885,23.7766
1600,-0.7357,0.2098,0.5172,34.3655,-8.3289,31.1965
1642,-0.7689,0.8566,1.0391,59.7243,18.8925,-20.7119
1654,-0.6991,0.7645,0.0755,20.8388,9.0146,-19.1089
1667,-0.4234,-0.4384,0.075,2.5335,10.9688,-12.7424
1681,-1.1896,0.3924,0.9432,31.7701,1.7932,-22.8035
1693,-1.2152,1.3277,1.1632,55.7548,0.526,13.8682
1706,-0.912,0.7955,1.4215,47.1136,13.2436,-22.7272
1748,-0.6656,-0.0707,0.7098,25.5258,21.3199,-21.8722
1760,-0.7521,0.3822,0.4996,-8.0162,-2.0846,4.9369
1774,-0.7389,0.2472,0.6488,33.7701,28.236,-26.4524
1786,-0.5775,0.0956,0.4495,-6.2757,35.9459,-29.7043
1799,-0.6659,-0.007,0.2437,22.2739,15.8543,-1.1089
1812,-0.6503,0.3443,0.837,-18.2452,29.3352,-20.0402
1853,-0.7511,-0.0267,-0.2695,14.6861,35.4573,-6.2234
1866,-0.8097,0.1725,-0.071,25.0984,59.7016,-2.605
1879,-0.483,0.2286,1.3692,5.4648,75.4268,-20.5134
1892,-0.8111,0.2809,0.3092,26.106,47.381,-20.0554
1906,-0.714,0.4122,0.8546,0.5487,42.3276,-20.4829
1918,-0.7931,0.2633,0.2598,-12.3673,54.9993,-21.6127
1959,-0.7557,0.2455,0.6856,-17.8635,31.9459,0.5705
1972,-0.7599,0.2306,0.3883,-5.1154,14.2665,2.3263
1985,-0.8253,0.3102,0.3519,-0.9322,17.8543,9.9598
1999,-1.0182,1.1761,0.005,40.0755,31.9459,59.4408
2011,-0.9427,0.7552,-0.0353,44.9304,14.3886,36.0515
2024,-0.9117,0.5448,0.3075,-13.4665,16.068,38.998
2065,-0.8924,0.4127,0.3614,0.7777,16.2665,12.2041
2078,-0.4879,0.0531,0.702,-8.6726,-5.6877,32.3721
2091,-0.743,0.7467,0.3448,60.8846,-4.8022,35.7003
2104,-0.8221,0.2381,1.2179,-111.696,9.8848,40.3568
2117,-0.6944,0.7511,0.6846,-24.978,1.9306,30.4484
2130,-0.6202,-0.0338,0.4451,-14.3978,-3.2449,17.685
2172,-0.7259,0.172,0.0262,-13.3902,-22.5885,13.166
2184,-0.7142,0.9147,0.6378,-58.6574,-38.6953,12.0667
2197,-0.8702,0.482,0.0858,-42.8864,-44.4358,-2.8798
2210,-0.7179,-0.2001,0.1258,-63.7871,-49.2144,-4.7424
2223,-0.6124,0.1276,0.345,-25.2986,-4.1152,-30.3913
2236,-0.7508,0.3812,0.6441,-27.6955,-6.1915,-9.6737
2277,-0.7525,0.2982,0.3487,5.9075,-23.0617,12.6011
2290,-0.9388,0.3861,-0.1767,22.3197,-23.6877,11.853
2303,-0.6988,0.2589,0.5374,-5.8024,-28.4053,2.0973
2316,-0.795,0.3068,0.3863,1.5869,0.4192,-5.5363
2329,-0.7772,0.3212,0.4166,2.9762,0.0986,-4.8798
2342,-0.7665,0.3204,0.4215,2.6556,-0.4205,-4.1318
2382,-0.7657,0.3136,0.4266,0.2434,-0.3747,-1.0325
2395,-0.7648,0.3212,0.4346,2.2281,-0.6343,0.0056
2409,-0.7655,0.3302,0.4303,1.419,-0.2068,-0.8493
2422,-0.7704,0.3182,0.4288,2.2739,-0.2678,-1.3531
2435,-0.7731,0.3177,0.4266,2.1671,1.1062,-0.1928
2448,-0.767,0.3146,0.429,4.106,0.8009,2.3721
2489,-0.7633,0.3219,0.4325,1.9075,0.1749,2.4484
2502,-0.7696,0.3231,0.4237,3.9991,0.0833,3.166
2515,-0.7643,0.3443,0.4212,0.6251,0.297,-0.4066
2528,-0.764,0.3314,0.4242,-3.2986,-0.39,-6.2997
2540,-0.7674,0.3138,0.4222,-2.1383,0.5413,-5.1852
2554,-0.7689,0.3138,0.4303,-1.4055,0.6787,-3.4295
2595,-0.7604,0.3334,0.429,0.4571,-1.7488,-1.5058
2608,-0.7657,0.3236,0.4281,-3.4207,-0.161,-3.7806
2621,-0.7655,0.3273,0.4285,-2.1841,-0.161,-4.2997
2634,-0.7613,0.3192,0.4295,-2.0162,-0.2526,-4.2234
2647,-0.7694,0.3124,0.4271,-0.3673,-0.1762,-2.7577
2660,-0.7655,0.3102,0.4234,2.9457,-0.6343,0.082
2701,-0.7665,0.3204,0.4295,4.6098,-2.2831,1.2881
2714,-0.7643,0.3268,0.4295,2.0602,-1.0923,-1.2157
2727,-0.764,0.3187,0.43,-0.0467,-0.9243,-2.3913
2740,-0.7626,0.3146,0.429,-0.8406,-0.8327,-1.8264
2753,-0.7596,0.3163,0.4285,-0.7184,-0.9854,-0.1776
2766,-0.7645,0.3172,0.4295,-0.1078,-1.0465,1.5324
2807,-0.7655,0.326,0.43,-1.2986,0.0222,-0.7272
2820,-0.7645,0.3204,0.432,-2.5047,0.2512,-2.3455
2833,-0.7616,0.3121,0.4249,-1.1154,0.068,-0.6814
2845,-0.766,0.3104,0.4322,0.8083,-0.6495,1.6392
2859,-0.7643,0.3209,0.4312,2.0907,-0.9701,2.2347
2872,-0.7721,0.3251,0.4305,1.709,-1.2144,1.1507
2912,-0.7643,0.317,0.4366,0.2434,-0.4663,-1.0478
2926,-0.7684,0.3163,0.4315,1.7243,-0.9701,1.4255
2939,-0.7684,0.3263,0.4339,0.0449,-0.9396,0.3415
2952,-0.7657,0.3246,0.4322,0.2129,-0.5732,-0.2234
2965,-0.764,0.3224,0.4337,1.5258,0.2512,-0.6356
2978,-0.7633,0.3209,0.4366,2.3655,0.2512,-0.9104
3019,-0.7672,0.3241,0.4317,-2.0009,-1.0312,-1.8569
3032,-0.7616,0.3197,0.4337,-2.3215,-1.0617,-1.8569
3045,-0.7633,0.316,0.4298,-0.4589,-0.7869,-0.6356
3057,-0.7623,0.3187,0.4349,2.0602,0.1596,0.7537
3071,-0.7684,0.3158,0.4364,3.4342,0.8009,2.0667
3084,-0.7616,0.328,0.4322,3.1136,0.4039,1.7461
3125,-0.7633,0.3129,0.4322,-3.6039,0.2665,-3.3226
3138,-0.7655,0.3102,0.4329,-1.5429,-0.4969,-0.2844
3151,-0.765,0.3087,0.4307,1.7396,-0.7869,2.3568
3164,-0.764,0.3241,0.4349,3.19,-0.3747,2.6621
3177,-0.7618,0.3248,0.4381,2.0449,0.526,0.2499
3190,-0.7626,0.3268,0.4364,-0.5963,1.2894,-2.8646
3231,-0.7616,0.3141,0.4327,-0.581,-0.3747,0.1583
3244,-0.764,0.3121,0.4383,2.8541,-0.3442,2.4789
3257,-0.7613,0.3177,0.4388,7.5869,-0.4969,4.2347
3270,-0.7635,0.3221,0.4373,11.7854,-0.7869,4.1889
3282,-0.7606,0.326,0.4359,8.2739,0.4344,1.7156
3296,-0.7694,0.3634,0.4491,2.8235,0.1444,-1.46
3337,-0.7616,0.3175,0.4381,-3.4207,-1.9014,-0.7882
3350,-0.764,0.3148,0.442,-1.1917,-0.8175,0.0973
3363,-0.7635,0.3199,0.4366,-0.5658,0.4344,-0.4676
3376,-0.7665,0.3246,0.4398,-1.3597,1.152,-1.7348
3389,-0.7645,0.3185,0.4351,-1.2528,1.0146,-2.2081
3402,-0.7633,0.3199,0.4317,-2.5505,0.6634,-2.2997
3443,-0.7679,0.3138,0.4332,-0.2146,-0.0999,0.3415
3456,-0.7613,0.3153,0.4334,0.9762,0.526,1.2118
3469,-0.7662,0.3231,0.4342,1.7854,-0.2526,1.2423
3482,-0.7628,0.3253,0.4271,-0.1383,-0.6037,-0.4524
3495,-0.7657,0.319,0.4371,-1.5734,-0.3136,-1.2615
3507,-0.7623,0.3148,0.4368,-1.0391,0.236,-0.8951
3548,-0.7674,0.3151,0.4317,1.48,0.7093,0.9827
3561,-0.7652,0.3219,0.432,1.419,-0.161,0.5095
3574,-0.767,0.3231,0.4366,-1.1765,-0.2373,-1.3379
3587,-0.7679,0.3187,0.4356,-0.9933,-0.3595,-1.2463
3600,-0.7638,0.317,0.4371,-1.2528,-0.4511,-2.0249
3613,-0.7601,0.3099,0.4351,-0.81,-0.6801,-1.689
3654,-0.7667,0.3102,0.4315,1.9991,-0.1915,0.4637
3667,-0.7596,0.3229,0.4354,-0.0925,-0.2831,-1.1394
3680,-0.7621,0.3158,0.4337,-2.2452,0.4802,-3.5516
3693,-0.7652,0.3111,0.4315,-1.8024,0.3276,-2.6203
3706,-0.7618,0.3133,0.4373,-1.5429,0.5718,-1.4753
3719,-0.7623,0.3107,0.4361,1.1136,0.2665,0.8911
3760,-0.7648,0.3197,0.4354,-0.0314,0.0528,-0.7882
3773,-0.7633,0.3153,0.4329,-1.9246,0.068,-2.2081
3786,-0.7643,0.3111,0.4327,-1.3291,0.007,-1.2463
3799,-0.7633,0.3104,0.4359,-1.3597,-0.2068,-0.0249
3811,-0.7633,0.3087,0.4356,0.3045,-0.4663,0.9522
3825,-0.7616,0.3168,0.4322,1.1594,-0.2373,1.3492
3866,-0.7635,0.3119,0.4303,-1.2986,0.3581,-2.4371
3879,-0.7638,0.3131,0.432,-1.8024,-0.2678,-1.5974
3892,-0.763,0.3124,0.4322,-2.6726,-0.5427,-0.834
3905,-0.7582,0.3119,0.4388,-1.1001,-0.5427,0.4179
3918,-0.7606,0.3124,0.4307,0.3655,-0.1762,0.0362
3931,-0.7623,0.3133,0.4329,0.8541,0.6329,-0.2997
3972,-0.7582,0.3199,0.4368,0.564,-0.3442,-0.3455
3985,-0.7645,0.3124,0.4288,-0.352,-0.161,-0.5592
