time_ms,ax,ay,az,gx,gy,gz
12,-0.6996,0.8711,0.6608,-1.1355,0.173,-3.0594
25,-0.6986,0.8704,0.6588,0.5286,0.5241,-1.6395
38,-0.6961,0.8728,0.6545,0.2233,-0.1018,-0.2502
51,-0.6961,0.8643,0.6625,0.2996,-0.1476,1.1391
92,-0.6896,0.8687,0.6525,2.9408,0.6157,3.307
105,-0.6974,0.8682,0.6559,-0.7386,0.2951,1.5818
118,-0.7079,0.8768,0.6664,0.8187,0.9211,1.6429
131,-0.6998,0.8711,0.6584,0.3301,0.6463,0.5437
143,-0.6944,0.8758,0.6566,0.437,0.4173,0.1773
156,-0.701,0.8816,0.6601,-1.1202,-0.1782,-0.7082
196,-0.6959,0.8711,0.6601,-3.5783,-0.4835,-1.5479
210,-0.7084,0.8672,0.6532,-2.0363,-0.056,-1.3647
223,-0.7027,0.8641,0.6618,-0.4485,0.5852,-0.067
236,-0.704,0.8638,0.6635,0.895,0.8753,2.8185
248,-0.7118,0.8499,0.6574,5.7194,1.0279,8.6963
261,-0.7372,0.8631,0.6762,10.3759,1.1653,14.7879
303,-0.701,0.7437,0.7858,21.5515,-18.9415,8.5284
315,-0.7589,0.7503,0.9189,21.521,-29.2774,0.2078
328,-0.6805,0.7134,0.9665,0.1775,-50.3614,-13.7769
342,-0.6268,0.8252,0.862,13.6584,-57.0179,-12.8762
355,-0.5726,0.8855,0.7443,-8.7996,-58.1171,-13.3953
368,-0.4711,0.8755,0.714,-18.0973,-48.8957,-12.1739
408,-0.577,1.0181,0.6452,-2.6928,-25.3843,-6.8151
422,-0.6241,1.0386,0.6537,-4.6164,-16.8499,-4.525
435,-0.6852,1.0228,0.7404,-15.5477,-15.6591,-7.1205
448,-0.6634,0.9246,0.798,-23.4867,-21.2163,-13.5937
460,-0.6817,0.8663,0.7038,-33.2118,-29.6744,-22.9678
474,-0.6285,0.7586,0.6059,-39.2424,-23.0637,-31.2273
515,-0.9159,0.7723,0.5937,-27.8683,4.9669,-21.9754
527,-0.8473,0.9598,0.6942,3.6126,9.9134,-4.9373
540,-0.7584,0.9261,0.6164,-16.418,2.4783,-12.8304
553,-0.7838,0.8531,0.7289,-7.2576,5.4096,-13.4411
567,-0.6925,0.7959,0.7655,20.0706,21.944,-8.5098
580,-0.8644,0.7415,0.35,-3.334,26.6157,-6.3418
621,-0.7499,0.5667,1.1225,14.0706,48.5241,1.3681
633,-0.7318,0.9554,-0.0069,8.3149,44.9363,5.9177
646,-0.6681,0.7422,-0.4225,8.8645,50.9363,-2.0212
660,-0.6441,0.8494,0.1449,17.6431,42.6005,17.307
672,-0.8063,0.6758,1.5548,-1.6088,45.1959,6.6047
686,-0.725,0.9156,0.9547,33.8111,54.0966,29.7345
727,-0.7218,0.8865,1.6115,55.3683,28.9058,-0.7693
739,-0.5668,0.5699,0.7082,12.9103,24.0508,-15.1357
753,-0.5025,0.8152,1.1574,-12.7996,15.4402,-9.0747
766,-0.6407,0.8494,0.7021,-13.9294,11.0585,-15.6701
779,-0.6842,0.8221,0.7565,-4.9065,10.2646,-11.0441
792,-0.7123,0.8394,0.6474,0.6049,10.1424,-5.2426
832,-0.7325,0.8553,0.6447,21.063,1.0279,48.6811
846,-0.7503,0.7886,0.9853,1.1698,-15.2163,50.5589
859,-0.7916,0.7115,0.9804,-10.3264,-45.6591,18.6505
872,-0.8661,0.7642,1.0556,-1.0439,-76.514,0.2078
884,-0.7355,0.9747,0.8722,-38.1889,-97.1705,-19.8075
898,-0.5692,1.0594,0.5756,-68.8302,-87.5675,-24.7388
939,-0.3575,0.9341,0.6039,-39.5172,-28.4072,-5.4105
952,-0.4508,0.9148,0.652,-35.9752,-22.0255,-13.2579
965,-0.6285,1.0362,0.454,-50.4943,-8.6973,-16.1739
977,-0.7396,0.9744,0.6606,-51.6546,5.8524,-7.7159
991,-0.8194,0.8335,0.7067,-50.2653,8.6157,-2.6166
1004,-0.8116,0.7095,0.7548,-33.5477,5.2875,-4.4945
1044,-0.7352,0.7229,0.5817,-8.9828,-9.3537,-7.2273
1058,-0.7789,0.5982,0.5727,-11.7615,-5.0789,-5.38
1071,-0.763,0.9849,0.4018,12.6355,-12.6362,-2.3876
1084,-0.8429,0.4495,0.4342,2.7424,-17.3537,-19.151
1097,-0.7272,0.5186,0.7126,-13.9447,-15.1095,-12.8304
1110,-0.4855,0.6932,0.5175,-17.5172,-24.6515,-32.296
1151,-0.7789,0.8267,0.903,34.1011,-1.4606,-20.922
1164,-0.6456,0.4165,0.413,14.666,0.0203,-39.4563
1176,-0.7193,0.4273,0.1747,-25.8836,2.5699,-45.3189
1190,-0.766,0.5391,0.6415,50.9103,4.2188,-31.8075
1202,-0.6903,1.0467,0.8996,92.1011,9.3791,-11.8533
1216,-0.7416,0.7408,0.3295,49.3988,19.089,-24.7082
1257,-0.7152,0.8775,0.9345,-1.105,17.1806,-14.1128
1270,-0.6893,1.0271,0.9784,11.9027,6.1272,-5.8533
1283,-0.7242,0.7344,0.6933,-2.6012,18.2493,0.0856
1296,-0.7276,1.0928,1.1916,24.208,18.8447,13.5055
1308,-0.6971,0.8909,0.2323,27.1393,20.9363,26.0093
1321,-0.6065,0.9605,0.8839,20.4523,26.005,23.8261
1362,-0.6598,0.8304,0.7787,2.7424,20.8753,25.5818
1376,-0.6966,0.8763,0.7433,-41.2118,9.8524,14.6505
1389,-0.6373,1.052,0.6789,-25.4561,13.318,21.1544
1402,-0.506,0.7757,0.7021,-62.0668,16.4783,29.1085
1414,-0.7201,0.5621,1.2382,-75.3187,-8.8347,4.2841
1427,-0.6974,0.4703,0.8996,-29.4867,-3.9339,-6.6624
1469,-0.7035,0.513,0.6056,31.353,-2.0866,1.0017
1481,-0.692,0.8377,0.7235,14.666,0.2493,16.62
1494,-0.6835,0.7491,0.7275,16.8645,0.9669,29.2154
1508,-0.6586,0.7613,0.7607,21.0019,-4.6056,33.2154
1521,-0.6949,0.6963,0.755,19.2462,-4.5904,32.7727
1534,-0.5287,0.3904,0.6398,25.582,-12.2392,-5.9296
1575,-0.7545,0.9512,0.8903,13.8721,-4.5904,-37.9449
1587,-0.5001,0.2762,0.8441,17.0782,-1.8728,-39.3037
1601,-0.7757,0.3492,0.5338,36.2691,-5.9797,-33.0441
1614,-0.7762,1.1763,0.9892,108.223,7.0432,1.8414
1627,-0.8421,0.659,0.5336,87.8569,9.1195,-19.8533
1639,-0.4652,1.2115,0.8605,18.834,2.9821,-28.1739
1680,-0.7562,1.1009,0.6503,14.2691,8.8295,-12.9983
1694,-0.7113,1.0027,0.2797,6.3149,18.7226,-16.8304
1706,-0.6158,1.1167,1.0463,33.4294,23.547,-7.2426
1720,-0.7423,0.9244,1.038,12.5591,21.8218,-9.8227
1733,-0.5902,0.9876,0.8454,24.1164,27.1806,0.4826
1745,-0.6647,1.0682,0.0915,29.4141,29.8982,0.5284
1786,-0.6371,0.8072,1.2094,1.5057,23.8371,-2.922
1800,-0.6483,1.3094,0.8979,36.3759,40.0661,29.8566
1813,-0.7215,1.023,0.5902,-5.0439,28.8447,14.4979
1825,-0.85,0.5557,0.663,-47.8225,18.173,5.5055
1839,-0.493,1.1468,-0.1341,-14.2347,8.0356,35.8261
1852,-0.579,0.5103,0.8925,-13.5935,-0.0713,30.9253
1893,-0.6161,0.6136,0.7358,-16.9065,-7.2011,19.5513
1906,-0.5157,0.7452,1.0695,-42.479,-2.7431,5.0017
1919,-0.7843,0.5896,0.6462,-45.2271,-10.6056,-16.1281
1932,-0.7467,0.5496,0.5541,-16.5401,-2.9873,-27.3953
1944,-0.7411,0.7391,0.6339,-6.6164,0.0814,-11.0594
1957,-0.6959,0.7874,0.6379,4.1317,2.0814,9.8414
1999,-0.704,0.8594,0.6505,6.5591,3.4707,23.5208
2011,-0.7044,0.8594,0.6469,4.2233,2.7531,17.6582
2024,-0.7135,0.8831,0.641,-0.9676,1.4096,10.5437
2037,-0.7049,0.8648,0.6469,-2.0973,0.6615,4.6047
2050,-0.7066,0.8851,0.6379,0.7576,-0.3461,1.5818
2064,-0.7159,0.8526,0.6508,0.5439,-1.0331,0.3757
2104,-0.7052,0.8655,0.6554,-3.9294,-1.5522,-1.0594
2117,-0.6998,0.8599,0.6486,-4.8912,-0.9721,0.5895
2131,-0.683,0.8304,0.6396,-13.9294,-1.1705,2.9864
2144,-0.7152,0.8645,0.6464,-5.2729,-0.7736,9.1085
2157,-0.7066,0.8448,0.651,-2.2195,0.0508,14.2536
2170,-0.7023,0.8714,0.6501,-2.8149,0.0203,14.3299
2210,-0.7049,0.8855,0.6457,-1.8225,-0.1629,4.4673
2223,-0.7059,0.8875,0.6535,-2.6775,-0.6209,0.7269
2236,-0.6949,0.8716,0.6498,-6.1279,-1.0942,-2.7846
2249,-0.7098,0.868,0.6584,-3.0286,-0.3156,-2.067
2262,-0.7018,0.8755,0.6518,-3.3493,-0.6362,-0.9983
2275,-0.703,0.8685,0.6515,-0.6012,-0.285,1.4597
2317,-0.7066,0.8699,0.6535,-0.1126,-0.1934,3.2002
2329,-0.6964,0.8704,0.6508,1.063,0.6005,2.2231
2342,-0.6993,0.8768,0.653,3.9332,0.7073,1.8261
2356,-0.6971,0.8858,0.6481,1.4599,0.2188,-0.3418
2369,-0.7003,0.8807,0.6515,-0.3264,0.5547,-1.6395
2381,-0.7052,0.8785,0.651,-1.7004,0.0508,-1.8838
2422,-0.6993,0.8641,0.6496,1.6431,0.173,0.9406
2435,-0.6996,0.8648,0.6479,3.7805,0.234,3.3986
2448,-0.7023,0.8765,0.6481,4.3759,-0.0102,4.4063
2461,-0.7064,0.8855,0.6496,2.3607,-0.3919,1.8108
2475,-0.7035,0.8829,0.6557,3.2614,0.1577,1.1085
2487,-0.6996,0.8875,0.6488,1.2614,0.2798,-0.7388
2529,-0.6949,0.8804,0.6466,-0.8454,-0.6209,-2.0976
2542,-0.7074,0.8707,0.6471,-1.5172,-0.1934,-2.0212
2555,-0.7071,0.8707,0.6523,-0.4027,0.2798,-0.7846
2568,-0.7003,0.8743,0.6496,-1.0134,0.4936,-0.4792
2581,-0.6996,0.8687,0.6532,0.9866,0.1424,1.3986
2594,-0.6976,0.8743,0.6508,4.2843,0.8447,2.5131
2634,-0.7013,0.8816,0.6515,0.0248,0.4631,1.6124
2648,-0.7032,0.8809,0.6437,-0.7691,0.173,0.0398
2661,-0.7008,0.8814,0.651,-1.7004,-0.4835,-0.7693
2673,-0.7013,0.8682,0.6559,-1.0439,-0.7889,-0.8915
2686,-0.6979,0.8653,0.6457,-0.1126,-0.1934,-0.235
2699,-0.703,0.8768,0.6574,2.2843,0.7989,1.0933
2741,-0.6996,0.8821,0.6491,6.1164,0.6615,2.2994
2753,-0.7044,0.888,0.6464,4.4065,-0.2392,1.6276
2766,-0.7049,0.8846,0.6525,3.8263,0.2493,1.078
2779,-0.7049,0.8846,0.6466,3.2156,-0.2392,1.2918
2792,-0.6988,0.8865,0.6474,1.4599,-0.1629,0.7421
2805,-0.7025,0.8787,0.6476,0.895,-0.285,0.3147
2847,-0.704,0.8809,0.6505,-1.4867,0.5394,0.5589
2859,-0.6971,0.8875,0.6471,-1.7004,0.0966,1.0475
2872,-0.6993,0.8885,0.6466,-1.8073,-0.5751,0.3757
2885,-0.6957,0.8851,0.6471,-2.0973,-0.3461,-0.4182
2899,-0.6976,0.8868,0.6486,-3.8225,-0.8347,-1.5785
2912,-0.7108,0.8824,0.6537,-2.7538,-0.3614,-1.6243
2952,-0.7018,0.8794,0.6525,1.6431,0.5547,1.6887
2965,-0.7013,0.8792,0.652,-0.6928,-0.224,0.5131
2978,-0.7013,0.8797,0.6523,1.353,0.1272,0.6963
2992,-0.7023,0.8841,0.6454,2.437,-0.056,1.2307
3004,-0.7023,0.8814,0.6515,1.3378,0.173,1.1391
3017,-0.7013,0.8794,0.6532,0.5439,0.2035,1.7192
3059,-0.6993,0.8853,0.6483,-1.6699,0.2798,-0.7998
3071,-0.6996,0.8824,0.6503,-0.3569,-0.1629,-1.1052
3084,-0.7037,0.8797,0.6496,1.5515,0.2493,0.1773
3097,-0.7052,0.8816,0.6491,1.1393,0.3562,0.8337
3110,-0.701,0.8816,0.6518,0.8798,-0.0866,1.1849
3124,-0.6952,0.8846,0.6518,-1.2729,0.1272,0.1314
3164,-0.703,0.8838,0.6474,-1.5325,-0.1324,-1.3495
3178,-0.6981,0.8797,0.6501,-1.0592,-0.3308,-0.8609
3191,-0.7044,0.8797,0.6488,0.3301,-0.2087,0.8185
3204,-0.6998,0.8882,0.6486,-0.1126,-0.0102,1.5055
3216,-0.7008,0.8836,0.6527,-0.708,-0.3919,1.1085
3229,-0.7027,0.8838,0.6542,-1.9294,-0.2392,-0.0212
3270,-0.7015,0.8768,0.6486,4.7882,1.0585,4.0704
3283,-0.7005,0.8804,0.6588,7.0782,1.318,5.9024
3297,-0.7008,0.8946,0.6425,5.0019,0.4173,6.1314
3309,-0.7062,0.8926,0.654,3.75,0.1882,4.7574
3322,-0.7023,0.8846,0.6513,1.9943,0.6768,3.4902
3336,-0.6991,0.8916,0.6449,1.3683,0.2188,1.7498
3376,-0.7027,0.8953,0.6442,0.2385,0.005,-1.5937
3390,-0.6964,0.8899,0.6515,-0.647,-0.056,-1.2121
3403,-0.6976,0.8873,0.6503,-1.6851,-0.6056,-0.525
3416,-0.6961,0.8851,0.6501,-1.6241,0.0356,0.1162
3429,-0.701,0.8873,0.6444,-2.8149,-0.0713,0.2078
3442,-0.6971,0.8887,0.6464,-1.0897,-0.4377,0.2841
3483,-0.7044,0.8829,0.6515,-2.25,0.0966,-2.067
3495,-0.7023,0.889,0.653,-1.7462,-0.1782,-1.2121
3509,-0.7013,0.8848,0.6532,-1.9752,-0.3156,-0.9831
3521,-0.6974,0.8946,0.6447,-2.2958,-0.8194,-1.0899
3534,-0.7001,0.8846,0.6491,-5.4867,-0.5293,-1.9602
3547,-0.6993,0.8785,0.6532,-1.9905,0.3256,-0.5861
3589,-0.6942,0.8863,0.6476,1.7042,0.2493,0.8337
3601,-0.7023,0.8934,0.6515,-0.6317,-0.1629,-0.2655
3613,-0.7032,0.8826,0.654,-2.1431,0.4783,-0.7998
3626,-0.7001,0.8792,0.6588,-0.9676,0.4631,0.2383
3639,-0.6976,0.8882,0.6481,0.2691,0.4173,0.6047
3652,-0.704,0.8865,0.6513,1.75,-0.0102,1.3834
3692,-0.701,0.8931,0.6518,-0.1431,-0.2087,-0.1739
3705,-0.7003,0.8887,0.6505,-1.6851,0.1272,-0.8151
3719,-0.7015,0.8877,0.6527,-1.6088,0.1882,-0.7693
3732,-0.7018,0.8853,0.6527,-0.0515,-0.1018,0.4979
3743,-0.7013,0.888,0.6515,0.5439,0.2798,1.0627
3756,-0.692,0.8846,0.6518,-0.3111,0.0356,1.1238
3798,-0.6996,0.8887,0.6508,-0.3874,0.173,-1.5174
3810,-0.6979,0.8863,0.6501,-1.0592,-0.2698,-2.1586
3823,-0.6964,0.8807,0.6537,-2.0668,-0.4988,-1.609
3836,-0.6971,0.8799,0.6535,-0.4638,0.0508,-0.4334
3848,-0.7052,0.8824,0.6515,0.2691,0.3562,0.9253
3860,-0.6959,0.8777,0.6547,0.7729,0.1272,2.0551
3902,-0.7015,0.8912,0.6505,-0.4638,-0.224,-0.6777
3915,-0.7042,0.8868,0.6486,0.2233,-0.0713,-0.9678
3926,-0.6996,0.887,0.6513,-0.3569,0.3562,-0.9831
3938,-0.7023,0.8853,0.6505,-1.3798,0.1272,-0.7998
3951,-0.7023,0.8836,0.6527,-0.3416,-0.0255,0.7116
3964,-0.6993,0.8853,0.6559,0.7576,0.4631,2.3452
4005,-0.7003,0.899,0.6471,0.834,0.3104,-0.2808
4019,-0.7015,0.8965,0.6476,-1.9752,-0.4072,-2.2044
4032,-0.7001,0.8855,0.6586,-2.1737,-0.3461,-2.4487
4044,-0.6981,0.8836,0.6464,-1.3493,-0.4835,-1.7617
4058,-0.6988,0.8799,0.6566,-0.4485,-0.285,-0.1128
4070,-0.702,0.8855,0.6569,1.7653,0.234,1.9177
4112,-0.6981,0.8902,0.6525,-1.3493,0.2798,-1.4105
4125,-0.7025,0.8873,0.651,-1.0134,0.1577,-1.9449
4137,-0.6981,0.8841,0.6564,-0.2347,0.0661,-0.7235
4150,-0.6986,0.8875,0.6525,-0.0363,-0.0713,-0.0823
4162,-0.6969,0.8809,0.653,0.2385,-0.3003,0.6505
4175,-0.7013,0.8841,0.6535,0.437,-0.0408,0.9253
4216,-0.6986,0.8868,0.6469,-1.105,-0.3156,-1.3037
4229,-0.6988,0.8792,0.6515,-0.1584,-0.3156,-0.754
4240,-0.7015,0.8809,0.6483,0.9866,-0.0102,0.2689
