time_ms,ax,ay,az,gx,gy,gz
12,-0.6471,0.8311,0.8009,2.0401,0.8295,0.3605
25,-0.6476,0.8291,0.799,1.0172,0.3104,0.2536
38,-0.6481,0.825,0.8002,1.3988,0.2646,0.6047
79,-0.649,0.8279,0.8044,-0.9523,-0.224,-0.6777
92,-0.6451,0.8326,0.8026,-2.4332,-0.1171,-1.6395
105,-0.6459,0.8269,0.8026,-1.7615,-0.3614,-1.3342
118,-0.6473,0.8226,0.8024,-0.0057,0.3714,-0.3418
130,-0.6468,0.8282,0.8041,0.4217,0.1119,0.4368
142,-0.6444,0.823,0.7987,0.3607,0.1424,0.7269
183,-0.6451,0.8343,0.7985,0.7576,0.3104,-0.1586
196,-0.6444,0.8313,0.8012,0.5744,0.3256,-0.7998
209,-0.6422,0.8321,0.7973,-0.0973,0.5394,-1.5632
222,-0.6539,0.8274,0.8019,-0.5706,0.3104,-1.6243
234,-0.6434,0.8311,0.7992,-2.5554,0.5241,-1.1357
247,-0.6507,0.8243,0.8073,-1.9752,0.3104,-0.2655
288,-0.683,0.8128,0.8224,14.7576,3.6997,13.8719
301,-0.682,0.8208,0.8261,27.2004,4.0508,19.7192
314,-0.6693,0.8477,0.8632,32.5286,4.4631,20.4521
327,-0.7142,0.7908,1.0019,0.9866,-9.6744,3.8719
341,-0.7777,0.6805,0.9652,19.1698,-17.8576,-22.7846
354,-0.7545,0.7593,0.9572,12.7118,-26.8805,-34.8915
395,-0.5333,0.8587,0.9106,16.666,-24.2545,-8.5098
408,-0.6161,0.7832,1.0356,7.0172,-24.4224,-6.7693
421,-0.4635,0.7549,0.8683,27.4294,-18.7736,-14.8304
433,-0.4288,0.7581,0.8229,8.0095,-6.8957,-26.0823
446,-0.4317,0.8362,0.8124,1.7042,3.9898,-32.0518
459,-0.4901,0.8152,0.8493,-2.5096,10.7837,-37.4563
500,-0.4684,0.8301,0.7282,-10.9218,28.9363,-14.5708
513,-0.5172,0.7117,0.6881,-12.5248,33.1501,-14.7388
526,-0.6275,0.6956,0.7309,-0.7844,31.4707,-14.8151
539,-0.6412,0.7561,0.6991,8.2385,26.8905,-11.1968
552,-0.566,0.7266,0.6122,10.834,27.1348,-7.9907
565,-0.5079,0.7225,0.5102,12.0706,35.2264,-10.7082
606,-1.3268,1.1568,0.8207,5.3072,19.3333,4.2536
619,-1.2572,0.7811,0.6855,21.8721,-5.9644,31.4597
632,-0.7464,0.8838,0.6545,34.0859,4.8295,20.7879
645,-0.7879,1.0022,0.5915,-0.9218,6.6615,-8.6777
659,-0.7599,0.8997,0.8263,8.5744,12.1577,-12.235
672,-0.6629,0.8179,0.8964,-19.3951,9.5318,-27.1357
712,-0.725,0.5586,1.0329,-16.9065,-4.7736,4.4826
725,-0.8531,0.6402,1.2213,4.1927,5.7455,0.3605
739,-0.815,0.4202,1.4909,-48.647,-17.827,-27.9449
752,-0.746,1.2713,0.0695,-18.4943,-7.6133,5.5208
765,-0.8878,0.4397,2.3158,-38.876,-8.3614,-11.6853
777,-0.8028,0.5149,0.64,-45.4867,-15.3232,-8.5708
819,-0.6957,1.0591,1.0685,-8.2806,-11.0179,5.3223
832,-0.5831,0.5452,0.5067,-29.7615,-14.8194,8.0246
844,-0.5299,0.7828,1.6244,34.5897,0.8142,16.0704
857,-0.4584,0.6092,0.945,22.4981,5.0432,4.849
871,-0.6798,0.3919,1.3366,-5.8531,-6.2545,-22.4945
884,-0.5641,0.5054,0.9967,-4.708,1.4249,-17.5021
924,-0.631,0.794,0.8808,12.4217,21.2569,-1.8991
937,-0.6444,0.7542,1.0827,2.895,13.3791,-0.235
950,-0.7071,0.7918,0.8661,7.9332,-12.0255,10.2689
964,-0.7909,0.6287,1.0238,4.1622,-35.3232,12.4979
977,-0.6896,0.5916,0.9115,9.063,-50.4072,11.6429
989,-0.462,0.6902,0.7934,12.7576,-48.8347,2.2689
1031,-0.6666,0.8772,0.7997,-26.5706,-14.2392,-21.3037
1044,-0.6742,0.9048,0.7912,-26.8302,-12.5904,-10.7693
1056,-0.6327,0.8594,0.756,-14.8454,-9.7507,-1.5327
1069,-0.589,0.8899,0.706,-12.4638,-5.827,3.0475
1082,-0.5323,0.92,0.6374,-15.7157,1.3333,5.8566
1096,-0.4718,0.8487,0.56,-35.7615,12.8142,2.9101
1136,-0.5975,0.7247,0.6308,-33.4103,36.8295,-9.8991
1150,-1.1092,0.6851,0.8681,-39.1355,18.0508,-12.4487
1163,-1.0897,0.6805,0.7838,-0.0821,-3.2316,7.1544
1176,-0.6805,0.5376,0.5761,12.0859,-0.1324,7.3681
1188,-0.7613,0.5909,0.7104,4.7424,9.1806,-6.2655
1201,-0.9474,0.7842,0.7106,25.8263,11.3485,-7.4716
1242,-0.7948,0.5433,1.1339,6.1317,1.0127,-19.4105
1255,-0.6964,0.4446,0.9047,-19.5935,5.3638,-28.6166
1268,-0.7909,1.125,0.9738,70.208,-0.9415,2.4063
1282,-0.7438,0.6985,0.5014,37.7195,-0.8805,-17.0594
1295,-0.8229,0.9407,0.5028,66.4065,1.3943,-12.2502
1307,-0.7618,-0.3125,0.0553,-82.479,8.6463,-41.7922
1349,-0.8492,0.9085,1.0407,75.1698,-3.6591,-9.8686
1362,-0.7252,0.8318,0.0827,47.3836,10.3867,-10.5556
1374,-0.7257,1.0176,0.1881,27.1393,7.3943,-3.9449
1387,-0.912,1.1131,0.3034,29.063,-1.5827,3.6429
1401,-0.6842,0.9893,1.89,26.8798,-9.6896,-4.2197
1413,-0.6139,0.9861,1.0458,37.4446,5.2111,1.6429
1454,-0.8119,0.8443,0.9008,-22.9828,7.7455,25.5513
1467,-0.6061,1.3321,1.1325,18.6355,6.6615,51.8108
1481,-0.8282,1.4102,0.7851,34.437,-1.6896,49.5513
1494,-0.4122,1.0096,0.1706,-7.792,-8.6056,37.6124
1507,-0.3863,0.493,1.3261,-59.2271,-7.3232,14.6963
1519,-0.6788,0.865,0.4977,-4.1737,6.631,43.5971
1561,-0.7936,0.511,1.0695,-54.647,-10.0102,-22.6014
1573,-0.6444,0.2281,0.9269,-63.7767,-9.1705,-45.3953
1586,-0.6747,0.6426,0.7704,1.4141,1.1348,-14.3266
1599,-0.6459,0.6687,0.8134,12.5744,1.2111,9.2765
1612,-0.672,0.658,0.7812,29.6584,3.4249,35.0475
1626,-0.6085,0.4122,0.849,21.8263,-17.3079,14.5437
1666,-0.8766,0.5704,0.4565,-0.2653,-0.0866,-46.7388
1680,-0.5497,0.4173,0.3925,-22.479,9.1959,-47.8533
1693,-1.0785,0.3672,1.3146,25.2309,0.4936,-20.8609
1705,-0.8431,0.9195,0.7953,16.3759,5.6234,-24.6624
1718,-0.5794,0.4917,0.4733,22.0401,-2.4224,-48.0365
1732,-0.9073,0.5437,0.7607,121.093,-10.9415,-12.1892
1772,-0.7704,0.2039,0.3734,-7.3493,2.9211,-28.3266
1785,-0.6837,1.2359,0.8661,46.9561,2.7989,0.9406
1799,-0.6048,1.4454,1.8061,53.1851,-10.2545,3.8261
1812,-0.5648,1.0369,0.6982,12.9714,7.4554,-14.296
1825,-0.7027,1.0962,0.4438,1.1698,6.2798,-15.8991
1837,-0.6703,0.92,0.2677,-8.708,10.2646,-16.6472
1879,-0.7013,0.8829,0.6864,-0.8149,8.7989,27.9177
1891,-0.672,0.3204,1.3019,-4.9676,6.1272,15.3528
1904,-0.7762,0.4073,1.2365,-61.6546,-23.9186,3.8872
1917,-0.972,0.1604,1.4701,-35.7462,5.9287,12.3605
1931,-0.3675,1.4302,0.205,14.6965,-0.3919,38.8337
1944,-0.371,1.512,0.6996,10.0095,8.6005,45.1391
1984,-0.2628,0.9368,-0.2989,-1.6393,-6.3919,48.8337
1998,-0.2496,1.107,0.2416,-60.7844,-8.056,29.1544
2011,-0.5594,1.2398,0.4782,-71.0592,-4.682,19.9635
2023,-0.9076,0.6202,0.9128,-65.1813,-6.1324,-5.609
2037,-0.8297,0.3243,1.1628,-123.12,-13.4606,-36.464
2049,-0.6217,0.2754,0.7668,-93.6088,-6.0866,-45.0289
2091,-0.6688,0.7564,0.7555,2.1469,-1.8576,9.2002
2103,-0.661,0.753,0.7467,6.1317,-3.3995,26.3605
2116,-0.662,0.7857,0.7633,16.5286,-3.6744,35.5055
2129,-0.6669,0.8096,0.7682,19.3225,-3.6744,35.3986
2143,-0.6642,0.8421,0.7763,18.0859,-2.7736,26.7879
2156,-0.6698,0.8572,0.7672,11.3225,-1.9186,12.1009
2196,-0.6681,0.8108,0.7658,-9.0134,-4.2392,-15.838
2209,-0.6664,0.7996,0.758,-9.2882,-5.2927,-12.7846
2223,-0.6644,0.7947,0.7646,-6.021,-6.1629,-6.235
2236,-0.6634,0.7891,0.7724,-3.7309,-6.1629,0.7269
2249,-0.6625,0.7959,0.7758,-1.9599,-5.4453,6.4979
2261,-0.6593,0.8128,0.7843,-0.9981,-4.4988,9.0169
2302,-0.6656,0.8265,0.7721,4.8798,0.631,2.9711
2316,-0.6634,0.8335,0.769,2.3454,0.2646,-1.0747
2328,-0.6588,0.8145,0.7731,0.2996,-0.8957,-2.4945
2341,-0.6607,0.8111,0.7699,-0.876,-1.8576,-1.4258
2354,-0.6586,0.8055,0.767,-0.3569,-1.995,1.2765
2367,-0.6564,0.8309,0.7692,1.8111,-2.4682,3.4597
2408,-0.6549,0.826,0.7716,-1.2424,-1.369,1.4139
2421,-0.6583,0.8301,0.7782,-4.2347,-1.3995,-1.7006
2435,-0.6605,0.8167,0.777,-3.4561,-1.4301,-2.8762
2448,-0.6578,0.823,0.779,-2.2653,-1.4453,-3.5785
2460,-0.6637,0.805,0.7809,2.7271,-0.8805,-2.3418
2473,-0.662,0.8172,0.7812,4.3454,-1.14,-1.5632
2515,-0.6607,0.8186,0.7821,-1.0744,-2.3919,-1.8227
2527,-0.6593,0.8103,0.7787,0.4523,-2.4224,-1.3037
2540,-0.6556,0.7925,0.7797,4.3301,-0.4988,1.0627
2553,-0.6603,0.8116,0.7878,9.6889,1.4707,4.1314
2566,-0.6564,0.8121,0.7787,12.3301,2.9821,4.7116
2579,-0.6607,0.8323,0.7743,12.2843,2.7837,2.9559
2620,-0.6551,0.8128,0.7773,0.4523,-0.6515,-5.8533
2633,-0.6517,0.8189,0.776,0.8034,-0.6056,-5.3647
2646,-0.6561,0.8296,0.7716,0.1927,-0.8194,-5.1663
2660,-0.6659,0.8179,0.7775,-3.4409,-0.5751,-5.8075
2673,-0.6651,0.8055,0.7807,-7.2576,-0.9721,-5.0899
2685,-0.6629,0.8086,0.7821,-5.1508,-0.3461,-1.9907
2726,-0.6625,0.8145,0.7753,0.5286,0.6157,1.4139
2740,-0.6566,0.805,0.7719,-0.2347,1.2875,2.3147
2752,-0.6583,0.8079,0.7751,0.9866,1.1348,4.2078
2765,-0.6598,0.8165,0.7758,0.5744,0.9211,5.2307
2778,-0.6586,0.8221,0.7795,1.0172,0.5394,5.246
2791,-0.6588,0.8067,0.7768,1.2614,0.8142,6.4215
2832,-0.6578,0.8218,0.7802,14.1164,3.3485,9.3986
2845,-0.6551,0.8345,0.7675,9.353,2.631,7.0322
2858,-0.6639,0.8382,0.7755,8.6965,2.3256,5.0169
2871,-0.6627,0.8372,0.7699,4.2385,0.631,2.5895
2885,-0.6607,0.8335,0.7768,2.666,-0.0102,1.475
2897,-0.6566,0.8345,0.7699,1.2614,-0.4377,0.7421
2939,-0.6578,0.8362,0.7843,-4.1889,-0.7889,-0.6166
2952,-0.6605,0.8262,0.7785,-2.9981,-0.224,-0.0518
2964,-0.6583,0.8306,0.7736,-2.4485,-0.0255,0.4063
2977,-0.6593,0.8289,0.7797,-1.166,0.4631,0.9101
2990,-0.659,0.8328,0.7736,-2.8912,0.005,0.5284
3004,-0.6615,0.8279,0.7746,-3.5477,0.2188,-0.1434
3044,-0.6573,0.8228,0.7694,-5.7004,-0.4835,-3.7769
3057,-0.6607,0.823,0.7821,0.4828,-0.1324,-2.2197
3071,-0.6603,0.824,0.7763,1.5362,0.173,-0.8762
3084,-0.6542,0.8133,0.7809,3.7194,0.9058,1.5513
3096,-0.6561,0.8333,0.7707,2.8798,0.8142,3.2154
3109,-0.6603,0.8272,0.7714,3.5362,0.6921,4.3452
3150,-0.6581,0.8313,0.7758,4.2843,0.7073,2.8185
3163,-0.66,0.8365,0.7768,3.8569,0.8142,0.62
3176,-0.6542,0.8409,0.7748,2.9103,0.7073,-1.5327
3189,-0.6595,0.8389,0.7746,4.5286,0.6157,-1.7922
3203,-0.6605,0.8421,0.7729,0.8492,0.9974,-2.067
3215,-0.6524,0.8282,0.7755,-7.9447,0.86,-4.5556
3256,-0.6603,0.8279,0.7687,0.6049,1.0127,-0.9678
3269,-0.6559,0.823,0.7677,0.1927,0.1119,0.1467
3281,-0.6607,0.8438,0.7733,3.124,-0.1629,0.8795
3294,-0.6625,0.8291,0.7707,2.6507,-0.1782,0.6505
3307,-0.6588,0.8436,0.7758,0.7576,-1.1095,-0.006
3321,-0.6622,0.8282,0.7773,-1.5935,-0.7431,-0.2197
3361,-0.6583,0.8392,0.7733,-7.334,-0.453,-1.5479
3374,-0.662,0.8291,0.7826,-8.0515,-0.285,-2.4029
3388,-0.6605,0.8284,0.778,-6.5401,-0.1324,-1.7769
3401,-0.6583,0.8169,0.7743,-5.2729,0.3562,-1.0136
3413,-0.6554,0.8265,0.7692,-5.8531,-0.3003,-1.1815
3426,-0.6586,0.8313,0.777,0.9256,0.1119,0.0093
3468,-0.6546,0.8304,0.7648,-1.2576,-0.7431,0.2689
3480,-0.6566,0.8287,0.7716,-1.8378,-1.0789,-0.2655
3493,-0.66,0.824,0.7724,-1.563,-1.6896,-0.525
3506,-0.6595,0.8235,0.7831,-1.2729,-0.5598,-0.1739
3519,-0.6576,0.8272,0.7758,1.5057,0.4173,0.3605
3533,-0.659,0.8289,0.7719,2.7118,0.8753,1.475
3573,-0.6564,0.8248,0.7746,2.4981,0.4325,2.6963
3586,-0.661,0.8379,0.7758,1.4141,0.234,1.9024
3600,-0.6573,0.8345,0.778,-1.0439,-0.056,0.5284
3612,-0.6568,0.8279,0.7773,-1.0897,-0.1018,0.2994
3625,-0.6598,0.8272,0.7816,1.7347,0.4173,1.3376
3638,-0.6607,0.8313,0.7763,1.8721,0.4783,1.3223
3679,-0.6612,0.8267,0.7787,-1.6699,-0.2392,0.1925
3692,-0.6586,0.8299,0.7777,-2.0363,-0.2392,0.6353
3705,-0.6607,0.8257,0.7765,-1.2729,-0.0408,0.8032
3719,-0.659,0.824,0.7687,-2.9065,-0.3766,1.2002
3732,-0.6649,0.8318,0.7843,-0.9676,-0.1782,1.7803
3744,-0.6556,0.837,0.7714,-1.7615,-0.453,0.6658
3786,-0.6615,0.8309,0.7797,-3.5783,0.3256,-1.5021
3798,-0.6588,0.8248,0.7755,-3.9141,0.6005,-0.9831
3811,-0.6549,0.8179,0.7702,1.0935,1.0737,0.8337
3824,-0.6634,0.8265,0.7751,3.3225,0.9669,2.0093
3837,-0.6637,0.825,0.7746,1.3072,1.1501,1.9024
3851,-0.6529,0.835,0.7643,-0.708,0.5547,1.9024
3891,-0.6586,0.835,0.7731,1.124,0.6157,1.4292
3904,-0.6605,0.8269,0.7724,2.5133,0.9821,1.5666
3918,-0.6595,0.8323,0.7719,-0.1737,0.7226,0.2994
3930,-0.6615,0.8274,0.7707,-0.937,0.0508,-0.464
3942,-0.6546,0.8323,0.7707,0.8645,-0.5598,-0.754
3955,-0.6629,0.8367,0.7733,-1.0744,-0.8652,-1.7617
3995,-0.6571,0.8291,0.7768,0.5133,0.6615,0.391
4008,-0.6581,0.8262,0.7795,1.4141,0.6615,0.4826
4021,-0.659,0.8318,0.7753,1.4752,0.1424,0.62
4035,-0.6649,0.8333,0.7782,0.7576,-0.0255,0.4063
4046,-0.6561,0.8274,0.7743,-0.4332,-0.2392,-0.3876
4058,-0.6568,0.8345,0.7751,-2.4027,-0.8499,-1.3037
4099,-0.6583,0.8296,0.7721,-0.708,0.0661,-0.922
4112,-0.6586,0.8218,0.778,-1.2271,0.1272,-0.4945
4125,-0.6549,0.8296,0.7799,-0.9523,0.6005,0.0551
