time_ms,ax,ay,az,gx,gy,gz
12,-0.7716,0.3153,0.4022,0.2892,-1.3976,1.5171
25,-0.7677,0.3207,0.3973,-0.9933,-0.3747,-1.0325
37,-0.7672,0.3148,0.3944,-0.7795,0.5413,-2.4066
50,-0.774,0.3102,0.3909,0.7014,0.9841,-1.9485
91,-0.7677,0.316,0.3907,3.48,-0.7869,2.4637
104,-0.7667,0.3236,0.3961,1.0067,-0.1762,0.2041
118,-0.7672,0.3177,0.39,-1.0085,0.5413,-2.5745
131,-0.7677,0.3107,0.3922,-1.9551,1.1062,-3.2768
143,-0.7691,0.3089,0.3897,-1.4207,0.5718,-2.147
156,-0.7704,0.3087,0.3895,0.0907,-0.0388,-0.4066
197,-0.7672,0.3207,0.3939,-0.6116,-0.7717,0.3873
210,-0.7684,0.317,0.3946,-1.9551,0.3886,-2.1318
223,-0.7691,0.3116,0.3941,-1.0696,1.1062,-2.9256
237,-0.7699,0.3072,0.3953,-0.3673,0.6482,-1.7043
249,-0.7706,0.3048,0.3922,1.0984,0.007,0.7537
262,-0.7711,0.3099,0.3929,2.5487,-0.9854,2.9827
303,-0.7684,0.3185,0.3953,-1.0391,0.1444,-1.9333
316,-0.7713,0.3129,0.3914,-1.5123,0.3123,-3.0631
330,-0.7557,0.286,0.3597,-3.894,-0.3595,-0.8188
342,-0.7689,0.3068,0.3956,0.3045,0.0986,0.2652
354,-0.7684,0.3097,0.3961,0.8999,-0.6495,2.4637
367,-0.7716,0.3121,0.4002,0.2434,-1.2907,2.0362
408,-0.7731,0.3041,0.3936,2.2892,1.7474,2.6011
421,-0.7735,0.3024,0.3968,6.4724,1.381,6.5705
434,-0.7713,0.3136,0.3914,8.6403,0.8467,8.7537
447,-0.7726,0.3209,0.3971,7.3884,0.4955,7.6545
460,-0.7679,0.308,0.4002,9.9991,0.7856,7.9751
473,-0.7672,0.3121,0.4198,9.1442,0.3886,7.6698
514,-0.6764,0.4943,0.493,-6.978,-26.5274,7.2118
527,-1.7423,0.4569,-1.6498,34.1518,-77.5656,0.0515
540,-0.4642,0.2335,0.9215,2.0449,-58.3289,-6.7272
554,-0.5174,-0.0302,0.8536,-17.9551,-53.0923,-18.8798
567,-0.4899,0.2052,0.5098,-29.3444,-47.5961,1.7919
579,-0.3744,0.5936,0.6388,-28.6268,-80.5427,-1.8569
620,-0.8553,0.3053,0.2144,-62.3673,-61.7793,1.5018
634,-0.3683,0.0939,0.8314,-30.6268,-48.2831,-20.1318
647,-0.3829,0.3317,1.0706,9.0373,-35.932,10.5553
659,-0.4283,0.0736,0.7884,-34.2452,-49.5503,-0.4066
673,-0.4593,0.1224,1.035,13.4342,-31.2297,-17.3684
686,-0.5682,-0.5197,0.0196,-36.8864,-38.6648,0.4026
726,-0.9486,0.5863,0.8888,54.1518,25.9001,-35.231
739,-0.6734,-0.0316,-0.6076,48.3655,15.0146,-35.5821
752,-0.5543,0.4171,0.6683,68.8846,28.2512,-33.2768
766,-1.0209,0.7894,0.1034,58.2434,23.8696,-21.2921
779,-0.401,0.569,0.1136,44.8235,26.1902,-16.8493
792,-0.6673,0.4266,0.4417,13.9838,29.2589,-4.2997
832,-0.7738,0.4576,0.3407,-8.2146,54.0986,-30.1318
845,-0.8143,0.4454,0.1981,8.9762,61.9306,-15.6585
858,-0.756,0.3334,0.5323,30.5487,59.4421,-2.2844
871,-0.7408,0.4537,-0.0251,29.5258,51.9306,25.2881
884,-0.6495,0.483,1.161,8.8388,33.152,29.7766
897,-0.7723,0.5382,0.4195,0.0296,24.465,54.8148
938,-0.8915,0.5428,-0.1554,-42.5047,-18.848,62.8453
951,-1.4181,0.2303,-0.2758,-52.1383,-46.3137,55.8682
965,-0.9332,-0.7169,0.3509,-93.3749,-59.1991,29.456
977,-0.4225,0.3805,0.9256,-25.8329,-3.1991,2.769
991,-0.8251,0.496,0.1886,-28.978,-40.3289,16.1583
1003,-0.6866,-0.1337,0.2215,-5.4971,27.2741,-30.544
1045,-0.7494,0.1954,0.4178,48.2892,-26.8022,49.0285
1058,-0.8624,-0.0324,0.3573,28.3197,-6.6648,14.3263
1070,-1.0216,0.0585,0.359,48.9609,0.8314,-8.3608
1083,-0.8697,0.1188,0.6637,84.7014,46.1291,-39.5211
1096,-1.0802,0.2836,0.5741,60.9609,49.2741,-20.9104
1110,-0.8961,0.5389,0.3831,82.7625,37.6405,-31.3379
1150,-0.7389,0.8277,0.4246,39.2205,35.6863,-0.8798
1163,-0.7916,0.222,-0.4743,29.8617,38.9383,-2.8493
1177,-0.8983,0.5865,-0.1281,36.1823,76.3886,-19.5363
1190,-1.0133,0.6158,1.0958,-34.4284,51.0451,-25.5058
1202,-0.901,0.3907,0.3165,-24.9933,45.5337,-9.002
1215,-0.8009,0.5272,0.4276,-23.0849,49.1062,-3.9027
1257,-0.7621,1.0187,0.8851,-36.8406,6.3734,21.9598
1270,-0.8026,0.827,0.7274,-51.6039,2.4802,30.5247
1282,-0.5875,0.5214,0.418,-71.1612,-16.2678,44.4026
1295,-0.9137,0.1903,0.4307,-46.1078,-31.7182,39.0744
1309,-0.8265,0.3807,1.1414,-37.1765,-38.3289,28.3721
1322,-0.9552,-0.4384,0.2989,-55.9245,-19.8098,4.998
1362,-0.7911,0.1874,0.3841,-31.5887,-18.8175,9.7003
1376,-0.7723,0.3348,0.4539,-40.0925,15.4573,-25.231
1388,-0.7738,0.3319,0.4293,0.6403,1.3657,0.1125
1402,-0.7616,0.3214,0.4224,-2.3673,-1.0312,4.0515
1414,-0.7757,0.3431,0.4364,1.7548,-3.0465,6.8453
1427,-0.7626,0.3636,0.4381,0.1518,-1.306,2.2805
1469,-0.7677,0.3312,0.4366,-0.7337,0.8161,-2.6661
1481,-0.7694,0.3422,0.4322,0.3197,-0.5579,0.4637
1493,-0.7721,0.3446,0.43,0.3503,-1.6266,1.0438
1506,-0.7704,0.3458,0.4395,-0.1383,-1.9167,-0.1165
1520,-0.7674,0.3514,0.441,-0.4894,-0.7869,-1.6127
1533,-0.7682,0.3448,0.4371,-1.3597,0.1291,-3.5516
1573,-0.7704,0.3456,0.4351,0.9151,-0.161,3.7461
1586,-0.7667,0.349,0.4366,-1.8177,-0.2526,1.1354
1599,-0.7674,0.3436,0.4368,-0.5658,-0.0541,0.9217
1612,-0.7689,0.3417,0.4425,-0.2604,0.5108,-0.1318
1624,-0.7684,0.3458,0.4388,-1.1154,0.3428,-0.5592
1638,-0.7716,0.3429,0.4386,-2.3368,0.4192,-2.2234
1678,-0.7687,0.3436,0.4398,-3.2986,-1.8404,-3.0173
1692,-0.7689,0.3358,0.4398,-0.9627,-1.1228,-1.0631
1705,-0.7672,0.3426,0.442,-0.581,-0.5427,-0.2692
1717,-0.7696,0.3339,0.441,-0.7795,0.007,-0.376
1729,-0.7652,0.3326,0.4312,1.7701,0.4039,1.456
1742,-0.7662,0.3548,0.4364,-0.81,-0.0236,-1.5211
1784,-0.7704,0.3346,0.432,-1.1001,-0.848,-1.3837
1796,-0.7665,0.3363,0.4378,0.3961,-0.9396,0.3415
1808,-0.7694,0.3343,0.4337,1.5564,-0.9243,0.9064
1821,-0.7687,0.3409,0.4366,0.5335,-0.5121,-0.2234
1833,-0.7687,0.3341,0.4422,0.1976,-0.3136,0.0056
1845,-0.7723,0.3475,0.439,-0.9627,-0.9854,-1.5058
1887,-0.7674,0.3243,0.4388,-2.4589,-1.5198,-1.1089
1900,-0.7643,0.3292,0.4388,1.8312,-1.0312,3.227
1912,-0.7679,0.3397,0.4449,3.2358,-0.1152,3.3339
1925,-0.7657,0.3556,0.443,-0.2146,0.1138,-0.3913
1937,-0.7667,0.3397,0.4366,-2.9169,0.526,-3.4447
1950,-0.7655,0.3302,0.4332,-1.8635,0.4802,-2.2997
1991,-0.7645,0.3373,0.4388,3.3426,-0.4816,5.0896
2005,-0.7645,0.3458,0.4388,2.6251,-0.4511,3.3186
2017,-0.7684,0.348,0.4398,0.3655,-0.4511,0.0209
2030,-0.7652,0.3485,0.4478,-2.2299,-0.0694,-3.3226
2043,-0.7667,0.338,0.4381,-3.436,0.1291,-5.3379
2056,-0.7672,0.3265,0.4366,-2.9016,-0.0236,-4.0096
2097,-0.766,0.3461,0.441,0.5487,-0.7411,2.311
2111,-0.7655,0.3385,0.4415,-0.3978,0.4039,-0.0249
2122,-0.7679,0.3378,0.44,0.8541,0.4344,-0.3455
2135,-0.7638,0.3429,0.4378,-0.0467,-0.0846,-1.3379
2148,-0.7682,0.34,0.4346,-1.3444,0.6482,-2.9714
2160,-0.7667,0.3297,0.4393,-0.3062,0.236,-1.9333
2201,-0.767,0.3422,0.4469,5.2663,-0.4053,5.4408
2214,-0.7691,0.3556,0.44,1.7396,0.4192,1.9446
2227,-0.7662,0.3512,0.4444,-2.9475,0.5718,-3.3073
2240,-0.7713,0.3356,0.4398,-3.207,0.5871,-3.6279
2253,-0.7706,0.3319,0.431,-1.6192,-0.4358,-1.7806
2266,-0.765,0.3297,0.4381,1.3732,-0.8327,1.2881
2307,-0.7623,0.357,0.44,0.335,0.4802,0.5858
2320,-0.7645,0.3507,0.4405,-4.2604,0.6024,-4.5745
2333,-0.7687,0.3312,0.4383,-3.8635,0.694,-4.5592
2346,-0.7689,0.3321,0.4354,-1.9093,0.3581,-1.3684
2359,-0.7684,0.3292,0.4383,-1.1612,0.0528,0.6316
2372,-0.7704,0.3319,0.443,1.3732,-0.2526,4.0667
2413,-0.7635,0.3439,0.4371,-3.6039,0.4039,-5.6279
2426,-0.766,0.3395,0.44,-3.2223,0.6024,-5.4142
2439,-0.7682,0.3324,0.4351,-4.5658,-0.5732,-3.9027
2452,-0.7645,0.3287,0.4376,-3.4818,-0.9549,-1.5211
2465,-0.7716,0.327,0.4356,-0.5658,-0.4969,1.8377
2478,-0.7648,0.3295,0.4373,1.419,0.3276,2.998
2520,-0.7704,0.3343,0.4361,-3.436,0.5413,-5.3837
2533,-0.763,0.3339,0.4337,-3.8024,-0.8022,-4.0707
2545,-0.7684,0.3275,0.4378,-4.7948,-1.5656,-3.6737
2558,-0.767,0.3212,0.4398,-1.4971,-1.2297,-0.5592
2571,-0.7626,0.3309,0.4364,1.5869,0.0375,2.54
2584,-0.7628,0.3336,0.4442,2.793,1.0757,2.4789
2625,-0.7667,0.3282,0.4342,-1.0849,0.5108,-1.7348
2638,-0.7709,0.3273,0.4386,-0.9933,-0.0083,-0.1318
2650,-0.7677,0.3236,0.4388,0.5945,-0.3136,2.1125
2663,-0.7672,0.327,0.4412,2.1823,-0.222,4.54
2676,-0.764,0.3353,0.4315,4.2434,0.3428,5.6392
2689,-0.7652,0.348,0.44,3.022,0.1444,2.3263
2730,-0.767,0.3312,0.4388,-2.062,0.8925,-3.3684
2743,-0.767,0.3229,0.4337,-0.2299,0.1444,-0.6966
2755,-0.764,0.3253,0.439,1.6938,0.2207,2.0362
2768,-0.7689,0.3314,0.4356,2.6861,0.2665,2.998
2781,-0.7662,0.3356,0.4381,1.7701,0.1444,2.6927
2794,-0.7687,0.3404,0.4422,-1.0238,0.007,0.4637
2835,-0.7652,0.3317,0.4381,-0.4894,0.297,1.1507
2849,-0.7679,0.3326,0.4393,0.6861,0.3276,1.9293
2861,-0.7679,0.3265,0.441,2.7625,0.2818,4.2347
2874,-0.7611,0.3456,0.4325,2.9151,-0.1457,4.2957
2887,-0.7645,0.3456,0.4368,0.4724,-0.3595,1.3034
2900,-0.7645,0.339,0.4388,-0.5352,0.0528,-0.3608
2941,-0.766,0.3312,0.4398,-0.1078,0.8772,-0.2539
2954,-0.7709,0.3353,0.4317,0.564,1.1367,0.3415
2967,-0.7682,0.3373,0.4381,0.2739,0.9077,0.5095
2979,-0.7674,0.3407,0.4376,0.0296,0.6176,-0.2844
2991,-0.7684,0.3363,0.4307,-0.4742,0.5108,-0.6661
3003,-0.7679,0.3378,0.4342,-0.7642,0.2054,-0.544
3044,-0.7689,0.3404,0.4364,1.19,0.3886,0.6774
3057,-0.7677,0.3431,0.4334,-0.3826,0.526,-0.8951
3069,-0.7684,0.3329,0.4305,-0.3062,0.3428,-1.5669
3083,-0.7672,0.3331,0.4412,-0.2604,0.2207,-0.3913
3094,-0.7713,0.3302,0.439,0.2281,0.1749,1.5782
3107,-0.7704,0.3348,0.4349,1.0525,-0.3136,2.7385
3149,-0.7691,0.3434,0.4386,-1.4207,1.0604,-2.8188
3162,-0.7672,0.3314,0.4364,-2.1841,0.694,-4.2386
3175,-0.7662,0.3324,0.4317,-1.1154,0.3581,-1.7806
3187,-0.7701,0.3324,0.4354,-0.4742,-0.2678,-0.2081
3199,-0.7667,0.3312,0.4346,0.7777,-0.1915,1.0133
3212,-0.7674,0.3426,0.4349,0.3503,-0.0083,0.8759
3253,-0.7689,0.3341,0.4305,-1.6039,0.0986,-1.5363
3266,-0.7689,0.3258,0.432,-0.6726,-0.2068,-0.1623
3279,-0.7682,0.3385,0.4381,-0.9016,-0.2068,0.6316
3291,-0.7677,0.3387,0.4403,-0.0925,0.2512,-0.0402
3304,-0.7657,0.339,0.4373,-0.0925,0.923,-1.1547
3316,-0.7674,0.3346,0.431,-0.4131,0.9383,-1.7043
3357,-0.7674,0.3295,0.4305,-0.4131,-0.4816,0.998
3371,-0.7684,0.3441,0.4339,-1.4513,-0.4663,-0.605
3383,-0.7687,0.3387,0.4332,-1.4055,-0.0083,-2.5592
3396,-0.766,0.3321,0.4325,-1.0085,0.5871,-3.3837
3409,-0.7701,0.3229,0.4388,1.3121,0.8314,-0.2692
3422,-0.7694,0.3304,0.4312,1.0831,-0.0999,2.1278
3463,-0.7701,0.3404,0.4359,-1.4513,0.6634,-1.3531
3476,-0.763,0.3331,0.4378,-1.6192,1.2589,-3.0173
3490,-0.7716,0.3292,0.4285,-1.1001,1.2131,-2.7424
3502,-0.7679,0.326,0.4327,-0.1688,0.2512,-1.0936
3515,-0.7662,0.3304,0.431,0.8693,-0.4053,1.5324
3528,-0.7677,0.3424,0.4332,0.6251,-0.9549,0.8301
3569,-0.7682,0.3238,0.4327,-0.8406,0.4344,-1.4753
3582,-0.7667,0.3243,0.4266,0.6556,0.3734,1.2728
