time_ms,ax,ay,az,gx,gy,gz
12,-0.7499,0.3592,0.5055,1.1442,0.1444,2.311
25,-0.7489,0.3578,0.504,0.7777,-0.3442,2.0362
66,-0.7525,0.3534,0.5057,0.2892,-0.1915,-0.1623
79,-0.7525,0.3544,0.5089,-0.1383,-0.7411,-0.1623
91,-0.7494,0.3536,0.5059,0.564,-0.5579,0.2805
103,-0.7501,0.3612,0.5059,0.1976,-1.3976,-1.2921
116,-0.7494,0.3566,0.5111,-0.9016,-1.0312,-2.8188
129,-0.7506,0.3539,0.5086,-1.5123,-0.9396,-3.4753
170,-0.7472,0.3492,0.5106,1.7396,-0.3136,3.456
183,-0.7486,0.3556,0.5142,1.5869,0.1138,4.1278
196,-0.7533,0.3578,0.5103,1.3884,1.0146,2.54
208,-0.7464,0.3651,0.5079,-0.0467,0.9535,-0.1928
221,-0.7521,0.3536,0.5081,-0.978,1.0451,-1.6127
234,-0.7521,0.348,0.5067,-0.0314,0.8772,-0.7119
275,-0.7479,0.3568,0.5018,0.9457,-1.9014,2.2805
288,-0.753,0.3512,0.5052,1.5564,-2.1457,3.0744
301,-0.7572,0.3514,0.5111,2.6556,-2.7869,5.7308
314,-0.7696,0.336,0.5025,7.3884,-5.077,12.3873
327,-0.7633,0.3519,0.505,13.2816,-10.3137,17.1507
340,-0.7809,0.2858,0.4986,20.0602,-18.2526,16.3568
381,-1.0353,0.3553,0.6991,112.686,-15.932,17.5171
394,-1.0414,0.3483,0.7933,-5.0238,-10.0541,62.3415
407,-0.7584,0.275,0.4686,46.7014,-24.7564,55.3339
421,-0.6437,0.3099,0.4464,38.6556,-12.619,42.5858
433,-0.567,0.472,0.4312,37.419,2.1902,34.8759
446,-0.6075,0.5067,0.4288,28.5182,19.61,32.7385
487,-0.7086,0.4676,0.67,-2.3215,24.4192,21.3797
500,-0.7582,0.461,0.5899,-4.4284,19.7169,11.4866
513,-0.7547,0.4986,0.5111,-3.0696,22.3581,7.1507
526,-0.7504,0.4896,0.4906,-0.7795,29.6253,6.7385
539,-0.7928,0.5084,0.4803,-0.7337,31.0909,9.4866
552,-0.7521,0.5172,0.4178,-0.6726,33.9154,15.3186
593,-0.6857,0.4637,0.3753,-7.1307,68.2054,12.8301
606,-0.7923,0.4608,0.4534,-7.1612,72.9688,8.5247
619,-0.8998,0.4701,0.5155,-0.4894,62.4955,7.4102
632,-0.9198,0.5355,0.4962,3.5716,47.9154,8.1278
644,-0.796,0.5712,0.4547,-0.6879,46.8772,8.7537
658,-0.7235,0.5553,0.3941,-5.8482,52.3886,9.1812
699,-0.7313,0.5008,0.148,10.6556,34.7093,10.5247
712,-0.8043,0.4789,0.3912,-0.2604,16.694,10.5705
725,-0.7814,0.3793,0.7227,-0.4589,2.0833,-3.2921
738,-0.8116,0.5187,0.3848,-5.0238,4.1291,2.5858
751,-0.8102,0.5072,0.3741,-9.5581,6.465,2.3721
764,-0.8085,0.5006,0.3751,-8.9016,6.8925,3.1812
805,-0.817,0.5074,0.367,-7.1001,4.5413,7.7156
818,-0.8109,0.5082,0.408,-6.0772,-2.6343,9.4102
832,-0.8038,0.5094,0.3717,-9.4665,-8.619,6.1431
844,-0.8126,0.4022,0.6563,-11.4971,-40.5885,-1.8264
857,-0.8236,0.5294,0.4549,-5.6955,-21.2449,-1.6127
870,-0.9574,0.0753,0.1634,11.6938,-64.6495,-21.46
911,-0.5763,0.4896,0.6793,-48.9474,-69.6572,-20.1776
924,-1.0792,0.6659,0.2083,-24.7642,-53.0617,-19.2615
937,-0.5748,0.4078,1.2474,-81.4818,-75.6114,-25.0478
951,-1.1068,0.524,0.1803,-3.9093,-52.2678,-17.2005
964,-0.9881,0.6522,0.5457,-9.3291,-84.2068,-17.3379
976,-0.6546,0.4986,0.3792,-50.81,-44.6343,-21.1852
1018,-1.1498,0.6576,-0.1889,10.3961,-23.0923,11.914
1031,-0.1891,0.1571,1.2406,-15.8482,-39.9778,-42.1623
1043,0.0844,-0.4364,1.4661,-58.581,-38.5579,-44.3455
1056,-0.5729,0.7235,0.2364,14.2281,-32.4663,-41.0783
1069,-0.4569,0.161,0.536,9.4648,-17.3671,-31.9485
1083,-0.441,0.2757,0.7056,-32.1841,-1.932,-42.9409
1123,-0.8182,0.8158,0.5743,-16.1383,4.2207,-0.8646
1136,-0.8255,0.5082,0.5484,10.1213,31.3199,-40.6661
1149,-0.815,0.2689,0.1822,6.6861,18.5718,-18.7119
1163,-0.7936,0.4864,0.5587,8.1976,35.6711,-17.0478
1175,-0.839,0.441,0.3553,3.709,36.4497,-6.7882
1188,-0.9027,0.6083,-0.2489,32.106,50.7856,2.3873
1228,-0.8468,0.2316,0.6146,1.5869,14.7093,5.6698
1242,-0.6561,0.4134,1.1607,-27.5429,42.5566,17.0591
1255,-0.8133,0.513,0.5189,8.5487,29.4421,31.4866
1268,-0.5721,0.2113,1.0562,-10.7184,15.9001,14.9369
1281,-0.7408,0.8441,0.4588,14.793,8.1291,30.4789
1294,-0.7894,0.2364,0.4205,-12.4284,-0.9854,15.3644
1335,-0.849,0.6566,0.4383,-6.1078,-2.0694,38.3568
1349,-0.8043,0.4242,0.4666,-19.5123,-11.306,7.0286
1361,-0.829,0.6136,0.3765,-7.2223,-4.8022,23.0591
1374,-0.7579,0.2413,0.4083,-8.4589,-1.0465,2.4637
1387,-0.7645,0.3766,0.4779,-1.3902,1.6253,-2.3302
1400,-0.7767,0.4086,0.4664,1.4037,1.9154,4.5858
1441,-0.7779,0.4191,0.473,9.7396,2.0375,5.8072
1454,-0.7687,0.3951,0.4793,10.5029,-0.4053,-0.0554
1467,-0.7989,0.4745,0.4163,4.3503,1.6864,-6.0707
1481,-0.6908,-0.1752,0.3629,-8.5505,-3.4434,-20.6356
1493,-0.9068,0.7716,0.4925,39.0678,-4.5732,2.54
1507,-0.7665,0.1627,0.3001,26.8083,15.0451,-11.46
1547,-0.8666,0.7159,0.2891,42.7167,18.0375,-12.8798
1560,-0.7909,0.4493,0.4263,0.7625,12.1138,-6.376
1573,-0.8409,0.3607,0.0594,11.9533,42.0222,-21.5974
1587,-0.7582,0.5145,0.4129,1.3121,19.61,-8.6966
1599,-0.7713,0.4943,0.3407,19.4648,31.9306,-7.5211
1612,-0.9925,0.2694,0.6031,-10.9627,36.4802,-2.2844
1653,-0.7496,0.4486,0.6412,5.7243,27.5642,5.395
1666,-0.9432,0.642,0.0396,19.4495,28.8467,21.1812
1680,-0.775,0.2684,0.679,-31.0543,28.7551,10.8759
1692,-0.7482,0.7433,0.2574,7.938,9.1673,3.0896
1704,-0.7406,0.5087,0.3712,6.2281,7.152,3.8988
1718,-0.7325,0.151,0.4918,-22.3062,6.3123,-17.6432
1759,-0.84,0.5758,0.4146,-17.3444,-11.8862,-9.3684
1772,-0.8126,0.5736,0.336,-27.1307,-7.2297,28.7537
1786,-0.7955,0.7948,0.2974,-52.3673,-2.848,34.0667
1799,-0.8026,0.2941,0.4552,-20.7642,-13.8709,19.0438
1811,-0.785,0.055,0.1729,-60.7948,-8.5121,9.5324
1825,-0.7467,0.3622,0.4012,-3.665,-22.2678,20.7843
1866,-0.7657,-0.1117,-0.1679,-15.8329,-18.8022,7.3644
1878,-0.8465,0.5472,0.3819,-17.207,12.5108,-13.0783
1891,-0.7967,0.4637,0.3868,2.8846,3.3505,-1.1089
1903,-0.815,0.4288,0.3831,3.4495,0.1749,2.2957
1917,-0.7962,0.4645,0.3888,3.8159,-1.993,4.1583
1930,-0.7962,0.4591,0.3997,4.1518,-0.7411,1.8988
1971,-0.7987,0.451,0.3934,0.0754,1.4115,-6.8798
1984,-0.7987,0.4496,0.3941,0.1365,0.0528,-3.9485
1997,-0.8021,0.4469,0.3936,0.2739,-0.619,-0.2997
2010,-0.8011,0.4454,0.3956,1.3732,-1.4434,2.7995
2023,-0.795,0.4571,0.3992,-0.4742,-1.1075,2.3415
2036,-0.7994,0.4557,0.3949,0.3045,-0.5121,1.0133
2077,-0.8006,0.4579,0.3924,-1.0543,0.3581,-3.5363
2090,-0.8024,0.4486,0.3892,-1.207,-0.222,-3.2157
2103,-0.8021,0.4545,0.3971,-1.5429,-0.7869,-2.6356
2116,-0.7997,0.4493,0.3917,-1.0696,-1.1075,-1.3073
2128,-0.7977,0.4508,0.3983,0.5945,-0.5732,-0.8646
2142,-0.798,0.4554,0.3985,-0.4284,-0.3289,-1.8111
2183,-0.7992,0.4503,0.3895,-2.8558,0.0986,-6.9409
2195,-0.8006,0.4425,0.3953,-1.2223,0.4497,-6.2539
2209,-0.7938,0.4442,0.3949,-0.9016,0.3123,-5.5974
2222,-0.7967,0.4386,0.4014,0.8693,0.5871,-3.46
2235,-0.7972,0.4452,0.3975,2.6251,0.6329,-0.5287
2248,-0.7989,0.4618,0.3905,4.8999,0.6329,-0.2692
2288,-0.7919,0.4386,0.3973,-1.1459,1.2436,-3.6432
2302,-0.7965,0.4396,0.3963,-0.6116,2.0833,-0.9256
2315,-0.7972,0.4342,0.3951,0.9304,2.7856,1.9751
2328,-0.7948,0.4464,0.3983,2.2281,3.7322,4.0667
2340,-0.798,0.4498,0.3944,2.5487,5.3963,3.5476
2353,-0.7999,0.4498,0.3934,2.6251,6.4802,2.4789
2395,-0.8009,0.4442,0.3861,0.4724,7.3657,-2.4066
2408,-0.797,0.4452,0.3853,0.6403,7.839,-3.3684
2421,-0.7948,0.4542,0.3834,-0.1994,7.3657,-7.3073
2434,-0.8019,0.4481,0.3809,-2.1536,6.3428,-11.5821
2447,-0.8016,0.4437,0.3812,-2.6116,5.4573,-14.6814
2461,-0.7962,0.4364,0.3712,-6.7642,4.4039,-17.6737
2501,-0.7994,0.4195,0.3717,-24.1841,0.2818,-33.6127
2514,-0.7967,0.3983,0.3834,-14.7642,-0.5274,-28.1318
2528,-0.8107,0.3763,0.3673,-10.0009,-4.0083,-18.086
2540,-0.7872,0.3917,0.3739,-7.2375,-6.1457,-13.2615
2553,-0.7936,0.3812,0.3819,-5.2223,-5.3824,-6.2844
2566,-0.7906,0.3863,0.3797,-2.2757,-4.0846,-0.376
2607,-0.7911,0.4059,0.3795,-2.062,-2.6495,-6.7577
2620,-0.7889,0.3995,0.3775,-3.0543,-1.5808,-11.2157
2633,-0.7877,0.3942,0.3805,-3.3749,-0.3595,-15.4753
2646,-0.7865,0.3873,0.3851,-3.3902,1.2436,-17.7653
2659,-0.7792,0.3758,0.3907,-4.4742,1.6711,-20.1623
2673,-0.8004,0.3832,0.3714,-4.9016,-0.5579,-23.1394
2713,-0.784,0.3412,0.3834,7.2816,-19.0007,-8.773
2726,-0.7894,0.3473,0.3853,11.7854,-22.8022,0.8301
2739,-0.785,0.3568,0.3851,14.4419,-26.9701,5.2423
2752,-0.7858,0.3651,0.3966,15.4495,-31.1991,6.4026
2765,-0.7836,0.3688,0.409,15.8159,-35.9014,5.7003
2778,-0.7826,0.3612,0.4132,16.5182,-39.077,5.9293
2819,-0.7711,0.3868,0.4649,8.3197,-26.6343,-5.46
2832,-0.7679,0.3829,0.4752,4.5029,-15.3824,-10.4982
2845,-0.7694,0.3895,0.474,1.0831,-6.7411,-16.8035
2858,-0.7672,0.3649,0.4632,-1.665,-1.5045,-20.605
2871,-0.7667,0.3487,0.4576,-0.7337,-0.7259,-17.1852
2884,-0.7704,0.3341,0.4537,3.0525,-1.535,-8.1165
2925,-0.7682,0.3695,0.4632,8.9304,-6.5885,16.4484
2938,-0.7689,0.3773,0.4627,5.6174,-5.2449,13.3644
2951,-0.7633,0.3839,0.4718,4.6709,-3.1381,9.9751
2964,-0.7621,0.3832,0.471,3.0678,-0.6343,4.1583
2977,-0.7682,0.38,0.4698,2.3655,1.8085,0.311
2990,-0.766,0.379,0.4676,2.2434,2.526,-2.8188
3031,-0.7645,0.368,0.4615,3.1289,-0.1152,3.1965
3044,-0.7665,0.3724,0.4605,1.9228,-1.3518,4.1736
3057,-0.767,0.3727,0.4617,1.7854,-1.7488,4.0362
3070,-0.767,0.3795,0.4652,0.1671,-1.8098,3.3644
3083,-0.7738,0.3707,0.47,-0.2757,-1.3671,3.7308
3096,-0.7706,0.3736,0.4639,1.648,-0.7869,5.7614
3136,-0.7687,0.389,0.4664,1.0831,0.6176,0.2347
3150,-0.7687,0.3863,0.4661,-0.52,0.2512,-2.9409
3163,-0.7687,0.3797,0.4647,-2.4284,-0.4511,-4.1165
3176,-0.7643,0.3673,0.4622,-1.7566,-0.6343,-0.6966
3189,-0.7626,0.3658,0.4698,0.8999,-1.0159,3.8835
3202,-0.7718,0.3773,0.471,0.4724,-1.0617,5.9446
3243,-0.7694,0.392,0.4698,1.251,1.0757,3.8377
3256,-0.7735,0.3866,0.4674,1.19,0.9535,2.2041
3269,-0.7657,0.391,0.4657,2.4113,-0.2526,2.2652
3282,-0.7711,0.3893,0.4632,0.7625,-1.1075,-0.1318
3295,-0.7704,0.3942,0.4593,0.8235,-1.5045,-1.1241
3308,-0.7687,0.3946,0.4615,-1.0391,-2.3595,-3.7653
3349,-0.7667,0.3822,0.4683,-0.0772,-1.3976,-3.0325
3362,-0.7716,0.3763,0.4708,1.0831,-0.0846,-0.9104
3375,-0.7665,0.3895,0.4683,1.9686,0.8467,1.6087
3388,-0.7689,0.3866,0.4657,0.793,1.1062,-0.1928
3401,-0.7667,0.3807,0.4669,0.2434,0.8161,-0.6356
3414,-0.7677,0.3817,0.4622,0.9762,0.526,0.8606
3455,-0.7694,0.3819,0.4708,0.3197,-0.5579,2.3873
3468,-0.7704,0.3866,0.4708,1.0067,-0.161,1.914
3481,-0.7677,0.3878,0.472,1.3732,0.297,1.2118
3494,-0.7682,0.4029,0.4676,0.793,0.1749,-1.6279
3508,-0.7713,0.3873,0.4637,-2.4284,-0.0846,-6.0707
3520,-0.7706,0.3778,0.4681,-2.3826,0.236,-5.3684
3561,-0.7667,0.381,0.4735,1.0984,-0.8175,3.8377
3574,-0.7701,0.3959,0.4769,1.0678,-1.474,1.4255
3587,-0.7711,0.3839,0.4825,-0.4589,0.5108,-0.3302
3600,-0.7691,0.3805,0.4769,-0.291,1.4268,-0.1012
3613,-0.7728,0.3824,0.4649,0.5335,0.8619,0.6316
3626,-0.7711,0.3766,0.4661,1.3426,0.4039,2.3568
3667,-0.7672,0.3942,0.4747,-0.4742,-0.4053,-1.002
3680,-0.7657,0.3902,0.47,-1.0238,0.0833,-3.1089
3693,-0.7694,0.3817,0.4681,-0.978,0.6329,-4.0554
3706,-0.7694,0.38,0.4676,-0.4894,0.0222,-2.9562
3719,-0.7679,0.3822,0.4693,-0.5047,-0.8022,-1.3379
3732,-0.7706,0.3805,0.4718,-0.8558,-1.1686,-0.6203
3773,-0.7687,0.3824,0.4705,-2.2299,-0.39,-2.6508
3786,-0.7682,0.3744,0.4696,-1.8024,0.3123,-1.3837
3799,-0.7684,0.3746,0.4693,-0.1536,1.1215,1.2118
3812,-0.7694,0.3812,0.4686,0.7472,0.9535,2.7537
3825,-0.7723,0.3827,0.4676,0.4113,0.7856,1.853
3838,-0.7677,0.3841,0.4686,-0.1078,0.8772,0.4484
3880,-0.7689,0.3805,0.4725,-0.8864,0.2207,-1.3531
3892,-0.7709,0.3763,0.4669,-0.2452,-0.0236,0.1889
3904,-0.7738,0.3824,0.4693,0.7014,-0.1457,0.6316
3916,-0.7665,0.3849,0.472,0.8693,-0.4053,-0.0402
3929,-0.7674,0.3856,0.4703,-0.3978,-0.3747,-2.086
3942,-0.7667,0.3763,0.4635,-0.52,-0.2831,-3.1699
3983,-0.7679,0.3749,0.4705,0.335,-0.0846,0.9217
3995,-0.7694,0.3807,0.4688,0.6098,-0.0846,1.7766
4008,-0.7635,0.38,0.472,0.0449,0.9077,0.3263
4023,-0.7645,0.3856,0.4669,-0.7948,1.4268,-2.0554
4035,-0.7689,0.3797,0.4639,-1.2223,2.0375,-3.231
4048,-0.7716,0.3749,0.4669,-0.2604,1.9917,-1.6737
4089,-0.7696,0.378,0.4679,1.48,-0.6343,2.2499
4101,-0.7711,0.3859,0.4703,0.4724,-0.0846,0.0362
4114,-0.7694,0.3832,0.4679,-0.581,0.6787,-2.834
4127,-0.7694,0.381,0.4664,-0.8406,0.694,-5.0631
4140,-0.7662,0.3788,0.4691,-1.8482,-0.1457,-6.8951
4153,-0.7694,0.3683,0.4649,-2.1688,-0.8785,-5.6585
4194,-0.7635,0.3751,0.4776,0.1518,-0.161,1.1507
4207,-0.7689,0.3717,0.4693,0.106,0.5718,1.0896
4220,-0.767,0.3736,0.4688,-0.1078,1.152,-0.6356
4233,-0.7657,0.3714,0.4644,-0.4589,1.2894,-1.4753
4246,-0.7706,0.3714,0.4681,-1.2681,1.0909,-1.3989
4259,-0.7694,0.368,0.4703,-0.3368,0.5566,0.4026
4299,-0.7706,0.3734,0.4674,1.5106,-0.5121,1.8682
4312,-0.7667,0.3785,0.4647,1.709,0.236,1.1965
4326,-0.7709,0.3773,0.4735,0.8693,0.3276,-0.2844
4339,-0.7726,0.3797,0.4666,-0.1841,0.694,-2.4066
4352,-0.7655,0.3739,0.4657,-0.9627,0.6024,-3.3073
4365,-0.7701,0.3675,0.4639,-0.8558,0.5108,-2.4982
4406,-0.7667,0.371,0.462,0.8999,-0.1762,1.0744
4419,-0.767,0.3741,0.4617,0.6709,0.3123,0.7537
4431,-0.7694,0.3776,0.4627,0.5487,0.7093,0.3568
4443,-0.7662,0.3776,0.4732,-0.062,0.6024,-0.7424
4455,-0.7684,0.368,0.4632,-0.3215,0.5413,-1.1241
4468,-0.7682,0.3761,0.47,-0.4589,0.1138,-1.4295
4509,-0.7691,0.3719,0.4659,0.2281,-0.3289,0.2347
4522,-0.7743,0.3758,0.4749,0.1976,-0.3136,-0.0249
4534,-0.7701,0.3729,0.4659,0.0144,-0.2068,-0.7424
4545,-0.7677,0.3697,0.4686,-0.1994,0.0375,-1.1241
4559,-0.7677,0.3678,0.4649,0.0449,-0.0846,-0.7424
4572,-0.7679,0.3724,0.472,-0.352,-0.4511,0.2194
4612,-0.7616,0.37,0.4652,0.5029,0.3123,1.4866
4626,-0.7711,0.3761,0.47,0.0296,0.6482,-0.086
4638,-0.7672,0.3758,0.462,0.0449,1.3199,-1.3837
4651,-0.7691,0.3739,0.4693,-0.0467,0.9993,-1.7959
4664,-0.7672,0.3717,0.4649,-0.0925,-0.1457,-1.0936
4677,-0.7689,0.3719,0.4644,1.0067,-1.7335,-0.376
4718,-0.7628,0.3697,0.472,0.1823,-0.5274,-0.0554
4731,-0.764,0.3714,0.4691,0.1823,0.5566,-0.1012
4742,-0.767,0.3693,0.4679,0.4571,0.8314,0.3721
4755,-0.7689,0.3719,0.4703,0.3808,0.7856,0.9064
4767,-0.766,0.3754,0.4642,-0.0925,0.526,-0.4371
4779,-0.7684,0.368,0.4669,-0.3826,-0.0541,-0.9104
4820,-0.7652,0.3741,0.4688,-0.0772,-0.1915,-0.0096
4833,-0.764,0.3688,0.4693,0.0144,0.465,-0.1165
4845,-0.766,0.3722,0.4652,-0.062,0.7703,-0.6508
4857,-0.766,0.3756,0.4679,-0.0925,0.5413,-1.6737
