time_ms,ax,ay,az,gx,gy,gz
8,-0.7543,0.41,0.5252,0.2892,0.694,-1.5821
21,-0.7557,0.4061,0.5274,-0.7948,0.3886,-1.7806
62,-0.7535,0.3678,0.5199,0.0296,-0.222,0.9064
75,-0.7562,0.413,0.5296,1.2052,-0.619,0.7079
88,-0.7567,0.4134,0.5289,-0.4131,-0.39,-1.2157
101,-0.7569,0.4117,0.523,-1.5123,-0.5427,-2.5745
114,-0.7538,0.4071,0.525,-1.4971,0.1444,-2.4982
127,-0.7577,0.4051,0.5304,0.1365,0.8161,-0.5898
169,-0.7569,0.4142,0.5269,0.6098,-0.0541,1.3034
182,-0.755,0.4176,0.5267,0.7014,-0.2373,-0.3608
195,-0.7565,0.4164,0.526,-1.4971,-0.3442,-2.7882
207,-0.7552,0.4064,0.5299,-1.7413,-0.5427,-3.2921
220,-0.7574,0.401,0.5255,-1.1917,-0.1915,-2.0554
233,-0.7555,0.4027,0.5264,0.4571,0.0375,0.5705
275,-0.7574,0.4115,0.5343,-0.2452,-0.2831,-0.8493
287,-0.7569,0.4142,0.5289,-0.8406,0.2512,-2.0096
300,-0.7591,0.4047,0.5238,0.2434,0.1749,-1.4447
313,-0.7523,0.4064,0.5316,0.9762,0.1138,-0.1928
325,-0.7557,0.4051,0.5221,1.3579,0.3123,0.5858
338,-0.7574,0.4076,0.5267,0.8846,0.007,0.7079
379,-0.7667,0.3956,0.5313,4.0602,-3.8251,6.6927
392,-0.7623,0.3966,0.5308,10.6861,-6.0694,12.9369
405,-0.7577,0.3993,0.535,17.9533,-6.6343,16.5095
418,-0.7645,0.3592,0.5579,27.251,-7.0465,9.6545
432,-0.8075,0.402,0.6165,21.48,-4.9091,11.4255
444,-0.9879,0.2941,0.9151,17.9838,-23.3976,-30.5134
485,-0.6134,0.389,0.524,32.8388,-54.6037,-12.7577
499,-0.5658,0.5155,0.5059,35.0831,-46.2068,-7.2005
511,-0.5699,0.5336,0.5116,34.7625,-37.1228,3.7766
524,-0.5882,0.3739,0.4593,33.6632,-23.2602,-0.0402
537,-0.6046,0.3026,0.4886,37.0984,-8.1152,-15.1852
550,-0.6822,0.5001,0.452,45.8006,1.6253,-10.8646
592,-0.5787,0.5914,0.5069,-16.6116,51.4268,3.8682
604,-1.7772,0.8458,1.9876,-86.6421,37.778,-22.6966
617,-1.0074,0.3153,0.4962,-19.4665,2.1596,-6.2997
630,-0.7589,0.4252,0.5675,-24.6574,4.7398,-2.2234
644,-0.7337,0.4838,0.4867,-22.52,7.5947,0.8453
657,-0.7262,0.3971,0.6822,-21.1612,3.5337,-4.2386
697,-0.6766,0.392,0.4935,-1.4055,48.8314,3.5629
711,-0.5902,0.4249,1.5338,0.793,49.7932,24.9369
724,-0.8837,0.6153,-0.3295,20.8693,45.1825,35.1965
736,-0.6415,0.5975,0.9476,35.8312,37.6863,23.1965
749,-0.7032,0.6559,0.3331,27.6938,40.5413,33.0591
762,-0.6127,0.1446,1.1829,-90.8253,12.6482,-0.2234
803,-0.7599,0.4413,0.5199,2.0907,1.5337,17.1507
816,-0.7533,0.4127,0.5355,8.4877,0.923,18.3415
830,-0.7684,0.4574,0.5064,6.3961,2.7856,15.4713
842,-0.7381,0.454,0.5601,-4.2757,4.0222,13.4713
855,-0.7318,0.4217,0.5977,-12.8406,-5.5808,3.2423
869,-0.753,0.3534,0.6256,-14.7642,-7.1381,3.5018
909,-0.9972,0.3404,0.4171,-1.8024,-71.1991,10.1278
923,-1.1339,0.6224,0.1034,47.0526,-60.5121,5.1049
935,-0.7672,0.5179,0.6253,40.3655,-41.8098,-0.3608
948,-1.1539,0.4708,0.4361,50.0296,-39.703,-19.6432
962,-0.392,0.2635,0.8585,22.7777,-23.8404,-23.4753
974,-0.9286,0.5492,0.5167,34.9609,-15.5503,-14.2539
1015,-0.7731,0.5882,0.5455,7.2663,2.4192,-11.6127
1029,-0.9103,0.7369,0.369,22.2434,18.8009,-20.086
1041,-0.7457,0.6905,0.9207,2.8999,34.0528,-31.9485
1054,-0.7716,0.3031,0.2818,-32.5352,47.4268,-34.7882
1067,-0.8949,0.3087,0.023,-17.1765,39.61,-20.0249
1081,-0.6197,0.1969,1.0289,-38.581,53.7932,-8.6203
1122,-0.8338,0.9296,0.3184,65.1899,10.8314,39.3797
1134,-0.524,0.4579,0.7076,48.1823,7.9459,53.9904
1147,-0.8363,0.6002,0.1534,-2.1688,6.4802,35.227
1161,-0.6542,0.0443,0.5875,43.419,-7.8404,12.6621
1173,-0.7442,0.3099,0.5357,20.106,-6.7717,-2.3913
1186,-0.7394,0.4244,0.5489,10.7625,-1.0923,6.4484
1227,-0.7245,0.3695,0.5982,13.8159,-1.2602,4.5553
1241,-0.6866,0.1588,0.6007,7.2205,-6.0846,-12.4066
1253,-0.7965,0.5421,0.4788,24.1671,3.2131,-6.2997
1266,-0.9691,0.6468,0.9425,11.3426,23.0146,-62.5592
1279,-0.7679,0.5309,0.4315,3.5106,2.9535,-5.8417
1292,-0.8639,0.5353,0.7147,32.8999,19.3963,-18.7272
1333,-0.7086,0.5709,0.7708,-8.0009,19.9154,-19.0173
1347,-0.7662,0.4735,0.4891,-6.4742,15.5031,-21.4142
1359,-0.8136,0.6263,0.3258,8.6403,30.5566,-14.1776
1372,-0.8597,0.6798,0.2039,7.0373,18.1444,-5.5974
1386,-0.629,0.7169,1.5982,-16.352,41.3352,6.6316
1398,-0.6842,0.1722,0.7493,-93.4207,20.236,9.3339
1439,-0.8053,0.1153,0.7005,-159.482,9.778,11.227
1452,-0.725,0.1969,0.6646,-71.2528,-1.474,31.9446
1466,-0.7984,0.3693,0.422,18.6403,-16.8327,9.0286
1478,-0.6671,0.805,0.6275,10.8235,-29.4587,51.7003
1491,-0.7579,0.108,0.3477,-19.1307,-5.4129,-27.8875
1505,-0.6366,1.4408,0.8458,43.2968,-23.5045,41.6392
1545,-0.7735,0.4105,0.5101,5.3121,1.8696,3.0744
1558,-0.7652,0.4476,0.5101,6.8541,0.9841,7.0744
1571,-0.7689,0.4408,0.5101,6.6556,1.3047,6.7385
1584,-0.763,0.4569,0.5189,6.0449,1.7932,4.9827
1597,-0.7655,0.4601,0.5157,2.7014,1.3963,1.7614
1610,-0.7713,0.4554,0.5106,1.251,0.8925,-0.7119
1651,-0.7772,0.4628,0.5274,1.7701,0.4192,-1.5669
1664,-0.7699,0.4471,0.5101,0.8693,0.526,-0.4066
1677,-0.763,0.4493,0.5111,0.4419,0.1596,0.8301
1689,-0.767,0.4545,0.5216,0.5335,-0.0999,1.2728
1702,-0.7713,0.4508,0.5125,-0.9169,-0.2373,2.2805
1715,-0.7657,0.4518,0.5069,-0.7795,0.0222,2.4789
1756,-0.7713,0.4662,0.5167,5.9228,0.5871,3.7308
1769,-0.7691,0.4625,0.5138,2.6556,1.0146,1.7614
1782,-0.7694,0.4637,0.5052,-0.9627,0.3734,-3.2921
1795,-0.7716,0.4574,0.5116,-3.8482,0.1902,-7.7959
1809,-0.7679,0.4462,0.5101,-4.3978,0.1138,-9.1699
1821,-0.7662,0.442,0.5106,-4.1536,0.0375,-6.9256
1862,-0.7687,0.4491,0.505,2.9151,1.2283,5.6087
1875,-0.767,0.4523,0.5064,0.5945,0.9841,5.0438
1888,-0.7684,0.4586,0.5123,-2.3215,0.1291,1.624
1901,-0.7682,0.4549,0.5055,-4.5352,0.1749,-3.0783
1915,-0.7718,0.4444,0.5113,-3.8329,-0.0999,-5.5974
1928,-0.7684,0.4457,0.5013,-4.3215,0.6024,-6.9256
1968,-0.7723,0.4303,0.4996,-0.7642,0.4802,1.1812
1981,-0.7687,0.4371,0.502,2.2892,0.236,3.8224
1994,-0.7701,0.4498,0.5074,0.1365,0.0375,1.3186
2007,-0.7701,0.4479,0.5079,-2.1688,0.236,-2.1623
2020,-0.7665,0.4401,0.5064,-0.9169,0.7245,-3.2768
2034,-0.7672,0.4376,0.5138,1.1289,1.4268,-2.6356
2074,-0.7582,0.4545,0.5074,5.19,2.2665,2.2805
2087,-0.7689,0.4479,0.5074,3.0067,2.068,2.5858
2100,-0.7706,0.4444,0.5069,2.5182,2.2207,2.6011
2113,-0.7682,0.444,0.5055,4.6709,2.5871,2.8148
2126,-0.7718,0.4466,0.5084,7.2205,2.6634,1.4408
2139,-0.7687,0.4562,0.5055,7.7548,1.0146,-1.6279
2180,-0.7706,0.4513,0.5074,0.5793,-2.9549,-15.6279
2194,-0.7645,0.4354,0.5157,-2.0467,-2.1152,-15.8722
2207,-0.7667,0.4234,0.5125,-2.2146,-0.2526,-12.7119
2219,-0.7582,0.4203,0.5069,-0.0772,0.8314,-6.2997
2232,-0.7613,0.4183,0.5084,4.0907,1.3657,1.456
2245,-0.7709,0.4405,0.5159,21.4342,-0.2373,8.5247
2287,-0.787,0.4864,0.5072,8.1213,-11.306,12.3873
2299,-0.7706,0.4862,0.5147,13.5716,-14.5885,6.1278
2312,-0.7677,0.4596,0.5194,3.8922,-14.5579,-1.1394
2325,-0.7623,0.4505,0.5325,0.4266,-14.2068,-6.1318
2339,-0.7569,0.4464,0.5316,-2.7642,-11.6419,-8.9409
2351,-0.7626,0.431,0.5369,4.106,-8.5121,-7.0325
2392,-0.7565,0.4496,0.5282,17.022,-3.1686,2.2041
2406,-0.7584,0.4584,0.5355,9.8006,-2.1762,1.3034
2418,-0.7638,0.4525,0.5316,4.0296,-1.5045,1.3339
2431,-0.7604,0.4464,0.5343,2.4724,-1.535,3.8988
2444,-0.7596,0.4462,0.5367,4.4113,-1.3213,7.3797
2457,-0.7589,0.4435,0.5279,8.0602,-2.3289,9.7919
2498,-0.7691,0.4598,0.5338,-8.0467,-4.5732,2.2499
2512,-0.7611,0.4674,0.5228,-10.1078,-8.1304,0.2499
2525,-0.7594,0.4674,0.536,-16.2757,-11.5656,-1.1547
2537,-0.7545,0.4459,0.5445,-7.1612,-13.3518,3.685
2550,-0.7589,0.4457,0.5455,-3.2528,-15.2602,6.2041
2563,-0.7557,0.4579,0.547,5.4037,-16.6953,8.8453
2605,-0.7511,0.4693,0.5589,-15.207,-11.8556,-9.1241
2618,-0.7452,0.4606,0.5604,-13.6955,-10.848,-11.7195
2630,-0.7489,0.4396,0.5628,-5.8635,-12.7106,-11.0936
2643,-0.7438,0.4484,0.5579,2.9304,-15.5503,-10.7424
2656,-0.7484,0.4615,0.565,-0.0162,-18.5427,-15.1699
2669,-0.7438,0.4596,0.5721,-6.8406,-18.8022,-21.8264
2711,-0.7457,0.4134,0.5899,-16.3978,-13.8862,-24.773
2723,-0.7313,0.4159,0.5899,-19.8787,-10.4816,-19.7653
2736,-0.7355,0.3924,0.5985,-16.8406,-8.0999,-13.3684
2749,-0.7272,0.3907,0.5958,-14.7337,-5.4587,-6.1165
2762,-0.7286,0.3849,0.5938,-8.8711,-2.1762,2.5858
2776,-0.7362,0.3841,0.5894,0.6861,0.465,12.082
2816,-0.7362,0.4374,0.585,-3.5276,1.3657,6.3721
2829,-0.7316,0.4408,0.5838,-11.6039,0.4344,-3.8722
2843,-0.7328,0.4159,0.5846,-13.2681,-0.2373,-9.002
2856,-0.7337,0.4083,0.5802,-9.4207,0.007,-9.3379
2868,-0.735,0.4078,0.5843,-8.6879,0.7245,-7.7195
2881,-0.7316,0.3951,0.5877,-9.7108,1.1367,-4.2234
2922,-0.7389,0.4064,0.5748,5.1136,2.0528,21.7919
2936,-0.735,0.42,0.5828,4.9304,2.007,20.8759
2949,-0.7355,0.4337,0.5855,0.7014,2.4039,14.4331
2961,-0.7374,0.4371,0.587,-2.5352,2.6482,7.5629
2974,-0.7389,0.4296,0.5863,-5.3749,2.6634,2.9675
2987,-0.7389,0.433,0.585,-8.3062,2.465,-0.7882
3028,-0.7391,0.4159,0.5763,-9.0543,0.4802,3.5171
3041,-0.7394,0.4076,0.5777,-4.5352,-0.4511,6.9827
3054,-0.7389,0.4203,0.578,-1.8787,-1.6572,7.7766
3067,-0.745,0.4469,0.5965,16.7014,-4.6648,8.7537
3081,-0.733,0.4039,0.5863,3.2052,-4.161,1.166
3093,-0.7355,0.4349,0.5972,-3.8024,-2.9396,-6.3455
3134,-0.7069,0.3917,0.5684,-6.3673,2.3123,-6.8646
3148,-0.7357,0.3815,0.5748,-9.8787,1.4115,-3.4142
3160,-0.7386,0.3971,0.5789,-7.665,1.0451,1.4255
3173,-0.7389,0.4007,0.5743,-1.3749,0.1749,6.8759
3186,-0.7384,0.4081,0.5726,0.9151,-0.1457,10.2499
3199,-0.7401,0.4171,0.5763,0.9304,-0.4358,10.3263
3240,-0.7379,0.431,0.5733,2.2434,-1.1533,2.6011
3253,-0.7342,0.4303,0.575,-3.2375,-1.7488,-3.002
3267,-0.7372,0.412,0.5794,-2.3215,-0.9701,-4.8188
3280,-0.7386,0.4139,0.5806,-2.8864,-0.5885,-4.1623
3292,-0.7379,0.4083,0.5763,-0.8253,-0.8785,-1.1699
3305,-0.7377,0.4115,0.578,-2.2604,-1.1533,0.5095
3346,-0.7403,0.4217,0.5792,3.6785,-2.5427,7.1202
3359,-0.7364,0.4227,0.5787,4.8083,-1.8862,6.1278
3372,-0.7399,0.4298,0.5804,2.793,-1.2144,2.8911
3385,-0.7413,0.4313,0.5843,0.3503,-0.2984,-0.1928
3398,-0.7377,0.422,0.5753,-2.4131,-0.161,-1.6432
3410,-0.7396,0.4249,0.578,-2.5352,-0.39,-1.7195
3451,-0.7384,0.4166,0.5843,-4.0467,0.0528,5.5018
3465,-0.7362,0.4259,0.5882,-4.0314,-0.0694,5.8072
3477,-0.7403,0.432,0.5811,-6.581,-0.222,4.1278
3490,-0.7399,0.4271,0.5799,-8.0467,-0.9091,0.9369
3503,-0.7442,0.4161,0.5799,-9.2375,-1.3518,-1.8417
3516,-0.7504,0.3934,0.5865,6.7319,-5.3671,1.9293
3557,-0.7298,0.4291,0.5826,-3.2833,-4.5121,-0.3455
3570,-0.7333,0.4178,0.5797,-3.8482,-3.6572,0.1278
3583,-0.734,0.4244,0.5916,-2.1688,-3.0312,1.0133
3597,-0.7355,0.4181,0.5877,-0.4589,-1.5808,1.7308
3609,-0.7357,0.4254,0.5885,1.9228,-1.3366,2.1125
3622,-0.7386,0.4244,0.5909,-0.978,-0.0694,-0.6661
3664,-0.7335,0.4193,0.5802,0.7014,0.4192,-0.8188
3676,-0.7359,0.42,0.5841,0.3655,-0.3442,-0.7119
3688,-0.7337,0.4222,0.5826,0.4113,-1.0617,-0.4371
3701,-0.7345,0.4227,0.5882,-1.6192,-1.6419,-1.4753
3714,-0.735,0.4183,0.5877,-3.1917,-1.5198,-3.1699
3728,-0.7337,0.4227,0.585,-0.0314,-1.2907,-2.3302
3768,-0.7357,0.4154,0.5833,3.9991,-1.3671,-0.1623
3781,-0.7347,0.4164,0.587,1.8922,-1.2755,-0.544
3795,-0.7308,0.4171,0.5921,-0.5505,-1.474,-0.1165
3807,-0.7325,0.4156,0.5846,-0.062,-0.9701,0.2347
3819,-0.734,0.4171,0.5865,1.3579,-1.8709,1.395
3832,-0.7328,0.4181,0.5885,1.7548,-2.3442,2.1889
3873,-0.733,0.4269,0.5919,2.2587,-0.5885,1.8377
3886,-0.7389,0.422,0.5929,1.2663,-0.4969,1.166
3899,-0.734,0.4183,0.5909,0.3045,-0.4969,1.1965
3912,-0.7333,0.4193,0.5892,0.564,-0.5885,1.914
3926,-0.7367,0.4198,0.5892,2.1823,-0.8938,2.8148
3938,-0.735,0.4159,0.5904,3.8617,-0.7411,3.5934
3980,-0.734,0.4278,0.5907,-1.0849,-0.9243,-2.0554
3993,-0.7347,0.4264,0.596,-0.4742,-1.0465,-2.605
4005,-0.7347,0.422,0.5933,-0.6268,-1.3671,-1.1394
4018,-0.7333,0.4161,0.5992,0.3503,-2.2373,0.3873
4031,-0.7296,0.4213,0.5955,3.3732,-2.4816,2.1278
4045,-0.7323,0.4247,0.5953,4.8846,-2.5579,2.9369
4085,-0.7313,0.4308,0.5968,0.2281,-1.0312,-0.6356
4098,-0.7318,0.4322,0.6036,0.1823,-0.1762,-0.8951
4111,-0.7306,0.4327,0.5936,-2.2146,0.2665,-2.1623
4123,-0.7328,0.4286,0.5968,-3.8024,1.0299,-2.6508
4136,-0.7355,0.4188,0.5902,-3.0391,0.4802,-2.0554
4149,-0.7325,0.4239,0.5929,1.419,0.1444,-0.315
4190,-0.7291,0.4337,0.5948,-0.6421,0.0833,-2.3913
4203,-0.7298,0.4254,0.5987,-3.2528,-0.161,-3.4142
4216,-0.7306,0.4181,0.5997,-2.6879,-0.1915,-2.0707
4229,-0.7325,0.4261,0.5975,-0.6116,-0.1457,-0.9104
4242,-0.7298,0.4213,0.5897,-2.0925,-0.1152,-0.7882
4254,-0.7296,0.42,0.5965,-1.0849,-0.0999,0.1125
4296,-0.7316,0.4227,0.5953,-1.0543,-0.0388,-1.9333
4309,-0.7316,0.4256,0.5911,-1.9398,0.1138,-1.9944
4321,-0.733,0.4208,0.5968,-2.291,-0.1304,-1.5516
4334,-0.7296,0.4191,0.5965,-1.1307,-0.0694,-0.9714
4347,-0.7313,0.4173,0.597,-1.8024,-0.0083,-0.6203
4360,-0.7318,0.4183,0.5975,-0.6421,0.1138,0.4637
4401,-0.7362,0.42,0.5919,-0.9016,-0.6953,-0.5592
4414,-0.7289,0.4247,0.5975,-0.3826,-0.6343,-0.9104
4427,-0.7279,0.4242,0.6019,-2.3368,-0.1457,-1.5669
4440,-0.7323,0.4144,0.6026,-2.4589,0.0375,-1.6585
4452,-0.7286,0.4159,0.5955,1.022,0.2512,0.4179
4465,-0.7313,0.4225,0.5933,0.0907,-0.0541,0.54
4507,-0.7364,0.4181,0.5953,1.0373,-0.5274,1.227
4519,-0.7291,0.4205,0.5994,1.0373,-0.222,0.6621
4532,-0.7296,0.4271,0.5926,-1.4207,-0.4053,-1.0478
4545,-0.7306,0.4227,0.5904,-0.81,0.1138,-1.8111
4558,-0.7345,0.4222,0.5972,0.1823,0.4955,-1.4905
4572,-0.7318,0.4198,0.5946,0.0296,0.068,-0.9714
4612,-0.7352,0.42,0.5968,0.1671,-1.2755,0.8453
4626,-0.7318,0.4244,0.5941,-0.6726,-0.848,0.3415
4637,-0.7357,0.421,0.5965,0.3808,-0.4205,0.54
4649,-0.7276,0.4237,0.595,-0.2604,0.068,0.0973
4661,-0.7316,0.4173,0.5943,-1.1765,0.297,-1.0783
4674,-0.7306,0.4215,0.5907,0.3655,0.1749,-1.0936
4715,-0.7296,0.4108,0.5933,1.8159,0.0986,0.9675
4728,-0.7333,0.4183,0.5997,3.2358,-0.3747,2.5553
4741,-0.7306,0.4239,0.5948,2.4724,-0.0388,1.7919
4755,-0.7311,0.4281,0.5899,-0.291,0.2207,-0.4066
