time_ms,ax,ay,az,gx,gy,gz
11,-0.6463,0.9175,0.755,0.2233,0.2646,0.4673
24,-0.6498,0.9231,0.7589,-1.3798,0.1119,0.2383
37,-0.6481,0.9151,0.7565,1.0782,0.8905,0.5437
50,-0.6556,0.9214,0.7631,-0.0515,0.7989,0.4673
92,-0.6503,0.9175,0.7519,-0.021,-0.3614,-0.5708
105,-0.6481,0.9229,0.7541,0.7424,0.005,0.391
116,-0.6478,0.92,0.7575,1.3836,0.2951,0.4063
129,-0.6495,0.9244,0.7553,1.7653,0.5547,0.6811
143,-0.652,0.9222,0.7541,0.3149,0.1882,0.5437
156,-0.6527,0.9241,0.7587,0.0859,-0.1324,0.5589
196,-0.6542,0.9231,0.7528,-0.3722,0.3867,0.0704
209,-0.6515,0.9236,0.7553,-0.5096,0.0966,-0.3876
221,-0.651,0.9227,0.7533,-0.9676,0.1424,-0.4182
233,-0.649,0.92,0.7526,1.0935,0.2951,0.5589
246,-0.6495,0.9202,0.7548,2.4675,0.2951,1.5055
259,-0.6461,0.927,0.7526,0.5286,0.0814,1.1696
301,-0.6542,0.9234,0.7538,0.1317,0.2035,-0.8304
313,-0.651,0.92,0.7428,-0.25,0.4325,-1.2884
326,-0.6703,0.9134,0.7653,2.8187,-0.7889,-0.1281
340,-0.7208,0.9419,0.7873,10.0553,-1.8881,2.0551
353,-0.6903,0.9551,0.7829,8.9561,-3.8728,0.2689
365,-0.6832,0.9051,0.819,23.8721,-4.8805,0.0246
407,-0.7228,1.2767,0.8178,8.2538,-31.3232,15.4292
420,-0.7232,1.1563,0.8498,2.2691,-32.1018,31.765
433,-0.6566,1.1712,0.8629,25.063,-43.0179,54.9864
445,-0.3768,1.0433,0.7338,4.9103,-37.6133,52.0856
458,-0.3004,0.9532,0.6254,-15.6088,-26.0255,26.1925
472,-0.305,0.9129,0.6464,-32.7233,-16.5293,-2.8609
513,-0.379,0.6736,0.6908,-34.7844,4.9058,-42.4792
526,-0.493,0.6556,0.685,-47.5935,11.8676,-52.6777
539,-0.6107,0.6353,0.6835,-56.0821,17.089,-60.1739
552,-0.8041,0.7701,0.7914,-48.8454,23.1043,-48.2197
565,-1.0001,0.9278,0.9184,-44.2958,16.9516,-24.6624
578,-1.1451,0.9744,0.976,-27.4103,8.0356,-0.2502
618,-0.683,0.9642,0.5871,-29.3798,15.5776,-6.8762
632,-0.8695,1.0257,0.0602,-18.4943,20.0661,-6.4487
645,-0.7291,1.0887,0.3964,50.5897,38.9516,9.1696
658,-0.951,1.1705,0.0937,67.1698,49.0127,21.307
671,-0.7474,1.0872,0.0697,35.6278,77.6234,25.1849
684,-0.4711,0.7505,1.6247,26.9866,73.1959,29.0475
725,-0.6031,1.1819,1.0011,16.9103,19.1501,10.2231
738,-0.5355,1.0762,1.1891,-10.6012,11.5928,7.4139
751,-0.5707,0.8875,1.0663,-10.1279,-0.4835,6.6963
764,-0.5843,0.8946,0.9062,44.3759,1.0585,16.6963
776,-0.6161,0.9068,0.8742,58.208,2.2798,18.4673
790,-0.6253,0.9659,1.0524,53.1851,-13.3843,23.6887
831,-0.7469,0.9695,0.6303,-77.6088,-71.6591,-18.1128
844,-0.7955,1.1468,0.665,-98.1584,-56.6667,-12.4334
856,-0.6087,0.9842,0.765,-76.9981,-49.9797,8.3452
870,-0.4642,0.8982,0.6635,-53.9752,-42.3308,8.9101
883,-0.3868,0.927,0.6151,-34.2805,-30.6515,-3.0594
896,-0.401,0.9456,0.5771,-28.9523,-15.2774,-13.6548
937,-0.9684,0.6978,0.7629,-19.4103,-16.0713,-14.296
949,-0.7401,0.6089,0.8283,5.4904,-8.8957,-11.8227
963,-0.8238,0.4798,0.4298,-42.418,-10.1782,-38.6014
976,-0.6205,0.3155,1.0761,17.292,-5.2469,-35.8838
989,-0.3993,0.5943,1.0893,3.8111,-4.7736,-38.5098
1002,-0.8094,0.5684,0.8305,-59.0744,1.5623,-24.7388
1043,-0.7201,1.2671,0.5993,10.0248,12.2646,-13.4258
1056,-0.8243,1.3948,0.5461,71.0477,16.2188,12.4979
1069,-0.5638,1.1492,0.7992,10.0706,19.3791,2.1925
1081,-0.6817,1.1185,0.6298,13.8111,16.9669,11.0627
1095,-0.6146,0.8863,0.9574,-15.0439,19.5928,16.1314
1108,-0.639,0.9932,0.9181,24.0553,24.5394,42.8185
1149,-0.6512,0.1038,1.1159,-77.3035,-1.0484,10.3299
1162,-0.6434,0.1133,1.0329,-28.6317,-9.2774,-11.38
1175,-0.6947,0.7884,0.8068,31.0172,1.7455,6.4826
1188,-0.6068,0.6429,0.8222,23.1546,-4.1171,6.1314
1201,-0.6515,0.3353,0.9294,5.4446,-6.3156,-18.6624
1213,-0.5636,0.3543,0.3468,32.5744,2.0508,-38.7388
1255,-0.6788,0.8045,0.529,40.9561,9.9134,-13.3342
1268,-0.5245,0.9407,0.2995,20.1011,23.4554,-16.1892
1280,-0.723,0.8641,0.3534,74.5286,22.9058,-13.7464
1293,-0.5118,0.9532,0.6713,54.6355,36.3409,4.3299
1307,-0.5172,1.0247,1.5671,36.834,35.4096,-6.2808
1320,-0.5951,1.033,0.6027,16.1775,13.1195,-8.1128
1361,-0.6366,0.9212,1.123,-56.7386,23.6844,31.0933
1374,-0.6832,0.3802,0.9335,-69.5019,-6.3461,14.2536
1387,-0.6246,1.0887,0.7853,-3.4867,-15.9034,15.536
1400,-0.7291,0.5621,0.7443,-26.1431,-14.7431,6.9711
1412,-0.649,0.8277,0.891,-6.6775,-17.5522,13.4902
1426,-0.7623,0.6087,0.8542,-43.0134,-6.6667,-12.693
1467,-0.6461,0.9332,0.7358,5.7653,1.944,18.5131
1479,-0.6451,0.9402,0.7448,3.4599,1.6844,12.9253
1492,-0.6605,0.9551,0.7572,-1.166,1.6386,3.475
1506,-0.6588,0.9656,0.7516,-5.9141,0.7073,-6.067
1519,-0.6483,0.9207,0.7528,-7.0134,-0.5598,-10.4182
1532,-0.6586,0.9031,0.7577,-3.7462,-0.9568,-7.5785
1573,-0.6571,0.9146,0.756,4.8645,-0.0102,3.2918
1586,-0.6478,0.9165,0.7462,-3.9599,0.2798,1.2002
1599,-0.6476,0.9224,0.7536,-3.0744,0.2646,0.5742
1611,-0.6573,0.9324,0.7514,-2.9981,-0.2087,-0.1128
1625,-0.6603,0.9273,0.7585,-6.6928,-1.1705,-2.922
1638,-0.6498,0.9068,0.7487,-3.4409,-1.0331,-1.3953
1678,-0.6524,0.9292,0.7494,4.5133,-1.3537,5.1085
1691,-0.6515,0.9273,0.7499,0.2691,-1.4911,2.4979
1705,-0.6544,0.9234,0.7526,0.6202,-0.7889,1.536
1718,-0.6607,0.9119,0.7548,-1.1966,-0.5904,0.2994
1731,-0.649,0.9361,0.7497,-5.7004,-1.9492,-0.5098
1743,-0.6568,0.9158,0.7594,-5.8989,-1.6744,-2.1281
1785,-0.6532,0.9187,0.7499,5.5362,1.1806,2.0704
1798,-0.6527,0.9246,0.7482,6.1164,1.0279,1.9482
1810,-0.6532,0.9336,0.7458,0.2385,0.3104,-0.2502
1824,-0.6595,0.9292,0.7641,-4.2653,-1.0942,-3.151
1837,-0.6517,0.9383,0.7528,0.1164,-0.7125,-3.2273
1850,-0.6444,0.9165,0.7546,-0.4485,-1.0484,-3.8075
1890,-0.6471,0.9144,0.7438,5.3378,1.5012,-1.4716
1904,-0.6512,0.9297,0.7477,1.2767,0.7684,-1.1663
1917,-0.6568,0.9109,0.7565,-1.2424,0.3104,-0.067
1930,-0.6576,0.9129,0.7538,-1.1508,0.3256,1.9635
1942,-0.6471,0.9222,0.7497,-1.5172,0.1577,2.9101
1956,-0.6493,0.9297,0.7541,-5.2118,-0.911,-0.2655
1996,-0.6578,0.9353,0.7511,-2.8454,-0.1018,-2.7998
2009,-0.6559,0.92,0.7602,-3.105,-0.3003,-1.7922
2023,-0.6551,0.9136,0.7516,-2.708,-0.5293,-0.4182
2036,-0.6402,0.9014,0.7521,-9.0592,-1.2316,-1.3189
2048,-0.6568,0.9124,0.7604,-2.3722,0.1119,0.7879
2061,-0.6503,0.9126,0.7597,0.8492,0.4173,1.4597
2102,-0.6527,0.9126,0.7558,4.5897,0.4631,1.5513
2116,-0.6568,0.9227,0.7558,6.9408,0.6921,2.0704
2129,-0.6561,0.9165,0.7565,5.2614,0.5089,2.6047
2142,-0.6498,0.9258,0.7565,2.8492,0.4478,2.3147
2154,-0.6507,0.9209,0.7563,1.8111,0.3104,2.8643
2167,-0.6454,0.9261,0.7511,-1.9141,0.005,1.1696
2208,-0.6544,0.9185,0.755,-0.6012,0.1119,-1.1052
2221,-0.6522,0.9229,0.7494,1.1698,-0.0255,-0.4792
2235,-0.6564,0.9207,0.7541,1.4141,-0.2392,-0.3266
2248,-0.649,0.9207,0.7465,2.1469,-0.3308,-0.1586
2261,-0.6503,0.9263,0.7516,-2.2653,-0.2698,-0.7235
2274,-0.6566,0.918,0.7558,-1.0286,-0.0408,-0.3724
2314,-0.6466,0.9229,0.7494,-3.2882,-0.3308,-0.4792
2328,-0.6617,0.9266,0.7567,-6.7233,-0.1476,-0.8456
2340,-0.6461,0.91,0.7497,-6.8912,-0.1476,-1.151
2353,-0.6461,0.9129,0.7543,-6.9218,-0.3614,-1.609
2367,-0.6544,0.9114,0.758,-2.9065,-0.0102,-0.5708
2380,-0.6478,0.9141,0.755,-2.0515,-0.224,-0.1434
2420,-0.6551,0.9122,0.7538,2.9561,0.2188,0.5895
2433,-0.6451,0.9202,0.7528,0.2996,-0.3919,0.0093
2445,-0.6578,0.9148,0.756,2.666,0.0508,1.0169
2459,-0.6524,0.9195,0.7528,2.8492,0.3562,0.9406
2472,-0.6505,0.9139,0.7536,3.0935,0.2188,1.078
2485,-0.6427,0.9236,0.7541,2.2843,-0.1782,1.2154
2525,-0.6485,0.9202,0.7524,0.9714,0.6921,0.6047
2539,-0.6495,0.9165,0.7504,-0.1279,0.173,-0.2655
2552,-0.6527,0.9151,0.7528,0.5591,-0.4224,-0.8762
2563,-0.6532,0.9151,0.7553,1.4446,-0.2392,-0.5708
2576,-0.6476,0.9236,0.745,2.6355,0.3409,0.1773
2589,-0.6542,0.9151,0.7543,2.2233,0.5547,0.6963
2631,-0.6515,0.908,0.7585,-1.3951,-0.1629,0.8185
2643,-0.6532,0.917,0.7604,0.7882,0.0966,1.475
2657,-0.6441,0.9234,0.7538,0.4523,-0.2392,0.4063
2670,-0.6454,0.9183,0.7558,-0.937,0.3714,-0.4182
2681,-0.6554,0.92,0.7631,0.1927,0.1577,-0.4334
2693,-0.6503,0.9227,0.7538,-0.1431,0.0814,-0.7693
2734,-0.6583,0.9195,0.7494,1.3378,0.5852,2.2231
2747,-0.6463,0.9263,0.7509,0.8645,0.2188,2.1467
2761,-0.6466,0.9214,0.7538,-0.3264,0.1577,1.2307
2774,-0.6515,0.9236,0.7572,-0.5859,-0.0866,0.162
2786,-0.6517,0.9285,0.7472,-1.7462,-0.3461,-0.693
2798,-0.6505,0.9212,0.7516,-2.6928,-0.0866,-1.0747
2839,-0.6444,0.9229,0.7494,-1.8073,0.402,0.2078
2852,-0.6422,0.8887,0.7629,-6.418,-0.0866,-0.6777
2866,-0.6493,0.9095,0.7497,-4.418,-0.7278,-0.6472
2879,-0.6476,0.9126,0.7546,-0.2653,-0.6362,0.2994
2891,-0.6495,0.9231,0.7519,-0.0363,-0.1934,0.2841
2904,-0.6507,0.9217,0.757,0.2996,-0.4224,-0.2808
2945,-0.6529,0.9244,0.7572,-0.876,-0.0102,-1.9296
2958,-0.649,0.9195,0.7499,0.7424,0.1882,-1.1968
2970,-0.6461,0.9129,0.7519,0.2385,0.2951,-0.6319
2984,-0.652,0.91,0.7499,0.0706,-0.1171,0.3147
2995,-0.6527,0.9134,0.757,1.6584,0.3867,1.1849
3008,-0.6527,0.9195,0.7548,0.834,0.4936,0.7727
3049,-0.6532,0.9185,0.7472,1.979,0.5089,-0.2808
3063,-0.6522,0.9168,0.7555,1.6889,-0.0866,0.2536
3075,-0.6454,0.9163,0.755,0.6507,-0.6973,0.162
3089,-0.6532,0.9209,0.7526,-0.418,-0.285,0.2383
3101,-0.652,0.9207,0.7609,0.7118,0.173,0.7574
3112,-0.6493,0.9207,0.7533,0.9714,0.2646,0.5131
3153,-0.6554,0.9227,0.757,-1.5783,0.234,-1.3037
3167,-0.6507,0.9178,0.7575,-1.1966,0.0203,-0.6472
3180,-0.6522,0.9156,0.7546,0.4675,-0.3308,0.1925
3192,-0.6434,0.9175,0.7502,-0.3722,0.2035,0.1925
3205,-0.6522,0.9195,0.7609,-0.9981,-0.3614,-0.3418
3217,-0.6539,0.9187,0.7602,-0.1737,0.0814,-0.4334
3258,-0.6554,0.9229,0.758,-2.5096,-0.0408,-0.8915
3271,-0.6529,0.9197,0.7616,-1.4561,-0.1934,-0.6319
3284,-0.65,0.9185,0.7546,-0.9218,-0.0102,-0.1739
3296,-0.6454,0.9234,0.7494,-3.5019,-0.4988,-0.5556
3309,-0.6512,0.9144,0.7511,-0.6622,0.5699,0.62
3322,-0.6522,0.9173,0.7521,0.7882,0.7684,1.6429
3363,-0.651,0.9244,0.7533,0.3301,-0.1476,-0.1434
3376,-0.6473,0.9224,0.7484,-1.105,-0.514,-1.4716
3389,-0.6546,0.9158,0.7524,-1.6088,-0.4682,-1.8991
3402,-0.6512,0.9214,0.7492,-3.4103,-0.8957,-1.9754
3414,-0.6522,0.9158,0.7594,-4.0057,-0.6515,-1.1968
3428,-0.651,0.9119,0.7604,-1.6393,-0.0408,0.2536
3468,-0.6483,0.9231,0.7563,3.9332,1.0279,-0.3266
3482,-0.6522,0.9229,0.7524,0.9103,0.4478,-1.5937
3495,-0.6488,0.9134,0.756,-0.8454,-0.1476,-2.2197
3507,-0.652,0.9095,0.7548,0.6813,0.1119,-0.6472
3520,-0.6534,0.9126,0.7536,3.2156,0.4783,1.0322
3533,-0.6532,0.9129,0.7546,3.1088,0.005,1.1849
3574,-0.6488,0.917,0.7553,1.3378,0.3714,-0.2808
