time_ms,ax,ay,az,gx,gy,gz
12,-0.6478,0.9151,0.7609,1.7958,0.4478,2.4368
52,-0.6471,0.9151,0.7643,-0.25,0.2951,-0.7998
66,-0.6517,0.908,0.7653,1.4294,0.0966,-0.2197
78,-0.6544,0.91,0.7641,3.3225,0.3714,0.849
91,-0.6427,0.9151,0.7675,1.2462,0.3409,1.1391
104,-0.6544,0.9109,0.7636,-1.1813,0.234,0.5437
117,-0.6539,0.9148,0.7694,-0.021,0.2493,1.246
158,-0.6515,0.9153,0.7694,1.9332,0.1119,0.4673
172,-0.649,0.9144,0.7643,1.9485,0.4173,0.1009
184,-0.6534,0.9148,0.7597,-0.1431,0.173,-0.5403
197,-0.6483,0.9126,0.7614,1.0172,0.2188,-0.0976
210,-0.6434,0.9175,0.7655,3.124,0.2951,1.2307
223,-0.6534,0.9175,0.7694,2.4217,0.1272,1.1696
264,-0.6942,0.7686,0.8398,1.1088,-8.0255,-5.3037
278,-0.6861,0.9275,0.8495,14.834,-8.2392,-11.4716
291,-0.6649,1.0127,0.7843,14.6355,-9.4453,-12.1281
303,-0.6795,0.9424,0.8537,9.3683,-15.5064,-10.8915
316,-0.6742,0.9146,0.8441,5.0782,-21.369,-11.7006
329,-0.6481,0.9681,0.808,5.1088,-20.8041,-9.0899
370,-0.5597,1.1253,0.7004,17.8263,-21.5675,25.8108
384,-0.5169,1.0489,0.7216,2.8187,-15.827,22.5131
396,-0.4877,0.9969,0.7182,-3.9599,-9.9644,14.2231
409,-0.4872,0.9627,0.7663,-11.3951,-5.3537,5.5208
422,-0.4823,0.9292,0.7985,-21.563,-4.7278,-3.7006
436,-0.4869,0.8572,0.7926,-18.6928,-4.3461,-11.5327
477,-0.5545,0.6189,0.7382,-41.8073,5.8676,-45.1815
490,-0.6537,0.7144,0.6127,-44.6012,11.4402,-55.0594
502,-0.9337,0.8931,0.8634,-50.6622,0.5699,-41.1357
515,-0.9242,0.8836,0.7819,-33.6699,0.7226,-9.1205
529,-0.7875,0.8453,0.8002,-18.9065,-0.8805,3.6582
542,-0.7342,0.9053,0.7047,-27.4561,3.5776,-0.4182
582,-0.794,0.7041,0.6315,32.0248,43.4707,16.3605
595,-0.7416,0.3086,1.2746,-3.166,58.5852,8.0704
608,-0.6151,0.8299,0.9191,17.7347,44.9211,2.5895
621,-0.6478,0.8992,0.3832,6.3607,31.9898,5.1238
634,-0.6131,0.7117,0.7594,-7.3951,13.5928,-3.0289
647,-0.4938,0.8372,1.14,6.0859,4.8905,2.9406
688,-0.6459,0.8985,1.0375,43.1851,-9.3385,18.4826
702,-0.67,0.9346,0.8239,54.208,-23.7202,25.5055
715,-0.6566,0.888,0.8883,24.3301,-34.056,20.2231
727,-0.6615,0.9395,0.911,1.2767,-30.8957,18.4368
741,-0.568,0.9778,0.7475,-28.8149,-32.0408,7.9177
754,-0.5406,0.9644,0.7309,-24.3416,-29.4453,0.0246
795,-0.6578,0.9832,0.8327,-27.2424,-16.8041,-12.754
808,-0.7054,0.7867,0.7919,-19.2118,-19.598,-15.5785
821,-0.69,0.7195,0.8385,-9.3035,-19.0179,-22.006
833,-0.7333,0.8072,0.8053,5.4904,-11.5064,-13.5174
847,-0.6769,0.5379,0.5707,-5.1508,-16.6056,-29.5937
860,-0.6275,0.618,0.7924,40.208,-16.7889,-26.3724
900,-0.8673,0.7933,0.8046,-29.166,-2.1018,-37.5479
914,-0.7706,0.888,0.8417,7.2462,1.0585,-31.7464
927,-0.6127,1.0831,0.7807,40.2996,13.6234,-13.3953
940,-0.7101,0.7754,0.4281,-31.7615,17.0737,-20.2655
952,-0.7684,1.0892,0.7426,-36.0515,8.5089,-17.0899
966,-0.7025,1.0228,0.8654,-25.0592,12.4173,-4.9983
1006,-0.4784,0.7325,1.2336,-38.1889,6.1882,27.475
1020,-0.618,0.9742,0.7438,-47.7157,14.234,48.4368
1033,-0.5475,0.888,0.7143,-20.2806,6.2493,32.3147
1045,-0.6385,0.5379,0.7231,16.5439,-7.5827,14.7269
1059,-0.6522,0.4095,0.9523,18.0401,-4.224,-2.6166
1072,-0.6512,0.6729,0.7929,17.0477,-1.3079,3.1391
1113,-0.702,1.1319,0.7997,45.9485,5.8829,-6.7388
1125,-0.6661,1.3733,1.0802,75.3225,4.9669,3.7498
1139,-0.6913,0.9661,0.5114,34.2233,16.1424,-13.2579
1152,-0.4962,0.9798,0.8734,53.2614,14.5699,-12.4182
1165,-0.7049,1.1844,1.1911,75.1851,11.1043,10.5437
1178,-0.5917,1.0818,0.8891,41.2309,19.9134,-3.9449
1218,-0.6346,0.9668,0.8466,-11.9294,19.5012,-2.067
1231,-0.5624,1.1846,0.7284,-11.166,19.9287,8.2689
1245,-0.545,1.3245,0.7253,-32.6317,14.5394,16.7879
1258,-0.6087,1.2442,0.5629,-5.8683,-4.453,12.4368
1270,-0.6654,1.066,0.8234,-52.2347,-1.8881,17.475
1284,-0.4999,0.1492,0.8639,2.3454,-4.9873,9.3834
1325,-0.6439,0.6944,0.8969,-8.2806,-4.9721,4.9406
1337,-0.7154,0.5811,0.6967,-37.8836,-0.0408,-11.4411
1351,-0.6859,0.7969,0.7619,1.2614,0.7989,-2.9373
1364,-0.6483,0.8025,0.7611,15.6278,1.7913,12.1773
1376,-0.6607,0.8318,0.7768,27.6736,3.7913,20.4826
1389,-0.6542,0.8604,0.7619,26.6355,4.9211,18.8643
1431,-0.6583,0.8838,0.7631,-2.1584,-0.0255,-1.0747
1443,-0.6485,0.868,0.7599,-2.3569,0.3562,-1.9144
1457,-0.6549,0.8694,0.7653,-4.8912,-0.4682,-1.1663
1470,-0.6644,0.8697,0.7719,0.1164,0.173,0.849
1481,-0.6644,0.8655,0.7753,3.9637,0.7073,3.4139
1494,-0.6534,0.8755,0.7629,6.3912,0.6463,5.1849
1535,-0.6507,0.8711,0.7668,-0.6622,-3.9186,4.4063
1548,-0.6481,0.8782,0.7665,2.1317,-3.2927,4.3605
1561,-0.6581,0.8804,0.7719,-0.479,-2.5293,2.7421
1575,-0.6468,0.8811,0.766,2.6813,-1.5675,1.4292
1588,-0.6512,0.8909,0.7694,-2.5248,-1.3079,-1.8227
1601,-0.6534,0.8807,0.7675,-3.7615,-0.9873,-2.7693
1642,-0.6512,0.8755,0.7668,0.9561,-1.9797,1.9788
1654,-0.6505,0.8748,0.769,-0.4943,-1.9492,2.4826
1667,-0.6593,0.8851,0.7704,0.1011,-1.3843,1.2002
1680,-0.6529,0.8785,0.786,-1.4103,-0.8499,0.0856
1693,-0.65,0.8716,0.7719,0.4523,0.0661,-0.2655
1706,-0.6498,0.8792,0.769,0.2385,0.4936,-0.9525
1747,-0.6517,0.8675,0.7768,-4.1126,-1.6591,-2.4029
1760,-0.6503,0.8623,0.7748,-2.1737,-1.7354,0.7421
1773,-0.6437,0.8643,0.7731,1.1698,-1.0331,4.0398
1786,-0.6527,0.8851,0.7775,-1.2576,-1.3995,3.4597
1800,-0.6512,0.8519,0.7716,1.75,-0.9415,2.5284
1812,-0.6588,0.8855,0.7731,1.292,-0.6515,0.9101
1853,-0.6527,0.8689,0.7765,-2.6012,-0.4682,-1.9144
1867,-0.649,0.8736,0.7768,-0.6622,-0.2087,0.1162
1878,-0.6463,0.8672,0.7753,1.3225,-0.2545,1.3681
1892,-0.6507,0.8841,0.7743,1.4446,0.1119,1.0017
1905,-0.6546,0.8848,0.7773,-2.5401,-0.4377,0.1314
1917,-0.6546,0.875,0.7782,-2.1889,-0.4988,-0.693
1958,-0.6549,0.8733,0.7758,-3.5783,-0.7736,-1.9449
1972,-0.65,0.867,0.7768,1.6736,-0.3156,0.5284
1984,-0.6481,0.8711,0.7738,2.437,-0.1018,1.8566
1997,-0.6476,0.8782,0.7748,0.1469,-0.285,0.8795
2010,-0.6549,0.8702,0.7753,0.8645,0.0966,1.6124
2022,-0.6612,0.8724,0.7763,2.3149,0.0203,3.078
2063,-0.6485,0.8802,0.7773,2.5744,-0.6362,3.0933
2076,-0.6537,0.8838,0.777,1.6431,-0.7278,1.6429
2089,-0.6566,0.875,0.7773,2.0095,-0.1782,0.8185
2102,-0.65,0.8833,0.7738,0.2538,-0.8194,-0.3724
2115,-0.649,0.8787,0.7792,-1.6241,-0.7889,-1.3342
2128,-0.6537,0.867,0.7816,-0.8607,-0.8347,-0.5403
2168,-0.6544,0.8858,0.7768,1.7042,0.005,1.7345
2182,-0.6512,0.897,0.7729,-4.876,-1.0331,-0.8151
2195,-0.65,0.8736,0.7834,-5.105,-0.8652,-1.4411
2207,-0.6539,0.8748,0.7782,-0.0057,-0.1629,0.1009
2219,-0.6542,0.8731,0.7802,1.4904,0.173,0.5589
2232,-0.65,0.8814,0.7775,0.1622,-0.1476,-0.3113
2273,-0.6461,0.8726,0.7763,1.2767,0.234,1.1085
2286,-0.6459,0.876,0.7726,0.2385,-0.0866,2.3605
2299,-0.6515,0.8807,0.7785,1.7958,-0.0102,2.9864
2312,-0.6483,0.8831,0.7795,3.3683,0.0203,2.7879
2326,-0.6441,0.8841,0.7743,5.4904,0.402,2.6353
2339,-0.6483,0.8882,0.7777,1.3225,0.4173,-0.5708
2379,-0.6459,0.8785,0.7792,1.4141,0.5852,-0.7998
2392,-0.651,0.8816,0.7755,2.8034,0.3256,0.6811
2405,-0.6466,0.8858,0.7743,0.208,0.3409,0.4368
2419,-0.651,0.8836,0.7814,-1.9905,0.9211,-0.1892
2432,-0.6507,0.8797,0.776,2.7576,1.4707,0.3452
2444,-0.6527,0.8858,0.7733,6.3149,1.5776,0.7269
2486,-0.6473,0.8809,0.7751,3.3378,0.6615,1.704
2498,-0.6485,0.8916,0.7768,4.895,0.9211,3.246
2511,-0.6485,0.8973,0.7721,0.8798,-0.0102,2.6505
2524,-0.6529,0.8907,0.7751,-0.6012,-0.3919,1.536
2538,-0.6529,0.8899,0.7773,0.1775,0.2951,1.2612
2550,-0.6468,0.8904,0.7716,1.1546,0.5089,0.391
2591,-0.6449,0.8855,0.7731,3.582,0.2188,1.9635
2604,-0.6456,0.8897,0.7707,2.1011,0.86,2.4979
2618,-0.6505,0.8992,0.7777,2.2538,0.8142,2.1162
2630,-0.6473,0.9012,0.7712,-0.3722,0.0814,0.4215
2643,-0.6517,0.8975,0.7797,-3.4561,-0.3003,-1.1205
2656,-0.651,0.8948,0.7724,-2.0363,-0.4988,-0.9525
2696,-0.6507,0.8865,0.7736,-4.7691,-0.2545,-1.0289
2710,-0.6371,0.8799,0.7775,-8.0668,-0.0255,-1.1357
2723,-0.6481,0.8938,0.7736,-8.2958,-0.3003,-1.9907
2736,-0.6532,0.8868,0.7856,-6.1431,-0.1324,-2.7388
2748,-0.6522,0.8912,0.7682,-4.4638,-0.514,-2.8456
2761,-0.6378,0.8794,0.7738,-11.3798,-1.3079,-4.7998
2803,-0.6485,0.8799,0.7738,4.0553,0.2951,1.9788
2816,-0.6463,0.8877,0.7751,3.8416,-0.2087,1.8108
2828,-0.6512,0.888,0.7758,4.7118,0.0661,1.8414
2841,-0.6546,0.8841,0.7763,5.8263,0.6157,1.7345
2854,-0.6451,0.8919,0.7714,0.2538,0.6157,0.2078
2868,-0.6524,0.887,0.7807,-0.3416,0.6157,-0.0365
2908,-0.6549,0.8865,0.7768,4.6813,0.8905,3.0627
2921,-0.6503,0.8909,0.7736,4.3912,0.6463,2.5131
2934,-0.6463,0.9014,0.7716,0.7424,0.3867,1.6276
2948,-0.6537,0.8912,0.7753,0.208,0.4173,0.9253
2959,-0.6561,0.889,0.7782,0.6049,0.1272,0.8185
2971,-0.6466,0.8902,0.7741,-0.3722,-0.4072,0.6505
3012,-0.6481,0.8929,0.7665,1.1393,0.1272,0.62
3025,-0.6493,0.8956,0.7685,0.2691,0.0356,0.4521
3038,-0.6515,0.8858,0.7753,0.9256,0.1577,0.6811
3051,-0.6483,0.8909,0.779,-1.3035,-0.1782,0.3147
3063,-0.6512,0.8894,0.7746,0.1622,0.0508,0.0398
3076,-0.6468,0.8948,0.7726,0.2691,0.2646,-0.6319
3117,-0.6495,0.887,0.7758,-0.0668,0.0203,-0.4029
3130,-0.65,0.886,0.7816,2.0553,0.0966,0.9559
3144,-0.6488,0.8843,0.7753,3.9179,0.4936,2.0551
3156,-0.6485,0.8951,0.7758,4.0401,0.7684,1.933
3170,-0.6498,0.8963,0.7753,4.0706,1.0585,0.62
3183,-0.6468,0.8992,0.7741,0.2996,0.6921,-1.4258
3223,-0.649,0.8848,0.7731,-1.6851,-0.3308,-0.4487
3237,-0.6454,0.8819,0.7763,0.6355,0.234,1.2154
3249,-0.652,0.8885,0.7685,4.666,1.0279,2.2689
3262,-0.6478,0.8999,0.7724,3.292,0.6921,1.2918
3276,-0.6473,0.9026,0.7729,-0.4485,0.3104,-0.9983
3289,-0.65,0.9007,0.7697,-3.7615,-0.285,-2.3113
3329,-0.6476,0.8807,0.7746,0.3912,-0.0255,0.4368
3343,-0.6495,0.8887,0.778,1.2767,-0.1171,1.4902
3355,-0.6483,0.8965,0.7726,1.1851,0.402,1.2002
3368,-0.6556,0.8909,0.7726,3.1851,0.9516,1.3376
3381,-0.6454,0.9012,0.767,-0.1126,0.4783,0.0093
3394,-0.65,0.8899,0.7707,-1.1508,0.4173,-1.1357
3435,-0.6503,0.8877,0.7816,-1.5019,0.3714,-0.1434
3449,-0.6515,0.8924,0.7712,1.4446,0.6005,0.9559
3461,-0.6524,0.8904,0.7719,-0.4027,0.1424,0.4368
3474,-0.6498,0.889,0.7704,0.666,0.3867,0.6811
3487,-0.65,0.8907,0.7714,1.0782,-0.056,0.8337
3500,-0.6505,0.8968,0.7721,0.1775,-0.1782,-0.0365
3540,-0.6471,0.8836,0.7724,2.9561,0.3409,0.8185
3553,-0.65,0.9024,0.7704,2.7729,0.5089,0.9559
3566,-0.6507,0.8921,0.7738,1.3072,0.6463,1.1085
3580,-0.6505,0.899,0.7724,-1.334,0.4173,0.0551
3593,-0.6495,0.8931,0.7694,-4.5248,-0.2087,-0.9067
3605,-0.6512,0.8865,0.7743,-3.0134,-0.0408,-0.5403
3646,-0.6495,0.8885,0.7773,2.9714,0.3104,2.7116
3660,-0.6461,0.8987,0.7629,2.9408,0.2035,2.3147
3672,-0.6463,0.8938,0.7694,-2.647,-0.3003,0.2841
3685,-0.6532,0.8938,0.7785,-2.8149,-0.0408,-0.4792
3699,-0.6517,0.8919,0.7738,-2.0668,-0.0408,-0.1128
3711,-0.6532,0.887,0.7694,-0.2806,0.1119,0.2536
3752,-0.6463,0.9031,0.7741,-1.2118,0.0814,-0.7082
3765,-0.6471,0.8894,0.7716,-1.7004,0.2798,-1.38
3779,-0.6466,0.886,0.7724,-1.2118,0.3104,-1.8227
3792,-0.6488,0.8919,0.7736,-2.8607,0.2035,-2.5403
3804,-0.6505,0.8846,0.7712,0.8492,0.1882,-1.1357
3817,-0.651,0.8887,0.7753,3.2309,0.5547,0.4521
3859,-0.6505,0.8948,0.778,4.1775,0.5241,1.9635
3871,-0.6503,0.889,0.7726,5.3072,0.9363,2.5742
3884,-0.6551,0.8943,0.7704,4.1317,0.631,3.3834
3897,-0.651,0.9014,0.7751,2.1317,-0.1171,3.3223
3911,-0.6495,0.8943,0.7687,0.1775,-0.0866,2.391
3924,-0.6456,0.8999,0.7699,-2.7844,-0.3156,1.7345
3964,-0.6393,0.9039,0.7663,-0.8912,0.7379,-0.0518
3978,-0.6471,0.8999,0.7748,-4.5401,0.2646,-1.9144
3991,-0.6507,0.8936,0.7751,-1.6393,-0.0713,-1.4563
4003,-0.6522,0.8926,0.7726,-0.4485,0.2188,-1.0747
4017,-0.6478,0.8921,0.7758,0.9256,-0.3003,-0.2502
4029,-0.6485,0.897,0.7724,0.9561,-0.1171,0.2689
4071,-0.6483,0.9002,0.7755,2.0706,0.4936,-0.0518
4084,-0.6524,0.9046,0.768,1.8721,0.4783,-0.6624
4097,-0.6461,0.9078,0.7733,-2.9981,-0.0866,-2.1892
4110,-0.6463,0.8951,0.768,-3.4103,-0.056,-2.1739
4123,-0.6524,0.8938,0.7773,-0.3264,-0.1324,-0.8151
4135,-0.6493,0.8941,0.7777,0.5591,-0.0408,0.2383
4176,-0.6507,0.898,0.7697,0.1164,0.2951,-0.3418
4190,-0.65,0.8951,0.7714,-0.1889,0.0661,-0.8915
4202,-0.6451,0.897,0.7733,-3.1813,-0.285,-2.1892
4214,-0.6527,0.8914,0.7741,-1.6393,-0.1324,-1.7006
4228,-0.6459,0.8963,0.7738,-1.7462,-0.1934,-0.9831
4241,-0.6559,0.8926,0.7809,-0.2347,-0.0408,0.0551
4282,-0.6441,0.8968,0.768,-0.6928,-0.1782,1.7498
4294,-0.6451,0.8916,0.7702,-2.0668,-0.2087,0.4368
4308,-0.6446,0.8965,0.7699,-2.8607,0.1577,0.0856
4320,-0.6456,0.8965,0.7672,-0.1737,0.9516,0.0093
4332,-0.6517,0.8909,0.7719,0.5897,0.3562,-0.3724
4345,-0.6522,0.9039,0.7658,1.8721,0.2188,-0.4029
4386,-0.6512,0.8873,0.7807,-0.8454,-0.4377,0.0704
4399,-0.6466,0.8953,0.7787,1.582,0.0203,1.0475
4411,-0.6512,0.8965,0.7755,0.5439,-0.0255,1.1391
4424,-0.6473,0.8987,0.7712,1.2004,0.1272,0.6811
4437,-0.6595,0.8975,0.7846,-0.4943,-0.3766,-0.006
4450,-0.6395,0.8963,0.7614,-0.876,0.2035,-0.6014
4491,-0.66,0.9002,0.7814,3.3378,0.6463,1.5971
4505,-0.6505,0.8965,0.7777,2.6507,0.8447,1.3223
4518,-0.6441,0.9002,0.7665,1.1088,0.1882,0.3299
4531,-0.6451,0.8916,0.7702,-1.792,-0.1629,-1.3037
4543,-0.6539,0.8909,0.7699,-0.708,0.4478,-0.9678
4556,-0.6551,0.8958,0.7707,1.0782,0.2646,0.1009
4597,-0.6549,0.8968,0.7787,1.1546,0.4173,0.1314
