time_ms,ax,ay,az,gx,gy,gz
13,-0.691,0.8294,0.6864,0.3301,-0.1171,1.078
25,-0.7062,0.8318,0.6886,0.0706,0.6615,-0.2197
37,-0.702,0.8265,0.6811,-0.1431,0.3562,-0.4792
49,-0.6883,0.824,0.6852,0.0248,0.4173,-0.3571
91,-0.6983,0.8299,0.685,-0.708,0.3409,-0.235
103,-0.701,0.8296,0.6803,-2.25,0.005,-0.5708
116,-0.6954,0.8277,0.6835,-1.1202,-0.5446,-0.525
129,-0.6969,0.8274,0.6869,-0.25,-0.8194,-0.0365
141,-0.6971,0.8252,0.6884,0.1927,-0.911,1.0169
155,-0.6974,0.8257,0.6911,-0.3874,-0.4224,0.9559
196,-0.6983,0.8235,0.6859,0.5897,0.8447,1.3528
209,-0.6974,0.8284,0.6869,-0.708,0.7073,0.9406
220,-0.7118,0.8226,0.6918,-0.6622,0.86,1.7956
233,-0.7135,0.823,0.7082,-0.6928,1.0432,4.0856
246,-0.7301,0.816,0.7253,4.0401,3.1043,10.9711
259,-0.7267,0.7596,0.7953,4.1469,-0.4072,15.3681
301,-0.7613,0.8365,0.9015,-2.7691,-36.6057,-6.0976
314,-0.6632,0.8536,0.8722,-2.5096,-40.1018,-4.7388
327,-0.6234,0.8672,0.8227,-5.9141,-39.3079,3.246
340,-0.5668,0.929,0.7687,-13.0744,-36.0866,8.0551
352,-0.5025,1,0.661,-24.0363,-23.3079,14.7269
365,-0.5389,1.0164,0.6471,-7.792,-9.1095,23.7498
406,-0.5934,0.9095,0.7118,-18.6317,5.547,23.536
420,-0.6568,0.8982,0.7406,-28.3569,1.8982,17.5818
432,-0.6761,0.8162,0.7392,-40.9981,-2.9263,7.8719
446,-0.6815,0.7537,0.7301,-40.4638,-3.9492,-2.4182
459,-0.6937,0.7037,0.7067,-28.7844,-7.2163,-10.6166
471,-0.6317,0.7293,0.5868,-23.4561,-4.0713,-17.0747
512,-0.7503,0.7088,0.5141,-8.0973,12.0661,-22.1739
525,-0.9947,1.0035,0.6691,16.3759,8.1882,-6.6319
538,-0.8561,0.823,0.5773,1.5515,1.944,-10.8915
552,-0.7782,0.878,0.8212,-14.021,11.1195,-16.067
565,-0.7989,0.6443,0.2372,-17.2576,31.3333,-24.922
578,-0.7767,0.6629,0.5941,-0.7538,19.547,-26.3266
618,-0.6607,1.5079,1.8869,45.0172,44.8142,16.2841
631,-0.629,1.1326,0.8459,-2.418,36.9821,6.0246
644,-0.7843,0.7977,1.7953,40.3454,0.4478,2.2841
657,-0.5433,0.9041,1.0439,-26.708,23.6234,-1.2579
671,-0.6329,0.8269,0.0807,-70.3722,38.0814,0.2536
684,-0.7765,1.1082,-0.7367,-22.6012,15.2569,5.2918
724,-0.6385,0.9344,0.5961,12.2538,10.5241,19.0933
738,-0.6363,0.7662,0.6508,-7.2118,12.2035,11.1085
751,-0.6979,0.8042,0.8095,8.6202,-9.6591,-2.0976
764,-0.6239,0.7657,0.9355,-6.937,-2.2392,5.6124
776,-0.7335,0.7791,0.797,6.7882,-2.3766,0.5742
789,-0.7252,0.8514,0.7475,25.292,-23.8118,14.5589
830,-0.7745,0.8016,0.8664,22.9103,-48.5904,25.536
843,-0.7027,0.8621,0.7763,13.6278,-50.285,22.8948
857,-0.6432,0.9075,0.7152,-5.3493,-44.7278,17.7803
869,-0.5961,1.0071,0.6017,-21.9294,-33.9034,11.6124
882,-0.5375,1.0061,0.6447,-52.5096,-21.5369,6.4979
895,-0.5318,0.9705,0.6132,-41.1508,-13.1095,5.8872
936,-0.5856,0.8792,0.6513,-42.708,8.2493,-1.1357
949,-0.6681,0.8348,0.7025,-44.1584,10.9058,-1.4411
963,-0.7225,0.7271,0.8068,-42.5554,11.0127,-3.1815
976,-0.8648,0.4122,0.8004,-40.7844,2.2646,-18.3571
989,-0.8517,0.4961,0.7272,-15.1508,-5.766,-23.5327
1001,-0.8107,0.5188,0.6837,0.2996,-13.9797,-24.2808
1043,-0.5353,0.389,0.3525,-15.2271,-15.4759,-46.6166
1056,-0.4991,0.7859,0.6237,-3.1202,-14.7431,-39.8838
1068,-0.5607,0.9566,0.3332,31.6584,-9.6591,-34.4792
1081,-0.8717,0.6536,0.6991,42.1317,4.1119,-23.2426
1094,-0.703,0.6058,0.3173,44.0095,2.5547,-21.151
1108,-0.912,0.7566,0.5531,32.5897,10.5699,-37.7464
1148,-0.6583,1.0552,0.4672,34.2843,14.6157,-26.8304
1162,-0.7333,1.1058,0.7253,-12.9981,21.547,-11.1815
1175,-0.6503,1.1517,0.8212,13.7653,15.1501,-8.3418
1188,-0.7596,0.8233,0.6982,47.4446,5.2569,-12.1739
1200,-0.6539,0.8672,0.9193,41.8263,8.7379,3.7345
1213,-0.712,1.1468,0.852,-6.2042,14.9669,4.9253
1255,-0.7025,0.7515,0.9491,-32.2805,15.7913,17.1849
1267,-0.5072,0.5982,0.6142,-4.7386,17.8218,30.6811
1280,-0.5504,0.6719,0.9396,25.9027,8.4172,50.6505
1294,-0.6085,0.9788,0.5766,-12.1584,5.9592,46.3757
1307,-0.7892,0.7334,0.5968,-60.7233,-6.056,13.2307
1319,-0.6986,1.1387,0.5111,-30.021,7.1501,26.2078
1360,-0.6844,0.5645,0.6625,-13.4561,-1.9339,-5.7617
1374,-0.7115,0.7549,0.7065,15.5668,1.1043,11.1696
1386,-0.6815,0.7513,0.7055,27.063,1.5776,24.2689
1399,-0.6842,0.7532,0.7416,37.0935,1.4096,30.0856
1413,-0.6874,0.7681,0.7135,47.2614,-1.1247,29.4444
1425,-0.6551,0.4112,0.7392,9.9637,-8.7736,-4.2808
1466,-1.0851,0.5357,0.6552,105.506,5.4249,-6.7082
1480,-0.5113,0.5789,1.0351,50.7271,-4.224,-43.5174
1493,-0.7076,1.096,0.8808,-3.6699,12.2188,-21.6548
1505,-0.4288,0.3301,0.424,-62.0668,15.4402,-47.3189
1519,-1.0453,0.9759,0.6159,63.7653,4.9211,-2.0518
1531,-0.5995,0.8162,0.36,46.8645,22.7073,-8.8762
1572,-0.6732,0.8023,0.6982,-2.1889,24.7989,-8.4029
1586,-0.7525,0.9388,0.746,2.4065,14.5852,-11.1663
1598,-0.6583,1.2029,0.2997,21.3836,22.4936,-3.6701
1611,-0.6991,0.9947,0.069,-9.8989,24.4325,0.1314
1625,-0.6788,1.2767,0.5204,-1.5325,24.3867,14.4673
1638,-0.8321,0.5645,0.8888,8.4675,12.7073,8.9864
1679,-0.5646,0.918,1.1144,-39.8683,15.4554,24.1773
1692,-0.6398,0.7813,0.8427,-81.9141,17.8829,27.7345
1705,-0.5189,0.8279,0.5912,-36.1737,9.6234,31.5055
1717,-0.6988,0.6519,1.3332,-8.1126,-18.514,3.2307
1730,-0.4313,0.7041,0.9577,11.3225,-11.5522,22.8948
1744,-0.6114,0.5267,0.8307,11.8263,-15.0789,12.3147
1784,-0.7315,1.0657,0.3642,-25.0286,-13.2927,4.4673
1797,-0.7147,0.6695,0.3969,-21.4409,-15.2163,-9.4869
1811,-0.7228,0.7525,0.3776,-24.876,-11.9797,-9.609
1823,-0.7713,0.6961,0.6359,1.4446,-6.7278,-5.6548
1836,-0.7113,0.7447,0.6405,6.3454,-2.3308,5.0017
1850,-0.6964,0.8013,0.6615,15.7347,-3.4606,12.4368
1890,-0.7071,0.8538,0.6952,-0.1737,0.4936,2.162
1903,-0.6991,0.8492,0.6935,-3.6851,-0.5598,-2.6777
1917,-0.6966,0.8311,0.675,-4.8454,-1.0331,-6.1586
1930,-0.7123,0.8067,0.6808,-2.0057,-1.4453,-5.8686
1942,-0.6927,0.7984,0.683,5.0324,-0.911,-0.525
1955,-0.6986,0.8072,0.6923,10.0859,0.1272,6.6658
1996,-0.7013,0.8333,0.6928,0.8798,-1.1095,2.3757
2009,-0.7049,0.8267,0.6867,1.7805,0.2646,2.3757
2023,-0.6852,0.8362,0.6816,-0.4638,0.4936,1.1696
2035,-0.7005,0.8186,0.685,-2.937,0.5852,0.9711
2048,-0.6966,0.8257,0.6823,-1.3187,0.6768,2.0246
2062,-0.6947,0.8311,0.682,-2.9676,0.005,1.8108
2103,-0.7003,0.8213,0.6774,-5.7462,-2.1629,2.0246
2116,-0.7084,0.826,0.6857,-5.6241,-3.2011,2.4063
2128,-0.6966,0.8274,0.675,0.4065,-3.14,2.3147
2141,-0.6947,0.8367,0.6899,0.5439,-2.056,0.9559
2155,-0.7013,0.8443,0.6833,-0.1584,-2.1782,-1.2884
2168,-0.6983,0.8326,0.6908,-0.9065,-1.5522,-2.7235
2208,-0.6971,0.8235,0.6845,-0.0057,-0.8805,0.2689
2222,-0.6942,0.8248,0.6933,1.6431,-0.5446,1.4444
2235,-0.6947,0.8299,0.6894,0.8187,-0.6056,1.5208
2248,-0.6937,0.8345,0.6962,0.0553,0.234,1.0627
2260,-0.6983,0.8243,0.6942,-0.9523,0.3562,0.6963
2273,-0.694,0.8204,0.6903,0.895,0.6615,0.7116
2315,-0.6922,0.8262,0.6847,0.4981,1.6997,0.8643
2327,-0.6927,0.8265,0.6881,1.1698,1.6692,1.6276
2340,-0.694,0.8265,0.6847,1.063,1.3791,3.0475
2353,-0.6981,0.8248,0.6881,2.6049,1.5165,3.3528
2366,-0.6964,0.8377,0.6857,2.5897,0.9211,3.4444
2379,-0.6925,0.8374,0.685,1.1393,0.6921,1.6582
2420,-0.6883,0.835,0.6813,-1.2882,-1.0179,-2.3266
2433,-0.7032,0.8326,0.6911,-3.2729,-0.9263,-2.6319
2446,-0.6986,0.8328,0.6899,-4.3874,-1.0789,-2.4792
2460,-0.6881,0.8333,0.6852,-6.8149,-0.6056,-1.5174
2473,-0.6964,0.8269,0.6884,-6.021,0.2646,-0.9373
2486,-0.6932,0.823,0.6918,-4.1737,0.6157,0.849
2526,-0.6905,0.8318,0.6859,0.6202,0.1424,0.4521
2540,-0.6974,0.8299,0.6872,-1.2729,-0.1629,-0.5403
2553,-0.6966,0.8301,0.6921,-2.2195,-0.4835,-1.9602
2565,-0.6959,0.8296,0.6855,-1.6546,-0.5293,-2.235
2578,-0.6957,0.8304,0.6891,-1.4256,-0.514,-2.754
2591,-0.6954,0.8277,0.6935,-2.0668,0.0356,-1.5937
2632,-0.6988,0.8304,0.6869,-0.7233,0.6005,1.7956
2645,-0.702,0.8294,0.6891,-0.4485,0.2646,1.5818
2658,-0.6957,0.8321,0.6911,-1.4561,-0.3003,1.7803
2672,-0.6974,0.8277,0.6891,-2.6622,-0.4682,1.2612
2685,-0.693,0.8265,0.6847,-2.6317,-0.3766,1.9024
2698,-0.6927,0.8243,0.6881,-1.5935,0.5699,2.1162
2738,-0.6954,0.8355,0.6886,1.9637,-0.4377,2.4215
2751,-0.6969,0.8301,0.6874,2.5439,-0.7736,2.3605
2765,-0.6947,0.8379,0.6903,3.3836,0.005,2.1009
2777,-0.6935,0.8326,0.6857,1.5057,0.2035,0.3147
2790,-0.6969,0.8418,0.6916,-0.0057,0.6768,-0.9373
2802,-0.7005,0.8321,0.6879,-1.4256,0.7837,-1.5327
2843,-0.6935,0.8313,0.6894,1.0172,0.1272,1.8261
2856,-0.6981,0.8399,0.6798,2.1775,-0.5293,1.3376
2870,-0.6952,0.8399,0.6864,2.2996,-0.7125,0.0704
2882,-0.6952,0.8343,0.6923,1.353,-0.4988,-0.7235
2895,-0.6976,0.8323,0.6921,0.9408,0.1119,-0.3266
2909,-0.6893,0.8328,0.6891,0.6965,0.9211,0.2383
2949,-0.6937,0.8414,0.6857,0.8187,0.234,1.0933
2962,-0.6964,0.8404,0.6918,0.5133,-0.3614,-0.5708
2976,-0.6795,0.8379,0.683,-1.5477,-0.5598,-1.3495
2988,-0.7018,0.8338,0.6933,0.1622,-0.1629,-1.4258
3001,-0.7037,0.8301,0.693,1.9485,0.2646,-0.2808
3014,-0.6857,0.8353,0.6813,0.9866,0.3256,-0.0365
3056,-0.6969,0.8418,0.6918,1.2767,-0.6209,-1.8533
3069,-0.6874,0.8306,0.6801,-0.4638,-0.911,-1.9907
3081,-0.6988,0.823,0.6913,1.6278,-0.1934,-0.6319
3094,-0.6993,0.8309,0.6903,4.0095,-0.514,1.3834
3107,-0.6888,0.8196,0.6896,6.6813,-0.5446,2.6963
3121,-0.7032,0.7996,0.6847,11.1088,-0.453,2.8643
3161,-0.6913,0.8697,0.6847,0.6507,-0.8347,-3.8686
3175,-0.7008,0.834,0.6874,-1.5477,-0.6209,-3.8075
3188,-0.6788,0.8284,0.6811,-0.5096,-0.514,-2.7846
3201,-0.6966,0.8233,0.6967,-0.9676,-0.0866,0.1009
3212,-0.6974,0.8267,0.6874,0.895,0.0203,2.7727
3225,-0.693,0.8377,0.6852,1.0172,0.5394,4.0856
3266,-0.691,0.8399,0.6901,-2.1889,0.7531,-1.3342
3280,-0.6969,0.8357,0.6881,-4.3416,0.9669,-3.3037
3292,-0.6993,0.8343,0.6881,-4.6928,0.5852,-3.2731
3306,-0.702,0.8252,0.6896,-2.6622,0.3409,-1.7617
3318,-0.6988,0.8277,0.6899,-0.6317,0.0661,0.3147
3331,-0.6871,0.8301,0.6869,0.1775,-0.8041,2.3605
3372,-0.69,0.8396,0.6901,0.8798,-0.1018,1.4444
3386,-0.6957,0.8389,0.6918,-0.2653,0.0966,0.2994
3398,-0.6949,0.8377,0.6899,-1.3035,0.0356,-0.1434
3412,-0.6915,0.8304,0.6886,-2.0821,0.2646,-0.693
3424,-0.6964,0.8304,0.6908,-1.5935,0.1882,0.0856
3437,-0.6976,0.8335,0.6923,-1.8073,0.4173,0.0856
3479,-0.7037,0.8416,0.6911,-0.5401,0.3867,0.4826
3491,-0.6908,0.8301,0.6874,-0.8607,0.7531,0.6963
3503,-0.6961,0.8475,0.6896,-1.1813,0.9058,0.2689
3516,-0.7008,0.8504,0.6896,-6.5248,-0.6973,-2.6166
3530,-0.6998,0.8392,0.6855,-2.876,-0.7278,-1.2579
3542,-0.6988,0.8311,0.6889,0.1317,-0.5598,0.1467
3583,-0.6979,0.8318,0.6889,2.2843,0.4936,2.3605
3596,-0.6903,0.836,0.6891,2.8034,0.2493,2.7727
3610,-0.6927,0.8384,0.6884,1.6431,0.6005,2.4979
3622,-0.6949,0.8392,0.6896,-0.2347,-0.0102,1.6276
3636,-0.6937,0.8389,0.6872,-0.647,0.2951,1.0627
3648,-0.6976,0.8372,0.6933,-0.9676,-0.0713,0.2841
3689,-0.6969,0.8406,0.6872,-0.3264,0.3867,-1.0899
3702,-0.6974,0.8338,0.6881,0.0095,0.2951,-1.6548
3716,-0.6915,0.8343,0.6884,0.2233,-0.0255,-0.693
3728,-0.6918,0.8323,0.693,0.4981,-0.1934,0.62
3740,-0.6966,0.8331,0.6881,1.582,0.0661,1.3223
3753,-0.6949,0.8355,0.6913,1.6431,0.4936,2.62
3794,-0.6881,0.837,0.6859,-0.418,0.0508,-1.0747
3808,-0.6922,0.8409,0.6859,-1.0744,-0.1782,-2.0212
3820,-0.6961,0.837,0.6881,-0.9676,-0.2545,-1.9907
3833,-0.6891,0.8372,0.6908,-0.8454,0.0661,-1.1815
3846,-0.6966,0.8296,0.6867,1.4446,0.0814,0.62
3859,-0.6947,0.835,0.6881,2.9103,0.0508,1.933
3900,-0.6966,0.8453,0.6957,1.3225,0.7989,0.3147
3913,-0.6944,0.8455,0.6864,0.6355,0.4936,-0.5556
3926,-0.6896,0.8418,0.6833,-0.7691,0.234,-1.151
3938,-0.694,0.8323,0.6869,-1.0134,-0.5904,-1.1357
3951,-0.6947,0.8338,0.6847,0.6813,-0.4224,0.4215
3964,-0.6935,0.8399,0.6913,0.4675,-0.285,0.8337
4005,-0.6942,0.8414,0.6884,0.5591,-0.0102,0.1773
4019,-0.6927,0.8411,0.682,-0.5096,-0.3614,-0.8456
4030,-0.6991,0.8389,0.6891,0.0859,-0.3461,-0.3724
4042,-0.6942,0.8355,0.6886,0.7118,0.1424,1.0169
4055,-0.6959,0.8433,0.6891,1.4141,0.4173,1.7345
4068,-0.6964,0.8387,0.6867,1.3072,0.86,1.5818
4109,-0.6888,0.8443,0.6864,0.0401,0.7226,0.8185
4122,-0.692,0.8455,0.6869,-0.6012,0.3409,0.0398
4136,-0.6947,0.8438,0.6894,-0.5248,0.6157,-0.4792
4147,-0.6964,0.8431,0.6899,-1.0439,0.0356,-0.5556
4160,-0.6927,0.8387,0.6891,-2.0515,-0.1018,-0.4334
4173,-0.7018,0.8372,0.6916,0.2691,0.1119,0.6505
4214,-0.6932,0.8331,0.6921,0.1775,0.3104,-0.0823
4227,-0.7018,0.8438,0.6933,1.4599,-0.056,0.5742
