time_ms,ax,ay,az,gx,gy,gz
8,-0.7743,0.3097,0.3822,-1.1917,1.1673,-3.3837
49,-0.7716,0.3136,0.3824,1.2663,-0.4969,3.9904
62,-0.777,0.3148,0.3875,2.2587,0.1749,4.8148
75,-0.7728,0.3192,0.3878,2.9762,0.6329,3.7308
87,-0.7919,0.3685,0.4293,3.8617,1.1367,2.0362
100,-0.7709,0.3194,0.3829,1.0984,0.6482,0.3568
114,-0.775,0.3209,0.388,-0.0009,-0.4663,-0.1165
156,-0.7762,0.3202,0.3873,0.0754,-0.2526,1.3339
168,-0.7753,0.3165,0.3922,0.106,0.8619,0.6163
181,-0.7731,0.3168,0.3919,1.1442,1.61,0.4331
193,-0.7718,0.3199,0.3819,1.2205,1.4726,0.2805
207,-0.7762,0.3172,0.3866,0.7014,1.0604,0.8301
219,-0.7745,0.3158,0.378,0.335,0.2207,1.685
261,-0.7743,0.3209,0.3931,3.7701,-1.1381,4.998
274,-0.7743,0.3082,0.3895,7.3274,-1.0312,6.7079
287,-0.7816,0.3141,0.3863,9.8464,-0.8175,7.0744
300,-0.7789,0.3212,0.3853,13.6938,-2.0388,10.1278
313,-0.7796,0.3146,0.3848,16.1213,-3.8098,13.5476
326,-0.7836,0.3297,0.3949,18.8235,-5.5503,17.3034
367,-0.774,0.3507,0.3953,12.2739,-3.2755,21.9751
380,-0.7753,0.3319,0.3634,12.1213,-0.0083,17.7766
393,-0.8063,0.4479,0.4622,11.648,3.0909,5.0133
406,-0.7733,0.3783,0.3758,5.5564,3.1062,-1.0478
419,-0.8055,0.4339,0.3995,-0.3062,4.526,-2.4066
432,-0.7977,0.3805,0.3284,2.7319,7.1673,0.6927
472,-0.7882,0.4195,0.3709,1.3274,6.2665,7.9751
486,-0.7672,0.3351,0.4171,-1.8787,-1.0465,0.769
499,-0.7831,0.3619,0.4051,-8.1078,1.3199,-4.315
512,-0.7809,0.3434,0.4002,-7.1001,3.4421,-4.2539
525,-0.7772,0.3536,0.4039,-5.2375,5.3963,-0.1776
537,-0.785,0.3507,0.3983,-2.3368,4.6482,1.6392
579,-0.7267,0.2716,0.7777,-12.291,-27.4434,-7.7043
592,-0.754,0.4183,0.3116,-13.3139,-26.8175,-16.6356
606,-1.2406,0.5472,-0.4689,-16.9627,-55.4129,-7.9791
618,-0.775,0.3251,0.8458,-50.1994,-89.9472,-12.8646
631,-1.0712,0.3653,-0.1842,-34.3215,-54.4816,-16.0402
645,-1.1114,0.6808,0.3194,-24.8711,-86.0083,-10.6203
686,-0.9366,0.0472,0.3118,-50.0772,-80.2831,-19.4142
699,-0.3053,0.4249,0.8763,-26.4742,-99.4434,-35.3073
711,-0.5809,0.2152,0.6046,-38.9474,-66.6495,-25.0173
725,-1.1588,0.5018,0.0526,-35.7261,-59.7946,-10.8646
737,-0.4271,0.1119,0.8358,-4.352,-70.1762,5.9751
750,-0.1107,-0.0475,1.1026,-4.1078,-53.5198,0.1278
791,-0.6429,0.1781,0.6366,-3.0696,-22.4053,-3.9027
804,-0.7696,0.2464,0.2899,-21.9398,-33.6419,-16.8951
817,-0.7809,0.4354,0.5264,-23.5123,-7.6572,2.6011
830,-0.2093,-0.1046,1.0365,-28.4131,-30.4205,-27.6737
843,-0.8717,0.1571,0.4823,-8.0314,-30.2373,5.0286
857,-0.742,0.1527,0.6807,29.9228,-21.8556,-17.8417
897,-0.6805,-0.1203,0.4571,1.4953,-10.3595,-0.4676
910,-0.7211,0.3663,-0.0707,73.709,14.0528,-39.2005
923,-0.5052,0.0797,0.1588,28.106,25.4421,-44.6356
937,-0.8387,0.7936,0.9373,58.0449,-12.9549,-1.3379
949,-0.8282,0.0104,0.5421,20.564,35.1673,-32.1318
963,-0.5641,0.3136,0.349,-6.4131,-6.0236,-0.6814
1004,-0.8282,0.8641,0.9925,33.4495,21.9459,-17.3226
1016,-0.7257,0.504,0.7254,7.48,27.9154,-16.4982
1030,-0.715,0.4772,0.8826,64.1823,32.3428,2.4484
1042,-0.6857,0.8111,1.94,75.8464,43.6711,-19.918
1055,-0.8531,-0.0541,-0.1911,7.1594,24.3123,-0.2234
1069,-0.7323,0.0614,-0.1894,62.3045,68.8467,-18.5898
1109,-0.6029,0.3141,1.025,3.2968,30.4344,-4.376
1122,-0.6129,0.3985,0.5982,12.8388,66.0833,-6.9562
1135,-0.6227,0.3429,0.9134,1.0831,53.6253,-11.0173
1148,-0.4842,0.1283,1.2852,-44.5963,46.8009,13.2423
1161,-0.7584,0.3268,0.5494,-30.8864,34.9077,23.9751
1174,-0.7965,0.4935,0.7664,-10.2299,34.7245,27.0744
1216,-0.8107,-0.0443,0.7235,-57.1001,24.4192,34.0056
1228,-0.5975,0.3844,0.755,-28.6116,30.8161,12.5247
1242,-0.6493,-0.2921,0.4976,-32.4894,9.0146,12.3415
1255,-0.7157,0.4142,1.1436,-54.0467,25.5795,38.8606
1267,-0.8292,-0.3998,0.6973,-47.894,1.381,30.5705
1280,-0.7423,0.1905,0.3619,-15.9856,12.9993,12.6316
1321,-0.7369,0.61,0.6612,-35.4207,4.6176,-13.6737
1335,-0.5863,-0.245,0.4845,1.938,-4.5732,-19.46
1347,-0.7362,0.5631,0.6973,-26.52,-36.2373,46.7537
1360,-0.7582,0.2118,0.4159,-31.2375,3.5337,-26.8798
1374,-0.8165,0.4383,0.514,-20.6116,-7.7182,-3.3531
1386,-0.7958,-0.2428,-0.2926,-56.7948,-28.3289,21.2423
1427,-0.7611,0.286,0.4742,3.0373,1.6711,1.4102
1440,-0.7518,0.3028,0.4718,8.8388,1.0604,8.7843
1453,-0.7611,0.3085,0.4898,18.6251,-0.9396,14.5858
1467,-0.7511,0.2923,0.4823,24.335,-0.619,21.7614
1479,-0.7201,0.1625,0.4854,28.6251,-0.5427,23.7003
1492,-0.4488,-0.421,0.543,30.0602,-7.6266,-8.1318
1533,-1.8509,0.7269,0.7547,89.648,-12.4511,-19.7195
1546,-1.214,0.4796,0.179,53.6785,6.8314,-27.9638
1559,-1.0809,0.7015,0.4534,68.4419,8.5871,-18.0554
1573,-1.0909,0.7372,0.6854,36.106,20.7245,-7.5211
1585,-0.6454,0.4208,1.0106,37.9686,21.2741,-20.6203
1598,-0.5917,0.076,0.5887,49.7396,33.9612,-22.834
1640,-1.2496,1.1346,1.5506,75.3884,37.9001,-15.8875
1652,-0.6444,0.2428,0.8939,16.2129,31.3657,-25.1241
1665,-0.7767,0.1048,0.0455,31.1136,5.4115,14.3721
1679,-0.7884,0.3434,0.3153,24.7472,23.0604,6.7537
1691,-0.6883,0.3868,0.6825,28.3045,36.0528,-11.1241
1704,-0.8036,0.2767,0.1737,33.0678,16.465,10.4026
1746,-0.796,0.5111,-0.0422,6.8388,53.8238,2.54
1758,-0.8414,0.3697,0.2489,3.6785,16.8467,-1.6585
1771,-0.6571,-0.0531,0.5929,-20.7337,46.1902,-7.5058
1784,-0.9271,0.8092,0.3255,-12.9627,20.8925,6.0515
1797,-0.7196,0.285,0.5006,23.5258,33.9001,20.1889
1810,-0.7359,0.6725,0.5677,-20.581,21.381,13.5171
1851,-0.8983,0.8675,0.1092,3.5564,16.465,10.3415
1865,-0.7447,0.253,0.6217,-68.4742,18.5718,-1.8875
1877,-0.7687,0.0804,0.4071,-46.6268,12.2207,16.9522
1890,-0.7909,0.7606,0.4967,-65.6497,5.5642,39.8835
1904,-0.6654,0.3829,0.8209,-55.6192,1.0146,-11.2157
1917,-0.8522,-0.4652,0.3087,-18.0467,-5.1533,-28.1928
1957,-0.7726,0.3649,0.0181,-27.6803,-16.0388,12.5705
1970,-0.6732,-0.8558,0.564,-83.9245,-17.5656,-13.2768
1984,-0.672,0.2401,0.3997,-66.3368,-7.6572,-4.7577
1996,-0.8673,0.3509,-0.0981,-21.2986,-31.0617,4.0362
2010,-0.7587,-0.3143,0.2247,-41.6955,-21.4129,6.1889
2022,-0.7416,0.1102,0.2804,-28.1994,-14.9701,9.9904
2063,-0.8627,0.631,0.3187,-20.8711,-36.0999,25.2881
2076,-0.7767,0.2045,0.284,-14.7795,-2.9243,-12.2539
2089,-0.8514,0.576,0.4561,-4.0162,-14.2526,12.9369
2102,-0.7892,0.306,0.4093,-6.1688,3.4573,0.0515
2115,-0.7809,0.3041,0.3565,-2.7948,2.7093,-4.3302
2128,-0.7721,0.3197,0.3507,-2.2299,1.5489,-3.1547
2169,-0.7801,0.328,0.3597,-8.2757,-4.1152,-4.0554
2182,-0.7772,0.317,0.3636,-7.665,-2.2984,-2.4524
2195,-0.7816,0.3158,0.369,-4.0314,-0.3136,1.6698
2208,-0.776,0.3151,0.3575,0.3045,1.8543,2.8301
2221,-0.7755,0.3285,0.3575,-0.8711,2.1138,-0.5592
2234,-0.7789,0.3182,0.3587,-0.7795,1.8238,-3.0783
2275,-0.7796,0.3172,0.3531,0.9915,-0.0083,-1.3684
2288,-0.7816,0.3151,0.3538,1.8464,0.4192,-0.2692
2301,-0.7792,0.3319,0.3563,0.9915,0.2512,-0.5287
2314,-0.7799,0.3243,0.3638,-0.8711,0.5871,-2.5898
2327,-0.7789,0.3148,0.3565,-0.9016,0.9688,-2.2081
2340,-0.7796,0.3158,0.358,-0.5963,1.2436,-1.4753
2381,-0.7799,0.3131,0.3538,-1.7719,2.2207,-1.46
2394,-0.7801,0.3148,0.3526,-1.8635,1.3199,-0.544
2406,-0.7804,0.3129,0.3548,-0.6726,0.0375,0.4026
2419,-0.7843,0.317,0.3497,0.5793,-0.848,2.0973
2432,-0.7784,0.3234,0.3548,0.2434,-1.077,0.9827
2445,-0.7814,0.3231,0.3531,-0.9933,-0.5427,-1.8875
2486,-0.7814,0.307,0.3595,-1.8787,0.6329,-3.5821
2499,-0.7792,0.3077,0.3587,-0.8253,0.1291,-1.1699
2512,-0.7767,0.3163,0.3553,-0.978,-0.0388,0.4331
2525,-0.7779,0.3248,0.3565,-1.4055,0.5413,-1.4447
2538,-0.7782,0.3204,0.3512,-3.3597,1.3505,-4.0249
2551,-0.7762,0.3089,0.3526,-3.5276,1.1215,-5.1699
2592,-0.7801,0.3021,0.3558,2.5945,0.3581,3.7766
2605,-0.7779,0.3192,0.3577,2.5487,-0.3136,5.3186
2617,-0.7762,0.3216,0.3585,0.1365,-1.3518,2.2347
2631,-0.7784,0.319,0.3563,-1.2986,-0.9243,-1.689
2644,-0.7799,0.319,0.3558,-2.749,-0.7411,-4.9104
2657,-0.7816,0.3048,0.356,-1.8024,-0.2373,-5.1547
2697,-0.7794,0.3053,0.3536,3.8312,-0.222,5.3034
2711,-0.7767,0.3175,0.3538,3.9838,-0.6648,6.0209
2724,-0.7762,0.3246,0.3536,1.5564,-0.2831,2.5553
2737,-0.7809,0.3236,0.3582,-1.4971,0.1291,-2.1012
2750,-0.7772,0.3038,0.3604,-1.9551,0.4497,-2.2386
2763,-0.7762,0.3085,0.349,0.335,0.3734,0.4789
2804,-0.7743,0.3168,0.3531,2.1976,-0.6953,4.311
2817,-0.7775,0.327,0.3497,-0.6268,-0.7869,-0.086
2829,-0.7823,0.3197,0.3609,-1.3597,-0.7259,-3.3989
2842,-0.7789,0.3131,0.3595,0.0296,-0.7717,-3.002
2855,-0.7796,0.308,0.3607,0.9151,-0.9701,-1.002
2868,-0.7809,0.3085,0.3531,0.7472,-0.5885,0.7843
2909,-0.7784,0.3317,0.3597,-2.291,0.0375,-3.4905
2922,-0.7792,0.3114,0.358,-3.0238,0.526,-5.3379
2935,-0.7806,0.3038,0.3582,-1.4513,0.8925,-3.0173
2947,-0.7804,0.305,0.357,-0.7184,0.526,0.1431
2960,-0.777,0.3072,0.3555,1.7548,-0.3442,3.0438
2973,-0.7767,0.3133,0.3592,1.5258,-1.077,3.853
3014,-0.7796,0.316,0.359,-1.7719,-1.2602,-4.1165
3027,-0.7821,0.3153,0.3609,-1.5581,-1.2144,-4.1623
3040,-0.7787,0.3087,0.358,-0.5047,0.0833,-2.4371
3053,-0.7794,0.3041,0.3612,1.2358,0.0986,1.2728
3065,-0.7804,0.3151,0.3577,1.5106,0.2818,3.166
3079,-0.775,0.3148,0.3577,2.2434,-0.0694,2.3873
3120,-0.7753,0.3138,0.3548,-2.0009,0.068,-3.7653
3133,-0.7779,0.305,0.3531,-0.7795,-0.2373,-1.3531
3146,-0.7796,0.3041,0.356,1.5258,-0.4511,2.082
3159,-0.7811,0.3077,0.3585,3.2205,-0.8022,3.914
3172,-0.7804,0.3192,0.358,2.7472,-1.0159,2.4637
3185,-0.7787,0.3202,0.3595,0.4877,-0.8785,-0.2539
3226,-0.7784,0.3099,0.3629,0.1518,-0.9549,-0.9867
3239,-0.775,0.3072,0.3634,1.6022,-0.6343,1.3797
3252,-0.7762,0.3129,0.3631,2.6251,-0.5579,2.3721
3264,-0.7743,0.3185,0.3626,1.0984,0.236,0.7843
3278,-0.777,0.3199,0.359,-0.1841,0.526,-1.1241
3291,-0.7804,0.3126,0.3609,-0.3368,0.0986,-1.5211
3332,-0.7826,0.316,0.3636,1.7396,-0.1457,0.769
3345,-0.7775,0.3177,0.3595,1.1594,-0.0694,0.2652
3358,-0.7814,0.3199,0.3565,0.2587,0.0833,-0.8035
3371,-0.7779,0.3126,0.3626,-1.2375,-0.3595,-1.8875
3383,-0.7836,0.3065,0.3621,0.5487,-0.8785,0.3568
3396,-0.7748,0.3102,0.3553,0.8235,-0.4969,2.1583
3438,-0.7775,0.3231,0.3599,1.1594,0.1749,-0.9867
3451,-0.7762,0.3177,0.359,-0.1536,0.0833,-1.7195
3464,-0.7816,0.3146,0.3602,-0.2299,-0.4969,-1.0631
3477,-0.7757,0.3111,0.3607,0.4266,-0.619,0.7537
3489,-0.7728,0.3192,0.368,0.6556,-0.4511,0.7995
3501,-0.7843,0.3138,0.3646,0.564,-0.2831,1.0591
3542,-0.7775,0.3177,0.3597,-0.9016,0.4802,-1.3379
3555,-0.7757,0.3158,0.3621,-1.2833,0.0986,-1.2157
3568,-0.7814,0.3109,0.3641,-0.4436,-0.3747,-0.7882
3581,-0.7794,0.3155,0.3617,0.1365,-0.4511,0.0362
3593,-0.7762,0.3165,0.3646,0.8846,-0.2678,0.4179
3605,-0.7775,0.3153,0.3682,1.3579,-0.0083,0.1278
3646,-0.7745,0.319,0.3602,-0.0314,0.2054,-1.1699
3659,-0.7789,0.3089,0.3626,-0.5352,0.1138,-1.3684
3672,-0.7789,0.3085,0.3543,0.4266,-0.2068,0.4484
3685,-0.7811,0.3141,0.3607,0.7777,-0.7259,1.7766
3698,-0.7738,0.3102,0.3651,1.6632,-0.2678,2.4637
3710,-0.7787,0.3539,0.3878,4.0754,0.6634,2.2194
3752,-0.7818,0.3126,0.3631,2.7777,-0.9701,3.685
3766,-0.7792,0.3099,0.3599,3.5869,-1.8709,5.7614
3778,-0.7833,0.3168,0.3636,5.19,-2.0694,8.4026
3791,-0.7787,0.3199,0.358,7.8006,-2.0846,8.6927
3804,-0.7772,0.3434,0.3651,6.4724,-1.9472,4.5247
3817,-0.7787,0.3302,0.3636,4.7014,-0.4816,0.2041
3858,-0.7833,0.3192,0.3636,8.0144,-3.3824,9.0744
3871,-0.777,0.3463,0.3753,7.5564,-4.2831,9.5782
3884,-0.7753,0.338,0.3753,2.5029,-2.6037,5.9598
3896,-0.7779,0.3273,0.3724,2.1518,-1.5503,5.0133
3910,-0.7801,0.3429,0.3751,0.4113,-0.5427,1.9293
3923,-0.7848,0.3299,0.3802,-0.2146,1.0146,-0.2234
3965,-0.7789,0.3353,0.3636,1.19,-1.5961,1.5934
3977,-0.7818,0.3485,0.3643,-1.7413,-1.8098,-2.6814
3990,-0.7794,0.3365,0.3775,-2.4742,-0.1915,-6.0707
4003,-0.7792,0.3277,0.3756,-2.352,1.1978,-5.5058
4017,-0.7821,0.3238,0.3678,-0.7032,1.5337,-3.7195
4029,-0.7833,0.3236,0.3704,0.5335,0.7398,0.8606
4070,-0.7787,0.3417,0.3726,-0.3978,0.2054,-0.0096
4084,-0.7811,0.3424,0.3751,-1.8024,0.6024,-4.773
4096,-0.7821,0.3314,0.3739,-2.7032,1.3047,-7.1547
4109,-0.7792,0.3253,0.3673,-1.3597,0.8009,-5.2921
4123,-0.7806,0.319,0.3673,-0.3673,0.9535,-1.9638
4135,-0.7804,0.3224,0.368,0.8999,-0.0236,2.3721
4176,-0.7814,0.3419,0.3721,-1.1765,0.4192,-2.2997
4189,-0.7804,0.3348,0.3695,-2.4894,1.4421,-5.5211
4203,-0.7823,0.319,0.3724,-1.6039,1.1825,-4.6508
4215,-0.7784,0.3202,0.369,-0.5658,-0.0083,-1.8722
4228,-0.7779,0.3192,0.3663,1.0831,-0.9701,1.8835
4241,-0.7816,0.3275,0.367,2.1518,-0.6343,3.8224
4282,-0.777,0.336,0.37,-2.0772,0.8009,-3.7195
4295,-0.7821,0.3253,0.3719,-2.1078,0.5871,-3.0173
4308,-0.7811,0.3204,0.367,-1.1612,0.3428,-0.4676
4321,-0.7806,0.3199,0.3678,0.0754,0.0833,2.8148
4334,-0.7787,0.3236,0.3717,1.938,0.068,5.1049
4347,-0.776,0.3343,0.3665,2.5945,-0.3289,5.0438
4388,-0.7792,0.3297,0.3692,-3.3597,0.8314,-5.46
4401,-0.7831,0.317,0.3717,-1.6955,0.1749,-2.3913
4415,-0.7799,0.3194,0.3678,0.5945,-0.4358,1.5476
4427,-0.7818,0.3236,0.3656,1.6938,-1.3976,4.54
4440,-0.7806,0.3346,0.3685,2.0602,-2.3747,4.6163
4453,-0.7804,0.3434,0.3724,0.5793,-0.9549,1.1354
4494,-0.7787,0.3194,0.3756,-1.8177,-0.2984,-3.8569
4506,-0.7811,0.3204,0.3685,0.6709,-0.6953,0.311
4519,-0.7809,0.326,0.3682,1.0067,-0.6648,2.1125
4532,-0.7777,0.3324,0.3651,1.0984,-0.3442,2.6774
4545,-0.7806,0.3329,0.3678,-0.2146,-0.4969,0.2957
4558,-0.7818,0.3324,0.3712,-2.291,0.1444,-2.2844
4599,-0.7853,0.3194,0.3602,-0.4589,0.1444,0.4331
4612,-0.7833,0.3209,0.3675,0.7777,-0.6037,2.4484
4625,-0.7784,0.3353,0.367,0.1976,-0.7869,0.9522
4638,-0.7801,0.3412,0.3743,0.2587,-0.3442,-1.3684
4651,-0.7784,0.3265,0.3717,0.0907,0.3734,-2.3455
4664,-0.7816,0.3221,0.3756,-0.1383,0.5413,-1.4447
4705,-0.7799,0.3234,0.3665,0.3503,0.2054,1.5324
4718,-0.7814,0.3248,0.3709,0.9915,-0.0083,1.3186
4730,-0.7784,0.329,0.369,1.1289,0.5718,0.6316
4744,-0.7789,0.3329,0.3695,-0.4131,1.0909,-2.0249
4757,-0.777,0.3255,0.3675,-0.3978,0.9688,-2.086
4770,-0.7792,0.3251,0.3651,-0.4742,0.9383,-1.3684
4811,-0.7796,0.3248,0.3721,0.1365,0.4955,-0.0402
4824,-0.7789,0.3285,0.3651,-0.7642,0.0833,-1.2768
4838,-0.7796,0.3209,0.3658,-0.2604,0.007,-1.7348
4850,-0.7804,0.326,0.3658,-0.6726,0.1138,-1.46
4863,-0.7804,0.3224,0.3707,-0.6726,0.4497,-1.8417
4876,-0.7796,0.3229,0.3704,-0.3673,1.0299,-1.9333
4917,-0.7826,0.3241,0.37,-0.5505,0.6024,0.1736
4930,-0.7799,0.3197,0.3597,-0.2146,-0.1762,0.5095
4942,-0.7772,0.3212,0.3629,1.4648,-0.4969,0.1583
4955,-0.7772,0.3219,0.3648,-0.0467,-0.4969,-0.3455
4967,-0.7784,0.3207,0.3726,-0.581,0.3428,-0.6814
4979,-0.7767,0.3151,0.3709,0.3503,0.526,0.3721
5019,-0.7828,0.3248,0.3651,0.2892,0.1902,-0.7272
5033,-0.7787,0.3248,0.367,0.1823,-0.3442,-1.9944
5046,-0.7792,0.3163,0.3702,-0.0772,-0.3136,-1.6279
5059,-0.7809,0.3148,0.3702,0.3503,-0.1915,-0.4371
5071,-0.7779,0.3214,0.3675,0.4113,0.236,0.7385
5083,-0.7777,0.3248,0.368,1.1136,0.4192,1.7308
5124,-0.775,0.3187,0.3626,0.7319,0.3734,-1.4447
5137,-0.7809,0.316,0.3646,0.1976,0.2665,-1.2463
5150,-0.7789,0.3214,0.37,-0.0009,0.4802,-0.7577
