time_ms,ax,ay,az,gx,gy,gz
11,-0.6651,0.8833,0.7433,1.2004,0.4631,1.2002
24,-0.6651,0.8848,0.7421,0.9256,0.6005,0.5284
66,-0.6681,0.8794,0.7426,-3.9447,-0.3919,-2.296
79,-0.6688,0.879,0.7394,-2.5096,-0.2545,-1.7311
92,-0.6671,0.8724,0.7453,-1.4103,0.0203,-0.3418
104,-0.6642,0.8768,0.7394,1.3225,0.5089,1.3528
117,-0.6651,0.8748,0.7399,3.124,0.8295,2.2994
131,-0.6676,0.8807,0.7421,2.7576,0.7989,2.6963
172,-0.6639,0.8868,0.7389,1.979,0.0356,2.8185
185,-0.6725,0.8877,0.7404,0.3149,-0.0713,1.3834
198,-0.6669,0.8826,0.7399,-0.4638,0.0203,1.1238
211,-0.6749,0.8836,0.7455,3.5973,-0.1476,2.6658
223,-0.6891,0.8704,0.7506,9.1851,-1.1095,4.7879
236,-0.7662,0.8777,0.7856,14.208,-3.0331,8.6505
278,-0.7367,1.011,0.8207,3.8111,-28.3156,-7.0594
290,-0.6022,1.0332,0.8822,-19.3951,-38.9263,-0.7388
304,-0.43,0.8423,0.8383,-23.5172,-41.3385,-6.525
317,-0.4105,0.805,0.7294,-31.6851,-36.6362,-14.4182
330,-0.4364,0.8248,0.6134,-37.3187,-23.8728,-22.7998
343,-0.5045,0.938,0.6347,-33.5935,-8.453,-20.3571
383,-0.7645,0.8252,0.7033,6.8798,0.7684,-4.296
397,-0.7086,0.8978,0.5392,-7.3951,-1.0789,-10.6014
410,-0.7389,0.9324,0.7465,-4.0973,4.1577,-4.9373
423,-0.8028,0.8775,0.7006,-54.5401,-4.9568,-22.067
436,-0.8912,0.7718,0.2785,-39.7004,10.3867,-24.4334
449,-0.871,0.8262,0.2646,-9.9447,31.5012,-17.0747
489,-0.649,0.7122,0.9323,23.9027,26.8142,2.9711
503,-0.5047,0.9761,0.8649,59.582,33.715,16.6353
516,-0.6061,0.8709,0.9198,23.7653,20.5547,8.9864
529,-0.6913,0.7166,0.6054,2.4828,19.9745,-0.4487
542,-0.7335,0.8711,0.7023,11.521,4.9516,-0.2655
555,-0.6539,0.8514,0.8109,-9.4867,0.3409,-1.0747
596,-0.6979,0.814,1.0048,60.1927,-13.3232,24.1925
609,-0.6961,0.7674,0.9345,5.0782,-48.5904,-5.8991
622,-0.7484,0.854,0.7934,2.8034,-52.1782,-3.2731
635,-0.6695,1.044,0.6899,-1.0744,-47.9644,13.0169
648,-0.5069,0.9749,0.7113,-13.1202,-39.1553,20.5131
661,-0.4369,0.9729,0.6256,-12.2653,-25.0789,20.9406
702,-0.7279,0.8936,0.8329,-34.0515,-4.4835,-6.525
715,-0.8517,0.7198,0.7462,-19.9905,-16.1018,-16.922
728,-0.7308,0.752,1.0783,13.9179,-15.827,-10.9067
741,-0.7184,0.8096,0.7921,-13.7462,-6.6667,-12.9678
754,-0.6952,0.7803,0.4987,-20.937,-14.9873,-18.754
767,-0.7101,0.8267,0.7199,5.4904,-3.995,-4.8609
808,-0.722,0.98,0.7521,45.7195,2.5547,-10.6777
821,-0.7435,0.5315,0.3715,-53.6851,3.6997,-37.9754
834,-0.65,0.9588,0.8097,-18.9828,7.5928,-26.1281
847,-0.6278,0.9991,0.7431,4.0553,12.173,-17.0136
859,-0.6178,0.9922,0.9777,11.521,12.8447,-12.5556
872,-0.6957,0.9246,0.7929,10.5897,8.5852,-6.9373
913,-0.5282,1.1399,0.6669,13.4752,14.7226,31.0169
927,-0.5831,0.9082,1.0356,-4.0363,11.3944,27.7956
940,-0.6441,0.7054,0.9721,-1.334,0.4783,17.2612
953,-0.7599,0.4256,1.0573,-9.4867,6.7989,18.8185
966,-0.6551,0.5933,0.8925,14.8798,0.4325,22.1314
979,-0.6671,0.8045,0.7709,66.4523,4.4783,26.4368
1019,-0.7049,0.6297,0.9213,59.7042,-4.1324,7.7192
1033,-0.7401,1.1824,0.7152,44.4828,-3.8118,-10.2655
1046,-0.6449,1.1333,0.5019,-15.9294,-5.0179,-21.3037
1060,-0.7315,0.3462,0.7685,-50.5706,-7.3995,-47.8228
1072,-0.7574,0.7957,0.6379,-68.3569,-3.1858,-43.609
1085,-0.6878,1.1565,0.6835,-49.6851,3.1959,-31.0747
1126,-0.6344,1.0174,0.609,-18.3111,33.0432,-1.8991
1139,-0.6676,0.9368,0.4162,11.0172,35.3333,14.5437
1152,-0.5672,0.9893,0.9919,13.0172,24.631,17.765
1165,-0.6222,1.2718,0.4535,19.1546,19.776,26.2231
1178,-0.7269,0.7745,0.903,-27.6241,7.0279,10.1314
1191,-0.6219,0.7811,1.0248,6.9256,12.3104,16.2841
1232,-0.7352,0.5933,0.6938,-2.7386,-6.0255,5.2002
1244,-0.7008,0.8487,0.7182,19.3378,-3.2621,2.1314
1258,-0.6744,0.887,0.7187,16.6355,-0.2698,4.4063
1271,-0.6849,0.8528,0.7023,11.3836,0.2646,4.3452
1283,-0.6776,0.876,0.7174,7.2309,0.7837,3.078
1297,-0.683,0.9007,0.726,5.521,1.2417,2.5589
1338,-0.6634,0.8887,0.7318,-11.6241,1.9134,-7.4563
1351,-0.6676,0.8829,0.7309,-13.9294,2.1119,-10.067
1364,-0.683,0.8724,0.7353,-12.6775,2.7531,-9.6243
1377,-0.6708,0.8645,0.7238,-8.2195,3.1501,-8.1128
1390,-0.683,0.8558,0.7348,-14.6317,2.631,-7.0441
1403,-0.66,0.8875,0.7345,-17.2424,1.8218,-2.922
1443,-0.6644,0.8707,0.736,-9.5477,3.6539,3.6887
1456,-0.673,0.8575,0.7343,-2.2195,2.9974,6.6963
1470,-0.6722,0.8577,0.7343,1.4752,2.1272,7.7803
1483,-0.672,0.8658,0.7255,6.6813,1.4096,7.5513
1496,-0.6742,0.8931,0.7231,4.834,-0.3766,5.8566
1509,-0.6773,0.8941,0.7358,-11.3035,-2.0866,-1.1968
1550,-0.6698,0.8526,0.7304,-8.5096,-0.0102,-1.7464
1563,-0.6669,0.8455,0.7318,1.4446,-0.0408,2.849
1575,-0.672,0.8533,0.7314,11.8416,0.4631,6.1009
1588,-0.6705,0.8753,0.7267,16.0706,0.0508,6.3452
1602,-0.673,0.8907,0.7267,8.208,-0.6209,1.2612
1615,-0.6732,0.8894,0.7275,-5.8836,-1.4301,-6.4334
1656,-0.6708,0.8472,0.7311,-1.4867,-0.453,-4.6624
1669,-0.6725,0.856,0.737,5.4141,-0.9568,-0.5861
1682,-0.6671,0.8594,0.7294,10.1011,-1.6896,2.4673
1695,-0.6661,0.8628,0.7336,13.0477,-1.7354,5.3223
1707,-0.6683,0.8865,0.7267,9.6584,-1.6591,5.704
1720,-0.6717,0.868,0.7318,0.9256,-0.9568,2.8643
1761,-0.6671,0.8694,0.7333,9.6431,0.8753,4.2078
1774,-0.6642,0.8685,0.7304,12.0401,0.6921,4.4215
1787,-0.6727,0.8768,0.7292,7.1088,-0.3003,2.8948
1801,-0.6737,0.8836,0.7311,1.7653,-0.9721,0.0551
1814,-0.673,0.8819,0.7287,-6.7233,-1.2621,-2.693
1826,-0.6756,0.8782,0.7387,-2.876,-0.8347,-2.1434
1868,-0.6683,0.8709,0.7348,1.353,0.3867,1.1085
1881,-0.6715,0.8719,0.7314,0.8034,-0.4072,0.8185
1892,-0.6683,0.8851,0.7299,-1.9447,-0.8805,-0.4029
1906,-0.6744,0.8802,0.7284,-4.3722,-1.6286,-2.464
1919,-0.6678,0.8755,0.7328,-4.3722,-1.3385,-2.9525
1932,-0.6669,0.8685,0.7367,-2.2042,-1.3995,-1.2884
1972,-0.6669,0.8707,0.7345,-4.937,-0.0713,0.3299
1986,-0.6703,0.8687,0.7372,-3.4561,0.4173,0.2994
1999,-0.6688,0.8716,0.7321,-1.7004,-0.1934,0.62
2012,-0.6681,0.8699,0.7321,-4.937,-0.6515,-0.5403
2024,-0.6764,0.8702,0.7367,-4.8302,-0.1782,-1.3495
2038,-0.669,0.8685,0.7355,-1.166,-0.1018,-0.6014
2079,-0.6756,0.8611,0.7428,1.8569,1.2875,2.1773
2091,-0.6703,0.8726,0.734,1.8874,0.5547,1.6734
2104,-0.6752,0.8714,0.7314,1.3988,-0.3461,0.9711
2118,-0.6693,0.8692,0.7367,2.6507,-0.1018,1.3528
2131,-0.6678,0.8694,0.7284,2.2691,-0.3614,1.6429
2144,-0.6693,0.8765,0.7296,3.2614,-0.3614,1.9177
2185,-0.6756,0.8741,0.7375,3.7042,0.5547,0.3299
2197,-0.6715,0.8821,0.7392,0.0401,0.1272,-1.2884
2210,-0.6752,0.8687,0.7338,-2.2042,-0.285,-2.0976
2223,-0.6747,0.8719,0.7387,-0.479,-0.056,-0.9067
2235,-0.67,0.8714,0.7401,0.5286,-0.7736,0.3299
2248,-0.6634,0.8704,0.7316,-0.5554,-0.8652,0.6963
2288,-0.6715,0.879,0.7333,1.6736,0.2035,1.9635
2301,-0.6727,0.8755,0.7372,1.8874,0.1119,0.8032
2315,-0.6686,0.8804,0.7377,-0.0668,-0.3003,-0.922
2328,-0.6698,0.8709,0.7336,-1.7157,-0.2087,-1.7464
2341,-0.6695,0.8738,0.7355,0.2843,-0.6667,-0.9067
2352,-0.6678,0.8687,0.7353,-0.5859,-0.4377,-0.8915
2394,-0.6669,0.8787,0.735,4.8645,-0.1629,1.7956
2406,-0.67,0.877,0.7277,5.582,-0.4224,0.9253
2419,-0.6588,0.8897,0.7331,3.6126,-0.6667,0.1162
2432,-0.669,0.8782,0.7421,2.7729,0.3409,0.5589
2446,-0.6712,0.8787,0.7365,2.1622,0.7531,0.1773
2459,-0.6669,0.8777,0.7331,0.9256,0.5089,-0.2197
2500,-0.6739,0.8709,0.7414,0.1317,0.2646,1.2002
2512,-0.6698,0.877,0.7331,1.292,0.6921,2.4673
2526,-0.6664,0.8794,0.7345,-0.1126,0.2035,1.9788
2539,-0.659,0.876,0.7336,0.5744,0.0203,1.704
2551,-0.6642,0.8782,0.7326,-0.4332,0.6005,0.6811
2564,-0.6717,0.8846,0.7358,-0.7233,0.4478,-0.3266
2606,-0.672,0.8775,0.7375,-1.0439,0.1882,0.0704
2618,-0.6742,0.8792,0.7355,-0.3111,-0.5598,0.7116
2630,-0.6673,0.8858,0.7353,-0.6164,-0.5598,0.6353
2643,-0.6637,0.8782,0.736,-5.2576,-0.7278,-0.067
2656,-0.6693,0.879,0.745,-4.1126,0.005,-0.235
2669,-0.6708,0.8858,0.7406,-2.9981,0.1119,-0.3113
2710,-0.6671,0.8763,0.7384,0.9103,0.0508,1.307
2723,-0.6639,0.8736,0.7382,1.8569,0.0814,1.7498
2736,-0.6637,0.8836,0.7321,-0.708,-0.0713,1.5208
2748,-0.6651,0.8829,0.7355,-1.9905,-0.0866,0.162
2761,-0.6708,0.8804,0.7392,1.0935,0.2188,-0.1892
2774,-0.6632,0.8819,0.7406,-2.9218,0.2646,-0.8456
2815,-0.6683,0.879,0.7372,0.666,0.2493,0.6963
2828,-0.6669,0.878,0.736,0.666,0.3256,0.8948
2840,-0.6688,0.8853,0.7379,-0.1737,0.0508,0.7574
2852,-0.6705,0.8865,0.735,-0.5554,-0.2545,0.2078
2865,-0.6656,0.8763,0.7372,-3.8378,-0.2087,-0.7998
2878,-0.6715,0.8777,0.7377,-2.2653,-0.3003,-0.4029
2918,-0.6651,0.8753,0.736,-3.2271,-0.5446,-0.4182
2931,-0.669,0.8702,0.7343,-2.3264,-0.3614,0.2078
2945,-0.6676,0.8689,0.7355,-0.0515,0.5241,1.5055
2958,-0.6666,0.8753,0.7401,2.1775,0.8447,2.5589
2971,-0.6656,0.8775,0.736,2.8187,0.8447,3.4597
2983,-0.6708,0.8733,0.7392,3.0324,0.7379,3.5055
3025,-0.6654,0.8912,0.7348,-4.4027,-0.285,-2.6777
3038,-0.6686,0.8819,0.7372,-4.1584,-0.1629,-2.9831
3051,-0.6717,0.8682,0.7382,-1.1966,-0.1934,-1.4563
3063,-0.6681,0.8667,0.7372,-0.4332,-0.1782,0.3757
3075,-0.6666,0.8714,0.7394,1.292,0.0814,2.0551
3088,-0.6654,0.8763,0.7392,3.8569,0.4783,2.9711
3129,-0.6654,0.8863,0.7353,-1.2424,0.0508,-1.0441
3143,-0.6681,0.8858,0.7328,-2.2347,-0.3614,-1.8533
3156,-0.6703,0.8755,0.7379,-2.7538,-0.7125,-1.6243
3169,-0.6712,0.8707,0.7399,-0.9981,-0.3766,-0.4334
3181,-0.6732,0.8738,0.7392,-1.1508,-0.2087,0.8337
3193,-0.6693,0.8787,0.7377,0.2843,0.2951,1.9024
3235,-0.6629,0.8819,0.7326,0.4675,0.173,0.2689
3247,-0.6698,0.887,0.7338,-4.418,-0.4682,-2.7082
3260,-0.6708,0.879,0.7377,-5.9599,-0.2392,-3.838
3274,-0.6647,0.8736,0.7401,-5.3035,-0.1018,-3.3189
3287,-0.6698,0.8724,0.7375,-2.9523,-0.4377,-1.6701
3300,-0.6639,0.8692,0.7411,-1.334,-0.0255,0.0246
3340,-0.6686,0.8743,0.7384,2.0248,0.6921,2.1467
3354,-0.6705,0.8799,0.7423,0.3301,0.3562,0.3757
3367,-0.671,0.8863,0.7399,-1.7309,-0.1934,-1.1357
3380,-0.6629,0.8785,0.7438,-2.5706,-0.3919,-1.2579
3392,-0.6654,0.8775,0.7387,-1.7615,-0.3308,-1.0136
3405,-0.6698,0.8728,0.7428,0.2233,0.0661,-0.4029
3447,-0.6647,0.8772,0.7384,3.4599,0.5852,0.5589
3459,-0.6666,0.8787,0.7367,2.5439,0.5241,0.6811
3472,-0.6681,0.879,0.7343,0.2996,0.4631,0.4673
3485,-0.6676,0.8809,0.7365,-2.7844,-0.1324,-0.3571
3498,-0.6678,0.8804,0.7377,-1.3798,0.234,-0.1892
3510,-0.6717,0.8794,0.7379,-1.1966,0.5394,-0.7846
3552,-0.6659,0.8748,0.7382,-3.4714,-0.7431,-2.6624
3565,-0.6669,0.8731,0.7394,-3.8531,-0.3003,-1.7769
3577,-0.67,0.8687,0.7426,-1.4714,0.1119,-0.2655
3590,-0.6607,0.8772,0.7367,-0.1737,-0.0255,0.5284
3602,-0.6683,0.8736,0.7365,0.3149,0.3714,1.1391
3616,-0.6712,0.8782,0.7358,0.6355,-0.0866,0.9406
3656,-0.6671,0.8716,0.735,0.7729,0.0966,0.6047
3669,-0.6647,0.8785,0.7358,-0.5859,0.4783,0.0246
3682,-0.6693,0.8748,0.7299,-0.7996,0.3714,0.1773
3693,-0.6654,0.8758,0.735,0.895,0.0814,0.5742
3705,-0.6688,0.875,0.7372,2.0248,-0.1018,1.1391
3719,-0.6654,0.8807,0.7336,-1.5783,-0.1018,0.6505
3759,-0.662,0.8785,0.7379,-0.2806,0.6921,-0.9678
3772,-0.6678,0.8763,0.7338,-0.4485,0.5241,-1.5632
3786,-0.6715,0.876,0.7397,-0.937,-0.3308,-1.6243
3799,-0.6698,0.8711,0.737,-2.4485,-0.8652,-1.2884
3812,-0.6644,0.8677,0.7355,-2.2653,-0.3461,-0.3418
3824,-0.6666,0.878,0.7377,-0.4027,-0.1782,0.9864
3866,-0.6695,0.8807,0.7358,1.0324,0.8753,-0.3113
3878,-0.6615,0.8746,0.7331,-1.6393,0.0356,-1.38
3891,-0.6688,0.8738,0.7399,-1.6699,0.0814,-1.2731
3904,-0.669,0.8741,0.7404,0.7271,0.3867,0.2536
3917,-0.6678,0.8785,0.7394,2.1622,0.5089,1.5513
3930,-0.6678,0.8787,0.736,0.7882,0.3714,1.4597
3970,-0.6686,0.8765,0.7416,-3.2576,-0.6056,-0.5708
3984,-0.6669,0.878,0.7406,-1.6546,0.0814,-0.8304
