time_ms,ax,ay,az,gx,gy,gz
11,-0.6507,0.9329,0.7477,1.063,0.173,0.0551
24,-0.6529,0.9322,0.7521,0.2385,0.3104,-0.0212
36,-0.6527,0.9268,0.7521,-0.3874,-0.2087,-0.0365
78,-0.6505,0.9366,0.7521,1.8721,-0.056,0.162
91,-0.649,0.9305,0.7494,-0.2806,0.3714,-0.3571
103,-0.6505,0.9285,0.7477,-0.7233,0.0508,-0.6319
116,-0.6517,0.9329,0.7504,-2.876,-0.0408,-1.7464
129,-0.651,0.9241,0.7536,-1.2729,0.0356,-1.0441
142,-0.65,0.93,0.7548,0.4217,-0.2087,0.0704
183,-0.6515,0.9307,0.7511,-2.25,-0.4377,-0.1128
195,-0.651,0.9266,0.7497,-0.876,0.2188,-0.1128
209,-0.6471,0.9334,0.7482,-0.3264,0.173,-0.1739
221,-0.6561,0.9312,0.7492,-0.8454,0.2646,-0.4487
233,-0.6544,0.9251,0.756,1.063,0.6005,0.1467
245,-0.6583,0.9229,0.7602,2.4981,0.9211,1.7956
287,-0.669,0.9285,0.8456,-2.021,-8.8652,-1.5785
300,-0.6761,0.9388,0.8205,-6.7538,-14.5598,-2.067
313,-0.6341,0.9581,0.8632,-8.7386,-20.5446,6.7269
326,-0.6278,0.826,0.9482,-5.7767,-27.5369,12.4368
338,-0.5907,0.8934,0.7978,7.4294,-28.8957,14.1467
352,-0.5314,0.907,0.7414,-11.563,-25.0331,10.8948
393,-0.5853,1.0303,0.7189,-18.4027,-7.4911,9.7192
406,-0.6376,1.0267,0.7743,-31.792,-9.7812,6.5895
419,-0.6747,0.9656,0.8058,-43.0134,-14.1018,-0.9983
432,-0.6395,0.9478,0.829,-55.7767,-20.3766,-11.1968
444,-0.5738,0.8663,0.7638,-66.5248,-23.6438,-23.9449
458,-0.4588,0.9117,0.63,-69.7767,-16.1782,-30.0518
498,-0.9728,0.8543,0.9447,-60.8302,-17.598,-29.8686
512,-0.8817,0.8597,0.8014,-22.8302,-9.9492,-9.4716
525,-0.7333,0.8602,0.7736,-10.4943,-0.8652,-3.0136
537,-0.7809,0.8953,0.5409,-1.2576,6.8142,0.4063
550,-0.7982,0.7552,0.4504,10.6202,18.9363,4.9101
563,-0.8651,0.9585,0.1972,47.3378,43.6997,22.8337
605,-0.6534,0.6883,0.8669,51.7195,59.5165,-7.6853
617,-0.6085,1.2093,0.9953,62.3301,48.2951,19.8566
630,-0.5455,0.879,0.9062,56.834,45.8829,22.9253
643,-0.5216,1.0289,0.8,16.8645,24.0356,1.5971
657,-0.7066,0.9908,0.6691,4.4828,14.8142,-0.5861
670,-0.5885,0.9139,0.8883,-2.2195,7.1959,-1.3037
710,-0.6676,0.9612,0.7887,46.3454,0.4631,12.4521
724,-0.6632,0.8946,0.789,32.8492,2.1119,14.1925
737,-0.6285,0.8599,1.1293,13.2462,-25.7507,9.3528
750,-0.6146,0.9742,0.9552,-3.8683,-36.3766,-0.0365
763,-0.7452,0.9632,0.9335,-19.1355,-48.285,-3.2731
775,-0.7042,1.0562,0.8612,-85.5935,-60.4072,-12.9831
817,-0.4344,0.9312,0.5653,-61.6088,-35.3537,-7.4258
830,-0.4515,0.9107,0.6623,-44.2805,-23.1553,-10.4945
843,-0.5707,0.856,0.6869,-49.5172,-14.1782,-18.2044
855,-0.6759,0.9173,0.7121,-64.0821,-6.3003,-23.6243
869,-0.9928,1.0225,0.8942,-58.6928,-17.1095,-14.6777
881,-0.8722,0.762,0.7401,-37.2729,-19.5675,-14.6624
923,-0.6373,0.7854,0.8324,-24.7538,-17.9492,-17.8838
935,-0.7098,1.1541,0.3698,13.3836,-7.8881,-6.2044
949,-0.6981,0.389,0.8891,11.063,-9.7354,-24.6319
962,-0.565,0.1353,0.7253,12.8492,-4.6515,-34.296
974,-0.6415,0.5633,0.5287,5.7194,-1.4911,-28.3418
988,-0.8548,0.6131,0.984,34.8034,1.3638,-32.1434
1029,-0.6183,1.2085,0.9411,106.91,17.1195,16.0246
1042,-0.7294,0.9043,0.6737,87.3988,13.0432,4.6658
1054,-0.6105,1.0533,0.913,32.2691,13.2111,-1.8686
1067,-0.617,0.8362,0.7697,7.2156,17.5776,-2.0518
1080,-0.6258,0.9927,0.778,-1.3798,30.7989,16.2841
1094,-0.7853,1.0684,0.7045,-23.6241,30.7073,17.6582
1134,-0.6241,0.854,1.0692,21.0477,22.631,47.704
1147,-0.6588,0.7828,1.2694,-16.021,15.1043,33.9788
1160,-0.4911,0.9861,0.9467,-15.2118,17.318,38.0246
1173,-0.6141,0.479,0.7643,1.0477,6.4631,21.7956
1186,-0.5865,0.4871,0.84,7.4294,-4.682,4.4063
1200,-0.6285,0.5972,0.8232,8.5133,-0.7431,-1.151
1240,-0.7511,0.7979,0.7475,17.4141,-8.911,-12.7235
1254,-0.5587,0.8707,0.8407,8.0248,-9.5369,-24.7846
1267,-0.5182,0.6678,0.6266,25.8416,-16.1018,-34.3113
1280,-0.651,0.4065,1.1403,24.895,-14.6973,-43.7159
1293,-0.5377,1.5704,0.974,83.1698,-4.6667,-16.2044
1306,-0.7079,1.2449,0.8776,127.246,2.3562,-0.7998
1347,-0.7494,1.0496,0.568,37.9179,14.0203,-6.4487
1360,-0.775,0.9222,0.2328,71.1851,18.7531,-9.1815
1373,-0.7992,1.085,0.8371,68.2843,24.234,-0.6014
1386,-0.6031,1.052,0.5502,54.8034,45.4707,9.536
1398,-0.5782,1.0611,0.904,17.3378,42.2493,11.1238
1412,-0.4686,0.9649,0.9718,10.4828,48.5241,37.4902
1453,-0.548,1.2793,0.7455,-2.1737,7.486,31.4292
1466,-0.6295,0.9742,0.8673,-38.9218,1.4707,16.4368
1479,-0.6529,0.9539,0.6845,-27.2882,2.7837,26.9864
1492,-0.63,0.4812,0.8969,-22.6012,4.7837,9.5513
1504,-0.7928,0.4666,0.8358,-31.6699,-2.0866,-20.0365
1518,-0.722,0.7884,0.7018,4.5591,-2.1476,-8.4182
1559,-0.6546,0.9014,0.745,10.1622,1.0585,13.6582
1571,-0.6564,0.9053,0.7504,11.4752,2.0814,13.246
1585,-0.6551,0.9375,0.7367,3.7958,2.0356,8.9559
1597,-0.6703,0.9183,0.7475,-3.8989,1.0279,3.4597
1611,-0.6676,0.9256,0.7421,-7.5783,-0.224,-1.2273
1624,-0.6617,0.9153,0.7406,-7.105,-0.6667,-3.6701
1664,-0.6529,0.9078,0.7394,1.8111,-0.0102,2.1467
1677,-0.6576,0.9095,0.7421,4.3607,-0.6362,3.6734
1690,-0.6603,0.9197,0.7443,2.3759,0.4325,3.0017
1704,-0.6578,0.9217,0.7419,-0.6164,0.005,2.2536
1717,-0.6593,0.9144,0.7465,-0.6012,-0.5598,2.0398
1729,-0.6583,0.9153,0.7511,0.2691,0.1272,2.7727
1771,-0.6625,0.9058,0.7499,4.9714,0.6463,1.9024
1784,-0.6612,0.9124,0.7465,3.8569,0.8295,3.2002
1796,-0.6612,0.9187,0.7401,5.4904,0.9669,4.7879
1809,-0.6559,0.9371,0.7375,2.4217,0.173,3.5818
1822,-0.6603,0.9185,0.7419,-2.4332,0.0203,1.6734
1836,-0.6583,0.918,0.745,-0.7691,0.0966,0.849
1876,-0.6544,0.9319,0.7401,-1.792,0.2035,-0.1281
1890,-0.6634,0.9288,0.7414,-5.5783,-0.7583,-1.5785
1903,-0.6561,0.9178,0.747,-11.4714,-0.453,-2.7082
1916,-0.6598,0.9092,0.746,-5.9141,0.2951,-1.8991
1928,-0.6544,0.9119,0.7438,-1.7004,0.5547,-0.3876
1942,-0.65,0.9136,0.7409,1.582,0.6768,0.5284
1983,-0.6542,0.9327,0.7419,0.0095,0.9211,1.8719
1995,-0.6634,0.9212,0.7484,-1.0592,0.0508,1.2918
2009,-0.652,0.9239,0.7365,-0.1279,-0.2087,0.6658
2022,-0.6647,0.9253,0.7397,-0.4638,-0.224,-0.6166
2033,-0.6603,0.9273,0.7404,-2.2042,-0.8041,-2.922
2046,-0.6551,0.9297,0.7353,-3.1355,-1.4301,-3.6701
2087,-0.6564,0.9112,0.7401,4.3912,-0.1171,1.7803
2100,-0.6554,0.92,0.7397,5.4752,0.234,3.1696
2114,-0.6539,0.9212,0.7331,5.6431,0.4631,3.1696
2126,-0.6561,0.9278,0.737,2.5439,-0.0102,1.704
2140,-0.6556,0.9209,0.7465,-1.4103,-0.1934,-0.4029
2153,-0.6564,0.9246,0.7472,-2.0668,-0.453,-1.5632
2193,-0.6539,0.9122,0.7384,2.8798,-0.4072,0.1467
2207,-0.6564,0.9173,0.7428,2.7882,-0.6515,0.6047
2219,-0.6515,0.9209,0.7455,3.6431,0.2188,1.2918
2232,-0.6503,0.9192,0.7392,5.4904,0.1272,1.536
2245,-0.6571,0.9339,0.7453,5.0324,0.5547,0.5131
2259,-0.6573,0.948,0.7331,-2.6775,-0.3614,-1.6701
2299,-0.6542,0.9139,0.7345,-1.2424,-0.5904,-1.4716
2313,-0.6546,0.92,0.7431,0.8798,-0.1629,-0.7082
2326,-0.6568,0.9212,0.7436,2.7882,0.2188,-0.0976
2338,-0.6522,0.9266,0.7401,1.0935,0.2035,0.0856
2352,-0.662,0.9222,0.7441,0.2538,0.005,-0.1434
2365,-0.6586,0.92,0.7394,2.5897,-0.0102,0.8185
2406,-0.6544,0.9234,0.7472,2.7271,0.1272,0.3452
2419,-0.651,0.9258,0.7404,2.5439,0.2646,0.2231
2432,-0.6505,0.9324,0.7382,-2.4027,-0.0713,-0.8151
2444,-0.6576,0.919,0.7379,-2.2806,0.1119,-0.6472
2458,-0.6583,0.9161,0.746,-2.479,-0.4072,-0.1434
2470,-0.6571,0.92,0.7419,-0.8302,0.0203,0.4979
2512,-0.66,0.919,0.7443,2.6049,0.4325,0.4521
2525,-0.6564,0.9224,0.7443,4.5591,0.6768,1.2307
2537,-0.65,0.9241,0.7372,7.4294,0.3867,2.8032
2550,-0.6542,0.9327,0.7406,1.7347,-0.3003,1.4597
2563,-0.6576,0.9297,0.7489,-2.708,-0.1018,-0.0365
2576,-0.6534,0.9224,0.7448,-1.334,0.173,-0.693
2617,-0.6576,0.9273,0.7345,0.0095,-0.1934,-0.1892
2630,-0.659,0.9178,0.7436,-2.1737,-0.5751,-0.464
2644,-0.6581,0.9205,0.7409,-0.6622,-0.0102,-0.0365
2657,-0.6542,0.92,0.7409,1.1546,-0.1324,0.9864
2669,-0.6527,0.93,0.7411,2.437,0.173,0.9253
2682,-0.6561,0.9185,0.7419,-0.2195,0.2188,0.5895
2723,-0.6495,0.9229,0.7306,-0.4332,-0.1934,-0.1434
2736,-0.6551,0.9207,0.7448,-2.418,-0.8499,-0.6166
2750,-0.6644,0.9173,0.7499,-0.3416,-0.1782,0.5131
2762,-0.6517,0.9292,0.7375,0.834,0.0661,1.5513
2775,-0.6542,0.9258,0.7387,1.5057,0.6768,1.2612
2789,-0.6576,0.9251,0.7399,1.0477,0.3714,0.4979
2829,-0.6568,0.9209,0.7462,-2.647,-0.285,-2.3113
2842,-0.6564,0.9197,0.7423,-0.021,-0.2545,-1.1968
2856,-0.6507,0.9136,0.7401,-0.418,0.1119,-0.4029
2868,-0.6546,0.9173,0.7445,2.6507,0.6157,1.6276
2881,-0.6564,0.9239,0.7458,2.4217,0.4783,2.5742
2895,-0.6561,0.9285,0.7338,-0.0057,0.1272,1.2307
2936,-0.6466,0.9214,0.7384,2.3912,0.7226,-0.7082
2948,-0.6632,0.9161,0.7455,0.5591,0.2798,-0.9525
2962,-0.6583,0.9229,0.7389,1.6278,0.631,1.3376
2975,-0.6556,0.9258,0.7392,2.0401,0.3867,1.8719
2987,-0.6539,0.9278,0.7431,-1.4561,-0.0866,0.5589
3001,-0.6568,0.9234,0.7441,-0.8912,0.3104,0.6047
3042,-0.6524,0.9258,0.7453,4.0859,0.7837,1.6276
3054,-0.6532,0.9214,0.7467,4.5591,1.1348,1.8872
3067,-0.6564,0.9327,0.7399,1.8569,0.3409,1.6582
3081,-0.6551,0.9351,0.737,0.4981,-0.0102,1.0169
3093,-0.6568,0.9273,0.7421,-0.3111,0.3409,0.7574
3107,-0.6595,0.9273,0.7419,1.6889,0.5394,1.475
3147,-0.6559,0.9383,0.7394,0.6813,0.4478,0.7116
3161,-0.6595,0.9297,0.7384,-1.334,-0.224,-0.5098
3174,-0.6546,0.9212,0.7401,-2.2958,-0.285,-0.5861
3187,-0.6573,0.9234,0.7314,-1.8683,0.4631,-0.3571
3200,-0.6537,0.9268,0.7436,1.1393,0.0814,0.4673
3213,-0.6588,0.9302,0.7428,3.5973,0.6157,1.3376
3253,-0.6578,0.9344,0.735,-0.8454,0.2188,-0.1892
3267,-0.6537,0.9295,0.7362,-3.4103,-0.453,-0.7388
3280,-0.6564,0.9278,0.7365,-2.9676,-0.4072,-0.4182
3292,-0.6537,0.9283,0.7443,-1.1966,-0.3614,0.1925
3305,-0.6542,0.9241,0.7409,2.3454,0.005,0.8948
3318,-0.6498,0.9319,0.7394,4.2385,0.9669,1.0475
3359,-0.6532,0.9397,0.7379,-2.418,-0.3308,-0.9983
3372,-0.651,0.9302,0.7345,-2.4332,-0.2545,-0.9373
3386,-0.6551,0.9266,0.7375,-1.8683,-0.0713,-0.3876
3398,-0.6578,0.9234,0.7416,-0.8454,-0.0408,-0.0823
3411,-0.6566,0.9307,0.7453,0.9561,0.2188,0.1162
3423,-0.6556,0.9322,0.7389,0.9561,-0.1629,-0.4792
3464,-0.6542,0.9319,0.7367,-1.3645,-0.224,-0.8915
3477,-0.6534,0.9256,0.7431,-1.4256,-0.1171,-0.6166
3489,-0.6559,0.9227,0.7406,-1.0439,0.0508,0.2231
3503,-0.6607,0.9273,0.7414,0.3301,0.1882,0.4979
3515,-0.6566,0.9319,0.7421,0.8645,0.1119,0.391
3527,-0.6551,0.9307,0.7358,0.666,0.2493,-0.3571
3567,-0.6544,0.9266,0.7445,-1.6546,0.1577,-1.0899
3580,-0.6573,0.9246,0.7448,0.0401,0.4783,0.2994
3593,-0.6622,0.9324,0.7445,0.8645,0.6463,1.6276
3606,-0.6568,0.9263,0.7377,1.4446,0.4478,1.3223
3619,-0.652,0.9327,0.7375,0.834,0.3409,0.4368
3631,-0.6583,0.9375,0.736,-1.7767,-0.1171,-1.0899
3673,-0.6546,0.9302,0.7421,-1.0439,-0.5293,-0.5556
3686,-0.6588,0.9275,0.7426,-1.4409,0.0356,-0.1586
3698,-0.6546,0.9239,0.7445,-0.0363,0.1577,0.5742
3711,-0.6542,0.9246,0.7384,0.0706,0.2035,0.9711
3724,-0.6503,0.9261,0.7448,0.1622,0.4173,0.8032
3736,-0.6583,0.9334,0.7411,0.9561,0.2188,0.2078
3777,-0.6537,0.9251,0.7382,-0.9676,-0.1782,-0.2044
