time_ms,ax,ay,az,gx,gy,gz
12,-0.6912,1.0468,0.6647,1.2455,1.2164,0.656
26,-0.6944,1.0483,0.669,1.3523,1.3844,0.3507
67,-0.6959,1.0478,0.662,-1.6553,2.2699,-1.344
80,-0.6981,1.0414,0.6512,-0.6477,1.1248,-0.5654
93,-0.7044,1.0461,0.6588,1.4897,1.1248,0.3965
105,-0.6976,1.0446,0.6585,2.2836,0.2241,1.7552
118,-0.6951,1.05,0.6649,1.276,-1.15,0.4423
132,-0.6964,1.0536,0.6566,-0.6782,-1.6996,-1.0387
173,-0.6964,1.0419,0.6634,0.3905,-1.4859,-1.115
185,-0.6964,1.0382,0.6617,1.5203,-0.5546,1.0682
198,-0.6937,1.0541,0.6605,-0.3271,0.0409,0.8545
212,-0.6993,1.0434,0.672,-1.4263,-0.2187,-0.5501
225,-0.699,1.0461,0.6615,-0.9988,-0.0355,-1.1608
238,-0.7149,1.0715,0.6732,-7.3805,-1.7607,-3.0845
279,-0.6878,1.0331,0.7137,-45.3958,7.4149,-17.2829
292,-0.6463,1.1381,1.9149,-23.2584,-37.3027,-8.6417
305,-0.9178,1.33,1.0721,-27.8385,-65.5011,27.801
317,-0.7738,1.1239,1.1766,-41.7774,-102.341,52.1674
330,-0.4329,0.8569,0.7098,-43.3042,-109.852,42.5491
343,-0.106,0.6171,0.3627,-38.3729,-83.2721,9.4041
385,-0.4019,0.9606,-0.1195,-38.4339,98.1019,-85.4814
398,-1.2987,1.2221,0.357,-283.533,-94.6004,-75.1303
410,-0.7825,0.5964,0.4173,138.528,15.5065,-2.7638
423,-0.6656,1.1984,0.8609,66.7264,40.2546,-7.9394
437,-0.9974,0.8881,-0.2643,38.2989,39.3538,-11.8173
449,-1.0936,1.0854,-0.6518,80.4668,85.9187,7.6331
491,-0.4781,1.2621,0.3939,12.589,56.7889,18.4728
504,-0.5511,1.5199,0.1666,14.2226,28.2241,38.5797
516,-0.6282,1.1471,0.6249,-3.6553,1.4607,16.7629
529,-0.5594,1.1086,0.8846,-9.8538,-2.5393,7.2209
542,-0.6395,1.08,0.7792,-31.64,5.7508,-11.4661
555,-0.1365,1.0658,1.5799,-27.6858,-26.8141,-8.886
596,0.2782,1.1845,1.0231,-53.869,-100.509,12.3965
609,0.0285,1.0849,0.9452,-130.068,-126.142,-40.9776
622,-1.1475,1.1559,0.0248,-99.579,-73.2721,-10.6112
635,-1.3455,1.2668,-0.518,-6.1591,-40.3408,7.9995
649,-0.6661,0.0905,1.5296,-125.442,-68.1576,-72.1837
661,-0.4764,0.6249,1.2662,-104.48,-37.8065,-54.9471
702,-0.8011,0.9618,0.9061,107.2,-0.7683,-33.4356
716,-0.6185,0.8117,0.3363,-7.182,33.1096,-28.3211
728,-0.6092,1.4677,1.1964,155.536,33.3538,-7.2219
741,-0.837,0.8708,1.1734,105.52,43.7202,-9.3287
754,-0.3114,1.7944,0.8797,12.36,57.079,42.3507
767,-0.3507,1.0431,1.2357,-59.3347,26.5294,51.343
808,-0.7716,0.4699,1.0172,-56.953,18.621,13.4194
821,-0.3448,1.4179,0.7223,0.6806,-7.4248,16.9308
834,-0.5404,0.6535,0.7696,78.4363,-22.0049,15.2667
847,-0.2257,0.528,1.7345,64.1462,-26.4935,17.0377
859,-1.182,1.6752,-1.018,56.3294,3.3691,38.7476
873,-0.5914,0.371,0.9916,23.2302,-40.7683,-45.3898
913,-0.8477,0.8495,0.0868,42.6042,-11.1805,-63.9852
926,-0.784,0.8691,0.3314,44.9096,7.3844,-58.489
940,-0.6707,0.7157,1.277,66.2226,25.2164,-51.2371
953,-0.5208,1.4142,0.4791,55.6729,28.4836,-35.7257
966,-0.5589,1.308,0.8888,-23.7774,30.7431,-29.8936
978,-0.5687,1.6171,-0.1203,0.7569,47.2317,7.0835
1020,-0.1905,0.967,1.2828,50.1004,25.705,46.8239
1033,-1.6156,-0.0951,2.2474,-5.5942,36.2699,21.3583
1045,-0.94,-0.024,0.9676,-1.3805,3.1248,-4.5806
1058,-1.0343,0.1921,1.3124,-57.8996,12.9416,-4.6264
1072,-0.8709,-0.047,1.5577,-151.625,11.476,-1.5119
1084,-0.7586,0.7509,0.6034,-1.5332,4.2851,12.3812
1125,-0.699,1.0287,0.6849,22.0699,5.018,18.1369
1138,-0.7186,1.0461,0.6996,12.9554,1.2622,6.8239
1151,-0.6988,1.0234,0.6778,10.7416,0.1783,1.5262
1163,-0.6949,1.0302,0.6703,6.1768,0.0867,0.3201
1177,-0.7032,1.0246,0.6859,3.0012,-0.0049,-0.7944
1190,-0.6998,1.0126,0.6842,3.902,1.5676,2.2285
1230,-0.7034,1.0321,0.6842,-0.8461,0.3615,1.6026
1244,-0.6956,1.0273,0.6805,-3.1515,0.7279,-0.2753
1257,-0.7003,1.0199,0.6749,0.6958,-0.3103,1.1751
1270,-0.6951,1.0414,0.6849,-2.0675,-1.5622,-0.9623
1283,-0.6998,1.0207,0.6813,-2.7545,-2.0813,-0.9013
1295,-0.6973,1.0246,0.6798,0.9707,-1.3943,0.8087
1337,-0.6934,1.0265,0.6822,-1.4263,-1.6385,-1.3135
1350,-0.6939,1.0238,0.6808,-2.1896,-1.6691,-1.7562
1362,-0.6934,1.0153,0.6908,-0.3423,-1.0126,-0.4432
1375,-0.6929,1.0197,0.6842,1.7035,-0.1576,1.6789
1389,-0.6932,1.0243,0.6825,1.7493,0.4683,1.9079
1402,-0.7005,1.0302,0.682,1.4745,0.8806,0.5949
1442,-0.6903,1.0331,0.6776,4.8943,1.0638,0.3507
1455,-0.6978,1.0309,0.6776,6.6348,1.3691,0.5797
1469,-0.7005,1.0324,0.6791,8.4058,1.247,1.3583
1482,-0.6947,1.0243,0.6839,5.1386,-0.3256,-0.0616
1494,-0.6968,1.0224,0.6778,4.6958,0.0714,-0.3516
1507,-0.6939,1.0304,0.6732,6.65,0.3767,1.3736
1549,-0.7015,1.028,0.6759,1.4134,0.8042,1.5568
1561,-0.6956,1.0256,0.6769,1.1233,1.2775,3.1598
1574,-0.6959,1.0334,0.68,1.8867,1.2928,3.8316
1587,-0.6954,1.0339,0.67,0.9249,1.079,2.427
1600,-0.6988,1.0378,0.6659,0.7111,1.2164,1.1598
1614,-0.691,1.0434,0.672,0.0394,0.3462,-0.3364
1654,-0.6981,1.0287,0.6788,-0.3881,1.5065,0.5033
1667,-0.6961,1.0343,0.6778,-0.1896,1.5981,1.6026
1679,-0.689,1.0263,0.6695,0.7111,0.7279,1.9079
1693,-0.6966,1.0453,0.6654,1.0928,1.2164,1.1293
1706,-0.7008,1.039,0.6725,-2.3729,0.9264,-1.115
1719,-0.6932,1.0326,0.6673,-1.8538,0.1325,-2.3364
1760,-0.6976,1.0285,0.6786,0.818,0.3767,1.4346
1773,-0.6917,1.0263,0.6759,-0.1591,0.7126,1.1598
1786,-0.7012,1.0363,0.6795,-0.6019,1.308,0.9766
1799,-0.6927,1.0297,0.6742,-1.4263,1.6744,-0.0921
1811,-0.6942,1.0326,0.672,-0.8461,0.6515,0.6407
1825,-0.7012,1.0319,0.6756,0.7722,-0.2187,0.6407
1866,-0.6981,1.0307,0.682,-0.8461,-1.4095,-1.2677
1879,-0.6951,1.0317,0.6798,-0.9683,-0.6004,-0.6112
1892,-0.6939,1.0263,0.6842,0.3752,0.3462,0.9155
1905,-0.6956,1.0309,0.6791,0.5737,1.1248,1.0071
1918,-0.6961,1.0273,0.673,0.9554,1.6286,1.343
1930,-0.692,1.0378,0.673,0.5737,1.3538,0.198
1972,-0.6981,1.0256,0.6786,-0.495,-0.5088,-0.1379
1985,-0.692,1.0287,0.6844,0.5584,-0.2492,0.427
1998,-0.6971,1.0292,0.6747,0.5432,0.0103,0.7323
2010,-0.6981,1.0387,0.6725,-0.724,0.2546,-0.5654
2023,-0.6912,1.0331,0.6781,-0.4339,0.1783,-1.6493
2037,-0.6971,1.0312,0.6764,-0.5408,-0.8904,-1.7867
2078,-0.6903,1.0331,0.6808,3.2455,0.6821,2.8087
2090,-0.6976,1.0385,0.6703,2.192,0.5294,1.1446
2103,-0.6973,1.0409,0.6715,1.1539,0.6515,-0.7486
2116,-0.7003,1.0436,0.6759,-0.7393,0.7126,-3.8478
2130,-0.6964,1.0453,0.6769,-1.411,-1.1347,-5.8631
2143,-0.6978,1.0282,0.6786,-3.7011,-0.9362,-6.7638
2183,-0.6956,1.0236,0.6788,4.4974,0.4836,4.6865
2196,-0.6944,1.0375,0.6727,3.6119,0.6973,3.5568
2209,-0.6934,1.0395,0.6783,-0.3118,0.8195,-0.6875
2222,-0.6964,1.0329,0.6847,-3.0751,0.6363,-2.657
2235,-0.6942,1.0275,0.6739,-2.8003,1.1554,-3.0692
2248,-0.6968,1.0214,0.6732,-1.2889,1.0943,-1.1761
2289,-0.6947,1.0343,0.6754,0.421,-0.5393,0.4881
2302,-0.6978,1.0353,0.6795,-1.2736,-0.8294,-2.1379
2315,-0.6937,1.0348,0.6759,-2.4645,-1.1805,-3.9089
2328,-0.6986,1.0253,0.6786,-2.4492,-0.692,-3.344
2341,-0.6993,1.0199,0.6756,-1.5332,-0.4019,-1.3135
2354,-0.6983,1.017,0.681,2.0088,-0.0202,1.1598
2395,-0.6961,1.0297,0.6805,-1.6858,-0.3408,-2.4432
2408,-0.7012,1.0277,0.6788,-2.495,-0.3714,-3.9547
2421,-0.6995,1.0234,0.6778,-1.4568,-0.6156,-2.6264
2433,-0.6978,1.0202,0.6856,0.2378,-0.4782,0.0453
2447,-0.6978,1.0199,0.6856,1.5966,-0.524,2.4575
2460,-0.6917,1.0258,0.6805,1.9936,-0.0965,3.1751
2501,-0.6968,1.0297,0.6795,-2.0828,0.0867,-2.718
2514,-0.7015,1.0224,0.6793,-0.6629,0.392,-1.4203
2527,-0.6993,1.0219,0.6742,2.2684,0.7737,1.4652
2540,-0.6934,1.0263,0.6783,2.1462,0.392,2.9766
2552,-0.7012,1.0304,0.6795,1.734,0.3767,2.8239
2565,-0.6971,1.0353,0.6761,-0.1591,0.4683,0.7171
2607,-0.7017,1.0192,0.6764,1.0317,0.0561,-0.5806
2619,-0.6959,1.0226,0.6822,2.7416,-0.1576,2.3201
2632,-0.6905,1.0268,0.6844,3.0165,0.2241,2.9919
2645,-0.6944,1.037,0.6825,0.7416,0.392,0.6407
2658,-0.6937,1.0419,0.6756,-2.1744,0.8195,-3.6951
2672,-0.6981,1.0299,0.6788,-3.8996,0.0256,-6.5196
2713,-0.699,1.0141,0.683,-0.6019,-0.5088,-2.6264
2726,-0.702,1.0141,0.6805,1.1691,-0.0355,1.0987
2738,-0.6981,1.0243,0.6805,2.4058,0.1477,3.4957
2751,-0.6937,1.0248,0.6756,2.2836,0.3309,3.572
2765,-0.699,1.0302,0.6835,0.4363,0.4836,0.8545
2778,-0.6929,1.0273,0.6856,-0.4339,0.3004,-0.8402
2818,-0.6978,1.0177,0.6778,1.5355,1.0485,2.2896
2831,-0.6973,1.0192,0.6756,2.1768,1.476,4.8392
2844,-0.6964,1.0329,0.6869,1.8714,1.0943,5.0682
2856,-0.6961,1.0341,0.6776,0.2378,0.4683,1.8774
2870,-0.6971,1.0302,0.6766,-1.7011,-0.4019,-2.0921
2883,-0.7005,1.0229,0.6732,-2.037,-0.2645,-2.7486
2924,-0.6929,1.0234,0.6737,2.6348,0.7737,4.7629
2937,-0.6932,1.0373,0.6839,1.2149,0.9722,3.1293
2950,-0.6947,1.0417,0.6761,-1.4263,-0.1576,-1.0997
2963,-0.7005,1.026,0.6747,-2.495,-0.0049,-3.5119
2976,-0.7015,1.0224,0.6771,-1.1515,0.1477,-2.7791
2989,-0.6956,1.019,0.68,0.5126,-0.234,0.427
3030,-0.6944,1.0363,0.6869,0.7111,0.4531,1.801
3043,-0.6949,1.0387,0.682,-2.6019,-0.3561,-2.9623
3056,-0.6961,1.0265,0.6715,-3.0293,-0.4477,-5.2066
3069,-0.702,1.0231,0.6803,-2.6477,-0.1576,-4.489
3082,-0.7,1.0138,0.6793,-0.037,-0.524,-0.8554
3095,-0.6934,1.0192,0.6822,2.3447,-0.8752,3.0987
3136,-0.6981,1.039,0.6847,-1.6858,0.7584,-1.6493
3149,-0.699,1.0295,0.6778,-2.4645,0.5905,-4.0768
3162,-0.6973,1.0185,0.6739,-1.3805,0.4073,-2.5806
3174,-0.7005,1.0126,0.6744,1.4287,0.2851,1.6178
3188,-0.6976,1.0234,0.671,3.276,0.0256,4.2285
3201,-0.692,1.0302,0.6756,2.5584,-0.1729,3.6026
3242,-0.6978,1.0209,0.6813,-1.2278,0.6363,-3.0692
3254,-0.699,1.0216,0.6783,1.1539,1.1401,-0.3211
3267,-0.6986,1.0187,0.6803,2.8027,0.8653,2.5033
3281,-0.6973,1.0295,0.6783,2.7264,0.7889,3.7705
3293,-0.6956,1.0343,0.6764,1.0012,0.5905,2.7323
3306,-0.6927,1.0339,0.6754,-0.7545,0.1935,0.1675
3348,-0.6976,1.0246,0.6786,0.6348,0.1172,1.0224
3360,-0.6912,1.0224,0.6776,1.3981,0.4683,2.6255
3373,-0.6956,1.027,0.6747,2.2226,0.7279,3.114
3386,-0.6993,1.037,0.6749,0.6806,1.3844,2.0606
3399,-0.6966,1.0346,0.6764,-0.8614,0.621,-1.2677
3413,-0.6986,1.0331,0.6725,-1.4263,0.2088,-2.5043
3454,-0.6959,1.0273,0.6783,1.3065,-0.524,2.2438
3466,-0.6976,1.029,0.6769,1.505,-0.4019,2.8239
3479,-0.6956,1.0353,0.6742,1.4287,0.2393,1.6484
3493,-0.6922,1.0358,0.6837,-0.6782,-0.0202,-1.5577
3505,-0.6966,1.029,0.6798,-1.7011,-0.295,-2.886
3518,-0.6971,1.0236,0.6734,-2.1896,-0.1882,-2.886
3559,-0.692,1.0307,0.6756,1.5508,0.3767,2.9461
3572,-0.6976,1.036,0.6817,0.6195,0.5599,1.7552
3585,-0.6986,1.0358,0.6839,-0.953,-0.0355,-1.6188
3598,-0.6961,1.0273,0.68,-1.8538,-0.1882,-2.6417
3611,-0.7003,1.0234,0.6739,-1.0446,0.3309,-1.5119
3624,-0.6951,1.0248,0.6847,0.6958,0.5599,1.4194
3664,-0.6947,1.0353,0.6764,0.1615,0.4378,-0.3211
3678,-0.6964,1.029,0.682,-0.2965,0.5905,-1.3898
3691,-0.6983,1.0273,0.6805,-0.6324,0.3767,-1.115
3704,-0.6954,1.0275,0.6749,0.3447,0.4836,0.3507
3716,-0.6944,1.0241,0.6813,1.4592,0.621,1.8316
3729,-0.6947,1.0331,0.6791,1.734,0.5752,1.8468
3771,-0.7008,1.0309,0.6825,-0.3271,0.1477,-0.6112
3783,-0.6961,1.0341,0.6761,0.2684,0.1325,0.5186
3796,-0.699,1.0285,0.6805,0.192,0.5141,1.114
3809,-0.6942,1.0334,0.6835,0.3905,0.4836,1.6636
3822,-0.6939,1.0331,0.6805,-0.1744,0.2851,0.4881
3835,-0.6968,1.0317,0.6754,-1.2889,0.2546,-1.2219
3877,-0.7003,1.0329,0.6771,2.9249,-0.1118,0.9613
3889,-0.6973,1.0295,0.6773,-2.7851,-0.1118,0.4117
