time_ms,ax,ay,az,gx,gy,gz
12,-0.7118,0.2687,0.5426,1.8006,-0.2068,2.2499
24,-0.7137,0.2694,0.5438,-0.0772,0.3276,-0.8798
37,-0.7128,0.2672,0.5394,-1.2986,0.6634,-2.8493
50,-0.7132,0.2616,0.5374,-2.581,0.4039,-4.0096
90,-0.7115,0.2508,0.534,0.2434,-0.3289,0.4026
104,-0.7145,0.2618,0.5394,1.5106,-0.0388,1.7308
117,-0.7108,0.2684,0.5426,-0.0009,0.8314,-0.3302
130,-0.7125,0.2616,0.5391,-1.3597,1.4421,-1.9485
142,-0.7118,0.2604,0.5367,-1.1001,0.8467,-1.1852
156,-0.7142,0.253,0.5384,-0.2146,-0.3289,-0.1776
197,-0.7128,0.2633,0.5411,0.8693,-1.4434,0.9675
210,-0.7145,0.2621,0.5387,1.4953,-1.4892,0.8759
222,-0.7106,0.2577,0.5418,1.5106,-1.703,1.6087
235,-0.7176,0.2577,0.5421,2.6403,-2.2831,2.9369
249,-0.7252,0.2565,0.5411,5.877,-4.1152,6.2957
262,-0.7252,0.2552,0.543,11.0373,-6.0541,7.1812
303,-0.8805,0.4208,0.5225,14.1671,-3.5198,-7.6585
316,-0.9835,0.9327,0.7825,-23.5276,1.4115,48.4942
329,-0.9596,0.2418,0.7188,9.0678,-32.8633,50.6927
342,-0.8207,0.3309,0.4725,17.4648,-35.9472,40.2652
355,-0.6935,0.2977,0.3668,24.7319,-15.7488,41.3186
367,-0.6234,0.3412,0.3985,26.9457,9.8238,39.4866
409,-0.671,0.4308,0.4769,7.3274,42.297,43.5629
421,-0.4523,0.2909,0.6639,-4.4589,26.1749,98.0515
434,-0.6258,0.2569,0.5384,-6.0314,39.9154,63.8988
448,-0.6949,0.3107,0.4991,-10.0314,51.6863,45.2576
461,-0.7352,0.3382,0.5787,-12.7337,51.3047,36.5095
474,-0.7108,0.3224,0.5848,-14.1536,41.839,28.4026
515,-0.7403,0.3634,0.483,-21.8177,43.8848,17.685
528,-0.7237,0.3639,0.4012,-19.8787,46.0986,17.5018
540,-0.7594,0.389,0.4742,-17.9093,49.0757,17.1812
554,-0.7274,0.4737,0.3892,-20.3826,48.7703,14.769
566,-0.7894,0.3954,0.5057,-23.8787,44.6024,7.914
580,-0.6622,0.5287,0.3387,-18.1383,-0.8022,-12.086
621,-0.7836,0.3566,0.4295,-12.8253,-3.9778,-1.0936
634,-0.7875,0.3915,0.418,-12.8406,-3.4282,1.8988
647,-0.784,0.3976,0.43,-11.6497,-2.222,2.0973
659,-0.7811,0.4093,0.4398,-10.5352,1.5337,0.311
673,-0.7801,0.4056,0.4471,-11.8177,5.3199,-2.8035
686,-0.7872,0.4413,0.47,-16.3215,7.5337,-3.8111
727,-1.2145,0.4554,-0.3349,-10.6879,-55.7946,-4.9562
740,-0.0624,-0.1207,1.6297,-50.9474,-86.1304,-1.8722
753,-1.193,0.7196,-0.1381,-21.2528,-69.6572,-7.0325
766,-0.6434,0.2208,0.6546,-19.9704,-66.1152,-16.0096
779,0.0072,0.6879,1.8385,-46.3826,-72.0083,-1.5821
793,-0.7215,-0.0153,0.4254,-45.1154,-84.3595,-42.315
833,-0.9964,0.9657,0.2596,-21.5276,-75.8404,0.0667
846,-1.202,-0.1886,0.0467,-42.5505,-54.1304,-54.2539
859,-0.5489,0.3788,0.2655,16.3503,-39.5656,-20.1776
872,-0.4698,0.0309,0.8201,-25.9856,-30.6648,-34.4371
885,-1.1434,0.7042,0.274,40.8693,-22.5427,-19.689
898,-0.8126,0.5338,0.0313,-25.9704,-16.1457,-24.834
939,-0.7594,0.5292,-0.5885,24.9151,5.4879,-25.0325
952,-0.6534,0.3053,0.5076,11.6022,33.2894,-52.5287
966,-0.6344,0.1832,-0.0011,5.9075,29.2283,-46.4829
978,-0.5675,0.0726,0.6795,8.8541,54.3428,-56.3455
991,-0.8241,0.7714,0.8846,13.9228,53.5031,-29.5821
1004,-0.4798,0.0096,-0.3398,21.0831,90.8925,-45.9485
1045,-0.5978,0.1024,0.7938,-26.3673,35.3047,-10.2081
1059,-0.4305,0.118,1.4923,-13.0696,44.5413,-12.0249
1071,-0.7921,0.6891,0.1256,8.5029,44.2512,4.8301
1084,-0.8895,0.284,-0.0995,-18.7948,37.778,17.3339
1097,-0.7035,0.3219,0.5098,8.0449,22.5413,8.3873
1110,-0.9122,1.0292,0.3465,-1.6803,13.6863,26.6621
1151,-0.5065,0.5104,0.8765,-40.8558,-16.2068,39.166
1164,-0.7997,0.0995,0.8695,-46.0925,-26.5427,38.2652
1177,-0.4952,0.2565,0.9178,-39.9398,-12.5274,15.5324
1190,-0.6988,-0.1588,0.1839,-41.7108,-9.077,-4.0096
1203,-0.6561,-0.1588,0.5108,-26.9016,-4.6648,-17.5516
1216,-0.6991,0.223,0.503,-25.2223,8.9688,-25.6127
1258,-0.7355,0.2374,0.4925,39.9838,-10.0388,39.0438
1270,-0.6407,0.0929,0.5892,36.7472,-18.4358,30.4942
1283,-0.1012,-0.6122,0.5863,-0.9169,-14.0694,-35.2615
1296,-1.3939,0.7792,0.6314,59.2968,-0.1152,-16.2386
1309,-1.295,1.5299,1.2442,59.9228,16.0375,-16.544
1322,-0.8421,1.642,0.6673,48.1823,58.0528,-27.3684
1363,-0.5878,0.0558,0.6217,47.7701,17.1062,6.54
1376,-0.5025,0.2521,0.9984,45.48,48.007,-18.6203
1390,-0.6681,0.7049,0.9683,-1.4665,34.6176,-17.3837
1402,-0.8566,0.4142,0.0775,7.2358,42.9688,-12.4982
1415,-0.8524,0.3702,0.3597,16.5945,53.9764,-14.6203
1427,-0.8006,0.2455,0.5675,4.6556,18.9535,-9.9944
1469,-0.8214,0.2359,0.4456,15.251,10.8467,9.1354
1482,-0.7762,0.4349,0.6485,-7.0543,15.1367,4.0515
1495,-0.691,0.2909,0.5545,-3.8177,32.9688,9.624
1508,-0.8587,0.3761,0.5523,-18.6421,18.0222,5.1965
1521,-0.828,0.3028,0.7672,-13.4665,7.2436,5.9446
1534,-0.8771,0.5487,0.1278,25.5716,2.4344,7.9904
1575,-0.6747,-0.2033,0.5047,-52.0467,-15.7793,11.7919
1588,-0.7909,0.263,0.2352,-12.291,-6.0999,6.311
1601,-0.7284,0.026,0.4578,27.4953,-5.8556,-6.9104
1615,-0.7499,0.0414,0.5931,-48.7795,-11.6266,-3.7501
1627,-0.7894,0.6688,0.6305,-35.2833,-14.3289,18.0667
1640,-0.7474,1.0209,1.0025,-39.6497,-14.5885,25.1049
1681,-0.725,0.2501,0.3675,-11.2681,6.8314,-21.1699
1693,-0.776,0.3209,0.4451,1.0831,-1.6724,-4.7577
1707,-0.7757,0.3185,0.4532,5.1442,-5.5961,7.9446
1720,-0.7325,0.4349,0.5206,0.1671,-22.4053,19.5782
1733,-0.7779,0.2469,0.3929,-6.2299,1.4726,-2.1318
1745,-0.7621,0.3268,0.439,1.3121,1.0146,2.0362
1787,-0.7667,0.3153,0.4307,-0.978,2.2818,-2.8035
1799,-0.7633,0.3031,0.4217,1.0525,1.1062,-1.1699
1813,-0.765,0.3165,0.4242,2.9609,0.4192,1.6392
1825,-0.7672,0.317,0.4368,2.7319,-0.0694,2.769
1839,-0.7691,0.3219,0.4327,3.8006,-0.7411,3.0896
1852,-0.763,0.3268,0.4339,1.4953,-0.5885,0.8453
1893,-0.7648,0.3348,0.439,-0.4742,0.4802,-0.9562
1906,-0.7594,0.327,0.4298,-3.2986,-0.6648,-1.4753
1919,-0.7643,0.3219,0.4386,-0.52,-1.5808,0.4484
1932,-0.7626,0.3172,0.4359,0.106,-1.474,2.4942
1945,-0.766,0.3219,0.4364,4.3045,-1.1533,4.0667
1958,-0.7682,0.3783,0.4744,0.8541,-0.5885,0.7537
1999,-0.7689,0.3204,0.4337,-0.1688,0.7245,0.1736
2011,-0.767,0.3248,0.4332,1.3274,-1.0465,2.0667
2025,-0.7691,0.3258,0.4349,-2.3062,-1.0159,0.769
2038,-0.764,0.3285,0.4434,-2.1688,-0.2068,-0.147
2051,-0.7594,0.3251,0.4366,-2.0009,0.5566,-1.3379
2064,-0.766,0.3238,0.4395,-2.4284,0.0222,-3.2615
2105,-0.7713,0.3248,0.4373,-0.9933,-0.4205,-0.8798
2118,-0.7662,0.3207,0.4383,-2.0925,-0.0388,-1.1699
2131,-0.7626,0.3219,0.4339,-2.6421,0.6787,-1.4905
2144,-0.765,0.3214,0.4364,-4.4284,0.0833,-2.9104
2157,-0.7623,0.3165,0.4322,-2.9322,-0.6343,-1.9944
2170,-0.7672,0.3094,0.4334,-3.1001,-0.6037,-1.7959
2211,-0.7613,0.3292,0.432,-3.665,0.007,-3.7806
2224,-0.7626,0.3219,0.4351,-7.7413,-0.4511,-6.8951
2237,-0.7667,0.308,0.4337,-8.81,-0.2373,-7.3226
2250,-0.7643,0.2967,0.4337,-5.3749,-0.5121,-3.1394
2262,-0.7621,0.3026,0.4364,0.1365,-0.5885,1.3186
2275,-0.7613,0.3099,0.4325,3.3426,-0.2984,2.4026
2316,-0.7626,0.3168,0.4322,-1.8787,1.2589,-3.6432
2330,-0.764,0.3131,0.432,-2.5963,0.7551,-4.2997
2343,-0.7613,0.305,0.4344,-2.1536,-0.3442,-3.0936
2356,-0.764,0.3019,0.4339,-0.6268,-1.0312,-0.1012
2369,-0.7613,0.3024,0.443,1.4495,-0.8785,3.5476
2381,-0.7628,0.3148,0.4312,2.5182,-0.6801,5.0286
2423,-0.7652,0.3124,0.4356,-0.6268,0.7398,-1.8875
2436,-0.7611,0.3099,0.4283,0.8083,0.465,-1.4753
2448,-0.7584,0.3114,0.4349,0.6403,-0.4205,-0.6814
2461,-0.7665,0.3146,0.4349,1.5716,-0.7259,0.3568
2475,-0.7618,0.3207,0.4356,0.4419,-0.7411,-0.9256
2488,-0.7643,0.3077,0.4361,-0.6116,-0.2678,-0.834
2528,-0.764,0.3133,0.4349,0.7014,0.1291,1.1812
2541,-0.7616,0.3136,0.4334,1.6327,0.2512,1.0438
2555,-0.7626,0.3182,0.4339,1.2663,0.1138,-0.5898
2568,-0.7582,0.3143,0.4364,1.2205,0.526,-1.8264
2580,-0.7633,0.3141,0.4327,0.7777,0.4192,-2.3608
2593,-0.7594,0.3194,0.4325,-2.0009,-0.1762,-4.3608
2635,-0.7599,0.3063,0.4332,-0.9475,0.7398,-3.0936
2648,-0.7599,0.3065,0.4351,1.8006,0.7856,-1.2768
2661,-0.7596,0.3153,0.4295,2.3655,1.1673,-1.6585
2674,-0.7633,0.3072,0.4271,-0.062,1.4726,-2.7272
2687,-0.7628,0.3063,0.4329,0.7472,1.381,-1.8875
2700,-0.7606,0.3126,0.4327,-2.8253,0.4344,-4.4371
2740,-0.7579,0.3009,0.4351,0.5487,-0.2068,-0.4371
2753,-0.756,0.3036,0.4293,2.3808,0.3428,0.4942
2766,-0.7628,0.305,0.4334,3.6174,0.3428,0.6316
2780,-0.7596,0.3138,0.4354,1.8006,0.8009,-1.1852
2793,-0.7599,0.3138,0.4354,-1.3749,0.9993,-4.0707
2805,-0.7611,0.306,0.4325,-3.1459,0.9535,-5.3073
2846,-0.7618,0.2972,0.4281,2.5029,-0.222,2.9522
2860,-0.7572,0.3063,0.432,2.3655,-0.3442,3.227
2873,-0.7574,0.3119,0.4376,1.1747,0.4039,0.8606
2885,-0.7606,0.3119,0.4273,-1.436,0.7093,-2.4676
2899,-0.7616,0.3026,0.4266,-2.6726,1.0146,-3.3989
2911,-0.7608,0.2948,0.4285,-2.0925,0.2512,-1.6585
2953,-0.7596,0.3121,0.4312,1.5411,-0.5121,1.395
2966,-0.7606,0.308,0.4307,0.6709,0.4802,-1.3073
2978,-0.7608,0.3048,0.431,-0.2299,1.2589,-2.315
2991,-0.7596,0.3011,0.431,0.4419,1.0604,-1.6279
3005,-0.7574,0.2994,0.4329,1.3274,0.465,-0.1318
3018,-0.7638,0.3036,0.4373,0.9915,-0.0999,0.9675
3058,-0.7569,0.3024,0.4307,0.9457,0.4802,-0.7577
3072,-0.763,0.3014,0.4283,0.4877,0.4955,-1.8111
3085,-0.7577,0.3046,0.4317,1.3426,0.8161,-1.689
3098,-0.7606,0.3019,0.4261,1.7396,0.8009,-1.8111
3110,-0.7565,0.3077,0.4322,0.2892,0.5108,-2.9256
3124,-0.7599,0.3026,0.4346,-0.3978,0.6176,-2.9562
3165,-0.7601,0.2931,0.4315,2.6709,-0.0999,0.8606
3177,-0.7599,0.2931,0.4285,4.3961,0.0375,2.2652
3190,-0.7584,0.3094,0.429,5.2968,0.5108,2.4789
3204,-0.7599,0.308,0.4337,2.8541,0.5871,-0.3302
3217,-0.7618,0.3055,0.4327,0.3655,1.2589,-2.376
3230,-0.7596,0.3002,0.4317,0.1213,1.1978,-2.5592
3270,-0.7591,0.2999,0.4339,0.7014,0.0222,0.5095
3284,-0.7594,0.3011,0.4317,1.3274,0.0375,0.2957
3297,-0.7562,0.306,0.4366,1.1136,0.5718,-1.6585
3309,-0.7584,0.3016,0.4307,1.48,1.0909,-2.6508
3323,-0.7596,0.3058,0.4276,-0.4436,1.2589,-3.6432
3336,-0.7608,0.2989,0.4273,-0.7795,0.8772,-2.2386
3376,-0.7601,0.2919,0.4337,2.5793,0.2054,1.1049
3390,-0.7616,0.3028,0.4366,1.7548,0.4344,-0.0249
3403,-0.7577,0.3028,0.4342,0.4419,0.6024,-1.4295
3416,-0.7574,0.3043,0.4359,-0.9169,0.694,-2.4524
3428,-0.7587,0.295,0.4259,-0.7642,0.3734,-1.8417
3442,-0.7582,0.2928,0.4366,-1.0391,-0.1762,-1.1394
3483,-0.7569,0.2977,0.4259,1.1136,0.3581,0.1583
3495,-0.7589,0.3028,0.4312,1.2205,0.8772,-1.1852
3509,-0.7557,0.3006,0.4268,-0.749,0.7551,-3.7043
3522,-0.754,0.2984,0.4312,-2.0772,0.8467,-4.5745
3535,-0.7572,0.2894,0.4307,-1.7108,0.4802,-3.0783
3548,-0.7538,0.2914,0.4276,-0.1078,-0.2526,-0.8951
3588,-0.754,0.298,0.4325,4.3808,0.3581,0.9064
3602,-0.7606,0.3016,0.4259,5.4648,0.8314,-0.6508
3615,-0.7574,0.2984,0.4249,7.5411,0.5413,-0.5745
3627,-0.7604,0.2931,0.4305,9.0831,-0.6953,0.3415
3640,-0.7594,0.2921,0.429,10.9304,-2.161,3.4255
3654,-0.7582,0.2984,0.43,10.6251,-3.0465,6.5095
3694,-0.7596,0.3038,0.4381,0.9609,-1.535,2.5553
3707,-0.755,0.305,0.4342,1.0373,-0.2068,0.4942
3720,-0.7572,0.3109,0.4344,0.8235,-0.3136,-1.9791
3733,-0.7611,0.3031,0.4368,-1.5123,0.2665,-2.2539
3747,-0.7572,0.3016,0.4293,-2.7795,0.4192,-2.6356
3759,-0.7611,0.298,0.4383,-1.0696,0.1749,-0.9409
3801,-0.7569,0.2997,0.4325,-1.3139,0.7856,-0.8646
3814,-0.7545,0.2987,0.431,-1.1307,0.9993,-1.1089
3826,-0.7616,0.305,0.4351,-1.0543,0.8619,-1.4753
3839,-0.7543,0.3024,0.4278,-1.0391,0.8009,-1.7806
3853,-0.7565,0.2989,0.4344,-1.6039,0.6634,-2.2234
3866,-0.7611,0.2972,0.4295,-1.3902,1.1062,-2.0096
3906,-0.7587,0.3036,0.4346,-1.2375,0.9688,-4.1928
3920,-0.7547,0.2948,0.4334,-2.3368,1.2589,-5.6432
3933,-0.756,0.2899,0.4285,-1.5276,0.9383,-4.9562
3946,-0.7555,0.2889,0.4295,-0.062,0.4039,-2.1928
3959,-0.7545,0.2894,0.4312,0.5945,0.1444,-0.376
3971,-0.7565,0.2953,0.4329,0.3655,0.3276,-0.0554
4013,-0.7547,0.3026,0.4271,-0.4589,0.9841,-2.2386
4026,-0.7547,0.2897,0.4327,-1.9398,1.1367,-2.8798
4038,-0.7589,0.2877,0.4249,-1.4055,0.2207,-1.5516
4051,-0.7584,0.2909,0.4325,-1.207,0.236,-0.6814
4065,-0.7574,0.2941,0.4273,-0.1688,0.4039,-0.834
4077,-0.7574,0.2938,0.4317,-0.1688,0.4802,-1.689
4119,-0.754,0.2958,0.4337,0.2587,0.1596,-1.5669
4132,-0.7582,0.2901,0.4305,-0.1688,0.3734,-1.5363
4144,-0.7587,0.2928,0.4364,-0.0467,0.5108,-1.5669
4157,-0.754,0.2923,0.4298,-0.7642,0.6787,-2.0707
4171,-0.7584,0.2875,0.4315,-0.52,0.5566,-1.2157
4184,-0.7523,0.285,0.4266,0.7167,0.8772,0.1583
4225,-0.7582,0.2938,0.4278,-0.7337,0.7703,-1.6585
4238,-0.7552,0.2941,0.432,-2.3062,1.2894,-3.1852
4251,-0.7591,0.2806,0.431,-2.123,0.923,-3.0631
4264,-0.7538,0.2811,0.4259,-0.3215,-0.161,-0.773
4275,-0.7552,0.2899,0.4295,0.1823,-0.3289,0.4942
4287,-0.7533,0.2882,0.4312,1.3579,0.0528,0.2652
4328,-0.7535,0.2858,0.4305,-1.207,2.007,-3.7653
4341,-0.7596,0.2867,0.4215,-1.2528,1.5795,-3.3073
4355,-0.7567,0.2792,0.4283,-0.0772,0.6634,-1.6737
4368,-0.7547,0.284,0.4271,0.9609,-0.3442,0.2957
4380,-0.7547,0.2821,0.4278,1.3732,-0.3747,1.5782
4392,-0.7567,0.286,0.4339,2.3961,-0.1762,1.2881
4434,-0.755,0.2901,0.4259,-0.8406,1.5795,-3.3837
4447,-0.7543,0.2809,0.4224,-0.978,0.8314,-2.5592
4459,-0.7543,0.2792,0.4178,-0.3215,-0.3136,-0.4982
4472,-0.754,0.2757,0.4268,2.0144,-0.9549,2.769
4486,-0.7535,0.2855,0.429,3.5564,-0.7564,3.685
4499,-0.7562,0.2921,0.43,2.3808,-0.9091,1.5782
4539,-0.7587,0.274,0.4256,-1.2528,0.3734,-2.605
4553,-0.7584,0.2799,0.4239,0.4571,-0.5121,-0.605
4565,-0.7528,0.2789,0.4315,1.6938,-0.8938,1.4408
4577,-0.7521,0.2828,0.429,3.3426,-0.2526,3.0286
4590,-0.7547,0.2921,0.4266,2.8541,-0.4205,2.2499
4603,-0.7567,0.2916,0.4298,0.7472,0.0375,-1.231
4645,-0.7545,0.2772,0.4266,0.1823,0.3886,-1.1699
4657,-0.7535,0.2816,0.4293,1.2205,0.1291,0.3263
4670,-0.7545,0.2818,0.4261,2.106,0.0375,0.7385
4684,-0.7521,0.2926,0.4315,-0.1536,-0.1457,-1.9944
4697,-0.7574,0.2826,0.4281,-1.3749,0.9383,-3.7043
4710,-0.7538,0.2772,0.4242,-1.8177,0.2665,-2.7119
4751,-0.7523,0.2826,0.4232,0.9915,-0.3136,3.0896
4764,-0.7511,0.2926,0.4261,1.3274,0.3276,1.0438
4777,-0.756,0.2882,0.4322,-0.1536,1.4726,-2.5745
4790,-0.754,0.288,0.4283,-1.0696,1.7932,-3.8111
4803,-0.7538,0.2787,0.4251,-1.2528,1.1062,-3.9333
4816,-0.7545,0.2782,0.4268,-0.6421,0.2207,-2.3455
4857,-0.7516,0.2826,0.4276,2.7625,-0.5121,1.6392
4869,-0.7501,0.2872,0.4317,3.0373,0.1291,1.3492
4883,-0.7538,0.288,0.4266,1.0067,0.4039,-0.4524
4896,-0.7538,0.2848,0.43,-0.5963,0.8314,-1.7195
4909,-0.754,0.2818,0.4222,-1.665,0.923,-1.8264
4922,-0.7525,0.2735,0.4288,-1.3902,0.0375,-0.773
4963,-0.754,0.2897,0.4332,-0.1688,-1.077,-1.7348
4976,-0.7552,0.2843,0.4278,-0.123,0.4955,-3.0478
4989,-0.7538,0.2794,0.4317,-0.9169,1.1978,-4.3913
5001,-0.7555,0.2714,0.4256,-0.1536,1.2283,-2.9409
5014,-0.7596,0.2711,0.4271,1.022,0.7093,-0.2692
5028,-0.7552,0.276,0.4251,1.3732,-0.2068,1.8377
5068,-0.7528,0.2877,0.4325,-0.4436,0.8925,-2.4676
5082,-0.7569,0.2784,0.4246,-1.7566,1.381,-4.086
5095,-0.7499,0.2735,0.4288,-1.7719,0.7398,-3.689
5108,-0.754,0.2735,0.4268,-0.8406,0.5871,-1.6737
5121,-0.7547,0.2728,0.422,0.3197,-0.1304,0.7079
5133,-0.7535,0.2757,0.4263,1.3426,-0.39,1.9751
5175,-0.7494,0.2845,0.4249,-1.4207,0.8314,-3.1699
5188,-0.7525,0.2789,0.4254,-1.3291,0.8619,-3.3226
