time_ms,ax,ay,az,gx,gy,gz
11,-0.6927,0.8106,0.6991,1.5973,0.6157,-0.4182
25,-0.6966,0.8177,0.6972,0.3912,0.6615,-1.4105
38,-0.6959,0.806,0.6945,-3.6699,0.1577,-2.5556
51,-0.6937,0.8018,0.6974,-3.0592,-0.4224,-1.5327
92,-0.6976,0.804,0.7008,2.2385,-0.224,2.4063
105,-0.6949,0.8064,0.6957,1.2767,-0.4224,1.7192
117,-0.6896,0.8082,0.693,3.2614,-0.1018,0.9864
131,-0.694,0.814,0.6955,1.75,0.3714,-0.5098
144,-0.6944,0.8074,0.6962,3.4752,0.2951,-0.7388
156,-0.6915,0.8011,0.6952,4.3759,0.6615,0.1009
197,-0.6944,0.8147,0.6908,0.3912,-0.6056,2.3605
211,-0.6932,0.8147,0.6982,-3.0897,-0.3766,1.2002
224,-0.694,0.8064,0.6994,-4.2806,-0.3461,0.5437
237,-0.6996,0.7959,0.7135,2.4828,0.1424,2.3452
250,-0.6961,0.8038,0.6989,11.4599,-0.4072,4.9406
262,-0.7301,0.8128,0.7155,13.1546,-1.0484,7.536
304,-0.9283,1.0069,0.706,-9.2118,-10.1476,-2.0823
317,-1.0697,1.3228,0.8954,-5.7615,-19.8118,16.5589
330,-0.9288,1.1473,0.727,-43.9905,-37.0789,26.5589
343,-0.7367,0.9488,0.7702,-46.2958,-39.0331,35.8719
356,-0.6837,0.7659,0.5605,-30.6928,-32.3766,43.3986
369,-0.4857,0.9361,0.4235,-37.166,-10.9415,43.0017
410,-0.3036,0.6351,0.5719,-19.9752,76.173,74.162
423,-0.2682,0.8121,0.6132,-5.6241,92.005,74.4673
436,-0.35,1.0113,0.7548,23.9485,105.959,78.8185
449,-0.3961,0.8145,0.6574,-45.5935,111.272,56.4979
463,-0.8861,0.6023,0.7301,-201.99,98.7684,-10.0212
475,-1.1432,0.3885,0.9516,-72.876,63.5318,-17.4869
516,-0.6105,0.7444,0.3593,-5.105,-27.8423,-36.693
529,-0.3353,0.5489,1.279,-28.1431,-51.4453,-57.1968
542,-0.3028,-0.0124,1.5773,3.0935,-86.6362,-94.9678
555,-0.3815,0.2972,0.7951,38.8645,-93.3079,-134.067
569,0.1176,1.5103,0.4757,20.1469,-74.285,-126.266
581,-1.6024,1.2852,0.7719,6.8492,-56.4682,-101.594
622,-1.0016,0.8682,0.6686,4.9561,-37.5827,-39.609
635,-0.7372,0.6817,0.5639,-27.563,-16.1782,-39.9144
648,-0.7784,0.94,0.4633,-24.418,-7.4453,-30.8456
661,-0.7579,0.9344,0.6632,-0.1737,1.3638,-3.7464
673,-0.7091,0.6658,0.5346,-6.0821,-1.1095,-10.7235
687,-0.8165,0.9009,0.5981,-2.021,3.6234,-14.8151
728,-0.9252,1.2481,1.6776,136.712,68.3256,73.0169
741,-0.5631,0.3711,0.7065,65.5057,75.2417,28.9559
754,-0.617,0.5415,0.1837,107.475,73.5623,36.8795
767,-0.5514,1.2527,0.3915,101.567,51.0585,54.62
780,-0.6424,0.8204,0.3832,20.5286,39.0432,14.6811
793,-0.7757,1.0677,0.3815,-0.418,16.7989,6.2078
833,-0.5799,0.9075,0.7299,23.6278,0.6615,-5.2731
847,-0.682,0.8772,0.7963,11.292,-7.6438,-11.0594
860,-0.7193,0.813,0.694,18.0401,-4.1476,-10.1586
874,-0.7682,0.8504,0.8278,19.6126,-10.7889,-3.7617
886,-0.7831,0.8619,0.7072,-5.7309,-32.9721,-9.4716
899,-0.9,0.7225,0.6603,-0.5706,-50.3614,-10.9067
941,-0.8138,1.1844,0.7775,-40.3874,-75.8576,33.8872
953,-0.504,0.9554,0.6276,-36.2347,-71.6133,60.2841
966,-0.2774,0.7471,0.5446,-42.479,-53.2621,54.3452
980,-0.1629,0.6424,0.497,-37.9905,-28.6056,31.7498
992,-0.2447,0.7286,0.4738,-22.8912,-3.0484,13.704
1005,-0.3536,0.8985,0.5356,-25.6546,22.8295,8.2841
1046,-0.9217,0.627,0.7611,-61.4561,34.4783,-20.0212
1059,-1.3995,0.5755,0.9596,-31.8683,10.1272,-23.6395
1072,-1.0899,0.5225,0.6176,-4.9828,-0.1629,-2.235
1085,-0.7584,0.472,0.214,14.7271,-0.3919,0.2383
1098,-0.9396,0.4996,0.5856,42.8492,0.2646,-1.0594
1111,-0.4159,1.1209,0.393,77.9027,2.0508,-20.7235
1152,-0.7943,1.1504,0.3593,70.0859,11.1959,4.6963
1165,-0.5868,1.4761,0.3637,-0.479,3.3027,-9.5021
1177,-0.6869,1.1915,0.5465,16.2538,5.8218,-3.2579
1191,-0.6649,1.2832,0.7323,35.0019,2.7837,1.7956
1205,-0.6686,0.9305,0.6833,-5.1966,2.631,-8.464
1217,-0.7015,0.8208,0.704,-4.9676,1.5928,-12.9983
1258,-0.6947,0.7854,0.695,2.0859,-1.8118,5.9177
1271,-0.6935,0.8145,0.6942,2.0248,-2.6973,8.6963
1284,-0.7005,0.8245,0.7067,-3.5783,-3.1705,5.1696
1298,-0.692,0.825,0.7065,-9.8225,-2.4224,-1.8838
1310,-0.6835,0.8279,0.7013,-10.9523,-1.14,-8.4487
1323,-0.6888,0.804,0.7033,-9.5935,0.3867,-11.3953
1363,-0.7027,0.7874,0.6994,-4.8607,0.0508,-2.4945
1377,-0.6947,0.7876,0.6945,-1.792,-1.2774,2.1467
1390,-0.6922,0.7979,0.6957,-0.3722,-1.7812,4.7269
1402,-0.691,0.8035,0.704,-2.25,-0.8652,4.6811
1416,-0.6878,0.7989,0.7038,-9.4867,-0.224,2.4673
1429,-0.6913,0.7884,0.7084,-6.1431,0.1272,2.3605
1470,-0.6918,0.804,0.7004,2.9561,-0.285,5.1696
1483,-0.6908,0.8125,0.7028,-2.2806,0.3562,0.6658
1496,-0.6959,0.8089,0.7087,-4.9065,0.5241,-2.4182
1508,-0.6908,0.7974,0.7074,-4.1431,0.6157,-3.3495
1522,-0.6947,0.7957,0.7011,-7.4561,0.5394,-4.4945
1535,-0.6944,0.7898,0.696,-7.0286,-0.1934,-2.8762
1575,-0.6935,0.7923,0.6967,3.3072,0.2493,2.3757
1589,-0.6896,0.8025,0.7001,0.6049,0.0814,2.2231
1602,-0.694,0.7994,0.7016,0.1469,-0.514,1.9788
1615,-0.6905,0.8042,0.704,1.2156,-0.7889,2.2078
1627,-0.6971,0.8025,0.7091,-3.6088,-1.1858,1.704
1640,-0.6959,0.7908,0.7043,-8.1126,-0.9721,1.7498
1682,-0.6854,0.816,0.7087,-2.2958,0.005,-0.3113
1694,-0.6922,0.8006,0.7023,-6.1279,0.1577,-2.9525
1708,-0.6886,0.7898,0.7052,-4.2347,-0.1171,-1.0289
1721,-0.6925,0.785,0.6996,-2.0363,0.4325,0.6353
1734,-0.6969,0.7881,0.6999,1.353,0.5241,2.3452
1747,-0.6947,0.7967,0.7038,4.6049,0.5852,3.9024
1788,-0.6864,0.8062,0.7035,-3.6393,0.3867,2.3757
1801,-0.6957,0.8138,0.705,-3.6851,0.6157,1.2307
1814,-0.6988,0.8013,0.6964,-3.8683,0.6615,1.3376
1826,-0.6927,0.7962,0.7043,-0.4943,0.3714,1.3681
1840,-0.6932,0.8074,0.6979,-0.2806,-0.2545,0.6658
1853,-0.6893,0.8106,0.7028,-4.1431,-0.3919,-2.922
1893,-0.692,0.7935,0.7023,-9.6699,-0.0255,-5.1968
1907,-0.6854,0.7913,0.7006,-5.4103,-0.224,-2.9678
1920,-0.6944,0.7977,0.7116,-3.3798,0.6921,-1.0441
1933,-0.6898,0.784,0.7035,-3.8225,0.9974,-0.8762
1946,-0.6866,0.7896,0.7079,-0.418,1.4554,0.0246
1958,-0.6935,0.7959,0.696,-0.5096,1.4402,-0.3876
2000,-0.6883,0.7842,0.7004,0.3912,0.631,-1.1815
2013,-0.6986,0.7901,0.7043,2.4217,0.0814,-0.235
2025,-0.6932,0.7935,0.7018,-1.2118,-0.0102,-1.0289
2038,-0.6886,0.7903,0.7038,-1.7157,0.3104,-0.296
2052,-0.6952,0.793,0.7047,-0.2806,0.234,0.8337
2065,-0.6952,0.7962,0.7018,0.0859,0.0356,1.5208
2105,-0.693,0.7903,0.7004,-1.1966,-0.0255,-0.1892
2118,-0.691,0.7867,0.706,-1.5477,-0.0102,1.2154
2131,-0.6866,0.7913,0.7028,-2.0668,0.6005,1.0017
2145,-0.692,0.7901,0.7038,-2.6317,0.4936,1.0475
2158,-0.6942,0.7881,0.7052,0.4675,0.0814,1.3376
2170,-0.6944,0.7984,0.7028,0.9561,0.0203,-0.3876
2212,-0.692,0.7759,0.7038,-6.2195,-0.6362,-3.9602
2225,-0.69,0.7789,0.7069,-1.2882,-0.8499,-0.4792
2238,-0.6918,0.7791,0.7077,1.5515,-0.1782,2.9864
2250,-0.6898,0.784,0.7057,2.2233,0.3256,4.2383
2264,-0.6959,0.7969,0.7074,2.0553,0.6768,3.6582
2276,-0.6932,0.7935,0.7087,3.979,0.9974,2.2994
2318,-0.692,0.7854,0.7055,-2.25,0.1424,-3.7159
2331,-0.6942,0.7798,0.7021,-2.876,-0.4682,-2.0823
2344,-0.6852,0.7784,0.7077,-3.5172,-0.4377,0.6963
2356,-0.6981,0.7801,0.705,-4.4485,0.0203,2.1009
2369,-0.694,0.7847,0.7025,-1.2271,0.2493,2.9559
2382,-0.6891,0.7911,0.7062,-0.7996,0.5699,1.5208
2424,-0.6883,0.7979,0.7018,-2.9676,0.0814,-3.7769
2437,-0.694,0.7808,0.703,-3.5783,-0.3919,-2.6624
2450,-0.6996,0.7808,0.7047,0.0248,0.1882,0.6811
2463,-0.6891,0.7828,0.7011,-1.6241,-0.0713,2.0398
2476,-0.6947,0.7842,0.7021,-0.876,0.5241,3.1238
2489,-0.6957,0.7903,0.7008,-0.1126,0.5241,2.6353
2529,-0.6964,0.792,0.6964,2.7271,0.1577,2.3299
2543,-0.693,0.7913,0.6977,1.0935,-0.1018,1.5513
2556,-0.6974,0.7979,0.704,-4.4485,0.1119,-0.1128
2569,-0.6937,0.7915,0.705,-4.6012,-0.453,-0.6472
2582,-0.6866,0.7857,0.7057,-7.7004,0.005,-1.5021
2594,-0.6893,0.7832,0.703,-4.5859,0.5241,-1.1815
2636,-0.6937,0.7845,0.7045,-8.7996,-0.2087,-3.4258
2649,-0.6966,0.7801,0.7052,-6.3111,-0.3156,-1.6701
2662,-0.6893,0.7784,0.7089,-2.1126,0.0508,0.6963
2675,-0.6971,0.7864,0.703,-0.647,-0.2087,0.5131
2687,-0.6896,0.7825,0.6991,0.4675,0.3104,-0.4334
2699,-0.6954,0.7847,0.7033,0.5133,0.0966,-1.2273
2740,-0.6954,0.7742,0.6974,1.7194,-0.8652,0.7116
2753,-0.6903,0.7842,0.6957,1.1088,-0.8652,1.9482
2766,-0.6927,0.7811,0.7047,-1.5783,-0.9721,1.4292
2779,-0.6903,0.7872,0.7062,-3.9599,-0.1171,0.2994
2792,-0.6959,0.7835,0.706,-2.0973,0.5394,-0.754
2805,-0.6993,0.7757,0.7065,0.1317,0.4631,-0.2655
2845,-0.6893,0.7818,0.7011,0.2233,-0.4835,0.3757
2859,-0.694,0.7852,0.7087,-2.9981,-0.8805,-0.8151
2872,-0.6925,0.7776,0.7065,-0.5096,-0.8499,0.2841
2884,-0.6976,0.7708,0.7072,6.4065,-0.6667,2.2078
2898,-0.6954,0.7679,0.7116,14.5591,-1.2621,4.9711
2911,-0.6913,0.7832,0.706,11.2004,-1.4911,6.2536
2952,-0.6837,0.7967,0.7089,-10.2042,-2.3614,0.391
2964,-0.6888,0.7774,0.7133,-5.563,-0.5598,0.7421
2977,-0.681,0.7903,0.7028,-5.1202,0.4325,0.1009
2990,-0.6952,0.7894,0.7077,-0.2958,1.0737,0.2689
3004,-0.6857,0.7886,0.703,-2.5706,1.5165,-1.3495
3017,-0.6947,0.794,0.7099,-4.3111,1.1806,-1.6701
3057,-0.6942,0.7923,0.7084,0.2233,0.5547,1.246
3071,-0.6949,0.7876,0.706,-2.2958,0.2035,-0.296
3084,-0.6905,0.7886,0.7033,-2.479,-0.6515,-1.2884
3097,-0.6954,0.7808,0.7079,-4.25,-0.6973,-1.7922
3109,-0.6925,0.7749,0.7062,0.3301,-0.5904,0.5742
3122,-0.692,0.7862,0.7011,4.3607,-0.4988,2.9253
3164,-0.6954,0.7854,0.7055,-6.8912,0.1119,-2.6166
3176,-0.6952,0.7842,0.7021,-4.3416,0.005,-2.3571
3190,-0.6888,0.7813,0.7133,-1.1202,0.0661,-1.9602
3203,-0.6893,0.7867,0.7023,-0.7691,-0.3766,-2.0212
3216,-0.6896,0.8001,0.7043,-5.4561,-0.285,-3.3953
3229,-0.6996,0.7869,0.7162,-12.4943,-0.0408,-5.8686
3270,-0.6947,0.7747,0.7045,2.8034,0.005,2.7421
3283,-0.6957,0.7852,0.7069,2.1775,-0.514,2.8643
3296,-0.6942,0.7859,0.7096,0.1317,-0.453,1.0627
3308,-0.6925,0.7798,0.7084,-0.937,-0.056,-0.5556
3320,-0.6913,0.7745,0.7013,0.4675,-0.056,0.4826
3333,-0.6937,0.7754,0.7038,2.0553,-0.056,1.0322
3375,-0.6966,0.7918,0.7055,-1.1355,-0.4682,-0.6624
3387,-0.6908,0.7869,0.7108,-4.4485,-0.5598,-2.0365
3400,-0.6898,0.7771,0.7113,-4.1126,-0.3766,-1.5479
3413,-0.6925,0.7693,0.7113,-1.8683,0.2035,-0.4182
3426,-0.6942,0.7737,0.7126,1.353,0.2035,0.9253
3438,-0.6905,0.7764,0.705,3.1546,0.3714,2.1162
3480,-0.6954,0.7793,0.7087,-2.7844,-0.5446,-1.9907
3493,-0.6922,0.7737,0.7096,0.0401,-0.2698,-0.2197
3505,-0.693,0.7771,0.7135,2.0553,-0.0102,1.4902
3518,-0.693,0.7759,0.7094,3.063,0.1119,2.1009
3531,-0.6908,0.782,0.7072,1.2309,0.4936,0.6658
3545,-0.6903,0.7854,0.7091,-0.8607,0.234,-0.3876
3585,-0.6932,0.7718,0.7035,0.9866,0.0203,-0.3113
3598,-0.6915,0.7774,0.7113,2.8187,-0.4224,1.4902
3612,-0.6932,0.7857,0.7067,0.895,-0.3156,1.475
3625,-0.6937,0.7867,0.7028,-0.6775,-0.5904,0.6811
3637,-0.69,0.7791,0.7089,-1.0744,0.2493,-0.5556
3649,-0.6908,0.7813,0.7121,-1.3951,0.8753,-0.8304
3691,-0.6915,0.7764,0.7152,1.292,-0.3308,0.2689
3704,-0.6913,0.785,0.7074,1.063,-0.5293,0.2383
3716,-0.6898,0.7781,0.7113,-0.4943,-0.1934,0.0398
3730,-0.6881,0.7808,0.7091,-2.1126,-0.224,0.0093
3743,-0.6944,0.7771,0.7138,-1.105,0.173,0.8643
3756,-0.6891,0.7791,0.7082,0.4981,0.8295,1.6124
3797,-0.6925,0.7845,0.7089,-0.0057,0.0508,0.8185
3810,-0.6913,0.7789,0.7101,-0.2806,-0.0866,0.5589
3822,-0.6974,0.7796,0.7111,0.4065,-0.0102,0.849
3833,-0.6896,0.7832,0.7094,0.7729,-0.1629,1.0169
3846,-0.6893,0.7825,0.7104,0.3759,0.3256,0.7574
3860,-0.6927,0.7869,0.7106,0.6813,0.3867,-0.006
3900,-0.6954,0.7842,0.713,-0.3874,0.1882,0.0246
3913,-0.692,0.7808,0.7055,1.0477,0.2798,0.7269
3927,-0.6874,0.7832,0.7113,0.6813,0.5394,0.62
3939,-0.6908,0.785,0.7079,-0.0668,0.2493,0.3299
