time_ms,ax,ay,az,gx,gy,gz
8,-0.6805,0.8965,0.7206,-1.4561,0.6921,-1.609
21,-0.6786,0.8985,0.7216,-2.0363,0.0661,-1.0747
35,-0.6734,0.8897,0.7187,-2.6012,-0.285,-1.0747
47,-0.6712,0.8868,0.7189,-0.8912,-0.1782,-0.5098
88,-0.6695,0.8924,0.716,-1.166,0.1272,-0.7388
101,-0.6722,0.8916,0.7243,-2.3111,0.2493,-1.0136
114,-0.6747,0.8887,0.7189,-0.2958,0.2951,-0.1281
127,-0.6752,0.8909,0.716,0.5744,0.1882,1.1238
140,-0.6737,0.8924,0.7194,0.4217,0.1119,1.2765
153,-0.6749,0.8914,0.7152,2.6202,0.1272,1.1544
195,-0.6705,0.8912,0.7133,-0.3874,-0.224,-0.6014
208,-0.6732,0.8851,0.7184,-1.5783,0.1119,-1.0441
221,-0.6766,0.887,0.715,0.9256,0.3256,-0.2808
233,-0.6739,0.8873,0.7174,2.666,0.2188,0.8948
246,-0.6686,0.8897,0.7211,2.1622,0.1882,1.1544
259,-0.6754,0.8909,0.7194,2.7271,0.5852,0.6658
300,-0.6839,0.8953,0.714,3.4446,-1.0637,1.9177
313,-0.7098,0.8792,0.7284,-16.708,-2.7889,-0.4792
326,-0.7394,0.9595,0.7323,-18.2958,-6.4224,-3.4563
340,-0.7001,1.2552,0.6474,-13.7767,-10.4835,16.62
353,-0.7176,0.9925,0.7589,16.1164,-8.1018,37.4597
365,-0.8858,0.9141,0.8764,4.7424,-22.285,35.2307
406,-0.6258,0.8726,0.7858,13.5057,-15.3843,67.5971
419,-0.5074,0.8811,0.7409,-16.7996,-10.285,50.6047
432,-0.5189,0.9327,0.7018,-23.8378,-5.9644,37.246
446,-0.5284,0.9957,0.6615,-18.7844,0.4631,34.5895
458,-0.4635,1.0313,0.6298,-35.166,9.547,27.2918
472,-0.4513,0.9969,0.6733,-35.6088,20.3715,28.9406
512,-0.4584,0.7969,0.621,-46.1279,48.7684,5.9788
526,-0.4857,0.7803,0.651,-31.1813,58.3715,-3.1205
539,-0.8373,0.6976,0.8722,-71.0897,43.2875,-33.6395
552,-1.1996,0.5992,1.0517,-59.4256,22.2798,-51.6853
565,-0.9972,0.9109,0.8673,12.9256,10.005,-19.9449
578,-0.6564,0.8172,0.756,20.4217,3.0279,-12.1892
618,-0.7252,0.566,0.2824,7.4904,-3.6591,-37.0136
632,-0.6703,0.6963,0.5609,22.0553,-4.7125,-29.9449
645,-0.6678,0.972,0.9045,56.895,-13.4911,-24.4945
658,-0.6017,0.8116,0.7089,33.0477,-7.7202,-30.8304
670,-0.69,1.3699,0.5627,11.0172,-1.7049,-21.9144
683,-0.5694,1.0845,0.7743,52.9256,-3.0637,-10.1128
725,-0.3224,0.5611,0.7814,22.5591,-3.2163,-28.9983
738,-0.617,0.9351,0.2087,14.7424,3.8066,-25.838
750,-0.8319,1.1287,0.1176,-22.0821,-4.2698,-28.464
763,-0.8243,1.1851,0.2113,-20.0363,-10.1629,-13.1815
776,-0.649,0.7513,1.2123,57.0324,-1.0942,15.2002
790,-0.6883,1.1573,-0.1034,71.9332,11.4554,40.6963
831,-0.6771,0.9158,0.8124,-1.7615,-6.4682,-2.6166
843,-0.7272,1.0206,0.4164,49.3836,7.7608,14.7879
857,-0.671,0.9217,0.661,9.2309,-1.6896,1.933
869,-0.7076,0.8875,0.703,0.895,-6.3308,-3.6548
882,-0.6881,0.899,0.653,-11.3035,-10.2545,-10.2808
895,-0.6798,0.9212,0.713,-21.5172,-8.2392,-12.0976
937,-0.6949,0.8558,0.6928,-12.0973,0.2188,-6.296
950,-0.6832,0.8755,0.7148,-6.5859,-0.4377,-3.4258
962,-0.7106,0.8492,0.6142,3.8111,3.3485,0.62
975,-0.6451,0.9385,1.0219,40.1622,5.0432,6.5742
988,-0.6566,0.8882,0.6825,53.8263,10.4173,10.2231
1001,-0.8275,0.7615,0.1059,29.3836,12.3104,8.7727
1042,-0.6029,1.2605,0.2267,31.7653,30.7989,25.5818
1055,-0.5038,0.5572,1.0976,-39.563,16.9363,-23.4258
1068,-0.7057,0.8997,1.0685,-6.021,9.3944,7.078
1082,-0.41,1.0862,0.9584,-31.166,17.776,-10.7998
1095,-0.9178,1.0264,1.6381,-40.1737,-5.5369,-13.0441
1108,-0.6568,0.7124,-0.2567,-66.2195,-13.6591,-29.838
1148,-0.6505,0.9163,0.8368,11.0935,-20.4988,-23.2426
1161,-0.5577,0.865,1.1293,6.0553,-9.598,-29.6701
1175,-0.6737,0.8721,0.7724,-29.0744,3.9745,-45.2273
1188,-0.7049,0.7942,0.8529,7.8263,10.7837,-30.9067
1200,-0.7826,0.8294,0.6496,7.2004,-4.1324,-15.8838
1213,-0.8019,1.044,0.6847,61.6431,-17.1553,38.5589
1255,-0.7977,0.7383,0.7428,-9.6699,-43.598,44.0704
1267,-0.7037,0.7779,0.7838,-30.6928,-49.0942,12.6811
1280,-0.5875,1.0579,0.6764,2.5439,-51.2469,25.8566
1293,-0.3302,1.1463,0.6425,17.2004,-36.1476,47.8108
1307,-0.3089,1.1192,0.6432,6.834,-20.6515,49.9177
1320,-0.2743,1.0086,0.6225,-6.0821,-5.6744,38.162
1360,-0.5873,0.8306,0.6349,-14.1279,33.9287,15.8719
1374,-0.7198,0.7205,0.7441,-14.0363,33.6386,0.3757
1387,-0.7674,0.6309,0.7616,-24.9676,32.0356,-23.1663
1399,-0.8182,0.6539,0.7511,-59.7767,27.8066,-46.8915
1412,-0.9398,0.6883,0.8827,-50.0363,19.0585,-48.2808
1425,-0.7892,0.597,0.5443,-22.6622,16.0966,-34.1434
1466,-0.6642,0.7537,0.6689,8.0248,7.9287,2.8185
1479,-0.6798,0.6717,0.7714,19.9027,7.1653,-0.1128
1492,-0.7398,0.8758,0.8319,48.895,4.5547,3.7192
1505,-0.7699,0.3492,0.8715,20.5439,4.7073,-32.7235
1519,-0.5995,0.2432,0.6601,42.8798,5.3638,-39.5632
1532,-0.524,1.91,1.3671,83.4599,1.5318,-19.6548
1573,-0.722,1.5249,1.1552,57.3225,-5.6133,-28.7235
1586,-0.7877,1.0599,1.2921,45.7195,-3.8576,-11.1052
1599,-0.5213,1.9808,1.05,153.185,2.1577,79.6276
1611,-0.6778,1.1373,0.7458,18.5133,7.2264,29.1696
1624,-0.6583,0.9371,0.7206,15.9943,4.6157,17.078
1637,-0.6947,0.982,0.7423,-0.2195,2.5394,-12.5403
1678,-0.6808,0.8208,0.7108,-25.8378,-2.3919,-28.5708
1691,-0.6893,0.7991,0.7148,-12.2806,-3.0179,-16.1739
1704,-0.681,0.8084,0.7108,-1.2576,-3.3537,-4.2655
1717,-0.6876,0.8047,0.7223,8.5133,-3.1553,5.4444
1731,-0.6871,0.8186,0.7257,16.4523,-2.4224,12.4979
1743,-0.6791,0.8504,0.7235,18.9866,-1.3843,13.6429
1784,-0.6705,0.8472,0.7157,-4.7538,-1.0331,-2.1128
1798,-0.7052,0.8372,0.7323,-5.4714,-1.9339,-5.38
1811,-0.6722,0.8379,0.716,1.2309,-1.9034,-3.5021
1823,-0.692,0.8499,0.7228,-4.3264,-1.7507,-3.9144
1836,-0.6883,0.8357,0.7282,-6.1737,-1.3843,-2.3113
1849,-0.6837,0.826,0.725,-3.6241,-1.14,0.0856
1890,-0.6634,0.8377,0.7084,13.063,0.7073,11.4597
1903,-0.6747,0.865,0.7113,6.3912,0.7684,8.7727
1916,-0.6739,0.8726,0.7152,-7.3645,0.1424,2.3147
1930,-0.691,0.8208,0.7104,-15.3035,-0.1018,-0.6472
1943,-0.6734,0.8387,0.7162,-11.4867,-0.5446,1.7192
1955,-0.6803,0.8611,0.7216,-11.0439,-0.2545,3.2154
1996,-0.6722,0.8636,0.7199,9.1088,1.1195,7.9635
2009,-0.6739,0.8709,0.7167,9.353,0.4325,5.2307
2022,-0.6752,0.8714,0.7216,2.437,-0.1934,1.0322
2035,-0.6837,0.8672,0.7201,-1.2729,-0.7431,-2.1128
2049,-0.6847,0.858,0.7245,2.4981,-0.3308,-2.006
2062,-0.6822,0.8645,0.7209,2.5286,-0.4988,-2.9831
2102,-0.6805,0.8509,0.716,-8.9676,0.1424,-2.4487
2115,-0.6771,0.8526,0.7211,-6.7844,-0.2087,1.1696
2128,-0.6727,0.8514,0.7174,-0.1584,0.1424,4.0246
2141,-0.6793,0.8692,0.7248,3.3988,-0.1018,5.0627
2155,-0.6749,0.8687,0.7226,5.0172,0.1119,4.4979
2167,-0.6791,0.8736,0.7213,1.1546,-0.0713,-0.0823
2208,-0.672,0.8538,0.7201,-5.4409,0.0203,-4.754
2222,-0.6771,0.8548,0.7182,-4.8912,-0.2698,-3.6395
2235,-0.6795,0.8528,0.725,-5.8531,-0.2392,-2.1128
2247,-0.6752,0.8409,0.7204,-4.1279,-0.4377,0.0398
2260,-0.6791,0.8533,0.7233,1.1088,0.0356,2.3605
2274,-0.6808,0.8523,0.7265,4.7118,0.7073,1.994
2314,-0.6795,0.8621,0.7257,-6.418,0.0203,-4.8456
2327,-0.6852,0.8428,0.7255,-5.5935,-0.4835,-4.235
2340,-0.6793,0.8411,0.7204,-5.0286,-0.8652,-1.9144
2353,-0.6747,0.8414,0.7196,-0.0515,-0.4988,0.8795
2366,-0.672,0.8484,0.7204,-0.3874,-0.453,1.8566
2378,-0.6783,0.8587,0.7253,-1.1202,0.0661,1.2918
2419,-0.6778,0.8387,0.7182,-8.3416,0.7379,-3.8991
2433,-0.6805,0.8467,0.7187,-5.1813,0.3256,-1.7617
2445,-0.6773,0.8392,0.7177,0.0706,0.0203,1.5208
2458,-0.6764,0.8465,0.7248,0.3607,-0.7125,2.9101
2471,-0.6744,0.854,0.7194,-2.4027,-0.3614,1.475
2485,-0.6781,0.8558,0.7235,-3.7767,-0.0408,-1.8686
2525,-0.6803,0.8396,0.7218,2.2843,0.1119,-0.3113
2538,-0.6703,0.8438,0.7182,4.208,-0.1324,1.2002
2551,-0.6752,0.8492,0.7201,4.7729,-0.285,1.8261
2565,-0.6756,0.8565,0.7238,0.834,-0.0102,-0.2044
2576,-0.6795,0.8521,0.725,-3.5935,-0.0408,-2.6472
2589,-0.6832,0.8487,0.726,-4.8302,0.4631,-4.3724
2631,-0.6805,0.8365,0.7184,-4.0515,0.0661,-2.4182
2643,-0.6783,0.8428,0.7167,-5.7004,-0.3614,-2.2502
2657,-0.6756,0.8331,0.7216,-4.3874,-0.2392,-1.7769
2669,-0.6788,0.8287,0.7187,0.1469,0.1119,-0.6624
2681,-0.681,0.8423,0.7235,-0.708,0.3562,-1.2579
2694,-0.6739,0.8399,0.7148,-0.8149,0.1272,-1.2731
2735,-0.6808,0.8316,0.7272,-0.1431,0.6768,1.1696
2748,-0.6756,0.8401,0.7211,1.7805,0.1119,1.2918
2761,-0.6822,0.8421,0.7204,1.5973,-0.2087,0.8337
2775,-0.682,0.8428,0.7223,-0.4332,-0.224,-0.2808
2787,-0.6749,0.8426,0.7196,-2.0363,0.0508,-0.7082
2799,-0.6739,0.8401,0.7196,0.2538,-0.4988,-0.006
2840,-0.6808,0.8387,0.7209,0.4065,0.0966,0.162
2853,-0.6825,0.8357,0.7182,1.292,-0.0408,0.5589
2867,-0.6761,0.8492,0.7231,-1.1202,-0.1018,-0.4487
2880,-0.6813,0.8414,0.7243,-1.6546,-0.4377,-1.5021
2892,-0.6773,0.8426,0.7226,-3.2882,-0.3156,-2.1739
2905,-0.6817,0.8411,0.7277,-4.3111,-0.224,-2.1586
2947,-0.6744,0.8243,0.7099,1.8111,-0.0866,1.307
2959,-0.6808,0.8433,0.7243,3.3378,-0.5598,1.0933
2972,-0.6788,0.8475,0.7265,-0.0363,-0.0408,-0.6624
2985,-0.681,0.8404,0.7211,-1.334,-0.3919,-1.6548
2999,-0.6715,0.8436,0.714,-2.8302,-0.2698,-2.8915
3012,-0.6815,0.8387,0.726,-6.1584,-0.3766,-3.7311
3052,-0.6815,0.8304,0.7231,3.2462,-0.056,2.1314
3065,-0.6744,0.8433,0.7231,1.6278,-0.1629,1.3528
3079,-0.6769,0.8362,0.725,-3.4256,-0.453,-0.6319
3091,-0.6788,0.8328,0.7221,-4.2195,-0.0713,-1.151
3104,-0.6766,0.837,0.7287,-4.7386,-0.5293,-1.6853
3117,-0.6839,0.8277,0.7235,-3.334,-0.056,-1.6701
3158,-0.6769,0.8392,0.725,1.3378,-0.0408,1.6887
3171,-0.6715,0.8411,0.7221,-4.0821,-0.4072,-0.4487
3184,-0.68,0.8255,0.726,-2.1584,0.3714,-0.067
3197,-0.6759,0.8335,0.7231,-3.0744,0.1119,0.0398
3211,-0.6837,0.8374,0.7196,-4.876,-0.1324,-1.0899
3223,-0.681,0.8372,0.7243,-4.8454,-0.3156,-1.3953
3264,-0.681,0.8245,0.724,-4.0668,-0.0255,-1.5021
3278,-0.6776,0.8299,0.7194,-1.792,0.0356,-0.0518
3290,-0.6793,0.824,0.7309,-0.9828,0.2646,0.9559
3303,-0.681,0.8309,0.7262,-0.0515,0.2646,1.9024
3317,-0.6822,0.8382,0.7282,-1.3951,-0.0255,1.2765
3329,-0.6791,0.8384,0.724,-2.418,-0.1629,-0.7846
3371,-0.6842,0.8248,0.7262,-3.2576,0.1272,-2.7082
3384,-0.682,0.8243,0.7287,-0.2958,-0.1629,-0.4487
3396,-0.6788,0.8277,0.7304,0.3301,0.1577,1.5055
3409,-0.6761,0.8257,0.725,2.3759,-0.2698,2.8032
3422,-0.6803,0.8365,0.7267,1.8416,-0.2392,2.2231
3435,-0.6786,0.8409,0.7294,-2.2042,-0.1018,-0.3266
3476,-0.6827,0.8218,0.7257,-0.6928,-0.056,-0.6777
3489,-0.6752,0.8265,0.7253,0.9866,-0.0255,0.6047
3501,-0.6827,0.8238,0.7243,0.8492,0.1272,1.5208
3515,-0.6808,0.8267,0.7292,-0.0515,0.2188,1.7803
3528,-0.6808,0.8277,0.7233,-0.6012,0.3562,-0.1739
3541,-0.6798,0.8221,0.7323,1.1088,0.5547,-0.4945
3581,-0.6783,0.8233,0.7275,-2.9981,-0.1782,-1.3495
3595,-0.6734,0.8206,0.7201,-2.9676,-0.682,-1.0747
3608,-0.6761,0.824,0.727,-1.334,-0.4682,0.5589
3620,-0.6793,0.8245,0.7296,-0.1889,-0.4224,1.1391
3633,-0.6817,0.8262,0.7316,1.0477,0.1577,1.2154
3646,-0.6786,0.8348,0.7262,-2.1431,0.2493,-0.4792
3687,-0.6754,0.8204,0.727,-3.8073,0.173,-1.9907
3700,-0.6888,0.8099,0.7296,-0.9065,0.0356,0.0398
3713,-0.6732,0.8169,0.7262,0.895,0.2188,1.933
3726,-0.6822,0.8194,0.7343,1.8263,0.1577,2.162
3739,-0.6703,0.8267,0.7231,3.0935,0.7837,2.4215
3752,-0.6827,0.8311,0.7289,1.7347,0.0661,2.1773
3793,-0.6786,0.8186,0.726,-1.9599,-0.3461,-1.838
3806,-0.6808,0.824,0.7296,-1.5019,-0.4072,-0.1128
3820,-0.6805,0.8274,0.7287,-0.1889,-0.4224,1.3223
3832,-0.6773,0.8238,0.7336,1.9027,0.234,2.1314
3845,-0.6717,0.8291,0.7275,4.6965,0.8753,2.3757
3858,-0.6766,0.8316,0.7233,3.1546,0.3867,1.1391
3899,-0.6825,0.8294,0.7311,-3.3645,0.0203,-0.9678
3912,-0.6776,0.8199,0.7223,-1.9905,-0.285,-0.4792
3925,-0.6771,0.8274,0.7255,-2.2195,-0.1629,-0.464
3939,-0.6803,0.8235,0.7277,-0.0363,-0.2698,0.1925
3950,-0.6798,0.8252,0.725,1.4904,0.173,0.5131
3963,-0.6793,0.8257,0.725,0.8798,0.1119,0.1773
4004,-0.6798,0.8213,0.7226,1.063,0.1424,0.1925
4017,-0.6788,0.8255,0.7233,1.4446,0.0356,-0.067
4031,-0.682,0.8287,0.7299,0.7729,-0.056,-0.296
4043,-0.6808,0.8294,0.7238,1.7042,-0.1476,0.6353
4056,-0.6778,0.8306,0.725,0.666,-0.3614,0.3452
4069,-0.6776,0.8289,0.7292,0.9714,-0.0102,0.8337
4111,-0.681,0.826,0.7265,-2.7386,0.1272,-1.8533
4123,-0.6788,0.8248,0.7211,-1.7157,-0.1782,-1.8686
4137,-0.6798,0.825,0.727,-2.3264,-0.4377,-1.5937
4149,-0.6827,0.8226,0.7289,-2.0821,0.2188,-0.4792
4162,-0.6795,0.8201,0.7287,-0.3722,0.234,1.2154
4176,-0.6742,0.8316,0.7282,1.2767,-0.0255,1.3986
4216,-0.6783,0.8284,0.726,1.3988,0.0508,-0.1586
4229,-0.6625,0.8062,0.7272,-2.3874,-0.5598,-2.4029
4243,-0.6849,0.8255,0.7306,-1.0897,0.1577,-0.9831
4255,-0.68,0.8265,0.7321,-1.3035,-0.0408,-0.5403
4268,-0.6712,0.8262,0.7233,-0.9676,0.0508,-0.4945
4281,-0.6815,0.8191,0.7262,0.6202,0.2798,0.4826
4323,-0.6798,0.8182,0.7296,-3.0134,-0.453,-1.609
4335,-0.6769,0.825,0.7287,-3.2271,-0.2392,-1.7006
4348,-0.681,0.8233,0.7204,-4.5554,0.0661,-2.693
4362,-0.6822,0.8206,0.726,-4.4943,-0.4072,-2.5556
4374,-0.6776,0.8165,0.727,-2.3569,0.0814,-1.3189
4387,-0.6771,0.8155,0.7211,-0.0821,0.1272,0.8337
4428,-0.6849,0.8294,0.7292,0.8645,0.1577,1.0017
4441,-0.6798,0.8313,0.7265,-2.5554,-0.1171,-1.151
4455,-0.6803,0.823,0.7267,-4.5248,0.2646,-2.1586
4467,-0.681,0.8145,0.7321,-2.8302,0.1272,-1.3495
4480,-0.6776,0.8204,0.7294,-0.9676,-0.1324,0.4673
4494,-0.6783,0.8269,0.7328,-0.2347,-0.2087,1.1849
4534,-0.68,0.8211,0.7282,0.437,0.0814,-0.0976
4547,-0.6791,0.8226,0.7311,0.6355,0.0966,0.391
4560,-0.6783,0.8206,0.7257,-2.3416,-0.1934,-0.7388
4573,-0.6822,0.826,0.7304,-1.6393,-0.2545,-0.5403
4585,-0.6805,0.8174,0.7304,0.1927,0.3104,0.0093
4598,-0.6791,0.8245,0.7304,0.7271,0.1882,-0.3724
4639,-0.6808,0.8228,0.7272,-0.9523,0.2798,-0.0212
4653,-0.6759,0.8211,0.7213,-1.2271,-0.1629,0.2994
4665,-0.6771,0.8201,0.7292,-1.4409,-0.0713,-0.0976
4679,-0.6795,0.8208,0.7333,-1.9599,0.2188,-1.1815
4691,-0.6791,0.8199,0.7326,-1.1508,0.1424,-0.7998
4704,-0.6783,0.815,0.7221,0.5897,0.2035,-0.0365
4746,-0.6808,0.8238,0.7262,-0.0515,0.173,0.6963
4758,-0.6795,0.8265,0.7306,0.0706,0.5241,-0.693
4770,-0.6815,0.8223,0.7211,-0.9676,0.402,-1.6243
4783,-0.6786,0.8235,0.727,-1.7157,0.1272,-1.3495
4796,-0.6756,0.8196,0.7333,0.437,0.1882,0.1925
4809,-0.6813,0.8165,0.7333,1.7194,-0.1324,1.0169
4849,-0.6815,0.8147,0.7314,-1.2576,-0.3003,-0.2655
4862,-0.6756,0.8206,0.724,-0.6622,0.3867,0.0551
4875,-0.6773,0.8211,0.7262,0.666,0.3867,0.2078
4886,-0.6791,0.8233,0.7311,1.0172,0.2798,0.3147
4899,-0.6788,0.825,0.7267,0.7882,0.173,0.62
4912,-0.681,0.8221,0.7279,-0.4638,0.1424,-0.0365
4953,-0.6783,0.8255,0.7277,-0.9523,-0.056,0.0093
4966,-0.6791,0.8269,0.7294,-1.3798,0.1119,-0.4487
4979,-0.6759,0.823,0.7301,-2.937,0.2951,-1.0747
4992,-0.6786,0.8216,0.7294,0.666,0.4936,0.1162
5005,-0.6793,0.8189,0.7306,0.0859,0.5241,0.1314
5016,-0.6793,0.8235,0.7272,-1.0744,0.0203,-0.1739
5058,-0.6788,0.8238,0.7296,-2.2195,-0.1171,0.0856
5070,-0.6793,0.8189,0.7226,-0.8912,-0.2545,0.2536
5082,-0.6817,0.8238,0.7318,-2.0515,-0.1324,-0.3571
5095,-0.6791,0.8208,0.7311,-0.2042,0.173,-0.0212
5107,-0.6771,0.8191,0.7277,-0.5248,0.0203,0.5131
5119,-0.6783,0.825,0.725,-0.0515,0.1882,0.5742
5161,-0.6805,0.8204,0.7287,-2.7233,-0.1324,-1.0594
