time_ms,ax,ay,az,gx,gy,gz
12,-0.7777,0.4723,0.4815,-0.1078,0.0222,-0.4218
25,-0.7792,0.4562,0.4859,-0.7032,0.1596,0.311
36,-0.7801,0.4545,0.4764,0.4266,0.1902,1.2881
50,-0.7828,0.4603,0.4762,1.3121,-0.2984,2.2041
92,-0.7816,0.4664,0.4854,-2.1994,1.0757,-2.9409
104,-0.7775,0.4593,0.4859,-2.2146,0.5871,-2.6966
117,-0.7843,0.4532,0.4771,-0.749,0.4497,-0.5134
130,-0.7823,0.4537,0.4776,0.0144,-0.0236,0.9217
142,-0.7823,0.463,0.4779,2.3503,0.0833,2.6774
155,-0.7799,0.4676,0.4791,0.9915,0.9535,0.7843
196,-0.7816,0.4503,0.4757,-0.2604,-0.3595,-1.4447
209,-0.7816,0.4596,0.482,-1.1154,-0.0999,-0.7882
222,-0.7794,0.463,0.481,-1.894,0.4039,-0.8035
235,-0.7796,0.4554,0.4766,-0.8558,0.694,-0.6966
247,-0.7794,0.4547,0.4796,1.1136,0.0986,0.1736
259,-0.7801,0.4628,0.4764,0.8083,-0.222,0.4942
301,-0.7818,0.4564,0.4805,-2.1536,-0.0999,-2.8798
314,-0.7806,0.4537,0.4779,-0.5047,0.3581,-0.9256
326,-0.7818,0.4491,0.4803,1.2663,-0.1152,2.0515
340,-0.7838,0.4457,0.4757,1.709,-0.6953,5.8072
353,-0.7877,0.4422,0.4725,3.938,-1.5503,7.395
366,-0.7865,0.4601,0.4759,9.0831,-3.703,10.2194
407,-0.9276,0.4108,0.1829,48.8999,6.2512,32.9827
420,-0.9029,0.087,0.44,56.8235,7.9764,8.2499
433,-0.8107,0.3092,0.4891,39.9228,-1.0465,-13.2157
447,-0.6781,0.452,0.4718,39.8006,-8.3137,-11.8722
459,-0.6044,0.5201,0.3763,36.1976,0.9535,-9.1547
472,-0.6622,0.517,0.4061,35.19,15.7627,-8.8646
513,-0.7687,0.6146,0.5501,15.48,-2.3595,-1.8417
526,-0.7491,0.6273,0.5623,5.9228,-7.8251,-2.3913
539,-0.7403,0.6263,0.5643,-4.2146,-11.6419,2.5553
552,-0.7132,0.4505,0.5062,-11.5887,-14.5732,0.8453
565,-0.7818,0.4056,0.4654,-7.7566,-10.7717,-8.773
578,-0.8194,0.423,0.472,-0.2604,-9.4129,-8.6814
619,-0.7508,0.4628,0.5157,6.1671,-22.3747,-6.0402
632,-0.7027,0.4425,0.44,7.5106,-20.4205,-3.9944
645,-0.7145,0.4781,0.4832,12.8541,-12.4511,-0.7577
658,-0.7445,0.5021,0.4732,13.938,-8.2373,1.7919
670,-0.7638,0.5582,0.4708,10.6403,-0.3289,2.3721
684,-0.7638,0.5533,0.4876,-1.1001,2.0222,-1.9027
725,-0.8212,0.5663,0.5484,-34.7948,41.152,-16.8646
738,-0.8773,0.3976,0.4815,-31.3902,9.1825,-22.6661
751,-0.7872,0.4569,0.5098,-19.2833,12.7093,-11.9638
765,-0.7428,0.5399,0.4469,-4.2452,24.1138,3.8682
777,-0.8026,0.5187,0.4051,-1.0543,8.5108,6.9827
790,-0.8024,0.4757,0.3719,8.4266,8.8161,9.1354
830,-0.7755,0.4513,0.4957,1.0984,2.5871,12.2652
844,-0.7814,0.461,0.4918,6.0144,1.6711,13.0438
857,-0.7442,0.4186,0.6243,6.8693,-5.703,7.9446
870,-0.8729,0.36,0.1766,-13.207,-26.4511,-6.9409
883,-0.9034,0.389,0.4163,11.7548,-40.9396,-8.7424
897,-1.0653,0.5543,-0.0075,-9.8635,-40.5579,-11.8569
937,-0.8241,0.4955,0.3482,24.1365,-47.9472,-22.6508
950,-0.8302,0.2013,0.3861,31.3121,-42.4816,-8.5898
964,-0.5792,0.3656,0.568,32.1365,-34.4816,-19.0325
976,-0.6351,0.5506,0.6007,38.7014,-24.8938,0.3873
989,-0.9342,0.6114,0.5875,37.3732,-22.0541,-13.5058
1002,-1.0179,0.6322,0.4681,10.9304,-14.4816,0.0209
1043,-0.7699,0.537,0.4967,-26.1383,6.5871,-19.0936
1056,-0.8592,0.4308,0.2813,-55.4055,9.1062,-26.0402
1069,-0.7567,0.6185,0.8814,-55.8482,33.0757,-19.5363
1083,-0.836,0.4618,0.9168,-52.7948,49.3963,-25.8111
1095,-0.7894,0.4305,0.5355,-48.6574,51.5795,-3.1394
1108,-0.9305,0.9769,0.349,45.6174,64.2818,9.1965
1149,-0.5729,0.0734,1.0946,-1.8787,55.3657,-3.8875
1163,-0.7711,0.5614,0.5875,49.0678,72.3886,23.6087
1175,-0.8983,0.5953,0.5384,-8.4894,21.61,17.0286
1188,-0.7101,0.4188,1.6195,-21.2375,29.6711,-0.9409
1201,-0.7252,0.1818,0.233,47.0526,23.7322,-0.7882
1214,-0.652,0.4171,1.1637,-17.0849,34.1138,1.2728
1255,-0.7882,0.4408,0.4542,-1.1459,0.0375,0.3263
1267,-0.7889,0.4564,0.4532,2.8388,-0.6037,4.1583
1281,-0.787,0.4601,0.4539,-0.3215,-2.1457,2.6927
1294,-0.805,0.4476,0.4666,-3.5887,-3.7335,1.0286
1307,-0.797,0.4664,0.4591,-1.7719,-6.1762,2.1583
1320,-0.8522,0.6578,0.6339,0.5182,-18.0846,13.9446
1361,-0.8058,0.4901,0.5318,-11.4971,-60.2831,18.0973
1374,-0.7174,0.535,0.4852,-16.4131,-60.6037,17.6392
1388,-0.5819,0.4859,0.3526,-16.8558,-43.0617,15.6698
1400,-0.6139,0.4774,0.3909,-23.3139,-21.3518,8.4331
1413,-0.6383,0.504,0.4212,-20.7032,-0.4969,9.2881
1426,-0.6437,0.4884,0.408,-23.5276,16.0528,1.9598
1467,-0.9435,0.3595,0.243,-10.6268,4.7856,-7.5516
1480,-0.7775,0.4142,0.484,-1.6192,2.4039,-4.8798
1493,-0.763,0.4318,0.483,-4.2146,1.0909,4.7843
1506,-0.7811,0.3107,0.5323,1.419,-1.703,6.4026
1519,-0.5804,-0.2604,0.3636,-6.9169,9.2741,-32.5898
1532,-0.974,0.2484,0.4906,9.4342,-4.7106,-3.7959
1573,-0.3546,0.2828,0.335,-42.9169,-0.4358,-23.9485
1586,-0.8129,0.0148,0.4542,27.5716,-2.5885,20.1125
1599,-0.8573,0.9213,0.474,-8.7948,-5.0159,6.4026
1613,-0.7711,0.5304,0.4722,-6.749,2.9535,-12.4371
1625,-0.7843,0.4606,0.4893,-20.1536,4.0375,-25.2921
1638,-0.7789,0.3966,0.4762,-15.6345,0.2207,-21.2005
1679,-0.7704,0.4388,0.483,4.3503,0.6634,10.5553
1692,-0.7782,0.4474,0.4827,5.6022,0.2054,10.0667
1705,-0.7745,0.4581,0.4925,4.6098,-0.1152,5.2728
1718,-0.7772,0.4598,0.4847,2.2434,0.6024,-1.3379
1731,-0.7748,0.4464,0.4862,-0.5658,0.9841,-5.8875
1744,-0.776,0.4457,0.4859,-6.581,0.9841,-8.5134
1785,-0.776,0.4254,0.4769,-4.3062,2.3276,-1.4142
1799,-0.7753,0.4349,0.483,-0.7795,1.9154,2.2041
1811,-0.7733,0.4449,0.4862,1.3274,1.4573,2.0362
1824,-0.7757,0.4462,0.4852,-1.3749,1.6405,-1.002
1837,-0.7748,0.444,0.4796,-1.3444,1.3199,-3.5363
1850,-0.7784,0.4364,0.4884,-1.6345,2.7245,-5.7348
1891,-0.7753,0.4256,0.4808,-9.0543,4.6329,-5.2157
1904,-0.7755,0.4298,0.4818,-11.0696,4.1902,-2.4676
1917,-0.7816,0.4164,0.4737,-8.4131,3.0451,2.6927
1930,-0.7823,0.4166,0.472,-1.6345,1.0299,8.5858
1942,-0.7789,0.4327,0.4796,1.1289,0.0833,9.0896
1956,-0.7765,0.4513,0.4771,-0.291,-0.1304,4.2652
1997,-0.776,0.4188,0.4779,-5.1154,-1.4129,-12.5592
2010,-0.7753,0.4249,0.4781,-8.2299,-0.1304,-12.2386
2023,-0.7757,0.4042,0.4744,-4.5963,0.3123,-10.1165
2036,-0.7789,0.4354,0.4832,-2.8406,0.694,-5.2157
2049,-0.7772,0.4027,0.4754,-2.6421,1.1215,-2.834
2061,-0.7757,0.4093,0.4757,-3.0849,1.778,0.3263
2103,-0.7779,0.4286,0.4693,-0.3062,0.1138,-0.7272
2116,-0.774,0.4278,0.463,-1.0391,-1.1075,-6.3302
2130,-0.7762,0.4254,0.4674,-3.5581,-1.5198,-11.8722
2142,-0.7713,0.3937,0.4652,-4.5505,-1.1839,-13.9485
2156,-0.7733,0.3978,0.4686,-4.9627,0.1138,-11.3226
2167,-0.7748,0.3971,0.4784,-2.3062,1.4421,-7.2463
2209,-0.7674,0.3998,0.4674,5.1289,0.1749,11.1812
2222,-0.7796,0.4203,0.4698,5.5716,-1.535,10.0667
2235,-0.7718,0.4337,0.4747,0.7167,-1.6419,2.8759
2249,-0.7748,0.4278,0.4759,-2.6116,-1.5503,-3.5669
2261,-0.7731,0.4188,0.4771,-3.1154,-1.077,-7.3226
2274,-0.7767,0.4234,0.4859,-2.123,-0.7564,-8.7424
2315,-0.7684,0.3937,0.4732,0.6709,-1.6114,0.54
2327,-0.7718,0.4017,0.4737,1.419,-1.2144,6.0973
2341,-0.7738,0.3998,0.4796,2.0754,-1.0159,8.2194
2354,-0.7818,0.4108,0.4722,4.0296,-1.6419,9.5934
2367,-0.7701,0.4232,0.4737,2.4571,-0.9549,8.5705
2380,-0.7728,0.4122,0.474,2.1671,-0.5732,7.3644
2421,-0.7753,0.431,0.4825,3.3426,-2.8175,14.2805
2434,-0.7723,0.4369,0.4874,3.9838,-2.5579,13.7766
2447,-0.7821,0.441,0.4859,1.419,-1.6877,12.54
2460,-0.774,0.4357,0.4837,-2.1383,-1.0617,11.7614
2473,-0.7782,0.4349,0.4791,-3.894,-1.4129,11.3186
2486,-0.7748,0.4491,0.4793,-5.0238,-2.9701,9.0133
2527,-0.7782,0.442,0.4928,-3.665,-4.8633,-1.7501
2540,-0.7696,0.4383,0.4906,-5.0543,-2.4816,-5.1699
2554,-0.7728,0.4271,0.4898,-3.1001,-0.6953,-4.2386
2566,-0.7735,0.4318,0.4852,-1.3902,0.6482,-1.2157
2579,-0.7765,0.4252,0.4852,2.1213,0.9688,3.1965
2592,-0.7738,0.4193,0.482,6.0449,1.2894,6.8606
2633,-0.7726,0.4476,0.4813,1.7854,-0.8327,4.8148
2646,-0.7743,0.4462,0.484,-0.749,-1.2297,3.1507
2659,-0.7767,0.4427,0.4884,-0.81,-1.764,3.1507
2672,-0.7743,0.4359,0.4906,1.5564,-2.1457,4.8759
2685,-0.7755,0.442,0.4867,2.9457,-1.1228,5.9598
2697,-0.7777,0.4454,0.4876,3.8006,-0.4358,5.9293
2739,-0.7762,0.4559,0.4893,-3.5123,-0.6953,-2.8188
2752,-0.7765,0.4515,0.4893,-4.81,-1.6419,-4.1928
2765,-0.776,0.4364,0.4823,-4.6726,-1.0312,-3.1241
2778,-0.7735,0.4335,0.4893,-1.4665,-0.8785,1.1965
2791,-0.7748,0.4383,0.4903,-0.5505,-0.1304,3.7614
2804,-0.7765,0.4413,0.4896,1.4953,-0.4205,5.2423
2845,-0.7777,0.4613,0.4869,0.0754,-1.7946,-0.0096
2858,-0.7745,0.4571,0.493,-4.1536,-0.8785,-3.5974
2871,-0.777,0.4471,0.4913,-5.6497,-0.8175,-4.2234
2884,-0.7711,0.4366,0.4906,-4.1994,-0.4969,-1.9791
2897,-0.7757,0.4388,0.4827,-0.7337,-1.1686,2.0667
2910,-0.7765,0.4427,0.4935,1.5716,-1.2449,4.3568
2951,-0.7753,0.4493,0.4898,1.4495,0.2054,4.4026
2963,-0.7757,0.4535,0.495,1.7701,0.3734,3.3797
2977,-0.7738,0.4567,0.495,1.2052,0.6482,2.1125
2990,-0.7777,0.4535,0.4857,-0.8406,0.465,1.3492
3003,-0.7772,0.454,0.4903,0.2892,-0.0999,1.3492
3016,-0.7748,0.4623,0.4891,-1.3444,0.068,0.1125
3057,-0.7748,0.4508,0.4888,-0.1383,-0.9091,0.0667
3070,-0.7782,0.4513,0.4918,1.1136,-1.2907,1.3186
3083,-0.7757,0.4505,0.4893,0.0907,-1.2755,1.8835
3096,-0.7794,0.451,0.492,2.0296,-2.1304,3.3492
3109,-0.7772,0.4589,0.494,3.4648,-2.0236,3.6087
3122,-0.774,0.4562,0.4932,2.8999,-1.535,2.4637
3163,-0.7748,0.4552,0.5011,-0.4742,-0.161,-0.6508
3176,-0.7753,0.453,0.4888,-0.0925,-0.619,-0.2234
3189,-0.7777,0.4571,0.4901,0.5335,-1.1228,0.5553
3202,-0.7772,0.4559,0.494,1.1136,-2.4663,1.0286
3215,-0.7755,0.4591,0.4935,1.3579,-3.0617,0.8148
3228,-0.7755,0.4576,0.4969,0.7014,-2.4663,-0.5745
3269,-0.774,0.4537,0.4947,-3.6803,-0.5274,-3.46
3282,-0.7735,0.4493,0.4989,-2.5047,-0.9243,-2.6966
3295,-0.7731,0.4525,0.4979,-3.3139,-0.222,-3.3073
3308,-0.7674,0.4525,0.4954,-4.1536,-0.0388,-3.689
3321,-0.7745,0.4488,0.4993,-3.5429,0.5566,-3.2157
3334,-0.7743,0.4437,0.4932,-0.6726,0.2512,-0.5287
3375,-0.7713,0.4571,0.4991,-0.0925,-0.0999,1.2881
3388,-0.7711,0.461,0.4952,-2.5963,-0.7106,-1.5669
3401,-0.7762,0.454,0.4937,-2.3673,-1.7793,-3.9791
3414,-0.7721,0.451,0.4942,-1.4207,-1.6266,-4.4829
3427,-0.7753,0.4466,0.4974,-1.436,-0.5579,-3.6737
3441,-0.7721,0.4452,0.4974,-0.7795,-0.0236,-2.4676
3481,-0.7767,0.4479,0.4947,-1.2375,-0.4358,0.7232
3494,-0.7755,0.4476,0.4959,-1.9398,-0.4816,-1.002
3507,-0.7735,0.4449,0.4969,-0.6268,-1.1075,-1.4753
3521,-0.7694,0.4479,0.4952,-1.1001,-0.5274,-2.0249
3533,-0.7691,0.4432,0.4976,-0.978,-0.2373,-1.7348
3546,-0.7743,0.441,0.4974,0.1213,0.1596,0.4484
3587,-0.7694,0.4527,0.4979,-1.9551,-0.619,-1.6737
3600,-0.7775,0.4532,0.5006,-3.6803,-1.0923,-2.834
3613,-0.7718,0.4405,0.4942,-2.4284,-1.0923,-3.1547
3626,-0.7721,0.4369,0.5023,-0.1688,-1.0617,-1.3073
3639,-0.7699,0.4437,0.502,0.5029,-1.0617,0.082
3652,-0.7733,0.4418,0.5003,0.4419,-0.6801,0.0209
3693,-0.7721,0.4476,0.4986,-0.291,-1.1991,-1.7195
3706,-0.7723,0.4371,0.5006,1.251,-1.0923,-0.8493
3719,-0.7684,0.4408,0.4996,2.4113,-0.8175,-0.0249
3732,-0.7696,0.4464,0.503,1.3579,-0.1915,0.0362
3745,-0.7701,0.4457,0.502,2.3045,-0.5427,0.6469
3758,-0.7679,0.4476,0.4979,0.7625,-0.2831,-0.2844
3799,-0.7726,0.4401,0.4986,-0.1078,-0.4663,0.3721
3812,-0.7711,0.4427,0.5045,0.7472,-0.3289,0.6163
3824,-0.7753,0.4459,0.5028,0.8388,-0.4816,0.1278
3836,-0.7711,0.4405,0.5094,-0.123,-0.4205,0.2194
3848,-0.7704,0.4435,0.5003,-0.8711,-0.161,-0.2692
3861,-0.7677,0.4469,0.4996,-2.1536,0.0986,-0.0402
3901,-0.7709,0.4479,0.504,1.3426,-1.1228,3.0744
3914,-0.7709,0.4464,0.4998,1.7243,-1.1839,1.7003
3928,-0.7738,0.4383,0.5018,2.9304,-1.7946,1.3186
3940,-0.7753,0.4576,0.4989,4.106,-2.2678,1.5324
3953,-0.7701,0.4579,0.5033,0.7014,-2.1304,0.4026
3966,-0.7679,0.4523,0.504,-2.9627,-0.8785,-1.9485
4007,-0.7699,0.4442,0.5011,2.7625,0.8619,3.1965
4020,-0.7691,0.454,0.5091,1.0525,0.9535,0.7079
