time_ms,ax,ay,az,gx,gy,gz
8,-0.7674,0.4049,0.4832,-1.7261,1.4115,-1.002
50,-0.7674,0.39,0.4779,-0.7795,-0.39,-0.0249
62,-0.7667,0.3956,0.484,0.0144,-1.0617,2.5858
75,-0.7665,0.3973,0.4835,1.709,-0.6648,3.2118
88,-0.7691,0.4015,0.4825,0.5182,0.3734,2.2347
101,-0.7709,0.3985,0.4827,-0.6268,1.5489,0.8911
114,-0.7679,0.4025,0.4766,-0.3062,2.0222,-0.6661
155,-0.7684,0.3922,0.481,-1.3902,-1.1075,-2.2539
168,-0.7684,0.389,0.4781,1.5716,-1.9625,0.1278
182,-0.7687,0.3964,0.4793,1.5564,-1.0465,0.2652
194,-0.7662,0.3983,0.481,0.2892,0.1596,-0.147
206,-0.7674,0.3944,0.4805,-1.1154,0.7551,-0.7272
219,-0.7716,0.4012,0.4832,-1.7566,0.8772,-1.1699
261,-0.7704,0.3888,0.4859,0.4877,-0.0694,0.0667
274,-0.767,0.3932,0.4796,1.0984,-0.3595,0.2957
286,-0.7682,0.3905,0.4832,2.0907,-0.222,1.395
299,-0.767,0.3966,0.4859,3.0067,0.0528,1.5018
313,-0.7691,0.3978,0.4832,5.9838,-0.8022,1.7003
325,-0.7709,0.3717,0.4818,5.7701,-1.0923,2.4789
366,-0.7721,0.3988,0.4791,16.9915,-7.7946,9.9904
380,-0.7784,0.4115,0.4808,19.4495,-9.6877,14.2652
393,-0.819,0.5196,0.4727,20.6556,-8.8022,21.2881
405,-0.7713,0.4349,0.474,10.0907,-7.4282,31.8377
418,-0.722,0.42,0.5999,15.3732,-6.8175,23.5324
432,-0.7281,0.3776,0.5555,-5.0849,-9.6266,0.6621
472,-0.7167,0.3065,0.5731,-9.894,-40.8938,-18.7577
486,-0.714,0.3553,0.5658,-9.5887,-44.1915,-19.8111
499,-0.7486,0.3815,0.4664,-14.4436,-45.0617,-20.4676
512,-0.7399,0.4322,0.4349,-4.9627,-33.4892,-20.5745
525,-0.6634,0.4227,0.4681,-8.3215,-18.1915,-22.5745
538,-0.6285,0.4737,0.4437,-9.436,-4.1457,-24.6814
578,-0.858,0.3636,0.3795,-3.4665,-23.8098,-12.0554
592,-0.7748,0.4579,0.4342,-12.6726,-1.3976,-5.7653
605,-0.7814,0.4457,0.4014,-14.4284,-2.5732,-9.231
617,-0.8766,0.588,0.2547,-8.581,19.7169,10.311
631,-1.0148,0.4762,0.117,40.1823,42.0833,21.2423
643,-0.7645,0.4838,0.1575,55.5411,78.5566,29.6392
685,-0.7811,0.5277,0.1668,124.014,125.091,48.3721
697,-1.0477,0.3085,0.9461,50.5029,97.8543,26.0515
710,-0.8978,0.0814,0.4276,66.564,81.9764,16.4942
724,-0.5245,0.2208,1.2679,-120.703,77.4115,10.311
736,-0.7042,0.3492,1.7083,-6.3978,94.9077,16.8759
749,-0.7811,0.4708,0.3634,52.0755,61.9917,7.5018
790,-0.7357,0.1754,0.8726,46.1213,43.2894,10.3415
803,-0.743,0.2982,0.4722,-10.3978,4.4802,-6.4676
817,-0.8124,0.4195,0.3541,-1.7413,11.7627,0.7843
830,-0.8131,0.4166,0.3504,15.7396,14.8772,13.8224
843,-0.8485,0.3927,0.3817,28.8083,12.526,18.4942
855,-0.787,-0.037,1.3165,-2.5047,-42.9091,-11.3073
897,-1.0377,0.7357,-0.1398,-38.291,-158.253,-59.6127
910,-1.1354,0.4818,0.6195,-27.3139,-118.207,-36.2386
923,-1.3114,0.6542,0.0306,-34.9016,-97.6572,-44.2997
935,-0.8207,0.6295,0.7581,-16.8406,-87.9778,-45.0783
949,-0.1964,0.5626,0.7025,-16.4436,-84.8938,-38.6508
962,-1.1639,0.537,0.8614,-9.6039,-68.8633,-24.1623
1002,-0.8341,0.3004,0.1261,19.7396,-15.4129,-8.6356
1015,-0.767,0.3978,0.5098,14.6709,-5.4129,11.5171
1029,-0.7543,0.4305,0.5089,-38.0772,-5.9625,-2.5287
1042,-0.7931,0.4576,0.4254,-36.5047,-3.1686,-7.8722
1055,-0.902,0.3744,0.1876,-24.9475,10.2818,-9.2921
1067,-0.7071,0.3746,0.5399,-2.0314,63.0604,-1.4905
1109,-0.7704,0.5311,-0.381,111.846,104.938,37.1202
1122,-0.7157,0.6017,0.1812,126.976,66.1444,41.456
1134,-0.5052,0.8453,-0.0219,90.5335,134.725,41.7003
1147,-1.1925,0.8544,-0.1061,6.0144,79.4115,48.7995
1161,-0.7555,0.6246,-0.5629,103.999,107.427,24.4331
1174,-1.1012,1.1075,-1.0121,33.9075,80.7703,20.2652
1214,-0.8988,0.3553,2.1738,35.9533,66.4497,1.8682
1228,-0.6622,0.2452,0.4805,18.8388,-11.5503,14.7385
1241,-0.9161,0.0873,0.8477,0.1976,48.4802,-5.5821
1253,-0.8302,0.5196,-0.5624,26.0907,48.3581,5.9751
1266,-0.8109,0.5043,0.4329,17.8006,7.2741,4.8148
1279,-0.8004,0.4452,0.39,2.2129,2.0833,4.8911
1320,-0.8104,0.4801,0.3367,2.1976,-1.6724,2.1889
1333,-0.8229,0.4693,0.3338,-1.6192,-4.2373,1.5018
1346,-0.8192,0.4593,0.3338,-1.5123,-6.3136,5.2423
1360,-0.815,0.4755,0.3441,-0.3673,-8.8175,3.7461
1373,-0.8192,0.4764,0.3988,-16.8864,-10.0846,-0.4371
1385,-0.839,0.5199,0.3995,-9.6039,-56.4205,-12.605
1427,-0.9215,0.4632,0.4027,-45.4207,-50.6495,8.6774
1440,-0.8783,0.516,0.4508,-34.7032,-57.3213,22.7079
1453,-0.7916,0.4518,0.4461,-28.0772,-64.1915,33.8835
1465,-0.7296,0.423,0.4642,-32.2146,-66.4053,31.6545
1479,-0.6339,0.3544,0.3504,-17.0391,-63.3518,23.1202
1492,-0.6329,0.4903,0.2349,-17.3749,-35.5045,10.0209
1532,-0.6346,0.505,0.368,-32.3368,25.6863,-7.7043
1546,-0.7135,0.538,0.4161,-34.4131,41.3505,-11.3837
1559,-1.1681,0.3006,1.0863,-14.3062,-14.39,-68.0707
1572,-0.7965,0.2982,0.3382,-13.894,15.0299,-25.9027
1584,-0.7936,0.3722,0.3953,4.335,8.465,-11.6432
1597,-0.7958,0.3932,0.4041,16.0296,0.3886,14.769
1639,-0.0768,-0.6698,0.6136,27.7396,7.7932,-55.1394
1652,-1.2237,-0.0988,0.5174,103.22,-7.9167,-57.2463
1664,-0.8675,0.0582,0.4176,50.9457,18.9383,-80.4982
1678,-0.5289,0.6097,0.0321,30.4266,16.1749,-60.1165
1691,-0.4823,-0.1112,0.2401,-4.0772,14.6635,-55.1699
1703,-1.058,1.0494,0.691,95.6174,2.1138,-4.4371
1745,-0.7916,0.5099,0.4276,-0.3978,3.7169,-6.1776
1758,-0.7887,0.4359,0.4207,-9.5123,0.236,-15.4447
1770,-0.7914,0.4134,0.4212,-14.1383,-2.3747,-12.6814
1783,-0.7923,0.3956,0.4242,-11.5581,-4.4663,-4.9409
1796,-0.7879,0.3954,0.4251,-8.7337,-5.1228,6.8453
1810,-0.7889,0.4098,0.4271,-3.9398,-4.5732,15.7461
1850,-0.7897,0.4415,0.4278,-1.5887,2.6634,-2.6508
1863,-0.786,0.4422,0.4244,-2.6726,2.8619,-10.086
1877,-0.7823,0.4618,0.4254,-3.5887,2.0375,-14.6356
1890,-0.7931,0.4003,0.4185,-3.8177,1.5184,-9.8569
1902,-0.7882,0.4064,0.4293,-0.352,0.6024,-0.2081
1915,-0.7872,0.4244,0.4185,1.4953,0.0222,4.2194
1957,-0.784,0.431,0.4256,-0.2757,0.2207,-2.3302
1969,-0.7941,0.4178,0.4161,0.6556,0.6329,-3.4905
1982,-0.7875,0.4193,0.4268,1.8922,0.6024,-2.3913
1995,-0.7884,0.4327,0.4151,1.3579,0.4955,-3.3837
2009,-0.7909,0.4264,0.4237,-2.0467,0.9077,-4.4829
2022,-0.7916,0.4161,0.4244,-1.4818,1.5642,-2.605
2062,-0.7928,0.4164,0.42,-1.436,0.465,-2.9256
2075,-0.7877,0.4154,0.4198,-0.3368,0.2054,-2.6661
2089,-0.7862,0.4234,0.418,-0.3368,-1.077,-3.8417
2102,-0.7884,0.4244,0.4193,-0.9016,-1.1839,-4.544
2115,-0.7884,0.4215,0.4246,-3.2375,-0.3747,-5.5211
2128,-0.787,0.4103,0.4232,-2.7642,-0.3442,-4.5745
2168,-0.7833,0.4161,0.4273,2.6098,-0.8938,2.5705
2181,-0.7892,0.4166,0.4276,3.8159,0.5413,3.1965
2194,-0.787,0.4181,0.422,0.3655,1.3047,1.5782
2207,-0.7889,0.4181,0.4227,-0.291,1.4268,0.7385
2221,-0.7897,0.4176,0.4212,0.2587,0.7703,0.4789
2233,-0.7872,0.4178,0.419,-0.7032,-0.1304,-1.6737
2274,-0.7872,0.4205,0.4244,-0.3826,-2.161,-3.4295
2287,-0.7828,0.4266,0.4359,-3.0391,-1.8404,-6.8951
2301,-0.7845,0.4147,0.4234,-4.7184,-0.4205,-8.8035
2313,-0.7799,0.4088,0.4281,-5.0238,0.3886,-7.7959
2327,-0.7904,0.4015,0.4249,-5.7261,0.5718,-4.8646
2340,-0.7877,0.4007,0.4224,-4.7337,0.5566,-1.8417
2380,-0.7862,0.4151,0.4178,0.9457,-0.4053,0.2957
2393,-0.7831,0.4161,0.422,-0.9016,0.3734,-3.7043
2407,-0.7892,0.4071,0.422,-0.52,0.0986,-4.4829
2420,-0.785,0.4047,0.422,-1.4818,-0.6953,-3.8417
2433,-0.7855,0.3976,0.4183,-1.894,-0.2526,-1.3226
2445,-0.7838,0.3995,0.42,-0.9933,-0.1762,2.3263
2487,-0.7794,0.4237,0.4212,0.3655,1.2283,0.0056
2500,-0.7823,0.4181,0.4215,-4.0467,1.381,-5.4295
2513,-0.7836,0.4039,0.4232,-4.1688,1.1978,-6.5287
2525,-0.7887,0.3902,0.4224,-3.0543,0.6329,-2.5592
2538,-0.7882,0.389,0.422,-0.062,0.0986,3.0286
2551,-0.7855,0.4003,0.4285,1.2968,0.8619,5.914
2592,-0.7882,0.4178,0.4224,-2.4589,0.0222,-4.1318
2605,-0.7877,0.4073,0.4159,-3.5887,-0.1762,-7.1394
2618,-0.7872,0.4027,0.4229,-2.4894,-0.7411,-6.2539
2632,-0.7914,0.4022,0.421,-1.2681,-0.9549,-3.4905
2645,-0.7804,0.3966,0.4229,-0.123,-1.2755,-1.5669
2657,-0.7806,0.3966,0.4195,1.1747,-0.8022,1.0591
2698,-0.7858,0.412,0.422,0.1823,1.0604,-0.1776
2712,-0.7889,0.4076,0.4249,-1.5429,0.9688,-1.7043
2725,-0.7855,0.3998,0.4185,-0.9169,0.8467,-1.8875
2737,-0.7906,0.4029,0.4303,-1.1001,0.2512,-0.9256
2750,-0.7831,0.3983,0.418,-0.749,-0.4969,-0.2234
2763,-0.7877,0.3998,0.4246,-1.1001,-0.9396,1.1965
2804,-0.7889,0.4068,0.4176,-0.7948,0.8619,-0.376
2817,-0.785,0.4066,0.4185,-1.5429,1.1062,-3.0173
2830,-0.784,0.3998,0.419,-1.5276,0.3581,-4.3608
2843,-0.7882,0.3995,0.4234,-1.4055,0.1902,-5.0478
2856,-0.7823,0.4044,0.4198,-0.0009,0.0375,-4.8493
2869,-0.7855,0.3966,0.4183,-1.0238,-0.4205,-5.4142
2910,-0.7804,0.3966,0.4163,1.7701,-0.4053,4.3568
2923,-0.7875,0.4034,0.4232,1.2663,0.0528,3.5018
2937,-0.7831,0.41,0.4295,0.9457,0.9993,-0.1012
2950,-0.7855,0.4044,0.4229,-0.7642,1.5795,-4.2081
2962,-0.7862,0.399,0.4224,-1.2223,1.6711,-5.5974
2975,-0.7865,0.3927,0.4232,-0.9933,0.3734,-4.2844
3016,-0.7821,0.4029,0.4256,2.4419,-1.1533,4.6163
3029,-0.7858,0.4056,0.422,1.8006,-0.6037,2.4484
3042,-0.7809,0.4047,0.421,0.0296,-0.0388,-1.2157
3055,-0.7799,0.4007,0.4259,-0.4742,0.2665,-3.9944
3069,-0.7811,0.3961,0.4159,-1.0085,0.5413,-4.6508
3082,-0.784,0.39,0.4188,-0.4436,0.236,-2.8188
3122,-0.7865,0.3961,0.4281,1.5411,-0.9549,1.0744
3136,-0.7809,0.401,0.4178,1.2816,-0.9091,-0.8035
3149,-0.7828,0.3956,0.4212,0.2739,-0.6495,-1.2615
3161,-0.7782,0.3927,0.4263,0.5029,0.2665,-0.605
3173,-0.7875,0.3861,0.4237,1.022,0.0986,1.6392
3186,-0.787,0.3973,0.4285,2.3655,0.1596,3.8682
3228,-0.7845,0.4015,0.4288,-1.6497,0.1291,-4.1928
3240,-0.7858,0.3968,0.4188,-2.2604,-0.7106,-4.834
3253,-0.7865,0.3854,0.4146,-0.9016,-1.2755,-2.8035
3266,-0.7843,0.388,0.4227,1.4648,-1.5503,0.7995
3279,-0.7804,0.3976,0.4227,2.0754,-1.0465,2.7843
3293,-0.7806,0.3966,0.4224,1.0678,-0.2526,1.8835
3333,-0.7879,0.4005,0.4217,-0.3368,0.7703,-1.1394
3347,-0.7862,0.3971,0.4273,-0.2299,0.6329,-1.4295
3360,-0.7796,0.3949,0.4281,-0.4436,-0.3595,-1.7195
3372,-0.787,0.3898,0.422,0.3197,-0.5121,-0.3455
3384,-0.7828,0.3946,0.4268,0.8846,-1.0923,0.8759
3397,-0.7836,0.3956,0.4251,-0.062,-0.5427,1.395
3439,-0.7867,0.3959,0.4251,0.7014,-0.0236,-0.2386
3452,-0.7806,0.3959,0.418,-0.123,-0.0846,-1.4447
3464,-0.786,0.3978,0.4261,-1.8482,-0.1457,-2.4371
3478,-0.7828,0.3893,0.4176,-0.6421,-0.2831,-1.0783
3490,-0.7838,0.389,0.4229,0.2434,-0.1304,0.8453
3503,-0.7855,0.3961,0.4227,0.5487,-0.4358,0.6774
3544,-0.7823,0.3951,0.4244,-0.5352,0.3886,-1.4295
3558,-0.7882,0.3885,0.4237,-0.1078,0.2818,-0.8035
3570,-0.7818,0.3922,0.4217,-0.062,0.3276,-0.2234
3582,-0.7848,0.3898,0.4159,0.3503,0.4192,0.3415
3595,-0.785,0.3927,0.4244,0.9609,0.2665,1.4102
3607,-0.7858,0.3988,0.4246,0.2281,-0.3595,0.6774
3649,-0.7818,0.3859,0.4295,-1.8024,-0.0694,-2.0249
3661,-0.7821,0.3873,0.4232,0.3961,-0.1915,0.8759
3674,-0.7814,0.3927,0.4244,1.4648,0.007,2.3721
3686,-0.784,0.3981,0.4198,1.938,0.1596,1.1507
3700,-0.7823,0.4,0.4261,1.251,0.7398,-1.002
3713,-0.7855,0.3929,0.4198,-0.0772,0.8314,-2.6966
3754,-0.7879,0.3927,0.4242,-0.0467,-0.2526,1.9598
3766,-0.7855,0.3929,0.4227,0.1823,-0.8327,1.5934
3779,-0.7801,0.3993,0.4205,1.0067,-1.1839,0.7843
3793,-0.7806,0.3995,0.4232,-1.0849,-0.0541,-1.9027
3805,-0.784,0.3949,0.4171,-1.2986,-0.1304,-3.46
3819,-0.784,0.3883,0.4198,-0.7337,-0.6953,-2.2234
3859,-0.785,0.3898,0.4266,0.8846,0.236,2.7079
3872,-0.7804,0.3985,0.4251,0.7777,0.1291,1.853
3885,-0.7779,0.3978,0.4168,0.5945,0.4039,-0.5287
3897,-0.786,0.3924,0.4246,-0.0162,0.6482,-1.6585
3910,-0.7833,0.3893,0.422,0.106,0.5108,-1.3226
3923,-0.7821,0.3873,0.4217,0.9609,0.0375,0.0973
3964,-0.7855,0.3964,0.42,-0.0772,0.3581,1.0744
