time_ms,ax,ay,az,gx,gy,gz
12,-0.6744,0.9412,0.6945,2.6965,0.1272,1.3834
25,-0.669,0.9444,0.6906,1.1698,0.1424,2.9559
38,-0.6737,0.9495,0.6855,-1.6241,0.2646,2.4673
50,-0.671,0.9498,0.6918,-1.1202,0.2951,1.2307
92,-0.6798,0.9498,0.695,-2.6317,-1.5522,-4.5708
105,-0.6734,0.9429,0.6891,-3.5477,-1.1095,-3.3037
118,-0.6717,0.9344,0.6925,0.6965,0.2646,0.6353
130,-0.6673,0.9388,0.6918,3.4752,1.3791,3.933
144,-0.6756,0.9488,0.6906,4.2538,1.4096,4.7269
156,-0.6708,0.9563,0.6877,4.0859,0.7684,3.5055
197,-0.6747,0.9522,0.685,-1.1355,-0.7736,-3.8533
211,-0.662,0.9488,0.6891,-7.0897,-0.9721,-3.5632
224,-0.6749,0.9353,0.6911,-4.1279,-0.5293,-0.9067
237,-0.6654,0.9395,0.695,-1.4409,0.4478,1.7345
250,-0.6739,0.9485,0.6903,-2.2653,0.6157,1.7498
263,-0.6676,0.9517,0.6903,0.2233,1.0279,1.246
303,-0.6857,0.9441,0.695,6.437,0.1424,2.1773
316,-0.6952,0.94,0.7006,12.1622,-1.3537,5.9177
330,-0.7494,0.9429,0.714,24.4065,-2.8347,10.62
343,-0.7657,0.9825,0.713,31.1698,-8.453,10.391
356,-0.8487,0.8562,0.6171,30.1164,-14.1629,-0.4487
369,-0.8981,1.167,0.6239,21.5515,-24.4377,3.5055
410,-0.4488,1.0403,0.4775,11.7347,15.9287,8.162
423,-0.3932,1.0103,0.5292,5.1546,37.7913,17.3834
436,-0.3688,0.7286,0.8451,1.4752,56.86,15.5971
449,-0.3002,0.9927,0.6457,-20.1584,47.4554,-5.2884
463,-0.3492,1.0677,0.6967,-38.937,52.9974,-10.2044
475,-0.6671,0.8934,0.8742,-59.0744,44.4783,-27.151
517,-0.6119,0.7176,1.0756,-27.7615,-42.4682,-35.1052
529,-0.5738,0.6954,0.9215,17.8874,-45.7965,-16.3876
542,-0.7416,0.7261,0.9867,21.4904,-67.6896,-12.1434
555,-0.8443,0.5987,0.4223,-1.4561,-59.1095,-18.5708
568,-0.7596,0.7176,0.6872,-9.4867,-56.0255,-22.7846
581,-0.8131,1.0481,0.4442,-35.3951,-37.827,-17.7769
622,-0.743,1.1243,0.4726,13.292,2.0203,10.1162
635,-0.7584,1.0223,0.694,-20.6775,1.5623,-0.9983
647,-0.7906,0.8396,0.5133,-15.4561,1.1043,-19.0594
661,-0.9422,0.8748,0.2326,9.7958,22.2951,-29.0136
674,-0.8338,0.5997,0.1112,109.658,52.0356,-0.0823
687,-0.7071,1.1919,1.0168,145.781,67.7302,27.8719
728,-0.725,0.6565,0.3344,23.4294,28.4783,-11.5021
741,-0.5755,0.8016,0.7006,33.4904,29.9134,-3.7464
754,-0.5138,1.0787,1.06,43.7195,10.4325,9.1849
767,-0.6432,1.0003,0.7533,-2.4332,1.5623,-4.5098
780,-0.704,0.9441,0.6811,22.3607,3.1348,-1.6701
793,-0.6852,0.9639,0.6811,17.7042,-0.3003,-2.3113
834,-0.7584,1.1646,0.8647,6.9408,-26.8652,19.8719
848,-0.8109,1.2403,0.7018,-12.4027,-32.224,26.2994
860,-0.7479,1.3028,0.6608,-37.9447,-36.7736,35.9635
873,-0.4723,1.2032,0.5329,-54.647,-25.1095,40.0398
886,-0.3048,1.1314,0.4535,-70.0668,-5.3843,30.6658
899,-0.2425,1.0152,0.4506,-85.1813,13.1501,14.1467
940,-1.0719,0.7767,0.8893,-9.8225,0.9821,-33.2884
953,-0.671,0.7183,0.6693,32.3301,4.0661,-3.6548
966,-0.6053,0.7371,0.6142,22.4065,3.0432,-13.8838
979,-0.5743,0.3707,0.9845,14.4523,-4.8957,10.2536
991,-0.8695,0.6109,0.4264,64.4523,9.715,18.2383
1005,-0.6559,0.9671,0.6711,26.3607,-0.8957,5.6582
1046,-0.6617,1.2098,0.6933,-9.4714,2.173,-4.0518
1059,-0.6788,0.9895,0.6757,-5.5325,-2.3766,-15.3342
1072,-0.6864,0.9666,0.6855,-6.0821,-3.6591,-23.3495
1085,-0.6661,0.9288,0.6798,-13.2424,-4.3766,-24.235
1098,-0.68,0.9034,0.685,-10.6317,-4.1324,-14.3113
1111,-0.6773,0.8951,0.6964,-3.9905,-2.453,-1.9144
1152,-0.6761,0.9456,0.6928,5.2309,1.1043,7.933
1165,-0.6805,0.9546,0.6913,-1.5477,0.3867,1.3528
1178,-0.6783,0.939,0.6899,-3.7309,-0.1171,-2.5708
1191,-0.6744,0.9231,0.6908,-0.5706,-0.4988,-2.7388
1204,-0.6727,0.9258,0.6862,0.3454,0.3256,-1.4258
1217,-0.68,0.927,0.6938,2.1622,0.7226,1.4597
1257,-0.6754,0.948,0.6869,-0.021,-0.1324,1.4444
1271,-0.6781,0.9378,0.6952,-0.1737,-0.5904,0.3757
1284,-0.6759,0.9417,0.6859,-2.5401,-0.7125,-1.38
1297,-0.6683,0.9314,0.6874,-3.6699,-0.3308,-2.4945
1310,-0.6739,0.9327,0.6908,-1.7157,0.1577,-2.006
1323,-0.6722,0.9334,0.6908,-3.1355,-0.0255,-2.0976
1364,-0.6752,0.928,0.684,-5.8073,-0.0866,0.8185
1377,-0.6756,0.9346,0.6911,-3.2118,0.3104,2.1467
1390,-0.6752,0.9327,0.6908,-2.876,-0.3308,0.5742
1403,-0.6744,0.9378,0.6879,-3.0439,-1.0637,-2.4792
1416,-0.6732,0.9346,0.6889,-4.7386,-1.8423,-4.9525
1429,-0.6766,0.9295,0.6913,-6.0515,-2.2087,-4.8304
1470,-0.6739,0.9292,0.6928,1.9943,0.9516,1.5971
1482,-0.6737,0.9251,0.6913,2.0859,0.6921,0.9101
1496,-0.6664,0.9312,0.6872,1.4904,0.6615,0.162
1509,-0.6786,0.9353,0.6911,1.4141,0.173,-0.1281
1522,-0.6744,0.9353,0.6918,-1.3035,-0.3003,-1.8075
1536,-0.6798,0.9278,0.6986,-1.8683,-0.3003,-2.754
1575,-0.6764,0.9258,0.6918,1.1546,0.8447,2.4368
1589,-0.6759,0.9295,0.6886,2.2233,0.1577,2.3452
1602,-0.6764,0.9427,0.6945,-0.0821,-0.453,-1.3037
1615,-0.6761,0.9317,0.6952,-2.3569,-1.5217,-5.2426
1628,-0.6771,0.9268,0.7013,-3.5783,-1.6591,-7.2579
1641,-0.67,0.9258,0.6867,-4.8454,-1.4453,-7.2273
1681,-0.6717,0.9183,0.6886,2.3607,1.2569,4.391
1695,-0.6754,0.9319,0.6923,0.7882,0.7684,2.9253
1708,-0.681,0.9356,0.6879,-2.479,0.0814,0.2841
1721,-0.6813,0.9222,0.6969,-1.8836,-0.056,-1.3037
1734,-0.681,0.9207,0.7001,-1.9141,-0.4835,-1.5632
1747,-0.671,0.9192,0.6962,-0.8454,-0.4072,-0.6166
1788,-0.67,0.9139,0.6967,-1.7004,-0.0102,1.1391
1801,-0.6734,0.9268,0.6989,0.2996,0.7531,1.765
1814,-0.672,0.927,0.6921,-0.3264,-0.0713,1.0322
1827,-0.6776,0.9317,0.6957,-1.0439,-0.1476,-0.1128
1840,-0.683,0.9329,0.7001,-1.9752,-0.453,-0.922
1853,-0.6752,0.9234,0.6903,-0.5401,-0.3919,-1.1205
1894,-0.6725,0.9212,0.7006,-1.5783,0.2646,0.3757
1907,-0.6759,0.9231,0.695,-1.3493,0.4631,1.307
1920,-0.6744,0.9292,0.6942,-0.4027,0.1272,1.4902
1933,-0.6781,0.928,0.694,-1.7767,-0.3614,-0.2655
1946,-0.6737,0.9288,0.6957,-5.9905,-1.14,-1.9449
1959,-0.6773,0.9224,0.6989,-4.1431,-0.4377,-2.4487
2000,-0.6813,0.9104,0.6974,-5.4409,-0.224,-2.5098
2013,-0.6786,0.9163,0.6967,-1.1508,-0.056,0.1467
2026,-0.6744,0.9119,0.7028,-1.4256,0.4173,0.6811
2038,-0.6727,0.9183,0.6994,-2.3264,0.5547,0.7269
2052,-0.6783,0.9239,0.6972,-3.5325,-0.3614,-1.1052
2065,-0.6734,0.9114,0.6979,-2.4027,-0.5598,-2.2808
2106,-0.6742,0.9126,0.6982,-8.1737,-0.6515,-5.7159
2119,-0.6776,0.9114,0.7006,-6.5554,-1.2163,-5.5021
2132,-0.6703,0.9024,0.7016,-4.8912,-1.4301,-4.7998
2145,-0.6754,0.8982,0.7069,0.5286,-0.6209,-1.3647
2157,-0.6747,0.9104,0.6986,2.5897,-0.1171,1.2154
2171,-0.6747,0.9073,0.7077,1.4446,0.4173,0.8643
2212,-0.6791,0.917,0.6977,-3.0134,-0.3003,-2.8609
2225,-0.6817,0.9178,0.7004,-5.7004,-1.0637,-4.9525
2238,-0.6822,0.9048,0.695,-5.7462,-1.3995,-5.0136
2251,-0.6637,0.9021,0.6984,-6.1584,-0.5598,-4.0976
2264,-0.6817,0.8992,0.7072,-3.4409,0.0203,-2.5098
2277,-0.6739,0.9053,0.7028,-2.3416,0.2951,-1.2273
2318,-0.6798,0.9153,0.7084,-4.4638,-0.056,-5.0136
2331,-0.6781,0.9039,0.7035,-4.9676,-0.7125,-8.6014
2344,-0.6798,0.9034,0.7043,-3.4561,-0.9568,-10.5403
2357,-0.6752,0.8997,0.7011,-3.6699,-1.7965,-12.0212
2370,-0.6832,0.8919,0.7069,-4.7996,-1.9644,-11.9602
2383,-0.6788,0.8819,0.7057,-4.3111,-1.4453,-8.1128
2423,-0.6786,0.8824,0.7045,7.1088,1.4249,10.2841
2436,-0.6761,0.9021,0.7055,8.5133,2.2493,10.7727
2449,-0.6798,0.9053,0.7013,5.0172,2.0966,7.3528
2463,-0.6791,0.9097,0.7033,0.2538,1.3485,2.3605
2476,-0.6793,0.9051,0.7043,-2.3264,0.2035,-1.3953
2489,-0.6766,0.9039,0.6947,-5.5783,-0.2392,-4.2197
2530,-0.6749,0.9021,0.7016,1.0935,-0.0408,2.2536
2542,-0.6791,0.8914,0.706,0.7271,-0.2392,1.9177
2555,-0.6764,0.8975,0.7021,2.0248,0.1882,0.62
2568,-0.6737,0.8978,0.7011,1.75,0.5241,-0.3876
2581,-0.6781,0.9007,0.7035,1.2462,0.0661,-1.0441
2595,-0.6752,0.9043,0.6999,-0.9981,-0.3919,-1.8838
2636,-0.6795,0.8902,0.7099,0.7271,0.3867,1.4902
2648,-0.6776,0.899,0.706,0.9866,0.173,1.765
2661,-0.6712,0.8973,0.7104,1.2767,0.4325,1.3681
2675,-0.6744,0.9017,0.6986,1.0935,0.631,1.2002
2688,-0.6791,0.896,0.7074,0.3912,0.5089,1.0017
2701,-0.6778,0.9004,0.705,-0.3111,0.1424,0.0093
2741,-0.6747,0.8958,0.7069,-0.5554,-0.1324,0.9406
2755,-0.6756,0.8909,0.7062,0.1317,1.0585,2.4979
2768,-0.6776,0.8978,0.706,1.521,1.1195,3.307
2780,-0.6722,0.909,0.7021,-0.479,0.6615,1.9788
2793,-0.6803,0.9148,0.704,-0.4943,0.0814,-0.2044
2807,-0.6788,0.9104,0.7006,-1.6699,-0.514,-2.1892
2848,-0.6808,0.899,0.7021,-0.25,-0.224,-0.235
2861,-0.672,0.8904,0.7045,1.2767,0.2188,2.0704
2874,-0.6752,0.8965,0.703,2.8645,1.1653,3.7803
2887,-0.6798,0.9014,0.705,2.3912,0.5699,2.4063
2899,-0.6742,0.9041,0.7025,1.9637,0.4936,0.7574
2912,-0.6759,0.9107,0.6994,-0.1737,0.0661,-1.4411
2954,-0.6764,0.8973,0.7079,-2.8912,-0.056,0.0704
2967,-0.6752,0.8912,0.7028,-0.7386,1.0737,2.2231
2980,-0.6773,0.9014,0.703,-1.2424,1.0279,2.5589
2993,-0.6688,0.9021,0.6996,-1.792,0.9363,1.3986
3006,-0.6742,0.9114,0.7023,-3.4867,0.1577,-2.0518
3019,-0.6842,0.9073,0.7028,-2.0363,-0.1782,-3.6548
3059,-0.6786,0.8973,0.7023,0.4828,-0.0102,0.2994
3073,-0.6754,0.8963,0.7013,0.9103,0.0356,1.7345
3086,-0.6693,0.8965,0.7011,2.7576,0.8142,2.62
3098,-0.6703,0.8904,0.7008,1.2309,1.0127,2.0856
3112,-0.6849,0.9039,0.704,1.2156,1.0432,0.6353
3124,-0.6857,0.9004,0.6991,0.5744,0.3562,-0.9678
3165,-0.6737,0.8973,0.7033,0.6355,-0.8805,-0.0365
3179,-0.6752,0.887,0.7067,3.063,-0.224,1.9788
3192,-0.6705,0.899,0.7011,5.6736,0.9669,3.6582
3205,-0.6783,0.9021,0.7008,4.5439,1.0279,3.3223
3218,-0.6764,0.9019,0.7077,4.0248,0.9516,3.2918
3231,-0.6778,0.9061,0.7008,2.8187,0.7226,2.7879
3272,-0.6739,0.9058,0.7023,-1.6241,-0.5293,-1.1663
3285,-0.6747,0.9007,0.7025,-0.5248,-0.3003,-0.6166
3298,-0.6764,0.9017,0.7065,0.9256,-0.0102,0.6658
3309,-0.6764,0.8958,0.7016,0.5133,1.0432,1.2765
3323,-0.6776,0.9051,0.7023,1.5057,0.9516,1.536
3336,-0.6769,0.9063,0.6996,0.8798,0.7837,0.849
3377,-0.6773,0.8968,0.7025,-1.3798,-0.0866,-1.2884
3390,-0.6803,0.9014,0.7013,-0.4638,0.2035,-0.3571
3401,-0.6769,0.9017,0.7028,-0.4638,-0.1018,-0.3571
3414,-0.6793,0.9036,0.6974,-1.0897,-0.0713,-0.235
3427,-0.6759,0.8995,0.6999,0.666,0.0203,-0.3571
3440,-0.6781,0.9058,0.704,1.3988,0.0356,0.2078
3481,-0.6744,0.907,0.6996,-2.7691,-0.3461,-1.1205
3494,-0.6778,0.9031,0.7089,-1.4103,0.2188,-0.0976
3506,-0.6771,0.9012,0.7057,0.1775,0.7226,0.62
3520,-0.6786,0.9036,0.7077,-0.0668,0.3714,0.2536
3532,-0.6727,0.8992,0.6945,-0.5096,0.1577,0.5131
3544,-0.6761,0.9039,0.6996,-1.166,-0.285,0.2841
3584,-0.6803,0.9053,0.703,0.8645,0.2493,-0.296
3598,-0.6661,0.9031,0.7057,1.4294,-0.4377,0.2383
3611,-0.6808,0.8985,0.7065,1.521,0.0203,0.9559
3624,-0.6749,0.909,0.7023,1.3988,-0.285,0.5895
3637,-0.6722,0.9024,0.7028,1.7958,0.7226,-0.5556
3649,-0.6817,0.9007,0.705,0.6813,0.3104,-0.8151
3691,-0.6786,0.9024,0.6989,1.6126,0.6005,1.8261
3704,-0.6722,0.9031,0.6974,2.6965,0.4478,2.3757
3717,-0.6752,0.9104,0.6964,0.8645,-0.1324,0.4521
3730,-0.6803,0.9073,0.7043,-1.0439,-0.1324,-1.1968
3744,-0.6744,0.9019,0.7045,-3.3493,-0.1934,-2.3266
3756,-0.6813,0.8987,0.7025,-1.9294,0.0508,-1.6548
3797,-0.6734,0.9004,0.7025,1.1851,0.4325,1.2612
3809,-0.6771,0.9078,0.703,0.6965,0.4936,0.2231
3822,-0.6781,0.9043,0.6984,-0.0057,-0.0102,-0.9831
3834,-0.6769,0.9048,0.7008,-1.2118,-0.4072,-1.5327
3848,-0.6769,0.898,0.6996,-2.2347,-0.4224,-0.8151
3860,-0.682,0.8936,0.7072,-0.0363,0.1119,1.4902
3901,-0.68,0.9124,0.6984,3.582,1.0432,1.8566
3914,-0.6776,0.9097,0.7001,2.5897,0.5852,-0.4945
3928,-0.6795,0.9063,0.6974,-2.7538,-0.4835,-3.2273
