time_ms,ax,ay,az,gx,gy,gz
8,-0.7103,0.7846,0.7919,1.1233,0.4531,1.4346
22,-0.7056,0.7863,0.7919,-0.098,0.2699,0.5033
33,-0.7052,0.778,0.7857,1.4745,-0.0355,0.3965
74,-0.7071,0.7875,0.7904,1.0012,-0.6004,-0.9623
88,-0.7012,0.7839,0.7889,-1.3042,-0.5698,-1.7715
101,-0.7091,0.7731,0.7904,-2.5408,-0.7988,-1.7257
114,-0.7105,0.7807,0.7838,-2.4492,-0.463,-1.0845
127,-0.7066,0.777,0.7879,-1.9301,-0.1271,-1.4814
140,-0.7044,0.7738,0.7923,-1.7622,-0.0049,-1.4051
181,-0.7081,0.7709,0.7872,-1.4874,0.2088,-1.2677
194,-0.7108,0.7765,0.785,-1.7774,-0.2034,-0.5806
207,-0.7078,0.7763,0.7897,-0.6935,-0.0507,0.3965
219,-0.7017,0.7799,0.7857,0.1462,0.0103,0.5949
232,-0.7086,0.7734,0.787,-0.0064,-0.0813,0.2743
244,-0.7064,0.7763,0.7919,-0.1286,-0.1423,0.0148
285,-0.7056,0.776,0.7909,0.6958,-0.0202,-0.9929
297,-0.7098,0.7731,0.7914,0.7264,0.3309,1.0987
310,-0.7076,0.7714,0.7877,2.4058,-0.234,2.7934
323,-0.7139,0.779,0.7867,3.1997,-1.5469,2.6713
336,-0.7232,0.8024,0.7945,-2.8614,-2.3408,-1.5119
350,-0.6856,0.8993,0.8377,-22.2965,-6.3256,-4.0158
391,-0.9803,0.9384,1.2811,-20.2355,28.8348,53.1904
404,-0.9171,0.9616,0.933,-13.35,-17.15,70.3965
417,-0.7122,0.7829,0.7342,-7.9454,-18.9362,79.3736
430,-0.5264,0.716,0.6473,-11.869,-7.8675,67.9842
443,-0.4298,0.7209,0.5934,-9.7927,11.766,61.9537
456,-0.3641,0.7516,0.6068,-8.8614,36.9111,46.427
497,-0.7286,0.5649,1.0213,-59.3958,51.1554,-9.4661
511,-0.7989,0.611,0.6549,-41.9301,-29.4095,-10.3974
523,-0.5294,0.8144,1.1249,17.7035,-1.7301,0.5491
537,-1.0589,0.5209,0.5526,6.4821,-7.608,31.0835
550,-0.6793,0.6689,1.1034,49.3829,2.7126,21.4041
563,-0.6556,0.7904,0.9198,36.6653,2.1783,32.2743
604,-0.4781,1.1684,0.6669,-28.0064,-37.5927,-25.8325
617,-0.9124,1.0817,0.2579,3.3829,-61.6691,-63.6188
630,-1.3753,0.3844,0.6166,-36.098,-58.8446,-88.5806
643,-0.5079,0.8046,0.9784,-10.1286,-56.9362,-68.1379
656,-0.9156,1.0519,0.5741,-0.0064,-46.524,-47.8783
670,-0.941,1.3725,0.1856,40.7569,-30.3866,-34.9776
711,-0.7037,0.9074,0.7997,-15.7469,-11.8981,-22.7028
724,-0.734,0.799,0.7308,-63.3652,-14.8141,-38.5654
736,-0.9354,0.5949,0.5187,-77.2889,0.3157,-47.7715
750,-1.0682,0.7638,0.2919,-13.9759,19.2775,-22.0463
763,-0.8275,0.7428,1.3478,100.894,53.0027,-22.2295
775,-0.2833,0.7863,1.2608,42.9859,49.3844,13.1293
816,-0.6395,1.0539,0.7535,57.5813,22.5141,5.3125
830,-0.6273,0.8288,1.0126,30.65,32.1019,-14.1837
842,-0.6429,0.6498,0.7645,-17.182,25.8882,-12.3822
856,-0.6456,0.7814,0.9603,-12.5255,16.2699,5.4194
869,-0.6773,0.735,0.8312,0.9554,2.2851,11.9384
882,-0.7293,0.7226,0.7796,14.9554,4.5141,24.0758
924,-0.7769,0.759,1.1918,19.2149,-9.9439,23.5262
936,-0.824,1.1166,0.8973,20.8027,-49.6691,43.282
950,-0.6925,1.0041,0.8399,19.3218,-52.8446,57.114
962,-0.5091,0.9569,0.5611,4.3294,-43.3943,58.6713
975,-0.3792,0.8495,0.6063,-11.6706,-21.8981,47.7247
989,-0.347,0.7565,0.5274,-15.4874,1.2928,29.511
1030,-0.8516,0.2184,1.0006,-20.2202,12.7584,-44.0005
1043,-0.6978,0.7355,0.7743,-14.0828,10.3767,-20.0921
1056,-0.7239,0.7255,0.7972,-3.7927,3.1859,1.3736
1069,-0.7518,0.6596,0.8131,11.2302,5.6744,6.3201
1082,-0.9666,-0.2486,0.8939,-46.9377,2.4836,-52.489
1095,-0.8555,1.5155,0.6564,55.963,-0.9362,-31.8936
1136,-0.7032,1.3244,1.1014,4.2378,1.9951,-30.8249
1149,-0.6859,0.8202,0.7743,-7.9301,0.6821,-5.1303
1162,-0.7281,0.7619,0.8168,82.3905,3.934,0.1369
1175,-0.7032,0.7917,0.796,21.1997,3.9493,-6.7028
1188,-0.7132,0.7543,0.7989,4.7416,3.476,-5.8173
1202,-0.7027,0.7397,0.797,5.1997,1.5218,-1.344
1243,-0.7137,0.778,0.7909,4.7264,1.2775,3.6942
1256,-0.7091,0.7765,0.7889,0.36,-0.0355,0.4117
1268,-0.7056,0.7604,0.7911,0.2836,-0.6004,-0.5501
1280,-0.7073,0.7629,0.7982,-1.0141,-0.0355,1.0224
1293,-0.7071,0.7665,0.7909,1.0928,0.7889,1.2972
1306,-0.7108,0.7663,0.7916,1.6424,0.8653,1.0682
1347,-0.7061,0.7663,0.7923,4.4516,0.3462,4.3354
1361,-0.7047,0.7931,0.8041,-0.5866,1.1248,4.8087
1374,-0.7091,0.7751,0.7845,0.2684,0.1172,3.3888
1386,-0.7078,0.7843,0.7901,0.0852,0.3004,2.6713
1400,-0.713,0.7763,0.7862,1.2455,-0.4477,0.8697
1413,-0.703,0.7609,0.7933,-0.0217,-0.7072,0.4423
1454,-0.7017,0.7736,0.785,5.5508,-1.2569,0.0911
1467,-0.7034,0.7746,0.7904,0.5737,0.163,0.1522
1480,-0.7044,0.769,0.7879,1.3523,0.8042,1.0224
1493,-0.7069,0.7748,0.7953,0.7569,1.7202,2.7171
1506,-0.7064,0.7756,0.795,1.7493,1.766,2.8392
1519,-0.7047,0.7653,0.7799,4.5584,0.8195,2.5339
1560,-0.7022,0.7812,0.786,2.1004,1.2622,2.9919
1573,-0.7052,0.7819,0.7911,2.6042,1.247,3.8926
1586,-0.7066,0.7668,0.7887,8.0546,1.308,5.3278
1599,-0.702,0.7882,0.7965,9.963,0.8958,6.4728
1613,-0.7083,0.7946,0.7877,5.7951,2.8958,5.3736
1626,-0.7103,0.7936,0.7875,5.4745,3.8271,4.6407
1667,-0.7115,0.7934,0.7855,5.1233,-0.982,-4.26
1680,-0.7113,0.788,0.7879,1.8714,-1.1194,-3.97
1693,-0.7054,0.7768,0.7853,-2.2202,-1.0431,-1.8631
1707,-0.7076,0.7836,0.7909,-2.4187,-0.8904,-0.6722
1719,-0.7073,0.7836,0.7916,-0.9225,0.0409,0.0453
1731,-0.7061,0.7904,0.7814,-0.0828,-0.1729,0.0148
1773,-0.7078,0.7895,0.7855,-0.9072,-0.4935,-0.7486
1785,-0.7047,0.777,0.7909,-0.7087,0.2699,0.5033
1798,-0.7025,0.786,0.7899,-2.2965,1.0943,2.4423
1811,-0.7056,0.7831,0.7887,-2.9683,1.2622,3.4346
1825,-0.7081,0.7856,0.7833,-3.8538,1.018,3.8163
1838,-0.7083,0.7895,0.7811,5.276,0.6668,4.4728
1879,-0.7049,0.7892,0.7887,-2.5408,-0.524,0.0148
1892,-0.7037,0.7919,0.7933,-1.0904,-0.5698,-0.5196
1905,-0.702,0.788,0.7821,0.7875,-0.9362,-0.4432
1917,-0.7091,0.7853,0.7926,0.3294,-0.921,1.0529
1929,-0.7052,0.7948,0.7855,0.9096,-0.8446,1.4652
1943,-0.7073,0.7892,0.7887,0.9859,-0.5088,0.9919
1984,-0.7071,0.7909,0.7899,-0.8156,0.1477,-0.6417
1997,-0.7086,0.7917,0.7911,-0.2965,-0.0049,0.1522
2010,-0.7059,0.7892,0.7914,-0.7393,-0.8294,0.1827
2022,-0.7098,0.7863,0.7875,0.1462,0.1477,1.4652
2035,-0.7061,0.7909,0.7867,0.6042,0.9264,1.5415
2048,-0.7015,0.7875,0.7897,0.0699,0.4989,0.4881
2089,-0.7054,0.7902,0.7879,0.7111,-1.0431,-0.489
2102,-0.7047,0.7878,0.7833,2.0852,-0.7378,-0.489
2116,-0.7059,0.7929,0.7826,1.8409,-0.5393,-0.9929
2129,-0.7054,0.7865,0.786,0.5584,-0.7378,-0.199
2141,-0.7034,0.7902,0.7906,0.9249,0.4073,0.7323
2152,-0.7066,0.7948,0.787,0.0852,0.4836,0.3049
2194,-0.7061,0.7936,0.787,0.5584,0.0867,-0.3364
2207,-0.702,0.7895,0.7828,0.0394,0.0867,-0.6264
2219,-0.7076,0.7914,0.7884,1.7645,0.2393,-0.3822
2233,-0.7049,0.7941,0.7923,1.3829,-0.295,-0.7791
2246,-0.7017,0.7887,0.7928,-0.0522,-0.0507,0.0148
2258,-0.7042,0.788,0.7931,-0.7698,0.1325,1.0835
2299,-0.7078,0.7914,0.7904,0.2684,-0.2034,-1.6341
2312,-0.6998,0.7819,0.7894,-0.5255,-0.0202,0.2896
2325,-0.7012,0.7873,0.7845,-0.5408,0.3004,1.2209
2338,-0.7093,0.7924,0.7887,-0.4187,0.621,0.8545
2350,-0.7081,0.7919,0.7821,-0.0675,0.621,0.4117
2362,-0.7064,0.7904,0.7865,-0.7851,0.7889,0.7171
2404,-0.7059,0.789,0.7879,0.0394,-0.0507,-0.5959
2416,-0.7081,0.7956,0.7889,-0.5866,-0.2645,-0.8707
2429,-0.7071,0.7931,0.7887,0.2531,0.2851,-1.7257
2443,-0.7105,0.7895,0.7884,-0.8767,0.1935,-1.2982
2456,-0.7069,0.798,0.7889,-1.5179,0.3004,-2.6112
2469,-0.7049,0.79,0.7855,-0.5103,0.2546,-3.8325
2510,-0.7061,0.7753,0.7835,-2.098,0.4836,-7.4661
2522,-0.7071,0.7787,0.787,1.1691,0.5599,-4.5654
2536,-0.7091,0.7704,0.7862,-1.5484,0.4378,-0.8096
2549,-0.7032,0.7731,0.7894,-0.4797,0.2088,4.3049
2562,-0.7081,0.7873,0.7906,-0.7545,0.2699,5.6331
2575,-0.7093,0.7919,0.7916,-0.7851,0.5447,3.1751
2617,-0.7052,0.7875,0.7879,0.5737,-0.4172,-2.657
2629,-0.7113,0.7738,0.7867,0.0088,0.2699,-0.2295
2643,-0.7012,0.7807,0.7823,-0.8461,0.1783,2.1827
2656,-0.7071,0.7856,0.7872,0.2836,0.392,3.5873
2668,-0.7015,0.7812,0.7816,1.3371,0.9416,4.2438
2681,-0.7042,0.7919,0.7879,0.6195,1.247,2.5949
2723,-0.7071,0.7824,0.7867,-2.6324,0.2851,0.0453
2736,-0.7034,0.7826,0.787,-3.4721,0.0714,1.1446
2749,-0.7064,0.7848,0.7892,-4.3118,-0.295,1.8774
2762,-0.7032,0.7848,0.7833,-0.5713,-1.0736,1.4804
2775,-0.7091,0.7912,0.7892,-1.5026,-0.4019,-1.2982
2788,-0.7054,0.7922,0.7984,-0.7545,0.1019,-2.3058
2829,-0.7032,0.7873,0.7901,-1.5637,0.9874,1.7094
2842,-0.7061,0.7804,0.7894,-1.8996,0.7126,2.4575
2855,-0.7066,0.7882,0.786,-1.3805,1.2317,2.0911
2868,-0.7113,0.787,0.7894,0.65,1.018,0.1216
2881,-0.7066,0.7853,0.7867,0.6195,0.0103,-1.3593
2894,-0.7071,0.7751,0.7828,0.5737,-0.1423,-0.8707
2935,-0.7054,0.777,0.785,-3.7316,-0.7683,2.2285
2948,-0.7047,0.7924,0.794,-3.4721,0.163,1.9232
2962,-0.7034,0.7907,0.7904,0.2836,0.2699,-0.1074
2974,-0.7056,0.7797,0.7867,0.7111,-0.234,-0.8249
2986,-0.7047,0.7812,0.7882,1.4745,0.4225,0.1522
2999,-0.7061,0.7826,0.7965,1.3523,0.8958,1.2209
3040,-0.7076,0.7909,0.787,2.0699,1.1554,-1.9852
3054,-0.71,0.7948,0.7919,-3.7316,0.5905,-6.3364
3066,-0.7081,0.7773,0.7872,-1.7774,-0.3256,-5.0997
3079,-0.711,0.7626,0.8009,-2.3576,-1.1194,-2.0616
3092,-0.7081,0.7768,0.7862,-2.0522,-0.8446,1.7094
3105,-0.7076,0.7653,0.7787,-0.098,-1.3027,4.3354
3146,-0.7049,0.7878,0.7921,2.4821,1.1096,-1.0539
3159,-0.7066,0.7799,0.7911,2.0852,1.247,-1.5119
3172,-0.7066,0.7787,0.7862,1.0012,0.9111,0.3507
3185,-0.7056,0.786,0.7977,-5.35,0.9416,2.8392
3199,-0.7,0.7829,0.7716,-0.6019,-0.2492,3.7858
3212,-0.7049,0.7882,0.7897,-1.5637,0.6821,3.8621
3253,-0.7103,0.7858,0.786,-0.3729,0.3767,1.8774
3266,-0.71,0.7804,0.7899,0.6195,0.6668,2.2591
3279,-0.7047,0.7924,0.7879,0.131,0.8653,1.8316
3292,-0.7034,0.7902,0.7831,-0.3576,-0.1576,0.5491
3303,-0.7103,0.7878,0.795,0.7264,0.392,0.198
3316,-0.7064,0.7853,0.7945,0.8485,-0.066,0.0148
3357,-0.7113,0.7848,0.7838,0.65,-0.0813,-0.489
3371,-0.7073,0.7885,0.7892,-0.0217,-0.3866,-0.031
3383,-0.7064,0.7831,0.787,-0.8003,-0.0813,0.1216
3395,-0.7049,0.7875,0.7833,0.9096,-0.2645,-0.3211
3407,-0.7032,0.7873,0.7853,1.6271,-0.0965,0.0453
3420,-0.7081,0.7902,0.7889,1.1844,0.0714,-0.1074
3461,-0.7115,0.786,0.7889,0.2073,0.5752,0.1369
3474,-0.7081,0.7858,0.7882,-0.3118,0.0103,0.3354
3488,-0.7076,0.7919,0.7833,-0.3118,0.6821,0.3354
3500,-0.7059,0.7839,0.7892,-0.2202,0.0103,0.3201
3512,-0.7003,0.7892,0.787,1.0623,-0.3714,0.1827
3524,-0.7095,0.7858,0.7943,0.5737,-0.3561,0.2133
3566,-0.7071,0.7917,0.7826,1.5355,0.392,0.9461
3579,-0.7059,0.788,0.7835,2.2073,0.1325,0.7323
3591,-0.7069,0.7909,0.7899,0.3905,0.0714,0.427
3604,-0.7078,0.79,0.7894,0.36,-0.1271,0.7171
3616,-0.7078,0.7961,0.7853,0.5126,-0.7072,0.2285
3628,-0.7069,0.7931,0.7889,-0.5866,0.0409,0.0758
3669,-0.7076,0.7829,0.7906,0.6653,-0.4172,-0.4432
3682,-0.7054,0.7887,0.7938,-0.2049,0.2088,0.9155
3695,-0.7069,0.7929,0.7853,0.0394,0.7889,1.1598
3708,-0.7064,0.79,0.787,0.2684,0.5447,0.5491
3721,-0.7083,0.7895,0.7914,0.0088,0.3004,0.2133
3732,-0.7044,0.789,0.7914,-1.3958,0.5141,0.7934
3774,-0.7052,0.7941,0.795,1.3371,0.3004,-0.2448
3787,-0.7032,0.7919,0.7926,1.0317,-0.6614,-1.2219
3799,-0.7064,0.7863,0.7872,0.4058,-0.5393,-1.1913
3813,-0.7034,0.799,0.7757,2.2073,-0.2492,-0.9318
3826,-0.7088,0.7912,0.7835,1.8562,-0.5546,-2.199
3839,-0.7047,0.7902,0.7897,-0.1591,-1.1652,-2.3058
3880,-0.7054,0.7907,0.796,4.0241,-0.0507,1.74
3893,-0.7052,0.7831,0.7853,2.5279,0.7431,1.4804
