time_ms,ax,ay,az,gx,gy,gz
13,-0.6903,0.7701,0.7101,-0.647,-0.2392,1.9024
26,-0.6935,0.7803,0.704,0.2233,0.0661,1.3986
67,-0.6915,0.7771,0.705,-1.0286,-0.1018,-2.3113
81,-0.6883,0.7801,0.7043,-2.0668,-0.1018,-1.7922
93,-0.6905,0.7659,0.7052,-0.708,-0.4835,0.7116
105,-0.6905,0.7701,0.7087,1.4904,-0.2545,3.0322
118,-0.693,0.7767,0.7094,1.9179,0.3104,3.307
131,-0.6964,0.7818,0.7087,-0.8607,0.6768,0.2994
172,-0.6944,0.7735,0.7084,-1.7004,0.1119,-2.8456
185,-0.6991,0.7669,0.7167,-0.8454,-0.3156,-0.7235
197,-0.7023,0.7559,0.7121,1.3836,-0.7736,2.5895
210,-0.7171,0.7642,0.7067,10.4523,-1.8118,6.5895
224,-0.7667,0.7706,0.7382,14.4828,-3.6896,7.5971
236,-0.8045,0.8753,0.7729,4.0248,-9.0484,0.8032
277,-0.8175,0.8858,0.7091,2.9103,-38.2087,44.1162
291,-0.6351,1.0769,0.63,-49.9599,-34.7736,38.9253
304,-0.4371,1.0481,0.5932,-38.5248,-22.3156,50.6811
316,-0.3697,1.0357,0.5497,-50.9676,-3.7354,58.4063
329,-0.4132,0.9471,0.5732,-52.8912,15.2417,61.3681
342,-0.3995,0.8401,0.6068,-46.0363,33.2264,53.8261
383,-0.4772,0.594,0.7682,-49.9294,77.9134,19.9482
396,-1.0619,0.2298,1.131,-87.6088,56.3562,-36.3571
409,-1.2926,0.3089,0.7963,-65.3951,14.1272,-46.2655
422,-0.8927,0.5181,0.8488,3.0172,16.1119,-16.6624
436,-0.5531,0.448,1.0404,19.5973,-10.4988,-2.8762
449,-0.5748,0.1946,1.1442,-6.8454,-26.7431,-20.1739
489,-0.8504,1.4219,-0.0941,15.3072,-45.3843,-56.8151
502,-0.4974,1.4827,0.6786,14.1164,-36.9721,-53.9296
516,-0.2296,0.5379,0.9616,-29.8683,-31.8423,-60.6777
528,-0.7147,1.0794,0.5461,0.9256,-29.2621,-52.693
541,-0.6576,0.2942,1.0131,58.3759,-22.0866,-23.5174
554,-1.0287,1.5232,-0.4183,115.048,-14.4072,10.8337
596,-0.7899,0.9327,0.6029,22.4523,-0.4377,-6.1739
608,-0.7237,0.8746,0.6271,5.3072,-2.1629,-11.8991
621,-0.6949,0.8411,0.7201,-35.7767,-5.5522,-17.4716
634,-0.7506,0.6897,0.6225,-66.3874,-3.0331,-26.3266
648,-0.7523,0.5784,0.5024,-22.7233,14.173,-22.6624
661,-0.6761,0.533,-0.1566,-31.7004,35.9134,-31.4563
701,-0.8565,0.919,1.4274,57.4141,62.5852,32.7269
714,-0.7604,0.3338,1.151,-26.5401,65.9134,23.307
727,-0.5904,0.668,0.0102,31.5973,39.3791,6.162
741,-0.5511,1.0125,1.0988,50.666,41.3485,35.2307
753,-0.6214,1.0201,0.8988,28.6049,36.0966,30.2078
766,-0.6468,1.2742,1.5124,31.979,9.6234,17.765
808,-0.6822,0.7669,0.7165,55.75,-2.4835,14.6047
820,-0.6871,0.7771,0.8146,68.5897,-3.1858,14.1925
833,-0.7411,1.0025,0.5661,10.8034,-16.2392,-8.8915
846,-0.733,0.9993,0.8564,-32.7538,-26.224,-16.3876
860,-0.7149,1.0296,0.7379,-33.0439,-33.7202,-3.3647
873,-0.8768,0.9512,0.8744,-33.6241,-44.4682,27.9635
913,-0.5694,0.8411,0.6264,-40.6164,-38.4224,-6.464
927,-0.5597,1.0354,0.6469,-43.792,-24.1476,-9.4716
940,-0.5155,1.0274,0.6894,-43.4409,-15.5217,3.7803
952,-0.441,0.9502,0.6291,-48.9676,-4.285,7.9177
965,-0.4532,0.8816,0.5837,-58.5706,10.402,3.9635
978,-0.5348,0.8567,0.5456,-73.5019,26.0356,-5.0747
1019,-0.9811,0.0921,0.9093,-67.7767,4.86,-25.8991
1032,-0.7569,0.188,0.5248,26.8645,11.3944,-5.3037
1045,-0.7525,-0.0295,0.2172,30.7118,13.6844,-3.38
1058,-0.7169,0.7088,1.7194,77.3988,2.2951,-6.5861
1072,-0.3414,-0.1486,0.1891,30.9866,12.7837,-50.754
1084,-0.173,0.2095,0.0678,31.2614,7.6997,-52.7846
1125,-0.764,0.9725,0.5685,40.6202,2.1119,25.536
1139,-0.6556,0.9046,0.7006,13.1088,-2.8957,20.2078
1151,-0.6996,0.8548,0.7155,5.7194,0.0966,-7.9296
1164,-0.7037,0.8394,0.6984,-8.4485,3.0432,-24.0518
1177,-0.7137,0.7852,0.6977,-12.876,2.2646,-31.5937
1190,-0.7008,0.7537,0.7045,-16.876,0.2035,-29.7617
1231,-0.6886,0.7254,0.7074,-6.708,-2.5904,4.9253
1244,-0.6866,0.7305,0.7138,4.1622,-0.9721,11.4444
1257,-0.6798,0.7652,0.7172,9.6126,1.3485,11.078
1270,-0.6979,0.7725,0.7155,8.0095,2.4478,3.994
1283,-0.6952,0.7801,0.7069,1.521,2.2798,-4.2502
1296,-0.69,0.7793,0.703,-4.7996,1.2264,-10.2655
1338,-0.6876,0.7273,0.7018,-3.3035,-1.3079,-2.067
1350,-0.6874,0.7271,0.7099,2.7271,-1.8881,6.4521
1363,-0.692,0.7488,0.7162,7.6126,-1.2927,11.5818
1376,-0.6886,0.764,0.7135,8.2233,0.0966,11.1085
1389,-0.6937,0.7745,0.7155,2.2996,1.0279,4.9864
1401,-0.6991,0.763,0.7135,0.6049,1.089,0.8185
1443,-0.6842,0.7518,0.7052,4.9408,-0.6973,1.9482
1456,-0.6896,0.762,0.7118,4.1622,-0.8957,3.2307
1468,-0.6913,0.7483,0.7116,7.5973,-0.6667,6.0398
1482,-0.6937,0.762,0.7108,8.0706,-0.7278,7.0933
1495,-0.694,0.7708,0.7091,2.1775,-0.3461,4.4979
1508,-0.69,0.7662,0.7126,1.3378,0.6768,1.2612
1549,-0.6969,0.7659,0.7108,1.8721,0.9058,-3.1815
1562,-0.6922,0.7649,0.7082,1.3683,0.5852,-2.1128
1575,-0.6905,0.7603,0.7084,0.9714,-0.1476,-0.067
1588,-0.6961,0.761,0.7133,1.582,-0.5293,2.2994
1601,-0.6888,0.752,0.7094,-0.4332,-0.9568,4.2078
1614,-0.6918,0.7652,0.7087,2.1775,-0.3003,5.3528
1655,-0.6935,0.7649,0.7069,0.5439,1.2264,-1.4716
1668,-0.6981,0.7579,0.7101,1.124,0.7684,0.0093
1680,-0.6944,0.7737,0.7087,0.2385,-0.0102,0.3452
1694,-0.6908,0.7666,0.7135,-5.1202,-0.6362,-0.3266
1707,-0.6886,0.7627,0.7143,-3.9752,-0.0866,0.4063
1720,-0.6915,0.7593,0.7111,1.2462,0.3562,1.4292
1761,-0.6944,0.764,0.7057,-0.021,0.9821,-2.3876
1774,-0.6932,0.7613,0.7043,1.353,0.005,-0.3113
1787,-0.6876,0.7591,0.7069,4.9866,-0.0255,2.4063
1800,-0.6857,0.7615,0.7047,7.7653,-0.1934,5.307
1812,-0.6905,0.773,0.7079,6.6507,0.1882,5.0627
1826,-0.6903,0.7759,0.7072,1.9943,0.3867,2.8795
1867,-0.6957,0.7789,0.7052,8.2691,1.0585,3.2154
1879,-0.6988,0.7803,0.7008,1.7347,0.2951,0.7116
1893,-0.6937,0.7754,0.7033,-0.0363,-0.2545,1.0169
1906,-0.6925,0.7701,0.705,-0.25,-0.3003,1.8261
1919,-0.6896,0.7715,0.7057,-0.5401,-0.8041,1.7192
1932,-0.6969,0.7747,0.7118,0.3759,-0.911,2.3757
1973,-0.691,0.7789,0.7118,2.5439,-0.4224,3.8108
1986,-0.6869,0.7757,0.7084,1.9179,0.1882,2.1467
1998,-0.692,0.7754,0.7077,3.0324,0.4478,0.8185
2012,-0.691,0.7864,0.7065,2.1011,0.8447,-0.3571
2025,-0.6918,0.7825,0.7118,-0.5859,1.5623,-1.3647
2038,-0.6957,0.7757,0.7162,0.3607,1.1959,0.1467
2079,-0.6871,0.7903,0.7055,3.0935,-0.5904,0.8795
2092,-0.6913,0.7947,0.7045,-0.3874,-0.3461,-2.6777
2105,-0.6898,0.7735,0.7106,0.7271,0.4631,-3.838
2118,-0.6952,0.7789,0.705,1.4294,0.7379,-4.0365
2131,-0.6922,0.7825,0.7062,-1.2576,0.7226,-4.3418
2144,-0.6883,0.7718,0.7074,-0.8149,-0.0102,-2.8762
2185,-0.692,0.7737,0.7055,2.4523,0.1424,1.9177
2198,-0.6927,0.7742,0.7126,4.895,0.4783,2.2994
2211,-0.6954,0.7862,0.7033,1.7042,0.234,0.162
2224,-0.6947,0.783,0.7055,-0.0973,0.2035,-1.9602
2237,-0.6969,0.7769,0.7069,-1.5325,0.1424,-2.4029
2250,-0.694,0.7767,0.7079,-2.3264,0.1424,-0.7388
2291,-0.6896,0.7842,0.7111,0.3301,-0.3308,2.391
2303,-0.6966,0.7854,0.7106,2.0553,0.5852,1.078
2317,-0.6979,0.7872,0.7077,0.9408,1.0585,-1.2426
2330,-0.6959,0.7832,0.7008,-0.6622,0.7379,-2.8304
2343,-0.6937,0.7813,0.6979,-2.6622,-0.0408,-3.8991
2356,-0.69,0.7754,0.7065,-5.3035,-0.0255,-4.8762
2397,-0.6927,0.7718,0.7045,2.3607,0.3409,4.1925
2410,-0.6949,0.7789,0.7023,3.4446,0.7226,5.0475
2423,-0.6935,0.785,0.7018,1.4141,0.5394,3.1544
2436,-0.6981,0.7901,0.705,-1.1508,0.1577,-0.754
2449,-0.6932,0.7872,0.7072,-5.2882,0.0203,-3.7769
2462,-0.6918,0.7735,0.7062,-4.479,-0.5904,-4.0212
2503,-0.6937,0.7713,0.7074,2.6202,-0.514,3.5818
2516,-0.7023,0.7713,0.705,8.2385,0.1272,4.9864
2529,-0.6935,0.7911,0.7091,1.063,0.2646,1.0322
2542,-0.6969,0.7793,0.703,-1.7462,-0.1934,-0.9525
2555,-0.6952,0.7852,0.7045,-3.6699,-0.6515,-2.0365
2568,-0.6883,0.7806,0.7104,-4.9065,-0.7736,-2.4487
2609,-0.6925,0.7723,0.7089,4.4523,0.0814,3.9788
2622,-0.6925,0.7825,0.7077,3.4752,-0.3156,3.5666
2635,-0.691,0.7825,0.7069,1.7042,-0.1934,1.8261
2648,-0.6896,0.7891,0.7074,0.3607,0.0661,0.162
2660,-0.6908,0.7803,0.7118,-0.6775,-0.0102,-1.2273
2673,-0.6913,0.7823,0.7074,-2.1737,-0.3461,-2.0212
2714,-0.6908,0.7771,0.7077,0.0095,-0.2698,1.2154
2727,-0.692,0.7762,0.7157,0.0706,-0.056,0.9711
2739,-0.69,0.7793,0.7094,0.2538,0.3256,-0.235
2751,-0.6888,0.7798,0.7108,0.3454,0.2951,-0.235
2762,-0.6922,0.7789,0.7047,0.3759,0.402,-0.2808
2775,-0.6883,0.7742,0.7067,-0.1889,-0.0866,-0.235
2816,-0.691,0.7784,0.7091,0.3301,-0.2545,1.4597
2828,-0.6898,0.7798,0.7118,0.7729,0.0508,1.6429
2842,-0.6898,0.7813,0.7067,-1.5935,0.0203,0.6658
2855,-0.6947,0.7803,0.7062,-0.4485,0.4325,0.5742
2867,-0.6905,0.7718,0.7126,-1.8073,0.0661,-0.0823
2880,-0.693,0.7815,0.7094,0.4523,-0.0255,0.5437
2921,-0.6888,0.7771,0.7094,-1.4409,0.0508,-0.8915
2934,-0.6864,0.773,0.7069,-0.3722,0.2798,-0.0823
2946,-0.6893,0.784,0.7143,0.0401,0.3256,1.8414
2958,-0.691,0.7749,0.7118,-1.166,0.6615,1.5666
2972,-0.6947,0.7796,0.7072,-0.0515,0.4631,1.4444
2985,-0.6905,0.7828,0.7133,0.208,-0.1018,1.3681
3026,-0.6891,0.7874,0.7116,-1.7615,-0.0408,0.9711
3038,-0.6905,0.7806,0.7123,-2.1431,0.1119,0.0398
3052,-0.6932,0.7745,0.7084,-0.9981,0.9058,0.1925
3065,-0.693,0.7779,0.7082,0.2691,0.3867,0.9253
3077,-0.6937,0.783,0.7023,-0.0668,0.005,0.9101
3089,-0.6874,0.784,0.7123,0.9561,-0.4682,1.3834
3130,-0.6871,0.7774,0.7074,-4.9828,-0.2087,-2.1739
3143,-0.692,0.7762,0.7096,-3.3493,0.0508,-0.9373
3156,-0.6969,0.7715,0.7145,-1.4561,0.1424,0.5895
3169,-0.6918,0.7808,0.705,1.3225,-0.453,1.5666
3182,-0.69,0.7835,0.7106,0.7576,-0.8347,1.4292
3195,-0.6903,0.7859,0.7096,-1.1202,-0.514,0.4521
3236,-0.6954,0.7742,0.7128,-2.7386,-0.0866,-1.6701
3249,-0.6949,0.7774,0.7023,-0.937,-0.4377,-0.6472
3261,-0.692,0.7747,0.7072,-0.8302,-0.5598,-0.4334
3273,-0.692,0.7774,0.7069,-0.0821,-0.3156,0.3605
3285,-0.6927,0.7745,0.7099,1.3988,0.2035,0.0551
3298,-0.6864,0.7815,0.7089,1.063,0.5089,0.7879
3339,-0.6925,0.7789,0.7123,1.3988,-0.3308,1.1696
3352,-0.694,0.7808,0.7106,-0.3722,-0.3766,-0.0518
3365,-0.6922,0.7781,0.7057,0.2691,-0.0866,-0.5708
3377,-0.6849,0.7776,0.706,1.1851,0.234,0.3757
3390,-0.6932,0.7718,0.7108,0.7118,0.4478,1.1085
3402,-0.6932,0.7796,0.713,2.1775,0.5699,1.5818
3444,-0.6891,0.783,0.7077,-1.1813,-0.3461,-0.9983
3457,-0.6871,0.7828,0.7084,-0.8302,0.3562,-1.7311
3470,-0.692,0.7762,0.7062,-0.5248,0.3562,-2.3113
3483,-0.69,0.7808,0.7043,-0.4485,0.2188,-1.4716
3496,-0.6922,0.7803,0.7113,-0.5859,-0.3308,-0.235
3509,-0.69,0.7793,0.7013,-2.0057,-0.4835,0.8795
3550,-0.6898,0.774,0.7087,-0.5859,0.5699,-0.1892
3563,-0.6896,0.7791,0.7128,0.9714,0.9821,-0.0365
3575,-0.6888,0.7754,0.704,1.6736,0.9363,0.4368
3588,-0.6908,0.7747,0.7091,2.9866,0.3714,1.3223
3601,-0.6952,0.7745,0.706,3.0782,-0.4224,2.162
3614,-0.6913,0.7881,0.7113,2.8798,-0.5751,1.8872
3655,-0.6927,0.7791,0.7099,-2.2806,0.5089,-1.9296
3668,-0.6922,0.7747,0.7148,-0.9218,0.2646,-0.7235
3680,-0.6927,0.773,0.7072,1.5973,0.6768,0.9101
3694,-0.6925,0.7762,0.7089,2.1164,0.3256,1.7192
3707,-0.6886,0.784,0.7091,1.3225,0.1424,1.2307
3720,-0.6937,0.785,0.7043,0.1622,0.1119,-0.0976
3761,-0.6918,0.7781,0.7057,-3.2576,-0.2392,-2.4487
3774,-0.6908,0.7718,0.7055,-1.8073,-0.1476,-0.3571
3787,-0.69,0.7718,0.7069,0.7729,-0.0255,2.7421
3800,-0.69,0.7784,0.7082,2.4065,0.005,3.1238
3812,-0.6888,0.7762,0.7104,3.2156,0.2188,2.3299
3826,-0.6925,0.7908,0.713,2.5897,0.0356,0.1314
3868,-0.6842,0.7784,0.7062,-1.2424,-0.4988,-0.4792
