time_ms,ax,ay,az,gx,gy,gz
13,-0.6908,0.7918,0.7006,-2.2195,0.1272,-0.9678
53,-0.6881,0.7964,0.7043,2.1927,0.1882,2.4826
66,-0.6927,0.8055,0.6982,1.353,0.1577,1.0017
79,-0.6891,0.8077,0.7035,-2.479,0.1272,-1.1968
92,-0.6964,0.7972,0.7087,-1.9905,0.0508,-0.9831
106,-0.6937,0.7945,0.7067,-0.9065,0.4783,-0.525
118,-0.6937,0.7913,0.7028,-0.3874,-0.0713,0.4063
159,-0.694,0.804,0.7004,0.1011,-0.2087,0.0093
172,-0.6881,0.7989,0.7106,-1.0439,0.0661,-0.9983
185,-0.6891,0.7962,0.7047,-0.0973,-0.0713,-0.922
198,-0.6971,0.795,0.6999,0.4217,-0.1629,-0.2197
210,-0.6905,0.8011,0.7052,-0.5554,-0.1171,0.4368
222,-0.6954,0.7972,0.7011,0.5286,0.2188,1.4902
263,-0.713,0.7867,0.7133,12.6813,-0.1324,4.9101
276,-0.7594,0.8389,0.7245,19.1393,-3.0637,5.704
290,-0.9317,0.877,0.8136,5.6889,-13.0331,-0.5556
302,-0.7999,1.1612,0.6044,-2.6775,-22.6056,7.6124
315,-0.9906,1.1746,0.9328,-17.9294,-42.9568,28.0093
328,-0.9588,1.2903,0.9618,-29.8683,-55.4301,52.3299
370,-0.3773,1.0909,0.5876,-99.2882,-56.1476,116.101
382,-0.2137,0.9737,0.5172,-103.044,-29.7507,121.276
396,-0.0731,0.7664,0.463,-89.8378,5.318,118.91
409,-0.0536,0.5257,0.4765,-80.2653,38.8295,98.8337
422,-0.065,0.3289,0.3705,-71.3645,72.7226,52.8643
435,-0.2237,0.2767,0.3839,-66.7844,110.036,-4.2655
475,-1.7877,0.8689,1.7802,62.2385,2.7684,-16.296
489,-0.8673,0.063,0.9113,29.353,-26.8041,-32.7235
502,-0.3724,0.337,0.7558,33.1088,-30.4835,-81.1205
515,-0.7313,0.5494,0.9323,72.2996,-49.1553,-89.38
527,-0.3793,1.5826,0.3134,66.7882,-41.4148,-88.2655
540,-0.8815,1.2508,0.8373,9.5668,-32.7125,-86.7388
582,-0.6732,1.1443,0.5763,15.063,-21.4301,-46.6472
595,-0.7672,1.2061,0.6232,2.1164,-8.3308,-14.4029
608,-0.7994,0.981,0.7765,3.2614,-2.6209,-15.2884
620,-0.7611,0.7132,0.8998,-15.9905,-5.3079,-20.2197
633,-0.6981,0.8257,0.6479,-14.4027,-0.0255,-14.0823
647,-0.7608,0.7454,0.6137,-38.4485,-0.6667,-26.1892
687,-0.9256,0.9773,1.6676,138.254,71.486,66.4979
700,-0.774,0.8863,0.5072,108.742,102.188,74.3757
713,-0.5499,1.2671,0.7802,116.086,95.8371,94.5131
726,-0.7167,0.5955,1.5585,56.2996,66.2951,82.6353
740,-0.495,0.9273,1.1691,67.582,55.4707,68.1162
753,-0.6263,0.9917,0.7746,32.3607,34.2951,39.078
793,-0.6839,0.8692,0.7658,63.0477,8.6005,13.9482
807,-0.6849,0.9419,1.4789,51.8263,-22.9568,7.8108
820,-0.7108,0.9876,0.5111,-32.479,-46.7736,-23.2121
833,-0.7728,0.9566,0.5585,-112.586,-45.9644,-39.1052
845,-0.7369,1.2642,0.6791,-107.242,-49.2469,-6.3113
858,-0.7591,1.1812,0.849,-95.9599,-58.1934,25.5818
900,-0.5433,0.6836,0.4789,-45.4256,-52.6056,-15.2121
912,-0.4205,1.0232,0.2921,-54.8302,-15.0789,-16.6777
925,-0.3473,0.9964,0.4391,-35.0897,13.715,5.6429
939,-0.277,0.8182,0.4215,-34.1889,36.9363,13.704
952,-0.3998,0.6456,0.3532,-46.9218,46.4783,-4.7693
964,-1.4339,0.0657,1.0705,-72.9523,15.715,-50.9678
1005,-0.796,-0.1557,0.5182,38.7729,8.1882,-69.7617
1019,-0.7377,0.4834,1.0815,105.887,4.2798,-32.464
1032,-0.4735,1.4502,0.173,48.437,12.9821,-31.6853
1045,-0.6649,1.398,0.0724,42.0401,6.6005,-23.4105
1057,-0.8627,1.4412,0.2401,72.895,7.089,10.1773
1070,-0.5235,1.3682,0.7296,4.0095,3.0279,7.9024
1112,-0.713,0.7852,0.6884,-2.2958,3.8676,-15.609
1125,-0.7003,0.7798,0.6791,8.1164,3.6844,-2.2808
1137,-0.6683,0.8091,0.6945,6.5439,1.3333,7.475
1150,-0.6886,0.834,0.7111,8.1927,-0.6515,12.9253
1163,-0.6937,0.8362,0.7096,7.4446,-0.7431,12.1773
1176,-0.6859,0.8509,0.7121,1.4599,1.1653,4.1162
1217,-0.6822,0.8472,0.6967,3.7805,11.6386,-6.2197
1230,-0.6886,0.823,0.6994,16.4065,12.2951,-7.0289
1244,-0.6832,0.8079,0.7062,33.7194,14.5394,1.3376
1257,-0.6817,0.8243,0.6972,49.2156,15.9745,11.2612
1270,-0.6878,0.8597,0.684,36.3607,15.5623,7.0017
1282,-0.711,0.8782,0.6759,24.4065,12.8142,0.4673
1324,-0.6998,0.8677,0.675,-2.5554,4.4173,-15.4411
1337,-0.7027,0.8511,0.6733,-11.5935,3.6692,-20.1892
1349,-0.6974,0.8216,0.6808,-12.876,4.9821,-18.7998
1362,-0.6976,0.8067,0.6794,1.4752,7.0279,-8.6014
1375,-0.6942,0.8123,0.6764,14.8492,7.2875,1.6734
1389,-0.6918,0.8204,0.6708,22.5439,6.5241,7.1849
1429,-0.7174,0.8409,0.6513,8.5744,0.5699,11.2918
1442,-0.7066,0.8487,0.6628,3.5362,-0.1324,10.2841
1456,-0.7059,0.8689,0.6703,-1.8073,-0.6056,7.6582
1468,-0.6971,0.8602,0.6591,-3.8073,-1.3079,3.4292
1481,-0.7049,0.875,0.6711,-9.563,-1.6591,-4.5708
1494,-0.6969,0.8335,0.6696,-7.8683,-1.1553,-6.1434
1535,-0.7025,0.8587,0.6718,3.3225,0.5852,2.2689
1548,-0.7128,0.8577,0.6747,6.0706,1.6539,1.5208
1561,-0.701,0.8753,0.6632,2.6965,2.7379,-2.7235
1575,-0.7142,0.8721,0.6847,-8.937,2.4325,-8.4945
1588,-0.6952,0.855,0.6564,-11.2576,0.9669,-11.5327
1600,-0.6964,0.854,0.6645,-13.6546,-1.6896,-15.2426
1641,-0.7042,0.8233,0.6657,0.8187,-5.1247,1.2918
1654,-0.6979,0.8374,0.6696,3.1546,-6.285,4.6811
1668,-0.7074,0.845,0.6781,5.5973,-5.2469,5.8108
1680,-0.7018,0.8475,0.6781,6.1622,-2.9263,4.9253
1693,-0.6944,0.8472,0.6701,3.5668,-0.9415,1.8261
1706,-0.6915,0.8492,0.6701,4.3149,0.4936,1.246
1748,-0.6976,0.8287,0.6686,-5.8531,1.5165,1.0169
1760,-0.6932,0.8367,0.6603,-1.9599,0.8447,3.7192
1773,-0.6935,0.8511,0.6552,-5.166,-0.1324,2.2536
1787,-0.6998,0.8604,0.6684,-11.2271,-3.3843,-4.7235
1799,-0.7171,0.8538,0.6764,-15.3798,-3.7354,-9.151
1813,-0.694,0.8245,0.675,-12.8149,-2.6056,-9.6853
1853,-0.6942,0.8311,0.6737,-0.9828,-1.8118,-10.2655
1867,-0.7088,0.8426,0.6796,-1.2576,-2.514,-12.5098
1880,-0.701,0.8221,0.6767,-0.9065,-3.1095,-12.9525
1892,-0.6947,0.8052,0.6801,4.895,-3.6133,-7.9602
1906,-0.6925,0.8184,0.6745,10.4675,-4.7583,-3.1663
1919,-0.6947,0.8201,0.6742,8.0553,-5.6286,-3.0441
1960,-0.6981,0.8316,0.6791,10.1622,-0.9873,3.7498
1972,-0.6959,0.8182,0.6813,4.895,-0.0102,2.7727
1985,-0.6979,0.8243,0.6811,6.1622,0.402,5.0475
1998,-0.6878,0.8138,0.6691,6.4981,-0.1782,5.5818
2011,-0.6988,0.8362,0.684,7.4141,-2.1171,7.0017
2025,-0.6883,0.8465,0.6698,1.7194,-4.5751,5.5055
2065,-0.6864,0.8135,0.6825,-2.7233,-10.4072,5.7498
2078,-0.6888,0.8443,0.6923,1.4752,-9.1095,5.7192
2092,-0.6859,0.8462,0.6916,-7.1966,-7.1247,-0.3876
2105,-0.691,0.8238,0.703,-7.7615,-4.0713,-2.6624
2118,-0.6937,0.8316,0.705,-4.6775,-1.3079,-2.1892
2130,-0.6905,0.8223,0.6989,0.7271,0.9211,-1.7617
2172,-0.6937,0.8418,0.6862,7.2156,-3.6438,3.5971
2184,-0.691,0.8374,0.6903,1.2156,-5.5064,2.8948
2197,-0.6937,0.8311,0.7013,-1.5935,-5.4911,2.2841
2210,-0.6905,0.8333,0.703,-3.7157,-4.3308,0.5742
2224,-0.6949,0.8355,0.7045,-4.7386,-2.8041,-2.1434
2237,-0.6898,0.8279,0.6989,-2.021,-1.7812,-1.838
2277,-0.6903,0.8304,0.7004,-7.9294,-3.3232,-1.9754
2290,-0.6974,0.814,0.7043,-12.2042,-3.827,-1.3495
2303,-0.682,0.8204,0.6999,-5.5477,-3.2469,0.5895
2316,-0.6847,0.8245,0.7006,0.895,-2.3766,3.1085
2329,-0.6854,0.8414,0.6984,2.4523,-1.1095,2.3605
2342,-0.692,0.8326,0.7084,2.6965,0.4478,0.6505
2383,-0.6842,0.8233,0.6986,-1.7309,0.3104,-0.7846
2396,-0.6908,0.8296,0.7008,1.582,0.3256,-0.235
2409,-0.6871,0.8335,0.7028,0.8798,0.1272,-0.6624
2422,-0.6896,0.8343,0.704,0.7729,0.3104,-0.525
2435,-0.6918,0.8321,0.7082,-2.6622,0.4173,-0.4792
2447,-0.6878,0.8206,0.7016,0.2996,0.5394,1.3528
2488,-0.6878,0.8313,0.7055,2.895,0.0661,1.4292
2501,-0.6908,0.8379,0.7008,0.2691,0.1577,0.6047
2514,-0.6888,0.8289,0.7067,-0.8302,-0.1476,0.3452
2526,-0.6898,0.8279,0.7111,1.9332,0.9363,2.2078
2539,-0.6908,0.8379,0.7033,1.5515,0.9058,2.2536
2552,-0.6932,0.8357,0.7011,0.4675,0.9974,0.7116
2593,-0.6857,0.8289,0.6991,-3.0134,-0.4988,-1.5327
2606,-0.691,0.8226,0.6945,-0.479,-0.3919,0.8643
2620,-0.6888,0.8265,0.6996,1.063,-0.285,1.2765
2632,-0.6866,0.8365,0.7038,2.2233,0.2798,2.0398
2645,-0.6893,0.8355,0.7028,1.0172,0.4631,1.475
2659,-0.6854,0.8387,0.704,-1.6699,0.6005,0.3757
2699,-0.6849,0.837,0.7062,1.3225,0.0814,1.2002
2712,-0.6878,0.836,0.7006,1.582,-0.1782,0.162
2725,-0.6871,0.8406,0.7004,0.4523,-0.1629,-0.8762
2739,-0.6861,0.8374,0.7025,-2.8912,-0.1018,-2.6624
2752,-0.6932,0.8331,0.7077,-4.7996,-0.4072,-2.5098
2764,-0.6886,0.8238,0.696,-2.8607,-0.3919,-0.8609
2805,-0.692,0.834,0.7038,1.8416,0.4173,1.475
2819,-0.6888,0.8353,0.7011,2.4981,0.2951,0.6047
2831,-0.6888,0.8331,0.7038,1.5515,0.402,0.0398
2844,-0.6915,0.8333,0.7016,1.4752,0.1272,0.7116
2857,-0.6878,0.8348,0.7023,2.3912,0.0356,0.9406
2870,-0.6893,0.8377,0.7023,-0.6164,-0.0255,0.391
2911,-0.6898,0.8326,0.7028,-1.0592,-0.3766,0.0093
2924,-0.6893,0.8311,0.7021,2.0859,-0.0866,0.2689
2938,-0.6903,0.8309,0.7055,3.0935,0.0661,0.4063
2950,-0.6859,0.8387,0.6984,-0.876,-0.3308,-0.6624
2962,-0.692,0.8367,0.7045,-2.8302,-0.3766,-1.2579
2975,-0.6908,0.8279,0.6991,-0.708,0.1424,0.6353
3017,-0.6883,0.8406,0.6991,0.7271,0.2798,-0.2197
3030,-0.693,0.836,0.7013,-1.334,0.1119,-1.4258
3042,-0.6898,0.8316,0.7021,-0.5706,0.3256,-0.9983
3055,-0.6864,0.8328,0.7094,1.2156,-0.2698,0.7879
3068,-0.6849,0.8382,0.7001,0.1775,-0.6667,0.7116
3081,-0.6883,0.8345,0.7065,-3.0592,-0.9721,0.0398
3122,-0.6857,0.8313,0.7021,0.4675,-0.0713,-0.6472
3136,-0.6896,0.8333,0.705,1.4141,0.0356,0.3299
3148,-0.6908,0.8384,0.7052,-0.0668,-0.1782,-0.0212
3161,-0.694,0.8309,0.7065,-0.2042,-0.3308,0.2841
3174,-0.6839,0.8333,0.7052,-2.2042,-0.1629,0.0704
3186,-0.6849,0.8296,0.7023,-1.4103,0.2951,0.3299
3227,-0.6927,0.8353,0.7065,-0.7996,0.1424,-0.8915
3241,-0.6908,0.8318,0.7111,-0.0973,-0.0866,-0.9067
3252,-0.6883,0.8333,0.7011,1.2614,0.4325,-0.6319
3265,-0.6918,0.8306,0.7033,1.2156,-0.3003,-0.296
3278,-0.6898,0.8401,0.703,1.75,-0.6667,0.62
3292,-0.6771,0.8465,0.7001,-6.5554,-1.4148,-2.4792
3332,-0.6866,0.8252,0.6991,2.208,-0.6362,1.0017
3345,-0.6817,0.8453,0.6935,-0.6775,-0.6515,0.849
3358,-0.6857,0.8321,0.7052,-6.6317,-0.1629,-2.067
3370,-0.6988,0.8196,0.7091,-2.6317,0.6615,-0.3571
3383,-0.6881,0.8313,0.7043,-0.5859,0.8753,0.2536
3396,-0.6876,0.8299,0.7084,1.6889,0.8142,0.4979
3437,-0.6881,0.8357,0.7013,-3.1813,-0.8652,-1.9907
3450,-0.6857,0.8309,0.7104,-4.4638,-1.1095,-1.6853
3463,-0.6918,0.8282,0.7089,-1.8531,-1.0942,-0.5098
3476,-0.6908,0.8262,0.7087,-0.0363,-0.5446,0.9406
3489,-0.6878,0.8262,0.7043,1.582,0.0966,1.3223
3501,-0.69,0.8284,0.7079,2.3454,0.6157,1.3223
3543,-0.6886,0.8306,0.7008,-2.1737,-0.056,-0.6014
3556,-0.6888,0.8284,0.7065,-0.7538,-0.4072,0.1467
3567,-0.6849,0.826,0.7091,-0.7691,-0.056,0.6658
3579,-0.6861,0.8311,0.7065,1.8721,-0.5446,1.4444
3592,-0.6869,0.834,0.706,1.7958,-0.285,0.8337
3606,-0.6854,0.8335,0.7057,0.8034,-0.1476,0.3452
3646,-0.6952,0.8333,0.7087,-6.8149,-0.3308,-3.9754
3660,-0.6854,0.8269,0.7025,-4.1737,-0.2698,-2.693
3673,-0.683,0.8199,0.7016,-0.5401,0.0508,0.0398
3685,-0.6905,0.8262,0.7099,1.4752,0.0814,1.7192
3698,-0.69,0.8326,0.7004,2.4217,-0.224,2.5589
3711,-0.6854,0.8357,0.705,2.2843,-0.2392,1.6887
3752,-0.6918,0.8301,0.706,-5.9141,-0.0102,-2.8609
3765,-0.6876,0.8204,0.7069,-0.6775,0.1119,-0.8304
3778,-0.6859,0.8245,0.7155,1.9179,-0.1629,1.0627
3791,-0.6837,0.8304,0.7084,1.353,-0.4682,1.8566
3805,-0.6888,0.8235,0.7052,4.3301,-0.0713,2.5437
3817,-0.6861,0.8316,0.7165,4.4675,-0.224,1.8108
3859,-0.6898,0.8301,0.7087,-2.2042,0.0356,-1.6853
3872,-0.6844,0.8216,0.7065,-1.4714,-0.1782,0.0551
3884,-0.6827,0.8228,0.7079,-0.6775,-0.6056,1.8719
3897,-0.6874,0.8331,0.7033,1.979,-0.3461,1.933
3910,-0.6864,0.8357,0.7077,1.7958,0.0814,0.9864
3924,-0.6835,0.8353,0.7077,-0.4943,0.4936,-0.4487
3964,-0.6842,0.8279,0.704,-2.5706,-0.2698,-0.4029
3977,-0.6898,0.8201,0.7074,-1.166,-0.0866,0.1162
3990,-0.6842,0.8279,0.7091,1.7194,-0.2392,1.3528
4003,-0.6835,0.8362,0.7091,1.6431,0.0661,0.849
4016,-0.6827,0.8389,0.7043,-1.563,-0.0255,-1.0136
4029,-0.6876,0.8377,0.7094,-3.3035,0.1424,-2.0976
4071,-0.6896,0.8218,0.7045,0.1317,-0.3461,1.1085
4083,-0.6864,0.8245,0.7057,1.5973,-0.1782,1.475
4096,-0.683,0.8296,0.7067,0.7576,-0.6362,0.8948
4109,-0.6837,0.8304,0.7038,-0.1889,0.4631,-0.006
4121,-0.6891,0.8257,0.7069,-0.6317,0.2493,-0.6472
4134,-0.6869,0.8318,0.704,-0.3569,0.2798,-0.8456
4174,-0.6864,0.8333,0.7077,-0.9523,-0.0255,0.8643
4188,-0.6908,0.8245,0.7126,-2.2958,-0.3614,1.0169
4200,-0.6861,0.835,0.7045,-0.9218,0.0814,1.3223
4213,-0.6854,0.8289,0.7099,0.8187,0.4478,1.2154
4226,-0.6859,0.8296,0.7113,2.6049,0.2798,1.1085
4240,-0.6893,0.8353,0.7057,2.5133,-0.056,0.4368
4280,-0.6876,0.826,0.7018,-0.0515,-0.514,0.8337
4293,-0.683,0.8294,0.7043,-0.0363,0.1272,1.4292
4307,-0.6869,0.8284,0.7087,0.4828,0.5699,0.7879
4319,-0.6878,0.8289,0.7057,2.2385,1.0127,0.4826
4332,-0.691,0.8311,0.7069,3.5057,0.9974,0.6047
4345,-0.6905,0.8362,0.7008,0.8798,0.2035,-0.2044
4386,-0.6852,0.8353,0.7089,-4.5859,-0.6209,-1.5327
4399,-0.6903,0.8311,0.7077,-4.5859,0.173,-2.0365
4412,-0.6886,0.8235,0.7087,-2.2958,0.3562,-1.3037
4425,-0.6844,0.8221,0.703,0.6049,0.5852,0.4673
4437,-0.6876,0.8265,0.7079,2.4523,0.1882,1.6582
4450,-0.6861,0.8338,0.7035,3.2309,-0.1476,2.1467
4491,-0.6878,0.8291,0.7091,-3.4103,0.0814,-1.7159
4505,-0.6857,0.8279,0.7028,-1.4867,0.1424,-0.9983
4518,-0.6864,0.8306,0.7104,0.0553,-0.4377,0.5284
4530,-0.6815,0.8221,0.7023,0.3759,-0.3766,0.849
4542,-0.7098,0.8304,0.7218,-1.0744,-0.6515,0.4368
4555,-0.6822,0.8301,0.7101,-0.4027,0.005,0.5589
4597,-0.6915,0.8277,0.7087,-1.7462,0.2493,-1.4563
4610,-0.6842,0.8272,0.7038,-1.0134,-0.3003,0.391
4623,-0.6839,0.8294,0.7096,-1.5783,0.0508,0.9101
4635,-0.6883,0.8294,0.7113,0.2996,0.5699,2.2536
4648,-0.6842,0.8267,0.7108,1.6126,0.9974,2.4673
4661,-0.6852,0.8289,0.7104,1.7653,1.1653,1.3986
4703,-0.683,0.8338,0.705,-3.0134,-0.3919,-1.3495
4716,-0.6832,0.8331,0.7065,-3.7767,-0.7889,-1.1205
4728,-0.6839,0.826,0.7094,-3.2271,-0.7278,-0.9525
4741,-0.6864,0.8269,0.7116,-0.5859,-0.7736,-0.3266
4753,-0.6859,0.8321,0.7067,1.3072,-0.1476,-0.4182
4766,-0.6857,0.8306,0.7128,1.9637,-0.1934,0.1162
4808,-0.6876,0.8204,0.7082,-1.3035,-0.3614,-0.2808
4820,-0.6898,0.8311,0.7069,0.1317,-0.1018,0.3757
4832,-0.6871,0.8372,0.7087,0.834,0.0508,0.9559
4844,-0.6898,0.8326,0.7065,0.4523,0.0203,0.9559
4856,-0.6888,0.8291,0.7069,0.2843,0.0661,0.6353
4869,-0.6869,0.8353,0.7035,0.6202,-0.3308,0.1009
4910,-0.6888,0.8248,0.7091,-1.1508,0.4325,-0.9067
4923,-0.6859,0.8248,0.7101,-0.5401,0.1272,0.6047
4935,-0.6874,0.8309,0.7069,1.4752,0.2188,2.5895
4948,-0.6891,0.8282,0.7096,1.521,0.173,2.7421
4961,-0.6837,0.8362,0.7089,0.4217,0.1119,1.6276
4975,-0.682,0.8382,0.7087,-2.1737,0.0356,-1.1815
5015,-0.6874,0.8296,0.7052,-2.0057,-0.3461,-0.7388
5028,-0.6866,0.8299,0.7045,-0.9981,-0.1476,0.7269
5040,-0.6876,0.8316,0.7062,0.9408,-0.2545,1.6734
5053,-0.6888,0.8284,0.7121,1.0782,-0.1476,1.7498
5066,-0.682,0.8355,0.7126,0.5897,0.0508,-0.1434
5080,-0.692,0.835,0.7145,-0.3416,0.0508,-1.2731
5120,-0.69,0.826,0.7045,-0.1737,-0.0102,0.4826
