time_ms,ax,ay,az,gx,gy,gz
11,-0.6476,0.8831,0.7782,-1.105,0.5089,0.8337
24,-0.6534,0.8775,0.778,-0.3111,0.1577,0.8032
65,-0.6468,0.877,0.7768,-0.1889,0.1577,-0.0212
78,-0.6527,0.8794,0.779,-0.4027,0.173,-0.2655
90,-0.6456,0.878,0.7773,-0.1126,0.2951,-0.3724
102,-0.6466,0.8826,0.7748,-0.9523,0.4173,-0.2044
114,-0.6524,0.8787,0.7719,-1.4256,0.0356,-0.5098
127,-0.649,0.876,0.7675,-1.0592,-0.056,-0.3571
168,-0.6522,0.8794,0.7733,0.6507,-0.0866,0.6353
180,-0.6503,0.8768,0.7724,1.3072,-0.0255,0.9101
193,-0.6498,0.8814,0.7802,1.1851,0.3562,0.849
207,-0.6473,0.8831,0.7802,-0.021,0.631,0.62
219,-0.6507,0.8797,0.7716,-0.7233,0.6157,0.4826
231,-0.6476,0.8758,0.7819,-0.1584,0.3104,0.5437
272,-0.7523,0.9029,0.8273,-4.1279,-3.7049,-8.1586
285,-0.7965,0.9068,0.7939,-0.9065,-8.453,-16.4945
298,-0.89,0.7969,0.9865,13.1088,-14.7125,-36.0365
311,-0.9061,1.0628,0.7648,6.0248,-28.911,-19.5937
324,-0.7279,1.0455,0.6794,-3.166,-29.5369,4.162
337,-0.556,1.0884,0.6845,21.3378,-20.2392,22.0246
378,-0.4232,0.9832,0.6869,-1.0286,24.2493,71.475
391,-0.3871,0.9307,0.5404,2.7576,42.1272,74.1925
404,-0.2723,0.7972,0.6623,-7.8378,58.005,58.391
417,-0.2565,0.7967,0.621,-20.6622,67.9592,32.4673
430,-0.2753,0.8479,0.7189,-38.0515,77.0432,8.9253
443,-0.4159,0.865,0.7318,-52.6622,82.3562,-11.7311
484,-0.6664,0.699,0.9975,-11.9294,-2.8652,-23.4716
498,-0.4772,0.6722,1.1508,-7.6546,-25.1705,-25.4411
510,-0.3597,0.8145,0.7052,-24.0057,-38.1324,-36.8151
523,-0.683,1.0003,0.6059,7.0019,-46.9263,-19.8533
536,-0.5072,0.3196,1.3322,-10.6928,-47.5217,-34.4029
549,-0.7933,0.8772,0.5312,-6.3111,-53.5522,-29.4105
590,-0.7572,0.865,0.7362,-11.563,-28.8041,-22.5708
603,-0.7965,1.4275,0.4587,16.2843,-24.4224,0.6047
616,0.1273,0.6734,1.0487,-22.0821,-23.5217,-33.8075
629,-0.9884,0.6717,0.6051,8.5897,-21.6744,-17.9907
642,-0.7938,1.1646,0.7358,96.7423,8.3562,22.8032
655,-0.7362,1.0376,0.6422,32.8798,-0.3461,11.2765
696,-0.6253,0.8208,0.8156,41.5515,7.6386,-1.0136
709,-0.6898,0.6145,0.5917,37.7042,13.8982,-9.5479
722,-0.7213,0.7518,0.5788,58.8798,20.1272,-4.8304
735,-0.8685,0.6319,0.5165,62.1164,17.4249,-12.4792
749,-0.7972,1.0201,0.486,69.3683,21.5776,-0.7846
761,-0.6246,0.9727,0.727,59.9485,30.6005,10.7421
802,-0.5035,0.7334,1.1088,1.0324,18.234,-8.3266
816,-0.4264,0.7815,1.0649,22.3454,18.7989,-7.9449
828,-0.5443,1.1311,1.2262,13.2767,0.1119,1.4139
841,-0.5277,0.9095,0.8629,3.6126,6.7989,0.2078
854,-0.5467,0.9969,0.9762,5.7194,1.0585,-1.3037
867,-0.6083,0.8924,0.7819,6.5286,4.7837,-2.4182
908,-0.6888,0.9436,0.7172,-4.9065,0.2798,-12.2502
921,-0.7384,0.9183,0.8129,-16.1889,-3.6744,-15.7617
935,-0.7464,1.0003,0.839,-18.1279,-11.9797,-14.1586
948,-0.7665,1.1153,0.89,-24.1584,-18.2545,-1.1052
961,-0.7643,1.2391,0.8859,-38.4943,-40.8805,16.7574
973,-0.5936,1.2801,0.7209,-55.1508,-39.2011,33.1391
1014,-0.1625,0.9349,0.4565,-93.3035,27.089,31.078
1027,-0.3006,0.7068,0.5758,-126.586,46.631,4.9101
1040,-1.3895,0.0625,1.3266,-158.143,1.1195,-45.7769
1053,-1.1163,0.1314,1.0553,-108.937,-4.9873,-38.525
1066,-0.8568,0.2188,0.7487,-13.1813,9.3791,-21.3495
1079,-0.5543,0.2903,0.7497,37.0782,-0.3919,2.9711
1120,-0.3968,0.6128,0.4882,67.2767,-6.0408,-27.38
1133,-0.6219,1.3162,1.018,147.048,-0.8347,8.4826
1146,-0.5084,1.2571,0.6469,69.1698,1.2875,-13.3495
1160,-0.5379,1.8196,0.8207,70.208,-0.056,16.6658
1172,-0.5548,1.4314,0.8654,20.7424,4.9516,17.8872
1185,-0.6878,1.3445,0.7629,21.1698,7.7455,7.5513
1226,-0.6842,0.8504,0.7533,-27.7309,-8.3614,-27.1663
1239,-0.669,0.8267,0.7741,-32.1279,-13.9797,-21.5327
1252,-0.6752,0.8155,0.7848,-32.7538,-19.5064,-13.2121
1265,-0.6339,0.8211,0.7909,-31.792,-20.0408,-8.0976
1278,-0.6368,0.792,0.7931,-21.4867,-15.4453,-0.9983
1291,-0.64,0.837,0.8041,-11.3951,-4.7736,7.5513
1332,-0.5863,0.8257,0.8102,11.0477,-0.4224,15.9177
1345,-0.7088,0.8208,0.8124,16.208,-0.3766,16.62
1358,-0.6625,0.8379,0.7965,11.4294,4.2798,15.5666
1371,-0.6339,0.8597,0.7755,3.3378,3.1195,9.1238
1384,-0.6412,0.8667,0.7919,-0.9676,1.1806,3.6429
1397,-0.6253,0.8807,0.79,5.3988,-8.3156,-1.1205
1437,-0.6253,0.8494,0.8053,2.1622,0.4478,3.5818
1451,-0.6249,0.8184,0.7934,6.437,0.6005,3.0322
1464,-0.6437,0.8992,0.8378,-9.3493,5.5012,1.4444
1477,-0.6351,0.8636,0.8078,-0.0668,4.2798,3.2765
1490,-0.6888,0.731,0.7868,3.4446,4.5547,7.1085
1503,-0.6217,0.8475,0.7702,1.4752,0.4783,4.8337
1545,-0.6488,0.8511,0.7912,-17.4256,-10.911,-9.2731
1557,-0.6393,0.8406,0.7785,-13.3035,-13.2469,-11.1052
1570,-0.6429,0.8133,0.798,-2.4638,-16.5598,-8.7235
1583,-0.6283,0.8272,0.8266,-4.3569,-14.6973,-5.1663
1596,-0.6288,0.8123,0.8424,2.4523,-0.5598,3.078
1609,-0.6249,0.8394,0.8175,4.4828,0.7837,2.5589
1650,-0.6402,0.8521,0.8083,-9.3493,-1.9644,-5.8686
1664,-0.6329,0.8257,0.8173,-9.0134,-2.3919,-5.5785
1676,-0.6429,0.8223,0.828,2.6965,-1.3079,-1.0136
1689,-0.6271,0.8287,0.818,14.3607,0.5394,4.6658
1702,-0.6358,0.8457,0.8122,16.5286,0.4783,6.2994
1715,-0.6385,0.8677,0.8144,4.2538,-0.8805,1.4597
1756,-0.6324,0.826,0.8283,1.9179,-1.6744,-0.5708
1768,-0.6293,0.8455,0.8254,4.4065,1.8066,2.1773
1782,-0.6356,0.8526,0.8192,-0.4485,0.2035,2.4215
1795,-0.6407,0.8421,0.8022,-3.166,-1.369,1.246
1808,-0.6349,0.8436,0.8117,-5.9294,-2.4072,-2.4792
1821,-0.629,0.8143,0.82,-2.8149,-2.3919,-4.5556
1862,-0.6302,0.8331,0.8156,0.7118,-0.4072,-0.6777
1875,-0.6368,0.8311,0.8161,2.8034,0.4936,0.9711
1888,-0.6302,0.8299,0.82,-0.1126,0.9821,0.4979
1900,-0.6358,0.8482,0.821,2.0553,1.3791,-0.5556
1914,-0.6349,0.8484,0.8163,-1.3493,0.0508,-2.4182
1927,-0.6244,0.8323,0.8058,-7.3493,-1.3537,-5.0289
1968,-0.6356,0.8223,0.8285,-8.7691,0.5089,0.3452
1981,-0.6376,0.8309,0.818,-7.8225,0.3409,1.1238
1994,-0.6376,0.8189,0.8173,-5.2118,-0.1782,0.5895
2007,-0.6346,0.8343,0.828,-2.9828,-0.453,0.1009
2020,-0.6293,0.8379,0.8224,-1.3951,0.005,-0.6319
2032,-0.638,0.8279,0.8217,0.9866,0.2646,0.62
2074,-0.6371,0.8309,0.8227,-0.8149,-0.1934,0.1925
2087,-0.6351,0.8418,0.8256,-3.7157,0.4173,-1.6395
2099,-0.6334,0.8309,0.8195,-4.25,0.6157,-3.0899
2113,-0.6336,0.8218,0.8185,-3.3035,0.4325,-2.3571
2126,-0.6336,0.8289,0.8268,-2.5554,0.0508,-1.5479
2139,-0.6412,0.8257,0.8146,-2.4485,0.1882,-0.3571
2180,-0.6329,0.8304,0.819,-0.3264,-0.5598,-0.0823
2192,-0.6295,0.8304,0.8207,0.5286,-0.2087,-0.0365
2204,-0.6307,0.8277,0.8229,2.7729,0.7989,1.0933
2218,-0.6371,0.8272,0.8244,2.0248,1.2417,1.8414
2231,-0.6322,0.8309,0.8236,1.5362,0.7073,2.4368
2244,-0.6283,0.8353,0.8244,1.2767,0.7531,2.2689
2285,-0.6395,0.8265,0.8229,-2.7996,-1.5217,-3.3189
2298,-0.6285,0.8282,0.8271,-3.4714,-0.7889,-2.8609
2311,-0.6307,0.8299,0.8249,-4.876,-0.4377,-1.4411
2324,-0.631,0.8133,0.8268,-1.7309,0.4325,0.6353
2337,-0.6317,0.8238,0.8271,1.5057,0.5852,2.5284
2349,-0.6334,0.8269,0.8195,2.834,0.8295,3.2918
2391,-0.6388,0.8262,0.8202,-3.1202,-0.5446,-3.7617
2404,-0.6293,0.8291,0.8192,-4.0057,-0.4988,-2.8915
2417,-0.6344,0.8179,0.8249,-3.166,-0.3156,-1.1205
2429,-0.6329,0.8287,0.8232,0.5591,0.1882,1.078
2443,-0.6329,0.8272,0.8271,0.0095,0.4936,1.6276
2456,-0.6373,0.8296,0.8244,1.7653,0.3714,1.2612
2497,-0.6336,0.825,0.8214,2.2538,-0.3614,-0.1128
2509,-0.6258,0.8218,0.8275,2.6813,0.0508,1.994
2523,-0.6285,0.8291,0.8254,0.2691,-0.0255,2.849
2536,-0.6336,0.8301,0.8234,0.9714,-0.3156,3.5666
2549,-0.6346,0.8277,0.8239,-0.0973,-0.285,2.2536
2562,-0.6376,0.8374,0.8302,2.7271,0.1882,2.3757
2603,-0.6219,0.8328,0.8249,-3.0134,0.0508,-1.6548
2616,-0.6312,0.8289,0.8258,-4.2806,-0.3308,-0.8456
2629,-0.6275,0.8267,0.8285,-2.7233,-0.056,0.5131
2642,-0.6341,0.8279,0.8244,-3.4409,-0.1629,0.8337
2655,-0.6358,0.8287,0.8227,-3.0592,-0.453,1.0475
2668,-0.6402,0.8245,0.8173,-0.1126,-0.3308,1.246
2709,-0.629,0.8355,0.8217,9.0477,-0.1476,3.6887
2722,-0.6285,0.8374,0.8278,1.7653,0.0508,1.0169
2736,-0.6351,0.8401,0.819,-2.3416,-0.5751,-0.7846
2748,-0.6312,0.837,0.8219,-1.2118,-0.4835,-1.0441
2761,-0.6361,0.8362,0.8244,-2.3569,-0.2698,-1.2731
2774,-0.6373,0.8333,0.8156,-1.6546,-0.3156,-0.6014
2815,-0.63,0.8306,0.8305,-3.9599,0.5852,0.4826
2827,-0.6385,0.8357,0.8305,-0.7844,0.3104,0.5895
2839,-0.6334,0.8279,0.8251,2.895,0.2646,0.5589
2853,-0.6388,0.8335,0.8261,4.2691,-0.3308,-0.525
2866,-0.6319,0.8379,0.8212,1.7042,-1.1553,-1.8075
2879,-0.6241,0.8348,0.8283,0.1775,-0.8499,-1.7006
2919,-0.63,0.8238,0.8271,0.5439,0.8905,2.4368
2933,-0.631,0.8345,0.8234,2.6813,-0.0408,2.0093
2946,-0.6354,0.8423,0.8268,2.4675,-0.682,0.7727
2959,-0.6354,0.8367,0.8236,-0.0363,-0.9873,-0.9067
2971,-0.6305,0.8309,0.8256,0.834,-0.9263,-1.4869
2984,-0.6288,0.836,0.8239,-2.0821,-0.6362,-1.4258
3025,-0.63,0.8333,0.8334,1.4599,1.0585,1.4444
3038,-0.6336,0.8323,0.8266,3.0782,0.3867,1.765
3050,-0.6344,0.8345,0.8212,2.9408,-0.2087,1.4292
3064,-0.6361,0.8353,0.8205,3.5668,-0.1629,1.0169
3077,-0.6305,0.8411,0.8214,0.9866,-0.1782,0.0551
3090,-0.63,0.8353,0.8197,0.4217,-0.0866,-0.8151
3131,-0.6322,0.826,0.8251,-0.7844,0.8447,-0.006
3144,-0.628,0.8309,0.82,1.3378,0.402,0.8337
3157,-0.6356,0.825,0.8244,3.9485,0.6005,1.5513
3169,-0.6285,0.8394,0.8273,4.9256,0.0356,1.2612
3183,-0.6332,0.8335,0.8207,3.9027,-0.1629,0.62
3196,-0.628,0.8379,0.8271,2.2691,0.2188,-0.2502
3237,-0.6319,0.8335,0.8239,-2.8302,-0.0408,-0.7998
3250,-0.6336,0.8328,0.8207,-1.0286,-0.5598,-0.2808
3263,-0.6297,0.8318,0.8214,1.7194,-0.1324,0.7727
3276,-0.6332,0.8228,0.8217,1.6889,-0.3766,1.0627
3289,-0.63,0.8392,0.8222,0.7576,-0.224,1.1849
3302,-0.6329,0.8384,0.8234,-1.3798,-0.2698,0.0246
3343,-0.6285,0.8345,0.8232,2.6202,0.173,0.7727
3356,-0.6293,0.8313,0.8195,3.063,-0.0102,0.7574
3369,-0.6317,0.8353,0.8224,4.4981,0.0508,1.0322
3381,-0.6297,0.8328,0.8232,2.895,0.0508,1.1696
3395,-0.6332,0.836,0.8246,-0.5554,0.6921,0.5742
3408,-0.63,0.8301,0.8263,-0.6928,0.6463,0.7727
3449,-0.6322,0.8399,0.8239,-0.937,0.0814,-0.7693
3462,-0.6344,0.8306,0.8236,-1.334,0.0508,-0.8304
3475,-0.6349,0.8353,0.8224,-0.7844,-0.1171,-0.0212
3488,-0.6278,0.8296,0.8185,-1.2271,0.1119,0.4063
3501,-0.6351,0.8318,0.8307,0.0706,0.5241,0.7574
3513,-0.6341,0.8313,0.8251,0.5744,0.3562,0.9864
3555,-0.631,0.8348,0.8183,-1.0439,-0.5751,-1.6548
3568,-0.6302,0.835,0.8185,-1.7309,-0.5598,-1.4869
3581,-0.6334,0.8335,0.8214,-0.5706,-0.2698,-0.1739
3594,-0.6268,0.8245,0.8241,1.5973,0.402,1.0627
3607,-0.63,0.835,0.8202,-0.0057,0.7531,1.0017
3620,-0.6354,0.8338,0.8192,-2.0057,0.234,0.4215
3661,-0.6283,0.8291,0.8261,-1.3035,0.0508,-0.7388
3674,-0.6324,0.8296,0.8249,1.582,0.1272,-0.6014
3687,-0.6307,0.8289,0.8222,4.6507,0.7226,1.1238
3699,-0.6312,0.835,0.821,2.7271,0.6921,1.6429
3712,-0.6356,0.8333,0.8217,0.0401,0.9974,1.1391
3726,-0.6361,0.8304,0.8244,-2.1279,0.3562,0.6963
3767,-0.6315,0.8318,0.8232,3.0782,0.0508,1.078
3779,-0.6241,0.8355,0.8219,2.8187,0.2035,0.6505
3793,-0.6283,0.8321,0.8212,-0.876,0.6768,-0.0976
3806,-0.6307,0.8272,0.8195,0.3454,0.4783,1.0169
3819,-0.6317,0.836,0.8205,0.666,0.005,0.6353
3832,-0.638,0.8372,0.8175,0.666,0.0814,0.5742
3873,-0.6334,0.8353,0.8227,-0.9218,0.2951,0.4673
