time_ms,ax,ay,az,gx,gy,gz
12,-0.7701,0.4391,0.5184,0.0602,0.6787,-0.4066
24,-0.7657,0.4466,0.5145,-0.1688,0.5413,0.5858
36,-0.767,0.4481,0.5164,0.2129,0.3276,0.6927
77,-0.7635,0.4542,0.5186,1.0678,-0.2831,0.6469
90,-0.7684,0.4471,0.5189,0.1213,0.4497,-0.1928
103,-0.7677,0.4513,0.5084,-0.4131,0.3886,-0.9104
115,-0.7662,0.452,0.5116,-0.3826,0.1902,-1.0173
127,-0.7706,0.4498,0.5162,-0.7032,0.068,-0.9409
141,-0.7709,0.4466,0.5142,-0.5047,0.0375,-0.9104
181,-0.7721,0.452,0.5103,1.0678,-0.2984,0.5705
194,-0.7696,0.451,0.5108,-1.0696,-0.0846,-1.46
207,-0.7677,0.4432,0.5128,0.3197,0.007,-0.8493
221,-0.765,0.4422,0.5152,2.2281,-0.0236,1.5782
233,-0.7687,0.4403,0.5142,3.938,-0.3442,4.2347
246,-0.7652,0.4435,0.5155,5.2816,-0.4816,5.7308
287,-0.7726,0.4586,0.5096,6.3045,-5.7488,13.0591
301,-0.8009,0.6349,0.6956,-0.6726,-13.0465,12.9675
314,-0.7713,0.5909,0.4979,-23.4665,-19.6724,14.54
327,-0.9166,0.7281,0.47,-28.3978,-6.9854,26.54
339,-1.024,0.5289,0.7154,-36.0314,-24.8785,40.5705
353,-0.9188,0.5646,0.5672,-31.7871,-47.9778,51.6698
393,-0.5631,0.4645,0.3863,-18.2757,2.7398,39.9751
407,-0.7098,0.5284,0.5492,-24.0009,17.1825,28.3415
419,-0.7704,0.568,0.4503,-31.9704,17.6253,24.2347
433,-0.7941,0.4835,0.6876,-38.4436,17.152,31.1812
445,-0.7237,0.5509,0.599,-35.0696,7.9459,30.0056
458,-0.7159,0.513,0.5296,-31.7108,9.3657,30.7995
499,-0.7623,0.5653,0.5081,-34.2757,21.1062,5.0591
513,-0.797,0.5653,0.5389,-34.2146,18.2054,12.0973
525,-0.7491,0.5609,0.4969,-33.1154,17.9001,17.914
538,-0.6503,0.5406,0.4195,-32.352,24.3428,19.2881
551,-0.6134,0.412,0.4227,-35.894,35.6405,12.8759
564,-0.6676,0.4916,0.4652,-43.9856,49.8696,3.3339
606,-0.7909,0.442,0.4708,7.6785,15.1215,-2.086
619,-0.7916,0.4859,0.4913,8.9609,11.0909,10.5247
631,-0.7818,0.5001,0.495,11.5411,7.4573,17.5782
645,-0.7652,0.4654,0.5719,11.8464,-1.3366,17.5782
657,-0.7401,0.1886,0.419,5.6632,-21.1075,-2.9256
670,-1.0804,0.4342,0.1246,-5.6497,-45.1075,-4.1165
712,-0.5602,0.2052,1.1095,13.419,-64.9091,-71.002
724,0.1679,0.1551,1.15,-8.2452,-56.0694,-93.3531
737,-1.2171,0.7303,-0.0536,7.9991,-69.1686,-57.8875
751,-1.8351,0.9237,-0.2946,-8.5658,-62.2526,-1.3989
763,-0.2601,0.2479,0.523,-13.8787,-56.8022,-31.8569
776,-1.2118,1.0231,0.2379,12.106,-47.3365,-17.8264
818,-0.5807,0.4064,0.1715,-18.5658,-10.6953,-48.4676
831,-0.2972,0.0641,0.9525,-12.3978,-5.1381,-57.9791
843,-1.348,1.2623,1.2616,60.1518,0.4802,-30.3608
856,-0.7049,0.0272,0.4249,-21.9246,9.1825,-34.9715
870,-0.8092,0.5643,0.9119,30.4877,-0.7259,-12.9256
883,-0.2045,1.2086,1.1366,16.6556,8.0528,-19.0936
923,-0.5841,0.7965,1.3331,42.6709,4.526,0.998
936,-0.7587,0.3461,0.4791,10.1671,14.4192,-15.7348
950,-0.7482,0.4886,0.724,11.0678,35.5184,-32.4676
963,-0.8085,0.2347,0.2335,12.6861,37.3963,-30.773
975,-0.8832,0.5848,0.4007,32.4113,48.694,-18.7119
988,-0.8863,0.3241,-0.2599,26.7167,62.5718,-18.2386
1029,-0.7967,0.8656,0.2716,65.5716,65.6711,38.5553
1042,-0.9381,0.39,-0.3925,44.7777,50.7398,9.5324
1055,-0.9093,0.4816,-1.4753,59.1442,67.4879,21.166
1069,-0.9344,0.2025,1.0098,-8.4894,55.4726,12.0056
1082,-0.69,0.4225,1.7872,6.8693,56.8467,23.8682
1094,-0.8131,0.4962,-0.8097,63.9228,52.0528,18.7385
1136,-0.5826,-0.1105,0.9803,-10.4131,61.2436,-0.6966
1148,-0.7772,0.5533,0.3848,12.6556,20.2054,15.4866
1161,-1.2777,1.0228,-0.5275,-61.7108,72.9688,26.3721
1174,-0.7821,0.2362,0.6134,-26.3673,33.8543,-5.5363
1187,-0.6852,0.3866,0.6226,35.7701,34.7398,9.166
1201,-0.9117,0.5145,-0.1716,26.0144,35.9764,9.8988
1241,-0.6505,0.2445,0.6856,21.8922,25.5489,6.8606
1254,-0.8043,0.4383,0.4146,1.8006,2.1596,-1.9638
1267,-0.7989,0.4527,0.3819,5.48,3.1215,3.3186
1280,-0.8082,0.4637,0.3638,6.5182,1.1367,8.3415
1293,-0.8087,0.4867,0.3634,0.8693,-1.6877,5.9904
1306,-0.8077,0.4921,0.3663,-7.5887,-5.764,-1.1547
1347,-0.8055,0.4615,0.3941,-2.6421,-10.7411,-2.3913
1360,-0.8058,0.461,0.4093,-3.6803,-11.0465,-1.1089
1374,-0.8107,0.4579,0.5167,-12.8558,-19.1533,-3.4753
1387,-0.8566,0.5018,0.5357,-32.3673,-95.7182,1.1354
1400,-0.8949,0.6776,0.5501,-42.9627,-90.6037,20.769
1412,-0.9691,0.7347,0.5155,-46.4284,-112.497,42.8606
1454,-0.5421,0.4401,0.3421,-48.8711,-75.4892,26.8759
1467,-0.5152,0.4252,0.3653,-36.6421,-47.4129,16.8301
1479,-0.6417,0.5094,0.4637,-37.4818,-32.3747,14.0056
1492,-0.7147,0.5052,0.4625,-36.7948,-23.7946,16.7079
1506,-0.7572,0.453,0.4598,-39.8024,-15.1839,13.7614
1519,-0.7823,0.3138,0.4224,-48.52,-3.4587,5.8224
1559,-0.9606,0.2023,0.2257,-55.3597,-6.3595,-24.2692
1572,-0.7513,0.3358,0.4571,0.2129,2.1596,2.0973
1586,-0.7601,0.3893,0.5221,22.3808,-7.9167,20.7079
1598,-0.7584,0.337,0.5367,33.6938,-9.7946,25.9751
1611,-0.6456,0.4232,0.484,28.6403,4.0222,-17.918
1624,-0.3812,0.1554,0.5914,29.1136,9.0604,-7.0325
1665,0.069,0.1139,0.6119,45.3121,24.3276,-118.025
1678,-0.9064,-0.4096,-0.0793,30.8999,30.1291,-72.0401
1691,-1.2203,0.7696,0.5892,105.45,11.8238,-2.8798
1704,-0.8282,1.5377,0.0064,35.5716,6.2207,-2.9104
1718,-1.4147,2.3107,1.3424,142.472,-2.8633,33.5934
1730,-0.7977,2.4459,2.1738,101.236,1.1215,20.6621
1772,-0.7587,0.493,0.5128,1.4037,11.5947,-16.7882
1785,-0.7726,0.4532,0.5037,-5.5276,11.8238,-20.3913
1797,-0.7735,0.4349,0.4993,-7.4818,8.4497,-15.7653
1810,-0.7787,0.4142,0.4918,-4.978,4.7398,-5.0173
1823,-0.7753,0.4249,0.4886,2.2281,0.236,7.0896
1836,-0.7723,0.4381,0.4964,4.9762,-2.4969,11.8377
1877,-0.7682,0.4635,0.5091,1.8922,-0.7259,0.1889
1890,-0.7701,0.4681,0.5094,-2.9933,2.1596,-5.2005
1903,-0.7682,0.4542,0.5045,-4.581,3.2131,-7.9485
1917,-0.7716,0.4464,0.5028,-4.5505,2.4955,-7.5669
1929,-0.7733,0.4391,0.4998,-5.3597,1.8238,-5.689
1942,-0.7723,0.4437,0.4974,-7.2528,0.0222,-4.1776
1983,-0.7713,0.4335,0.5064,3.48,-2.3747,7.4255
1996,-0.7672,0.4576,0.5045,3.7701,-1.1381,4.8606
2010,-0.7679,0.4601,0.504,-1.7108,0.1596,-0.3913
2022,-0.7721,0.4733,0.5047,-4.2757,1.4726,-3.1852
2035,-0.7735,0.4474,0.4957,-8.3978,2.297,-6.605
2048,-0.774,0.4388,0.5008,-8.062,1.5184,-7.5211
2089,-0.7726,0.4291,0.4976,0.4571,-0.2068,-1.3989
2102,-0.7726,0.4401,0.502,3.3121,-1.7182,0.7995
2116,-0.7728,0.4422,0.4996,2.564,-1.7488,0.4637
2128,-0.775,0.4435,0.5045,0.1365,-1.1533,-1.8111
2141,-0.7711,0.4415,0.503,-1.1765,-1.1991,-3.231
2154,-0.7733,0.4379,0.5013,-2.7948,-1.1686,-4.4066
2195,-0.7699,0.4313,0.5047,0.335,-0.0694,-2.4524
2208,-0.7721,0.4305,0.5033,0.0907,0.4039,-1.5211
2221,-0.7726,0.4364,0.4984,0.6098,0.2054,-0.9409
2234,-0.7691,0.4315,0.4952,-1.3444,-0.2068,-1.2005
2247,-0.7667,0.4108,0.4888,-4.1078,-0.4969,-2.315
2260,-0.7665,0.4293,0.5033,-2.9475,-0.2068,-2.6966
2301,-0.7704,0.4315,0.5018,0.8693,-0.0083,-0.8188
2314,-0.7711,0.4278,0.5018,1.1136,-0.1762,0.6774
2327,-0.7713,0.4313,0.5069,0.9151,-0.0236,2.6469
2340,-0.7704,0.4332,0.5003,0.9915,-0.2068,4.082
2353,-0.7689,0.4305,0.5013,2.4266,-1.5961,4.54
2367,-0.7679,0.4393,0.5045,2.4724,-1.1686,2.2194
2407,-0.7677,0.4359,0.5074,0.2281,0.6787,-3.6279
2420,-0.7677,0.4283,0.4991,-1.0849,0.8009,-3.6432
2433,-0.7718,0.4276,0.5001,-0.1536,0.2818,-1.1241
2446,-0.7672,0.431,0.5013,-0.2757,0.9535,0.8148
2458,-0.7662,0.4237,0.5013,-0.3826,0.3276,1.5934
2472,-0.7728,0.4276,0.5001,3.6938,-0.161,3.2728
2512,-0.7723,0.4366,0.5011,0.1213,0.297,-1.231
2525,-0.7694,0.4349,0.5015,-2.7948,1.1673,-2.8493
2538,-0.7706,0.4293,0.5023,-2.4894,0.6329,-1.6585
2551,-0.7713,0.4347,0.4998,-1.0085,0.4955,-1.3837
2564,-0.7682,0.43,0.5033,-2.4284,0.0986,-1.2615
2578,-0.7721,0.4276,0.4964,-0.7642,-0.0694,-0.1012
2619,-0.7674,0.432,0.504,0.2587,-0.8633,-0.3455
2631,-0.7672,0.4325,0.502,-1.5429,-0.3595,-1.46
2644,-0.7672,0.4291,0.5035,-0.1383,-0.3747,-1.5058
2657,-0.7718,0.4271,0.5055,0.4724,0.1749,-0.4066
2669,-0.7638,0.4349,0.5057,-1.0696,0.2665,-1.0631
2682,-0.7701,0.4264,0.4989,0.7472,-0.1915,0.2041
2723,-0.7687,0.432,0.5013,1.4037,-0.0541,-0.0707
2737,-0.7691,0.4271,0.5013,1.3579,-0.1457,-0.6508
2749,-0.7687,0.4339,0.5018,1.19,-0.2373,-1.1699
2762,-0.7716,0.4286,0.4984,0.8083,-0.0236,-1.4295
2775,-0.7713,0.4247,0.5013,-0.0162,0.2818,-1.8417
2789,-0.7687,0.4259,0.4974,-0.6116,-0.5885,-1.5669
2829,-0.7682,0.4239,0.5037,2.1823,0.1291,2.5095
2842,-0.766,0.4364,0.4991,2.6403,0.7245,1.914
2855,-0.7743,0.4359,0.504,-0.4284,0.9993,-1.1699
2869,-0.7684,0.4352,0.4967,-0.9933,1.1825,-2.9562
2881,-0.7657,0.433,0.5015,-4.291,1.2131,-4.5745
2894,-0.7674,0.4205,0.4952,-3.665,1.1367,-3.7653
2935,-0.7689,0.4259,0.5028,3.938,0.0986,2.6927
2948,-0.766,0.4332,0.504,3.2358,0.2207,1.5018
2961,-0.766,0.4364,0.5025,1.3274,0.4039,-1.8111
2974,-0.7682,0.4293,0.503,-1.8635,0.9077,-4.9256
2987,-0.7701,0.4191,0.5008,-3.3597,0.8772,-4.376
3001,-0.7696,0.4149,0.5023,-0.9016,0.7245,-2.5592
3041,-0.7684,0.4232,0.4986,0.9915,-0.7106,0.3263
3054,-0.7682,0.4271,0.4998,0.7167,-1.2907,-1.2463
3068,-0.7696,0.4278,0.5033,-1.1459,-0.5121,-3.3989
3081,-0.767,0.4173,0.5008,-1.9246,-0.2526,-4.376
3093,-0.764,0.4169,0.5018,-1.7413,-0.848,-2.9256
3106,-0.7713,0.4127,0.4991,-1.8177,-0.0846,-1.0631
3148,-0.7682,0.4242,0.5035,0.4113,1.4879,-0.5134
3160,-0.7701,0.4064,0.4971,-1.4818,1.61,-2.9104
3173,-0.7701,0.4166,0.4964,-0.1841,0.2818,-2.0707
3186,-0.765,0.4205,0.4998,0.5487,-0.0541,-0.8493
3199,-0.7711,0.4169,0.4928,-0.0925,-0.4969,-0.7424
3210,-0.7709,0.4154,0.5023,0.3045,-0.8022,0.1889
3251,-0.7662,0.4198,0.5047,3.4953,0.0375,3.0438
3264,-0.7689,0.4269,0.503,2.0144,0.9841,1.395
3277,-0.7716,0.4213,0.5015,0.3961,1.0757,-0.3302
3290,-0.7723,0.4195,0.5001,0.9609,0.2207,0.082
3302,-0.7723,0.4232,0.4989,0.2739,-0.1762,-0.086
3315,-0.7687,0.4249,0.4996,-0.5963,-0.3136,-1.1547
3355,-0.7701,0.411,0.5023,2.564,-0.2984,1.4408
3368,-0.7684,0.4171,0.5011,5.0831,-0.2984,3.395
3381,-0.7667,0.4278,0.5008,3.8922,0.4344,2.6316
3395,-0.7657,0.4249,0.5062,1.7548,1.152,0.3568
3407,-0.7706,0.4191,0.4971,0.8999,0.9688,-0.2997
3420,-0.7711,0.423,0.5018,0.1671,0.4802,-0.376
3462,-0.7691,0.4213,0.4991,0.4571,-0.8175,-0.2386
3474,-0.7699,0.4217,0.5047,0.3045,-0.5885,-0.8035
3486,-0.7687,0.423,0.5037,-0.1688,-0.2373,-1.8875
3499,-0.7674,0.4171,0.5003,-0.1841,0.236,-1.9944
3513,-0.7689,0.4159,0.4979,-0.6268,1.152,-0.9104
3526,-0.7704,0.4161,0.5023,-0.3062,1.3199,0.3568
3566,-0.7674,0.4256,0.4974,1.877,-0.4053,1.227
3579,-0.7682,0.4234,0.4971,0.0449,-0.3442,-1.0325
3593,-0.767,0.4249,0.5011,-0.581,-0.1304,-2.2386
3605,-0.7674,0.4169,0.5042,-0.8558,-0.5885,-2.4829
3618,-0.7689,0.4149,0.5011,-0.0162,-0.2831,-1.0783
3631,-0.7694,0.4098,0.4967,2.3808,-0.8175,1.4713
3672,-0.7679,0.4254,0.5033,1.8006,0.526,0.8911
3685,-0.764,0.4332,0.505,-0.1688,0.526,-3.0936
3698,-0.7723,0.4237,0.4998,-3.7413,0.7703,-5.46
3711,-0.7689,0.4132,0.4998,-2.8406,0.3123,-4.0249
3724,-0.7711,0.4081,0.4945,0.1823,-0.0999,-0.0554
3737,-0.7696,0.4142,0.5015,2.7777,-0.5579,3.1965
3779,-0.7674,0.4298,0.5023,1.3884,0.1596,-0.086
3792,-0.7689,0.4298,0.4996,-1.8024,0.7093,-4.0096
3804,-0.7662,0.4195,0.4981,-4.1383,0.465,-5.4142
3817,-0.7701,0.4139,0.5076,-1.6955,-0.3747,-3.3379
3831,-0.7667,0.4173,0.5025,-0.9322,-0.7411,-1.689
3843,-0.7672,0.409,0.4991,1.0984,-0.6037,0.9064
3884,-0.7701,0.4286,0.5035,1.9991,-0.2678,0.8759
3897,-0.767,0.4296,0.5025,-0.2299,-0.1457,-2.2844
3910,-0.7684,0.4173,0.5008,-1.5276,-0.3442,-3.7653
3923,-0.7662,0.4137,0.503,-1.1154,-0.3747,-2.4066
3937,-0.7682,0.4137,0.5062,-1.0543,-0.0388,-0.834
3949,-0.7679,0.4176,0.5057,-0.123,0.0528,0.6011
3990,-0.7682,0.4259,0.5018,2.8083,0.0833,2.4331
4003,-0.7711,0.4283,0.5013,2.2434,-0.2373,0.6316
4016,-0.7694,0.4203,0.5025,2.1213,-0.7869,-0.4524
4029,-0.7677,0.4234,0.5001,3.0984,-2.0999,-0.4829
4042,-0.767,0.4198,0.5072,2.6556,-2.5579,-0.1012
4055,-0.7682,0.4198,0.503,3.48,-1.3213,1.4866
4096,-0.7689,0.4303,0.502,1.1594,-0.6037,1.7003
4109,-0.7652,0.4327,0.503,-3.9704,0.5413,-2.8493
4122,-0.764,0.4239,0.5008,-4.7948,1.5184,-5.3989
4136,-0.7709,0.4147,0.5089,-1.5123,0.923,-3.918
4148,-0.7672,0.4125,0.5059,0.0754,0.1291,-1.3837
4161,-0.7687,0.4166,0.5076,2.0602,0.2818,0.7537
4203,-0.7667,0.423,0.5067,-0.978,0.007,-0.6661
4215,-0.7638,0.4227,0.4993,-1.0238,0.3734,-0.9256
4228,-0.7694,0.4256,0.5059,-1.2681,0.3734,-1.0936
4241,-0.764,0.42,0.4993,-0.5047,0.6329,-1.1394
4254,-0.7672,0.4186,0.504,-0.3215,1.0604,-1.2005
4268,-0.7638,0.4188,0.5059,-1.0391,0.8009,-1.1699
4308,-0.7706,0.4203,0.5089,0.9151,-0.5121,0.9064
4321,-0.7677,0.4208,0.5074,0.1518,-0.5121,0.0515
4334,-0.7694,0.4191,0.5018,0.7319,-0.4511,-0.086
4345,-0.7679,0.4205,0.5079,0.9762,-0.5427,1.0438
4358,-0.7662,0.4203,0.5074,0.1213,-0.39,1.2728
4371,-0.7657,0.4176,0.5028,-0.5047,0.2512,1.0133
4412,-0.7691,0.4203,0.5047,0.5793,0.1596,0.2347
4425,-0.7684,0.4237,0.5076,0.9304,-0.4358,0.6621
4438,-0.7662,0.4183,0.5101,0.7625,-0.5121,0.1889
4451,-0.7682,0.4161,0.5042,1.6327,-0.5121,1.2576
4463,-0.7672,0.4232,0.5045,1.648,-0.6953,1.8072
4476,-0.767,0.4239,0.504,1.3121,-0.0541,0.8759
4518,-0.7677,0.4247,0.5045,0.1365,0.007,0.4484
4530,-0.766,0.4234,0.5033,-0.3673,0.007,0.5553
4542,-0.7694,0.4222,0.5055,-0.1994,0.1902,0.2805
4554,-0.7667,0.4191,0.5086,1.2816,0.1291,0.8606
4567,-0.7691,0.4247,0.5052,1.022,0.6176,1.456
4580,-0.766,0.4215,0.5052,0.3197,0.5566,1.7003
4621,-0.7704,0.4298,0.5074,0.4571,-1.8556,3.2881
4635,-0.765,0.4313,0.5067,-1.7108,-1.8251,-0.5898
4647,-0.7682,0.4242,0.512,-1.6803,-0.7411,-3.5516
4661,-0.7682,0.421,0.5111,-1.3291,0.7398,-4.376
4673,-0.7674,0.4147,0.5123,-0.6116,0.7093,-2.0249
4686,-0.7687,0.4164,0.5011,1.7854,0.0833,0.5247
4727,-0.7643,0.4215,0.5094,-0.7184,0.297,0.1583
4740,-0.7674,0.4171,0.5035,0.8235,0.5566,1.4866
4754,-0.7679,0.4208,0.5045,2.0449,0.4192,2.8301
4766,-0.7684,0.4264,0.4996,0.7625,0.3734,1.3034
4779,-0.7682,0.4313,0.5094,-0.1841,0.0833,-0.1165
4792,-0.7689,0.4247,0.5025,-0.4131,-0.0388,-0.8188
4833,-0.7657,0.4266,0.5079,-0.2757,0.1444,-0.5592
