time_ms,ax,ay,az,gx,gy,gz
12,-0.6847,0.7234,0.7228,-3.3187,0.0356,-1.4105
25,-0.6937,0.7203,0.7282,-3.0744,0.1119,-1.4105
66,-0.6903,0.7154,0.7223,-4.4027,-0.3156,-0.7235
79,-0.6947,0.7129,0.7267,-2.647,-0.3003,-0.6472
91,-0.6878,0.711,0.7257,1.7042,0.1272,0.2841
104,-0.6844,0.7146,0.7267,3.6584,0.6157,1.1849
118,-0.6883,0.7161,0.7191,4.6202,0.8142,1.5055
131,-0.6839,0.7249,0.7296,1.7805,0.0814,1.1238
171,-0.6876,0.7171,0.7272,-0.8149,-0.1476,0.162
185,-0.6773,0.7207,0.7243,-1.3035,-0.2545,-0.006
198,-0.6888,0.7188,0.7323,-0.876,0.2493,-0.5098
211,-0.6918,0.7261,0.7233,0.7424,0.2798,0.1162
223,-0.6903,0.7237,0.7311,-0.021,0.0661,0.0856
235,-0.6871,0.7159,0.7235,-0.6317,0.3256,-0.7846
275,-0.69,0.7198,0.7289,0.895,0.1119,0.3757
288,-0.6937,0.719,0.7372,1.7805,0.005,1.307
302,-0.6881,0.7232,0.7289,2.3759,0.0966,1.5666
315,-0.6881,0.7154,0.7279,2.4828,0.2951,1.3834
328,-0.6866,0.72,0.7226,0.9714,0.2035,-0.0212
341,-0.6859,0.7254,0.7265,-2.5248,0.8142,-0.9831
381,-0.6891,0.7129,0.7213,-0.5401,0.234,-0.3266
395,-0.6878,0.7178,0.7245,1.6278,-0.0102,0.9101
408,-0.6876,0.7207,0.7231,2.834,0.005,1.8566
421,-0.6857,0.72,0.7233,3.7958,0.2646,1.994
433,-0.6881,0.7276,0.736,1.292,0.234,1.3834
447,-0.6893,0.7308,0.7238,-2.4638,0.0966,-0.3571
488,-0.692,0.7207,0.7265,0.0401,-0.2392,0.6963
501,-0.6937,0.719,0.7321,1.6736,-0.5293,1.1085
514,-0.6991,0.7142,0.725,7.9943,-0.9873,2.4215
526,-0.7088,0.7073,0.7338,12.834,-1.8423,4.6658
539,-0.7301,0.7205,0.7433,29.0172,-1.6286,9.1696
553,-0.7494,0.7361,0.7397,21.6736,-3.2469,2.6658
594,-0.8829,0.8206,0.7729,3.9485,-34.453,30.2078
606,-0.7191,0.698,0.6044,-0.5401,-32.514,34.8643
620,-0.6898,0.5315,0.6029,22.666,-25.0179,28.3299
633,-0.4925,0.6814,0.6691,47.3836,-12.6362,16.6353
646,-0.4837,0.8245,0.6886,14.5591,-1.0484,5.1085
659,-0.4598,0.8013,0.6786,16.3149,8.3409,10.0398
699,-0.5724,0.6431,0.8244,2.3454,38.9363,19.3223
713,-0.6085,0.7684,0.766,-2.6317,32.5394,3.6582
726,-0.6712,0.7151,0.7707,-5.1355,32.7226,1.7192
739,-0.6815,0.7264,0.7372,-1.3798,29.944,-6.1434
752,-0.6503,0.7405,0.7345,-8.021,29.5623,-13.6243
765,-0.5558,0.626,0.769,-21.5477,27.5165,-25.3037
806,-0.7384,0.6287,1.1139,-4.8607,-20.7278,-9.7311
819,-0.5265,0.8067,1.1112,14.6049,-29.9034,-3.5327
832,-0.5519,0.6404,1.0727,11.0324,-33.1705,-10.525
846,-0.4234,0.8055,0.9552,-50.4027,-35.8576,-17.9449
858,-0.6153,0.6509,0.9259,-59.334,-29.0942,-27.2731
871,-0.7294,0.7198,0.9438,-71.1355,-33.4911,-35.3342
913,-0.5812,0.5105,0.8944,-47.9141,-21.4606,-11.0289
925,-0.972,0.9236,0.3974,-42.0515,-32.453,-38.0365
938,-0.8827,1.1922,0.2626,-53.3035,-31.5064,-53.4411
951,0.0219,0.0552,1.3368,-64.2042,-29.7202,-63.4105
964,-0.3426,0.5855,0.9184,-34.2958,-27.14,-33.6243
978,-0.4552,0.6275,1.0971,-39.5172,-19.9339,-29.5785
1018,-0.7286,0.647,0.5661,-48.5554,-12.514,-32.3266
1031,-0.7054,0.6348,0.6344,3.3683,-8.4835,-6.2502
1044,-0.7728,0.7427,0.7773,11.0172,-7.0789,-2.0976
1056,-0.7589,0.6841,0.549,26.3607,-6.8957,6.0704
1070,-0.6595,0.6639,0.6774,-9.4561,-8.1629,-7.7464
1083,-0.6996,0.6751,0.7362,1.1393,-2.5293,-0.9373
1123,-0.6622,0.5982,0.7743,-2.3569,1.1653,-2.8762
1136,-0.6554,0.5743,0.7777,0.2843,0.7379,-0.9678
1150,-0.6576,0.5682,0.7692,-7.7615,0.6768,-3.5479
1163,-0.6776,0.5176,0.716,17.4141,3.4249,2.5131
1176,-0.7369,0.4502,0.5597,52.0095,17.5165,5.0017
1188,-0.7042,0.5328,0.7733,69.3683,22.5852,7.1544
1230,-0.8902,0.7496,0.2858,122.895,48.5852,32.2383
1243,-0.8104,0.5694,0.9525,162.345,53.4707,41.9635
1256,-0.379,0.3023,0.0622,90.2385,46.7226,12.0093
1269,-0.7047,0.5845,1.1781,103.384,40.2646,21.933
1282,-0.6722,0.533,0.7536,50.437,34.9058,13.3223
1295,-0.621,0.7127,1.3039,55.1546,28.1577,19.9635
1336,-0.5912,0.8165,0.7162,10.0706,13.8371,3.0169
1349,-0.6351,0.8772,0.9237,0.2996,8.8447,-0.5861
1361,-0.7223,0.6973,0.7157,3.6736,5.715,-6.0976
1375,-0.7325,0.6729,0.7035,20.4523,9.6844,-2.8304
1388,-0.7357,0.6895,0.7001,22.7729,4.005,2.1162
1400,-0.7347,0.7105,0.7143,34.0859,-3.9034,12.0093
1442,-0.7884,0.9783,0.8092,-8.2806,-35.7202,18.6505
1455,-0.9408,0.9883,0.8837,-21.6088,-48.6209,30.1925
1469,-0.7162,0.9192,0.7917,-26.6775,-52.1476,45.8108
1481,-0.6063,0.773,0.7511,-28.0363,-46.4377,38.7421
1494,-0.4916,0.7164,0.7023,-31.7767,-37.1095,21.2154
1507,-0.4232,0.7544,0.7289,-39.1966,-25.14,5.9177
1548,-0.5292,0.8519,0.6584,-16.3569,6.9363,23.246
1561,-0.5716,0.7005,0.6615,-16.5554,15.7608,23.7192
1574,-0.6429,0.6607,0.683,-22.1431,21.1653,17.9635
1587,-0.6273,0.6233,0.6425,-18.3722,26.5089,8.7116
1601,-0.7232,0.6485,0.7338,-36.7233,31.547,-2.4792
1613,-0.8255,0.5599,0.7797,-30.0973,29.7913,-11.7464
1654,-0.744,0.2764,0.7926,35.979,-0.4682,-3.0747
1667,-0.909,0.2664,0.4423,11.1546,-0.453,-29.609
1680,-0.7308,-0.1545,0.4643,-34.4943,0.1882,-70.4334
1693,-0.4173,1.5818,1.0373,35.6889,-2.4377,-48.4182
1706,-0.6795,0.513,1.2736,11.0019,7.1195,-62.235
1719,-0.5616,1.0708,0.5363,35.3683,5.7608,-6.1586
1760,-0.7001,0.7762,0.7284,-6.3264,4.4478,-17.9449
1773,-0.7098,0.6492,0.7362,-0.8912,3.5318,-12.8456
1786,-0.6803,0.5547,0.7333,15.0782,-0.3614,-6.2655
1799,-0.7169,0.7259,0.6999,34.4523,-0.6362,6.4979
1812,-0.5257,0.3704,0.4298,-8.7996,-6.9263,-37.0441
1825,-0.6847,0.7779,0.7992,10.834,-4.7583,18.9406
1866,-0.6656,0.1604,0.599,-25.1508,-4.5446,-25.1205
1879,-0.693,0.7542,0.7826,-8.2347,1.1959,-8.6624
1891,-0.6783,0.732,0.734,-4.5248,1.2875,-7.3342
1905,-0.6781,0.7388,0.7306,-3.563,1.4554,-11.1663
1918,-0.6891,0.7103,0.7333,-5.0592,0.8905,-12.9525
1931,-0.6857,0.7066,0.7379,-7.5477,-0.4835,-12.464
1971,-0.6837,0.69,0.737,-3.0286,-1.4606,5.2154
1985,-0.6835,0.7073,0.7409,-1.6088,-1.0942,3.7803
1998,-0.6886,0.7022,0.7389,0.1317,-0.4224,1.3681
2011,-0.6742,0.701,0.7328,-2.8607,0.2188,-2.0976
2023,-0.6915,0.709,0.7404,0.7271,0.1424,-2.6624
2036,-0.6759,0.7273,0.735,-6.7844,-0.453,-7.0441
2078,-0.6795,0.6714,0.7394,-2.7996,-2.1171,2.7574
2091,-0.6764,0.6827,0.7394,3.1851,-1.8728,6.8337
2103,-0.6849,0.7144,0.746,2.8492,-1.7202,6.0551
2117,-0.6835,0.7186,0.7421,-4.3264,-1.6438,0.4979
2130,-0.6815,0.7054,0.7365,-9.5477,-1.5522,-4.1281
2143,-0.6871,0.6829,0.735,-8.3416,-1.6591,-4.922
2184,-0.6739,0.6941,0.7321,3.6736,-0.2392,3.4444
2197,-0.6842,0.6929,0.7384,4.8492,-0.224,5.2307
2210,-0.6798,0.7044,0.7426,2.8798,0.1882,3.6429
2223,-0.6793,0.7056,0.7465,0.895,0.5089,1.1391
2236,-0.6805,0.7044,0.7431,-1.3798,-0.3308,-0.7846
2249,-0.6808,0.6949,0.7433,-3.8225,-0.3003,-2.1128
2290,-0.6793,0.6963,0.7404,3.5668,-1.1705,2.9253
2302,-0.6805,0.7034,0.7443,0.8187,-1.14,2.0093
2315,-0.6854,0.6934,0.7445,2.5286,-0.6973,1.5818
2329,-0.6803,0.7107,0.7482,-1.2118,0.402,-0.6624
2342,-0.6788,0.7,0.7458,-5.0744,1.5776,-3.5327
2354,-0.6852,0.7002,0.7389,-3.334,1.4707,-3.9907
2396,-0.6786,0.6858,0.736,-1.7615,-1.2927,0.5895
2409,-0.6835,0.6951,0.7499,-2.9523,-1.7507,0.7574
2422,-0.6695,0.6936,0.7409,-1.5172,-0.7431,0.9253
2434,-0.6832,0.689,0.7521,2.666,0.1119,2.162
2448,-0.68,0.7034,0.7409,0.7882,1.318,1.0933
2461,-0.6761,0.6927,0.7433,1.6736,1.5165,0.3147
2502,-0.6795,0.7022,0.7377,1.292,-0.5904,0.7574
2515,-0.6813,0.7029,0.7394,-1.4714,-1.369,-0.2044
2527,-0.6783,0.6949,0.746,-1.9599,-1.0789,-0.7693
2541,-0.6803,0.6919,0.7421,-0.5096,-0.2392,-0.5708
2553,-0.6781,0.6988,0.7421,-2.3569,0.0356,-1.0594
2565,-0.6822,0.6929,0.7409,-3.5325,1.0127,-0.8304
2607,-0.6817,0.7056,0.7394,0.6202,-0.4988,0.4368
2620,-0.6808,0.7071,0.7409,-1.5783,-0.2087,-1.7159
2633,-0.6822,0.698,0.7416,-3.9905,-0.4682,-3.5174
2646,-0.6805,0.6895,0.7467,-3.166,-0.1171,-3.3342
2659,-0.6766,0.6912,0.7441,-5.3951,-0.0408,-2.5098
2671,-0.68,0.6849,0.7426,-3.2118,0.0814,0.8032
2713,-0.6854,0.6998,0.7467,1.7958,0.4783,1.2307
2725,-0.6803,0.6993,0.7441,1.7194,0.5547,-0.9373
2738,-0.6773,0.6946,0.7423,-0.647,0.4173,-2.3724
2752,-0.6859,0.6954,0.7411,-1.8531,-0.4835,-2.0823
2765,-0.6778,0.6919,0.7428,-2.1737,-1.4301,-0.5861
2778,-0.6752,0.6929,0.7404,-3.3645,-0.7278,0.3605
2818,-0.6813,0.6971,0.7377,2.2996,0.4478,1.246
2832,-0.6781,0.6963,0.7428,1.5515,0.6157,-1.1815
2845,-0.6795,0.6995,0.7448,2.5591,0.234,-1.5632
2858,-0.6825,0.7022,0.7411,0.1927,0.1424,-2.0823
2871,-0.6832,0.6995,0.7421,-4.3416,-0.2545,-2.1892
2884,-0.6832,0.6939,0.746,-4.4638,-0.6973,-1.1052
2925,-0.6778,0.6966,0.7443,3.2156,-0.056,3.9482
2938,-0.6849,0.7,0.7401,1.3988,0.3104,2.1314
2951,-0.6825,0.7029,0.7472,-1.792,0.631,-0.6014
2963,-0.6832,0.699,0.7387,-3.7462,0.2493,-3.4411
2977,-0.6808,0.6976,0.7472,-5.1355,-0.0102,-4.7235
2990,-0.68,0.6824,0.746,-2.8912,0.0966,-3.1815
3031,-0.6815,0.6863,0.7428,-0.7386,-0.5446,2.8795
3044,-0.6817,0.6978,0.7504,1.0935,-0.1476,2.3299
3057,-0.6786,0.7029,0.7377,0.2538,-0.056,0.3605
3070,-0.6781,0.6949,0.748,-1.4256,0.4478,-1.9602
3083,-0.672,0.6902,0.7323,-2.6928,1.2722,-2.5403
3096,-0.6817,0.6927,0.7436,-5.0744,0.7837,-2.8915
3137,-0.683,0.688,0.7426,-0.2653,-0.056,-0.4029
3150,-0.6808,0.6883,0.7438,-1.0897,0.3867,-1.3647
3163,-0.6786,0.6839,0.7428,-0.2347,0.8295,-1.2121
3175,-0.6788,0.6922,0.7445,-2.3722,0.6157,-1.8686
3188,-0.6864,0.6841,0.7389,-0.5096,0.1577,-0.7998
3202,-0.6803,0.6832,0.7358,-1.4103,-0.0255,-0.3418
3242,-0.6825,0.6902,0.7458,0.2843,0.0356,-0.6166
3255,-0.6815,0.6871,0.7406,0.9256,0.3867,-0.6624
3268,-0.6803,0.6819,0.7455,2.1011,0.7073,-0.3418
3281,-0.6778,0.6849,0.748,3.1546,0.4783,0.5437
3294,-0.6778,0.6883,0.7428,0.2843,-0.1018,0.4063
3306,-0.6827,0.6844,0.7406,1.2309,-0.3003,1.1849
3348,-0.6825,0.6917,0.7477,-1.7767,0.402,-1.4563
3360,-0.6827,0.689,0.7441,-0.9828,0.3409,-1.4258
3374,-0.6798,0.6834,0.737,-1.5935,0.6157,-1.3189
3387,-0.6793,0.6836,0.7426,-1.7767,-0.3919,-0.2655
3400,-0.6788,0.6824,0.7445,-2.1126,-0.3003,1.5055
3413,-0.6754,0.6851,0.748,0.1164,-0.7583,2.162
3454,-0.6776,0.691,0.7475,0.666,0.3867,-1.5785
3467,-0.6793,0.6941,0.7438,-0.1126,0.7989,-2.5708
3480,-0.6786,0.6905,0.745,-1.9294,1.0432,-2.7082
3492,-0.6837,0.6866,0.7445,-2.1279,0.0966,-1.3189
3505,-0.6771,0.6722,0.7426,0.4065,-0.3919,1.3834
3519,-0.6832,0.6797,0.7431,0.437,-0.6362,3.2002
3560,-0.6795,0.6927,0.7433,-0.937,0.631,-2.3571
3572,-0.6725,0.6866,0.7431,-2.8912,0.4631,-3.3342
3586,-0.681,0.6783,0.7436,-1.7004,-0.0102,-1.5479
3599,-0.6837,0.6775,0.737,0.6965,-0.1629,1.0169
3612,-0.6825,0.6875,0.7448,1.9332,-0.6515,3.3986
3625,-0.68,0.6897,0.7428,1.0477,-1.0179,3.4902
3666,-0.6739,0.6907,0.7419,-3.4103,0.6921,-2.8609
3679,-0.6786,0.6851,0.7394,-2.5859,0.5089,-1.609
3692,-0.6803,0.6797,0.7438,-1.5172,0.0203,0.391
3704,-0.6817,0.6866,0.7448,0.8187,-0.3461,1.6124
3718,-0.6756,0.689,0.745,0.437,-0.8652,1.4139
3731,-0.68,0.6888,0.746,-0.8149,-0.5446,0.1925
3772,-0.673,0.6866,0.7436,-1.6851,0.4631,-1.8075
3785,-0.6786,0.6822,0.7426,-0.0057,0.1882,-0.067
3797,-0.6822,0.6895,0.7416,-0.2195,-0.285,1.6276
