time_ms,ax,ay,az,gx,gy,gz
13,-0.6803,0.7632,0.7311,3.8111,0.8905,0.8337
25,-0.6756,0.763,0.7338,2.3301,0.5241,0.1925
38,-0.6827,0.7676,0.736,1.5362,0.1424,-0.2808
79,-0.6852,0.7608,0.7353,0.4981,0.234,0.7727
93,-0.6837,0.7647,0.7399,1.3988,0.7989,1.7956
105,-0.6781,0.763,0.7358,2.1927,0.7989,2.0704
119,-0.6793,0.7669,0.7372,0.834,0.7226,1.5208
131,-0.6827,0.7691,0.7311,0.3454,0.1577,0.9253
144,-0.6859,0.7728,0.7301,-0.0057,-0.0866,-0.1892
185,-0.6793,0.7588,0.7394,-2.6622,-0.3919,-0.9831
198,-0.682,0.7605,0.7348,0.4065,-0.3156,0.6505
211,-0.6793,0.7627,0.7314,0.6355,0.2188,0.9559
223,-0.681,0.7642,0.7379,2.0401,0.4325,1.6124
236,-0.6822,0.7652,0.7311,4.9103,0.4783,1.765
250,-0.6805,0.7623,0.7387,2.895,0.1119,1.078
290,-0.7167,0.7603,0.7724,12.2385,0.1424,4.5742
303,-0.7713,0.8084,0.765,11.0172,-3.8576,2.9253
317,-0.8192,0.9471,0.787,-2.2347,-11.0637,-8.2655
330,-0.9315,1.0184,0.7887,-26.1279,-23.5217,0.6047
343,-0.847,1.0289,0.7299,-20.2806,-19.827,27.3986
356,-0.7381,0.9551,0.6098,-30.5706,-13.8423,38.0398
396,-0.3407,0.9427,0.5917,-27.2882,52.7531,100.437
410,-0.2699,0.9095,0.5336,-20.876,76.4173,105.322
423,-0.3487,0.7437,0.6344,-41.166,90.2951,90.3757
436,-0.7877,0.4024,1.0754,-68.7386,81.2111,46.2231
449,-1.2462,0.3445,1.0285,-69.6241,20.7531,-1.0899
462,-0.9488,0.4222,0.9125,-12.937,6.6921,-4.5708
502,-0.6949,0.4703,0.7524,-0.9828,-30.7736,-34.7693
516,-0.8006,0.0909,0.8327,-5.1966,-53.8728,-58.9983
529,-0.6424,0.334,0.9704,-25.2118,-79.2774,-111.12
542,-0.7091,0.4998,0.4962,-57.8683,-75.0637,-128.861
555,-0.8233,1.179,0.2851,-51.5477,-55.8576,-120.815
568,-0.7284,1.2398,0.7421,-41.4256,-40.1629,-81.3037
609,-0.2281,0.3763,0.7577,-36.2195,-35.3995,-55.3495
621,-0.744,0.5223,0.7441,23.8569,-28.3308,-19.151
636,-0.941,1.1167,0.9845,-25.9599,-23.2927,-30.9983
648,-0.7794,0.9158,0.5678,-8.6012,-12.3766,-15.3037
661,-0.7113,0.3062,0.8437,-40.3874,-13.7354,-17.0594
673,-0.742,0.9327,0.8229,-12.6012,-2.9721,7.475
715,-0.7342,0.7212,0.7445,26.6049,13.1195,18.3299
728,-0.693,0.1482,0.6032,141.322,42.8447,38.5589
741,-0.8893,0.7254,0.8717,209.429,55.486,53.475
754,-0.68,0.242,0.0485,152.758,65.486,27.9024
767,-0.8365,0.6392,0.6742,188.91,74.7073,57.1696
780,-0.6759,0.4351,0.8227,116.086,56.4173,21.0627
820,-0.5912,1,0.538,24.4981,40.8753,4.8643
834,-0.7311,0.8782,0.4359,14.5439,29.4249,0.8032
846,-0.629,0.8147,0.6818,37.4294,21.5165,7.0933
860,-0.4654,0.9156,0.9982,27.353,6.0661,-2.7998
873,-0.641,0.8465,0.882,20.9714,2.1424,-0.922
885,-0.6678,0.7674,0.8446,71.3072,7.2417,7.1238
927,-0.7135,1.1587,0.7668,-59.7767,-27.2163,-14.8304
940,-0.8468,1.0975,0.8576,-73.9141,-37.7965,10.0856
953,-0.7323,1.097,0.7436,-69.792,-41.7812,31.5513
966,-0.5736,1.0567,0.6115,-77.4103,-35.0179,38.4521
979,-0.4564,0.9871,0.5165,-88.1889,-19.0179,39.2918
992,-0.3358,0.8829,0.5116,-79.8225,1.8066,37.8414
1032,-1.1361,0.5318,0.7983,-76.7844,8.2035,-0.6624
1045,-1.0414,-0.0766,0.8481,-24.2042,5.0279,0.0246
1059,-0.8072,0.3692,0.6305,35.6889,7.8524,13.7803
1072,-0.6102,0.1465,0.5968,44.1469,3.6997,-3.838
1085,-0.7884,-0.1259,0.8349,52.7882,-2.6667,-43.4869
1098,-0.6539,0.1607,1.0324,60.0248,-7.2316,-67.0289
1139,-0.6073,1.2293,0.724,79.124,-2.7431,-15.1357
1152,-0.6114,1.8448,0.8446,58.7118,5.1043,19.7956
1165,-0.6854,1.4039,0.9169,-18.4638,7.5165,15.8566
1177,-0.6205,0.854,0.6991,2.0706,6.86,6.7574
1190,-0.7264,0.8445,0.7257,5.5057,4.234,-11.2884
1204,-0.6878,0.7991,0.695,-1.2424,1.1806,-15.9144
1244,-0.6835,0.7749,0.7172,-3.8073,-3.9644,2.6963
1257,-0.6842,0.7781,0.7279,3.8874,-1.7965,9.933
1271,-0.6817,0.7903,0.7257,8.834,1.5623,14.1162
1284,-0.683,0.8138,0.7221,11.582,3.1348,13.307
1297,-0.6813,0.8333,0.7172,5.5362,2.7837,7.4292
1309,-0.693,0.8255,0.714,-2.6164,1.9134,0.8032
1351,-0.6837,0.8006,0.7216,-10.937,-2.1629,-6.3724
1363,-0.6849,0.7947,0.7226,-6.7844,-1.14,-4.0365
1376,-0.6871,0.8023,0.714,-5.5019,-1.2927,-2.3113
1390,-0.6842,0.8033,0.7162,-3.3493,-1.6744,-1.7006
1403,-0.6864,0.793,0.7172,0.7882,-0.6362,0.1314
1416,-0.6835,0.7884,0.7206,3.2156,0.2493,1.2765
1456,-0.6842,0.8096,0.7155,6.0248,2.0661,2.162
1470,-0.6874,0.8069,0.7128,1.2004,1.0585,0.6658
1483,-0.6915,0.8094,0.7116,-0.2958,-0.1171,-0.067
1496,-0.6849,0.814,0.715,-8.1737,-1.7965,-1.7617
1508,-0.6888,0.7962,0.7211,-9.2882,-1.5369,-2.0976
1522,-0.69,0.8118,0.7245,-9.4867,-1.5369,-2.7235
1562,-0.6854,0.7908,0.7213,2.5133,0.6768,1.3376
1575,-0.6756,0.8089,0.7194,-0.6775,0.3256,0.3452
1589,-0.6896,0.7947,0.7216,-1.9294,-0.0408,-0.1586
1602,-0.693,0.7981,0.7189,-0.8607,0.0508,0.6353
1614,-0.6771,0.8062,0.7189,-5.1966,-0.5904,-1.609
1627,-0.69,0.8089,0.7172,-7.4561,-1.2774,-3.0594
1667,-0.6803,0.7937,0.7255,2.7271,0.0966,1.0475
1681,-0.6803,0.7984,0.7191,3.0019,0.1577,1.0169
1693,-0.69,0.7923,0.7218,1.2156,0.3256,0.4979
1707,-0.6876,0.7996,0.7206,1.582,0.3104,0.8795
1719,-0.6857,0.7967,0.7257,0.0248,-0.1018,0.4063
1732,-0.6888,0.7911,0.7275,-1.9752,0.1424,-0.0518
1773,-0.681,0.803,0.7143,2.1469,-0.056,0.1925
1787,-0.6861,0.7925,0.7228,2.1622,0.0661,-0.4487
1800,-0.6874,0.806,0.7206,-0.3874,0.2035,-1.0747
1813,-0.6876,0.794,0.7189,-0.5706,0.4173,-0.1281
1824,-0.6864,0.7903,0.7167,0.6049,0.2951,0.9406
1837,-0.6805,0.8003,0.7177,0.1317,0.005,1.307
1878,-0.6881,0.795,0.7167,-0.0821,0.0966,-0.8456
1890,-0.6883,0.7886,0.7179,1.6736,-0.1171,-0.3724
1903,-0.6896,0.8003,0.7162,3.1851,-0.2698,0.1773
1917,-0.6791,0.8025,0.7177,3.3225,0.0814,0.5742
1929,-0.6849,0.8018,0.716,2.208,0.0661,0.3605
1942,-0.6815,0.8067,0.7174,1.3683,-0.2087,-0.4334
1983,-0.6905,0.794,0.7248,-0.9676,0.1272,-1.2884
1996,-0.6778,0.795,0.7267,-0.8149,0.2188,0.2536
2009,-0.692,0.8057,0.7245,-1.7767,0.0508,0.5437
2023,-0.69,0.7981,0.7165,-1.9905,-0.3919,0.1467
2036,-0.6795,0.7942,0.717,-0.7844,-0.2545,-0.5861
2049,-0.6778,0.7969,0.7196,-2.8302,-0.2087,-2.235
2089,-0.6844,0.7937,0.7187,-1.8378,-0.7583,-1.0441
2103,-0.6822,0.7933,0.7233,-0.5554,-0.2698,0.7574
2115,-0.6852,0.7935,0.7226,0.1317,0.3867,1.2765
2128,-0.6825,0.8006,0.7243,-1.0286,0.4936,0.849
2142,-0.6842,0.8028,0.7233,-1.4409,0.3867,0.5895
2155,-0.6869,0.7876,0.7284,-1.6851,0.5241,0.5437
2195,-0.6893,0.7996,0.7228,0.5744,0.2951,0.4826
2208,-0.6857,0.7969,0.7213,1.75,0.0661,0.2383
2222,-0.6813,0.803,0.7184,1.5668,-0.1476,-0.2502
2235,-0.6808,0.795,0.714,-3.8531,-0.3766,-2.3113
2248,-0.691,0.7847,0.7267,-1.166,-0.1324,-1.0899
2261,-0.6803,0.7957,0.7265,-0.1889,-0.056,0.1009
2301,-0.6852,0.8069,0.7211,12.6202,1.0127,4.8337
2314,-0.6844,0.8111,0.7172,4.7576,-0.2392,2.391
2327,-0.6883,0.7952,0.7238,0.3607,0.0356,1.4444
2341,-0.6859,0.8016,0.7245,-0.5401,0.1882,2.2689
2354,-0.6864,0.8069,0.7177,-2.3569,0.2646,1.3528
2367,-0.6844,0.8072,0.7174,-5.3798,0.0814,-0.9525
2408,-0.6878,0.7945,0.7191,-12.7691,-1.0942,-4.9373
2420,-0.6842,0.7898,0.7172,-5.7462,-0.0255,-1.609
2433,-0.6795,0.7874,0.725,-0.25,0.3562,0.6353
2446,-0.6815,0.7852,0.7226,0.2691,0.8295,1.1544
2460,-0.6866,0.795,0.7191,0.2538,0.402,1.3528
2473,-0.6854,0.7947,0.7148,3.2004,0.7379,1.246
2513,-0.6837,0.7869,0.7213,7.6584,0.3409,1.9635
2526,-0.681,0.8003,0.7223,8.7729,0.1882,2.4063
2539,-0.6839,0.806,0.7211,4.834,0.4936,1.536
2553,-0.6844,0.7996,0.7218,2.3607,0.5394,0.4826
2566,-0.6881,0.805,0.7206,0.666,0.5699,0.0398
2579,-0.69,0.802,0.7275,-2.8607,-0.0866,-1.3495
2620,-0.6835,0.8016,0.7228,0.7882,-0.0408,-0.067
2633,-0.6852,0.7986,0.7243,-0.9218,-0.1018,-0.6166
2645,-0.6842,0.7928,0.7189,1.1851,-0.3003,-0.1281
2658,-0.6866,0.8023,0.7174,0.666,0.1577,-0.0212
2669,-0.6903,0.7974,0.7211,-0.1737,0.1272,-0.6014
2681,-0.6883,0.793,0.7184,1.0324,0.3256,1.0169
2723,-0.6832,0.7959,0.7191,-2.25,-0.1629,-0.296
2736,-0.6849,0.7915,0.7182,1.7347,0.0508,-0.067
2748,-0.6832,0.7967,0.7206,1.4294,0.2798,-0.235
2761,-0.6893,0.7962,0.7211,-0.9523,0.2646,-0.2808
2774,-0.683,0.792,0.7265,-1.6393,-0.453,0.1162
2787,-0.6861,0.7984,0.7253,-2.0973,-0.453,0.4215
2827,-0.6871,0.7957,0.7255,-0.8302,-0.1629,0.6505
2840,-0.6859,0.7854,0.7184,6.5133,1.1806,2.3299
2854,-0.6871,0.793,0.7213,6.4828,0.7989,2.5284
2867,-0.6825,0.8003,0.7218,3.8111,0.6921,1.4444
2880,-0.6808,0.806,0.7223,-1.5325,-0.0408,0.2078
2892,-0.6852,0.7972,0.7177,-4.6012,-0.7125,-1.0441
2934,-0.6888,0.792,0.7221,0.0095,0.0661,0.3605
2947,-0.6864,0.7989,0.7223,3.521,0.5547,1.7192
2959,-0.6883,0.8003,0.7233,4.7882,0.7837,1.8414
2972,-0.682,0.8013,0.717,2.2996,0.7684,0.8948
2985,-0.6805,0.8025,0.7179,-2.6317,-0.0408,-0.6624
2999,-0.6859,0.7979,0.7172,-4.876,-0.3461,-1.5479
3040,-0.6871,0.8016,0.7235,-0.3111,-0.3461,-0.2502
3053,-0.6876,0.8025,0.7194,0.7882,-0.1782,-0.4029
3065,-0.6857,0.8045,0.7206,-0.7844,-0.0713,-1.1052
3079,-0.6847,0.7986,0.7213,-1.2118,0.0814,-0.6472
3092,-0.6769,0.8011,0.716,-2.6012,0.3409,-0.3418
3104,-0.6871,0.792,0.7255,-1.0134,0.0508,-0.067
3145,-0.6835,0.8001,0.7233,1.521,-0.2545,0.0704
3159,-0.6839,0.8045,0.7174,-2.5401,-0.453,-1.8227
3172,-0.6839,0.7913,0.7226,-2.3569,-0.4682,-1.5021
3185,-0.6827,0.7952,0.7167,-0.0363,-0.0102,-0.3724
3197,-0.6827,0.8023,0.7238,-1.2118,0.1882,-0.1128
3210,-0.6876,0.7955,0.7226,-0.8302,0.234,0.1925
3250,-0.6859,0.7933,0.7196,-0.1889,0.1119,-0.5708
3264,-0.6859,0.8016,0.724,1.0019,0.5547,-0.296
3277,-0.6864,0.7962,0.7204,1.1546,-0.0255,-0.067
3289,-0.6788,0.7989,0.7165,-2.8454,-0.7125,-1.3037
3303,-0.6891,0.7898,0.7204,-1.3493,0.1119,-0.3418
3316,-0.6903,0.7901,0.7267,1.6278,1.0585,2.4215
3357,-0.6883,0.804,0.7199,-1.5325,0.6157,0.7879
3369,-0.6878,0.8013,0.7226,-2.3111,0.0966,-0.2197
3383,-0.6864,0.803,0.7179,-2.708,-0.8194,-1.3037
3396,-0.6835,0.7977,0.7189,-3.9294,-1.2316,-2.0823
3409,-0.6888,0.7903,0.7294,-1.8225,-0.4377,-1.3037
3422,-0.6893,0.7942,0.7216,0.5591,-0.285,0.2994
3462,-0.6888,0.7952,0.7199,0.666,0.1272,0.5589
3475,-0.6849,0.7969,0.7191,0.2233,-0.1018,0.2078
3488,-0.6842,0.7984,0.7191,-1.9752,-0.1782,-0.8915
3501,-0.691,0.7913,0.7174,-1.6851,-0.1629,-0.9831
3514,-0.6844,0.7977,0.7165,-0.4943,-0.2392,-0.0823
3527,-0.6835,0.793,0.7233,-0.7844,0.0814,-0.4334
3567,-0.6881,0.7962,0.7235,1.6431,0.3256,0.8032
3581,-0.6876,0.7977,0.7182,1.0172,0.9516,0.9253
3594,-0.6869,0.793,0.7221,0.5133,0.5241,1.1696
3607,-0.6864,0.7933,0.724,1.8721,0.8905,2.0704
3619,-0.6835,0.7942,0.7167,2.6965,1.1348,2.9711
3632,-0.69,0.7991,0.7133,2.666,0.1577,3.0017
3673,-0.6903,0.8013,0.7275,1.6431,-0.0713,-0.0823
3686,-0.6844,0.7977,0.7243,2.2233,0.4478,0.2383
3700,-0.6852,0.8028,0.7187,2.1469,0.6005,-0.0976
