time_ms,ax,ay,az,gx,gy,gz
7,-0.7909,0.5052,0.4722,0.4877,0.4039,-0.3913
21,-0.787,0.5148,0.4674,0.3655,-0.9549,0.6927
33,-0.7887,0.5182,0.4693,-0.4284,-1.4892,-0.605
46,-0.7877,0.514,0.4735,-2.3673,-1.1228,-2.8188
86,-0.7897,0.5067,0.4762,0.8235,-0.6343,0.8148
100,-0.7843,0.5099,0.4752,2.4419,-0.0846,1.6545
112,-0.7882,0.5123,0.4757,2.7014,0.236,1.4102
126,-0.785,0.5143,0.4713,1.648,0.2207,0.5095
139,-0.7806,0.5148,0.4759,-0.5352,-0.0388,-1.6279
152,-0.7892,0.5096,0.4776,-0.4131,0.0375,-2.0096
193,-0.7882,0.5074,0.471,0.4724,0.5871,0.0362
206,-0.7879,0.5072,0.4742,1.48,0.0222,1.0286
219,-0.7867,0.5099,0.4683,2.106,0.0528,1.1965
232,-0.7848,0.5109,0.4681,1.419,-0.0236,-0.6661
245,-0.7855,0.5082,0.471,-0.5963,1.3963,-1.918
258,-0.787,0.5099,0.4718,0.0602,0.923,-1.7806
298,-0.7872,0.5091,0.4688,0.8846,-1.7793,0.4026
312,-0.7838,0.5072,0.4744,1.7243,-2.0694,-0.4524
325,-0.785,0.5094,0.4759,0.8235,-0.9701,-1.6585
338,-0.787,0.5043,0.4774,-0.0314,0.3123,-2.0402
351,-0.7838,0.5099,0.4762,-0.2299,0.8619,-1.7348
364,-0.7853,0.5011,0.4784,-0.4894,1.2589,-0.6814
404,-0.7899,0.5109,0.4764,0.3961,0.6176,0.7232
417,-0.7882,0.5057,0.4754,0.0144,0.6024,-0.6508
429,-0.787,0.5087,0.4722,0.8541,0.694,-0.5287
442,-0.7855,0.5074,0.4713,0.5793,0.526,-0.1928
454,-0.7911,0.5035,0.4735,1.4037,-0.1152,0.5095
467,-0.7892,0.5055,0.4735,3.2205,-0.6037,2.5553
508,-0.796,0.5633,0.4864,22.0449,-10.3595,16.6927
521,-0.7977,0.556,0.4754,13.5564,-14.7564,19.1507
534,-0.921,0.6681,0.3619,-9.5734,-13.9167,16.9369
547,-0.9972,1.0519,0.4622,0.9151,38.8925,76.1583
560,-1.3324,0.7626,0.9444,-24.3826,-20.8785,85.456
573,-1.0143,0.7811,0.6038,-32.6726,-78.5274,106.708
615,-0.5235,0.7826,0.3988,-81.6803,-11.4282,49.7461
628,-0.5062,0.6969,0.5006,-87.0696,3.7016,47.9904
640,-0.4776,0.6256,0.443,-83.7108,22.6635,43.9293
654,-0.5414,0.5179,0.4288,-72.9627,47.6863,41.395
667,-0.6551,0.4669,0.4476,-63.1612,61.8085,35.9751
679,-0.7345,0.5074,0.4198,-61.5887,68.8925,27.166
720,-0.8858,0.3578,0.4161,-36.0162,75.9306,-17.4295
733,-1.0016,0.3824,0.568,-16.3062,58.6787,-15.2921
747,-0.9693,0.389,0.5199,3.3884,36.9077,-14.4676
759,-0.8465,0.5936,0.3411,14.1976,-6.4358,2.2652
772,-0.7872,0.4647,0.418,30.4113,0.3581,6.1889
785,-0.8067,0.6974,0.47,29.022,-5.8556,4.2957
826,-0.7994,0.6266,0.4461,7.6632,4.3581,-2.2234
839,-0.7953,0.6361,0.4498,8.4724,7.1978,-4.6356
852,-0.6827,-0.1212,1.1019,-31.1001,-9.7182,-38.7272
866,-0.6981,0.7882,-0.0361,30.7777,-7.932,-34.1776
878,-0.5084,1.1842,0.1944,-18.7184,-44.8175,-31.6432
891,-0.8055,0.1109,0.6319,41.8159,-37.3213,-41.9485
932,-0.586,1.2223,0.4632,52.7167,-40.8785,-28.3608
945,0.098,0.4862,1.2569,9.2968,-50.848,-38.8798
958,-1.0565,0.7255,0.9483,32.9762,-73.7793,-29.7959
971,0.0504,1.5069,0.8033,1.7396,-85.8709,-60.2386
985,-0.6349,1.3629,0.4017,80.8235,-76.6953,-54.0249
997,-0.5594,0.2799,0.5242,8.0602,-68.2526,-73.8417
1038,-0.4757,0.589,0.0457,31.9533,-52.7411,-48.0249
1051,-0.9012,0.8197,0.9354,17.2052,-37.7946,-46.4829
1065,-0.9808,0.5079,0.2977,25.6785,-34.7869,-22.834
1077,-1.2447,0.1451,0.6554,-16.2299,-28.2984,-42.7424
1090,-0.3734,0.0685,0.6712,-26.6116,-22.9396,-42.544
1103,-0.9073,0.7533,0.5706,16.9915,-25.1381,-48.8035
1144,-1.2484,0.2731,-0.0451,-1.5123,-6.3289,-18.8035
1157,-1.1334,0.6832,-0.0705,-1.5123,-1.8251,5.9751
1170,-0.5816,0.3944,0.8206,-7.2528,-14.161,-12.6966
1183,-0.8397,0.2696,0.3824,-20.2452,-7.2907,-37.0631
1196,-0.8502,0.5858,0.5865,11.5564,-3.3671,-11.7653
1209,-0.8187,0.5714,0.4862,-8.7642,1.0146,-4.605
1250,-0.7337,0.4501,0.5965,-44.81,3.381,-15.6432
1263,-0.8212,0.4715,0.4576,-81.9856,13.0909,-24.147
1276,-0.878,0.275,0.1431,-30.2452,32.7551,-19.9485
1290,-0.5216,0.474,1.6915,-14.7948,39.0451,-17.7806
1303,-0.7066,0.4625,0.7327,19.5869,29.0909,15.5476
1315,-0.9278,0.6864,-0.1069,60.335,46.8161,6.3721
1356,-0.6122,0.5712,0.3638,78.4877,68.8161,21.7308
1369,-0.8104,0.0353,-0.0334,5.5258,65.0146,12.6927
1382,-0.8717,0.3329,1.5079,74.2892,59.8543,17.5629
1395,-1.0235,0.3854,0.5824,86.5182,81.6253,9.3492
1408,-0.7601,0.3387,-0.7629,53.4495,71.3047,49.2118
1421,-0.8221,0.6922,1.054,88.3045,81.3963,24.6469
1462,-0.767,0.246,0.8358,-6.5963,9.2436,35.9446
1475,-0.8316,0.4718,-1.6716,18.5793,56.3886,24.998
1488,-0.9127,0.4964,0.1146,1.2816,42.7398,16.3873
1501,-0.888,0.5694,0.4932,45.0526,31.2131,-0.1776
1514,-0.7442,0.4213,1.034,59.19,24.7856,4.1736
1527,-0.7699,0.9137,0.0423,63.2358,47.1978,8.2957
1568,-0.7989,0.6974,0.3543,4.7625,17.9154,0.2194
1580,-0.7814,0.6134,0.4727,7.648,12.0222,2.3568
1594,-0.7906,0.4896,0.544,6.5182,4.1596,-0.0096
1606,-0.7936,0.4835,0.4505,2.335,9.152,4.5705
1620,-0.7923,0.5426,0.5343,4.106,10.8161,4.1583
1633,-0.807,0.5362,0.3888,3.7854,-1.1991,4.0973
1674,-0.8094,0.5316,0.3836,-0.6116,-0.8175,-0.1165
1687,-0.8131,0.5233,0.3885,-0.1994,1.3657,0.7079
1700,-0.8077,0.5231,0.3888,1.3884,3.0757,2.0515
1713,-0.8121,0.5204,0.3763,4.5182,3.5184,5.3034
1726,-0.8109,0.525,0.3646,5.9991,3.2131,8.2194
1738,-0.8138,0.5355,0.3717,5.9533,0.6329,9.685
1780,-0.8109,0.5441,0.3866,-2.5963,0.2818,3.3797
1793,-0.8097,0.5321,0.3834,-1.436,2.5413,3.5629
1806,-0.8089,0.5309,0.3807,3.48,4.0986,5.4255
1819,-0.8116,0.5304,0.3743,8.1976,5.381,8.0667
1831,-0.816,0.5467,0.3595,10.1976,3.5642,8.5705
1845,-0.815,0.5716,0.3682,6.5945,0.8009,7.5934
1887,-0.8143,0.5636,0.4029,-12.123,-12.4969,2.54
1899,-0.8121,0.5397,0.661,-30.7184,-18.5732,-9.2157
1912,-0.8238,0.6869,0.2425,-27.207,-72.0083,-10.1776
1925,-1.0575,0.8453,0.6561,-45.8635,-70.7717,8.1125
1938,-1.0895,0.7233,0.6759,-41.9398,-109.047,28.0667
1951,-0.8309,0.6136,0.4984,-41.5276,-125.581,40.3721
1992,-0.4188,0.7164,0.172,-72.5352,-40.848,13.227
2005,-0.5267,0.7267,0.4078,-76.7948,-3.7182,24.2652
2018,-0.7035,0.7772,0.2586,-74.8559,13.7932,43.0285
2031,-0.8744,0.5565,0.5465,-77.2375,30.465,41.8835
2044,-1.0057,0.4252,0.6654,-77.7566,14.9841,13.624
2057,-1.0773,0.3409,0.5035,-74.7337,-4.619,-13.0478
2098,-0.7084,0.1271,0.2547,16.6861,-14.9396,-62.3913
2112,-0.8045,0.4454,0.46,-29.3597,-3.0312,-33.7501
2125,-0.7823,0.4584,0.4974,-15.4207,-9.1839,-9.7195
2137,-0.7723,0.475,0.5059,-7.9551,-9.4129,5.0286
2150,-0.7655,0.454,0.5067,-2.1994,-6.4969,11.8377
2163,-0.776,0.5121,0.5592,12.4419,-4.222,16.54
2204,-0.7701,0.5087,0.5325,46.9762,-2.0083,33.3034
2217,-0.7899,0.2535,0.5172,44.3808,3.839,16.769
2230,-0.8483,-0.3314,0.1619,18.0449,4.3123,-30.7577
2243,-0.5265,0.3375,0.658,23.6938,26.1291,-39.9791
2257,-1.0465,-1.0204,-0.0817,47.8312,30.9535,-93.4295
2269,0.2684,-1.4179,-1.037,23.4495,33.7322,-104.208
2310,-0.7599,0.5931,-0.3761,-50.4742,12.3276,16.3721
2323,-0.9608,0.7377,0.5589,66.6861,-8.6648,20.2805
2336,-0.7928,0.7452,0.5008,44.6403,-3.1075,36.9217
2348,-0.7521,0.6056,0.5411,5.7243,3.9459,7.3339
2362,-0.7948,0.8302,0.5377,1.5716,4.9688,-10.4371
2375,-0.7696,0.5607,0.5155,-11.1307,8.0528,-21.8111
2416,-0.7762,0.5065,0.5084,0.5335,5.4421,-3.7043
2429,-0.7794,0.5126,0.5084,2.4266,2.3581,2.1431
2441,-0.7748,0.5199,0.5045,1.6022,0.3581,3.7003
2455,-0.7711,0.5277,0.5018,-2.6421,-0.4358,0.9827
2468,-0.7765,0.5214,0.5142,-0.7032,-0.4511,0.2805
2481,-0.7738,0.5235,0.5076,-0.7337,1.0146,-1.6737
2521,-0.7804,0.5196,0.5101,6.4724,0.2207,1.3644
2535,-0.7782,0.5306,0.5069,2.7777,0.4802,0.1583
2548,-0.7731,0.5318,0.5052,-2.352,1.8696,-2.5898
2561,-0.7779,0.5201,0.5084,-3.2681,1.2436,-3.1852
2573,-0.7775,0.5216,0.513,-4.6879,0.7245,-3.0478
2587,-0.776,0.5192,0.5011,-3.894,0.1596,-2.4371
2628,-0.7784,0.5189,0.5025,-3.9398,1.1673,-4.2081
2640,-0.7775,0.5182,0.5055,-5.0543,0.6329,-4.1318
2654,-0.7767,0.5172,0.502,-5.7108,0.526,-5.0173
2667,-0.7831,0.4989,0.5028,-3.5276,0.3428,-3.6737
2680,-0.7787,0.5106,0.5079,-4.2299,0.5108,-2.4371
2693,-0.7775,0.5062,0.5033,-6.4742,0.7093,-4.0707
2734,-0.777,0.5155,0.504,-5.4055,2.1138,-5.6432
2747,-0.7782,0.5033,0.5069,-4.2146,2.236,-4.8035
2760,-0.775,0.5004,0.5035,-0.7184,2.3734,-2.0402
2772,-0.777,0.505,0.5015,0.9762,3.1062,0.7385
2786,-0.7809,0.504,0.5023,1.938,2.3123,2.6621
2798,-0.7794,0.5091,0.4967,1.938,0.923,3.1965
2840,-0.7828,0.5091,0.5011,-5.3291,0.6329,-2.1776
2853,-0.7775,0.5065,0.4957,-6.1536,-0.3595,-2.0249
2866,-0.7818,0.4933,0.5011,-2.8406,-0.8022,-0.5134
2879,-0.7775,0.5016,0.5045,-2.0009,-0.9091,1.0896
2892,-0.7777,0.5006,0.5011,-1.1612,-0.4205,1.0286
2905,-0.7733,0.513,0.5052,-1.1307,0.2054,-0.7272
2946,-0.7755,0.5018,0.5015,-2.978,0.5413,-2.7577
2959,-0.7806,0.4982,0.5081,-3.5734,0.526,-1.5516
2972,-0.7794,0.5018,0.4925,-3.0696,-0.3136,-0.4676
2985,-0.7801,0.4982,0.505,-1.5887,-0.7411,0.6316
2998,-0.7799,0.5035,0.5023,-1.3749,-0.0846,0.6621
3011,-0.7779,0.5069,0.5037,-0.3826,0.694,0.0362
3052,-0.7811,0.506,0.5008,-4.581,1.4268,-2.9409
3065,-0.7787,0.4984,0.4923,-3.0085,0.4192,-2.4829
3078,-0.7799,0.5016,0.5028,-3.0543,-0.7411,-2.9562
3091,-0.7755,0.4967,0.4991,-2.6421,-0.9701,-2.5898
3104,-0.7755,0.4969,0.5047,-3.207,-0.1457,-2.544
3116,-0.7784,0.495,0.5062,-1.8329,0.2207,-1.0173
3158,-0.7779,0.5004,0.4998,0.9762,0.7398,3.5934
3171,-0.7787,0.505,0.4979,-2.1383,0.5871,1.7308
3184,-0.7755,0.5023,0.5069,-3.2223,0.8619,-0.8798
3197,-0.7748,0.4989,0.494,-3.8024,1.5031,-2.5287
3210,-0.7779,0.4964,0.4998,-3.7413,1.6711,-2.7272
3223,-0.7787,0.4906,0.4967,-1.4971,2.2054,-0.605
3264,-0.7775,0.5016,0.4981,3.1442,-1.1839,2.8759
3277,-0.7762,0.5089,0.4947,-0.4589,-1.4282,-0.9409
3290,-0.7784,0.503,0.5015,-3.1154,-1.0312,-4.5592
3303,-0.7806,0.4933,0.4962,-4.2146,-0.4969,-4.8798
3317,-0.7779,0.4869,0.5035,-3.0696,-0.6037,-2.5745
3329,-0.7779,0.484,0.5033,-0.1078,0.007,2.0973
3370,-0.7799,0.5016,0.5033,0.2892,0.2665,2.3415
3383,-0.777,0.506,0.4971,-2.062,0.7551,-0.6814
3396,-0.7804,0.4991,0.4935,-2.749,0.1138,-2.6203
3409,-0.7775,0.4957,0.4952,-2.1383,-0.4663,-2.7882
3422,-0.7794,0.4847,0.5006,-1.8177,-0.3442,-0.9562
3435,-0.7784,0.4886,0.4976,0.1671,-0.9854,1.5018
3476,-0.7762,0.4974,0.5001,-0.749,-0.1915,-0.0249
3489,-0.7775,0.4925,0.4947,-0.9627,0.0375,-0.6966
3502,-0.7762,0.4935,0.4962,-0.2604,-0.4969,-0.1928
3513,-0.7809,0.4994,0.5006,0.0907,-1.2602,0.0667
3527,-0.7765,0.4938,0.5042,1.2816,-2.3289,-0.1623
3540,-0.7792,0.4952,0.5069,-1.1612,-0.619,-1.3226
3580,-0.7784,0.4957,0.5006,0.1823,1.6405,-0.3913
3594,-0.7814,0.495,0.4996,0.6709,1.2436,0.3568
3607,-0.7748,0.4952,0.4991,0.5335,0.4955,0.6316
3620,-0.775,0.4994,0.4971,-2.0467,0.8009,-1.1089
3633,-0.777,0.4982,0.4991,-2.9475,0.7703,-1.7043
3646,-0.7782,0.494,0.5037,-3.1001,0.6176,-2.0707
3687,-0.7799,0.4955,0.4996,2.5335,-0.0388,2.6316
3700,-0.7743,0.506,0.4979,1.6022,0.1444,1.4408
3713,-0.7782,0.5035,0.4959,-0.4742,-0.4053,-1.46
3726,-0.7743,0.4977,0.4971,-1.2681,-0.9243,-3.1241
3739,-0.7777,0.4938,0.4937,-0.9169,-0.5732,-3.1241
3752,-0.7782,0.4855,0.4974,0.3197,-0.0388,-1.2157
3792,-0.7787,0.4969,0.4954,4.0144,0.3276,3.166
3806,-0.7784,0.4977,0.4967,3.4953,0.2207,1.456
3819,-0.7767,0.5011,0.4923,0.4266,0.9688,-1.3989
3832,-0.7811,0.4989,0.4976,0.1365,1.0604,-2.834
3845,-0.7775,0.4933,0.4967,-0.3978,1.3199,-2.7577
3857,-0.7792,0.4918,0.4952,0.1518,0.7093,-0.5745
3899,-0.7806,0.5016,0.4947,-0.0162,0.0986,-1.2005
3912,-0.7772,0.4974,0.4971,-0.52,0.5108,-2.834
3925,-0.7777,0.4894,0.5001,0.2281,0.1444,-1.7501
3938,-0.7804,0.4896,0.4986,0.793,0.2512,0.6011
3950,-0.7762,0.4881,0.4969,2.1976,0.2818,2.7537
3963,-0.7779,0.4979,0.4986,2.3655,0.2054,3.0591
4004,-0.7762,0.4962,0.4962,-0.0467,0.3276,-2.315
4017,-0.7753,0.4952,0.5076,0.2739,0.7093,-2.0707
4030,-0.7799,0.4899,0.4962,0.7014,1.2283,-0.544
4043,-0.7806,0.4947,0.4952,2.4419,0.9993,1.7614
4056,-0.7816,0.4947,0.5033,2.2129,1.3047,1.7461
4069,-0.7789,0.4994,0.4981,1.6632,0.4344,0.9369
4111,-0.7818,0.4933,0.4981,-0.3673,-0.9243,-0.9714
4123,-0.7816,0.4906,0.4957,1.5564,-1.0617,1.166
4136,-0.7799,0.4925,0.4981,2.5793,-0.8938,2.2499
4149,-0.7784,0.5011,0.4969,2.8846,-1.2602,1.8988
4162,-0.7777,0.5026,0.5003,1.6632,-1.9472,0.1125
4176,-0.7782,0.4986,0.4993,-1.3444,-1.1991,-2.8798
4216,-0.7796,0.4835,0.4986,-1.2528,-1.0923,-0.9562
4229,-0.7757,0.4877,0.5057,0.3655,-0.3136,1.8072
4242,-0.7762,0.4928,0.4954,1.4495,0.4039,3.5476
4255,-0.7779,0.5013,0.503,1.3579,0.5413,3.1965
4268,-0.7796,0.5035,0.4996,0.2281,0.6634,1.3492
4281,-0.7804,0.4979,0.5006,-1.7719,1.0604,-1.002
4322,-0.7775,0.4911,0.4974,-1.7413,1.0299,-0.5745
4335,-0.7777,0.4925,0.4967,-1.1307,0.3123,0.2652
4348,-0.7792,0.4894,0.4979,-2.2452,0.1291,-0.5745
4361,-0.7799,0.4982,0.4974,-1.3597,-0.0388,-0.7272
4374,-0.7782,0.4935,0.4979,-1.8482,0.1444,-1.9791
4388,-0.7777,0.4894,0.4959,-1.5123,-0.3747,-1.918
4428,-0.7811,0.4891,0.504,2.8541,-1.764,3.8224
4441,-0.7765,0.4962,0.5011,4.3197,-1.474,3.6392
4454,-0.7775,0.4964,0.5008,4.7777,-0.7869,2.0515
4467,-0.7757,0.5026,0.5018,1.4953,0.7245,-0.773
4480,-0.7806,0.4964,0.5013,-0.3368,1.7474,-2.376
4493,-0.777,0.4889,0.4925,-0.2146,1.9001,-1.7348
4534,-0.7806,0.4999,0.4954,0.0449,-0.3136,0.1736
4547,-0.7784,0.5026,0.502,-1.3902,-0.1762,-1.3684
4560,-0.7806,0.4962,0.4962,-1.8024,0.1444,-2.8951
4573,-0.7796,0.4918,0.5023,-2.81,0.4955,-3.5669
4586,-0.776,0.4874,0.4913,-2.1841,0.6634,-2.4066
4599,-0.7775,0.4877,0.4976,-0.7337,0.236,-1.4142
4640,-0.7806,0.4977,0.5003,0.0449,-0.4816,-0.5134
4653,-0.7779,0.4881,0.4962,0.0907,-0.7259,-0.9409
4667,-0.7782,0.4955,0.5035,-0.7948,-0.2831,-1.2005
4679,-0.7796,0.4913,0.5011,-0.5352,0.3886,-1.3073
4692,-0.7792,0.4901,0.4989,-0.5963,0.694,-1.6585
4705,-0.7821,0.4794,0.4923,0.3503,0.4955,-1.0173
4746,-0.7809,0.4894,0.493,1.877,0.4497,0.8759
4759,-0.7755,0.4903,0.4996,2.0907,0.1291,0.7537
4772,-0.7775,0.4921,0.4957,1.5411,-0.7869,0.1583
4785,-0.7765,0.4955,0.5001,-0.4284,-1.1533,-0.1165
4798,-0.7784,0.4859,0.4942,-0.8253,-0.1457,0.9064
4810,-0.7762,0.4847,0.4967,0.7625,-0.0541,2.7995
4851,-0.7789,0.4977,0.5006,-0.5963,0.236,-0.0554
4864,-0.7765,0.4896,0.4967,-1.4665,-0.0999,-0.834
4878,-0.775,0.4916,0.4981,-1.4055,-0.4053,-0.9104
4890,-0.776,0.4899,0.493,-0.3215,-0.8938,-0.1776
4902,-0.7757,0.4901,0.495,-1.4055,-0.6648,-0.1928
4915,-0.7789,0.4916,0.5023,-0.5352,-0.5427,0.0209
4956,-0.7789,0.4923,0.4986,1.0984,0.7856,0.6011
4969,-0.7745,0.4899,0.4964,0.8083,0.8161,0.1431
4981,-0.7755,0.4989,0.5013,-0.1994,1.0299,-0.8035
4994,-0.777,0.496,0.4971,-0.7642,0.1749,-2.1318
5008,-0.7762,0.4945,0.493,-2.062,-0.2373,-2.605
5020,-0.7784,0.4852,0.4925,-2.4894,-0.222,-3.3531
5061,-0.7767,0.4906,0.5033,0.6251,0.4497,0.7079
5074,-0.7787,0.485,0.4989,2.5182,0.7245,2.0362
5087,-0.7787,0.4928,0.4996,3.1747,0.7398,2.6621
5100,-0.7828,0.4928,0.4962,1.7396,1.152,1.1507
5113,-0.7779,0.4974,0.5006,0.7167,1.0299,-0.5592
5126,-0.7765,0.494,0.4967,-1.0849,0.6787,-1.5669
5167,-0.7784,0.4899,0.4964,1.6327,-0.9701,1.9293
