time_ms,ax,ay,az,gx,gy,gz
13,-0.6479,0.3706,0.6638,-0.7316,-0.2538,-0.9784
25,-0.6442,0.3726,0.6724,-0.869,-0.1775,-0.673
37,-0.6464,0.3726,0.668,-0.1209,-0.5286,0.1819
50,-0.6447,0.3689,0.6685,-0.2278,-0.9714,0.5483
91,-0.6471,0.3743,0.6768,0.0775,-0.1469,-0.444
104,-0.6432,0.3723,0.6694,-0.0446,0.3569,-0.8104
115,-0.6437,0.3691,0.6692,0.1233,0.8302,-0.8868
128,-0.6466,0.3716,0.6697,0.2913,1.1508,-0.444
141,-0.6454,0.3716,0.6726,0.3371,0.937,-0.2456
154,-0.6454,0.3665,0.6704,0.8562,0.5248,1.0216
195,-0.6444,0.3757,0.6697,-1.0522,-0.2233,-1.5738
208,-0.6452,0.3701,0.6704,-1.2965,-0.0859,-2.1234
221,-0.6462,0.3704,0.6711,-1.3423,-0.1011,-1.7112
233,-0.6449,0.364,0.6645,-1.037,0.3722,-0.5967
246,-0.6471,0.366,0.665,-0.0446,-0.2691,0.6247
259,-0.6435,0.3704,0.6721,0.276,-0.208,1.0064
300,-0.6454,0.3679,0.6741,-0.3042,0.6317,-1.1921
313,-0.6447,0.3755,0.6667,0.0317,0.3569,-1.6349
327,-0.643,0.3689,0.6675,-0.6248,-0.6355,-1.7265
340,-0.644,0.365,0.6694,-0.7011,-1.0019,-1.0395
353,-0.6418,0.3652,0.6702,0.1844,-0.208,-0.2914
366,-0.6481,0.365,0.6755,0.0775,0.2195,0.1667
407,-0.6459,0.3733,0.665,-0.8538,0.8912,-0.0776
420,-0.6474,0.365,0.668,0.6882,0.4943,-0.4288
432,-0.6435,0.3701,0.6667,0.6424,0.0515,-0.0318
443,-0.6462,0.3699,0.6729,0.4439,0.2195,0.3651
455,-0.642,0.3686,0.6746,1.0546,0.4943,0.4567
469,-0.6488,0.3657,0.6738,1.1768,0.5401,1.5407
509,-0.6503,0.3721,0.6721,1.9554,2.4485,6.3957
523,-0.6591,0.377,0.676,0.276,1.3493,7.0064
536,-0.662,0.4011,0.6829,-4.6553,-0.666,5.6781
549,-0.6969,0.4604,0.6633,-13.5103,-6.5897,3.4491
562,-0.8608,0.5498,0.8335,-2.182,-15.5515,31.5407
575,-0.9357,0.4478,0.8552,5.818,-46.7576,27.2048
615,-0.5226,0.4275,0.5232,9.6042,-27.2767,42.2277
629,-0.5688,0.3708,0.5527,14.8409,-15.1393,41.098
642,-0.623,0.4587,0.6584,5.5584,-10.5439,37.2659
655,-0.6452,0.4482,0.7419,6.5355,-7.8263,39.2201
668,-0.6437,0.4692,0.7144,7.6348,-6.3149,40.243
680,-0.609,0.5007,0.7024,9.5432,-3.7042,44.6247
722,-0.4687,0.4695,0.6396,-10.0904,22.1889,35.4186
735,-0.4945,0.4277,0.6223,-20.5026,34.8912,26.5941
748,-0.5502,0.405,0.6831,-27.6477,43.0439,17.7697
761,-0.6042,0.3686,0.6897,-27.6019,47.6546,11.9682
774,-0.6545,0.2798,0.7886,-26.8385,43.8073,4.7315
787,-0.6542,0.3332,0.675,-26.3958,38.9065,-3.1616
828,-0.6425,0.2734,0.7422,7.9859,1.4714,-3.1616
841,-0.8114,0.3999,0.5542,7.0394,-6.5744,-14.1082
855,-0.9526,0.6348,0.9441,33.7416,-18.6355,-11.0547
867,-0.9191,0.4622,0.8582,67.3752,-20.4217,-7.6654
880,-0.4679,0.1772,0.9397,0.7798,-25.3988,-45.6807
893,-0.2497,0.5154,0.9661,-15.2355,-41.0019,-36.8868
934,-1.0717,0.7082,0.9841,-1.8614,-21.1698,-30.5967
948,-0.7299,0.3249,0.668,-6.7316,-12.208,-40.2303
960,-0.4347,0.5488,1.125,-23.8003,-12.8187,-18.2761
973,-0.7707,0.3384,1.1074,14.1233,-8.4217,-27.299
986,-1.048,0.3777,0.5195,-30.0446,-7.3225,-26.2761
999,-0.967,0.3176,0.687,-11.9225,-1.3378,-17.3448
1040,-0.2033,0.2441,0.6213,-37.1896,5.1508,-33.8181
1053,-0.6178,0.3132,0.7207,-4.7011,2.7844,-27.5127
1066,0.2672,0.1265,1.2314,-30.8385,-0.6813,-32.6272
1079,-0.3808,0.3271,0.5376,-18.3805,5.563,-22.1998
1092,-0.7721,0.436,0.7349,-3.037,0.9523,-3.6654
1105,-0.3461,0.2856,0.9941,-29.3118,-3.124,-12.3372
1146,-0.7836,0.4917,0.8049,21.4821,5.1508,-8.8104
1159,-0.6896,0.5693,0.6794,-9.4492,-1.8721,-2.4898
1172,-0.6789,0.4492,0.7046,-0.6248,3.9905,3.7392
1184,-0.7023,0.3887,0.6101,-3.4339,5.6546,5.0522
1198,-0.6256,0.3325,0.6829,4.0165,3.9447,3.098
1211,-0.6308,0.3328,0.6792,0.0317,0.937,-0.154
1252,-0.6376,0.3608,0.6814,-16.3042,-3.6736,-2.7952
1265,-0.6376,0.3452,0.6765,-8.7927,-5.1851,-5.9555
1278,-0.6488,0.3394,0.6521,-22.8385,-5.2156,-12.2456
1291,-0.6794,0.3435,0.6128,-20.3958,-1.353,-12.0318
1304,-0.6161,0.2842,0.7283,-14.5179,5.7615,-9.8181
1317,-0.7987,0.3013,0.3459,-2.8538,10.0973,-2.9936
1358,-0.5815,0.2683,0.5757,22.6577,25.6393,11.8002
1371,-0.7209,0.5842,0.7119,-3.3423,11.1508,13.1896
1385,-0.7367,0.5173,0.5139,27.4821,25.4561,14.4567
1397,-0.716,0.3767,0.4524,6.963,18.4332,8.1209
1410,-0.6293,0.4541,0.7822,31.3447,18.4943,-3.4517
1423,-0.694,0.5195,1.135,54.7951,26.2958,11.7086
1464,-0.9526,0.1526,-0.9294,16.0928,21.9447,-1.1769
1477,-0.5995,0.2905,1.1372,8.5355,29.1813,-4.8868
1490,-0.5038,-0.0652,0.8193,1.6653,15.9447,-16.7494
1503,-0.5404,0.4758,1.3713,24.3065,24.1737,6.3193
1516,-0.4477,0.376,1.3384,7.1157,19.1355,7.785
1529,-0.5797,0.5879,1.281,33.1462,14.5859,12.7621
1570,-0.6825,0.1042,0.1147,-11.8919,22.1737,-13.5891
1583,-0.5551,0.3247,1.2517,8.4897,-6.208,-2.1234
1596,-0.6996,0.4221,0.7131,3.9707,3.6699,2.2888
1609,-0.706,0.4038,0.3716,-9.8919,7.5019,2.6094
1621,-0.6276,0.3718,0.6914,0.0012,-0.8798,2.8537
1635,-0.6689,0.3799,0.6309,1.36,1.0286,-0.6578
1675,-0.6603,0.3696,0.6516,9.3142,6.0515,10.1361
1689,-0.6447,0.3657,0.6909,16.1539,5.3493,14.2583
1702,-0.6391,0.4067,0.7029,13.2378,-4.4675,17.4644
1715,-0.7348,0.4263,0.5525,17.3294,-11.4294,13.1438
1728,-0.6884,0.4241,0.5693,-4.1362,-18.4217,2.6247
1741,-0.7416,0.4382,0.7546,3.6348,-20.8798,3.3117
1782,-0.6386,0.4705,0.7349,9.6653,-54.6507,12.5025
1795,-0.5783,0.4214,0.6309,4.0928,-52.6355,9.617
1808,-0.5402,0.4287,0.5544,-4.4721,-42.5133,7.388
1821,-0.5609,0.4395,0.5881,0.734,-32.2385,8.3651
1834,-0.5732,0.4863,0.5713,2.276,-22.2843,11.617
1847,-0.5898,0.4719,0.6638,-5.7698,-14.0401,12.3804
1887,-0.6933,0.4075,0.7432,-3.495,-12.1469,6.4873
1901,-0.6254,0.4326,0.7039,0.9172,-11.063,11.2354
1914,-0.5807,0.3992,0.6633,1.4974,-8.4523,11.4644
1927,-0.5605,0.438,0.6008,-4.8538,-1.0019,9.846
1940,-0.5651,0.4216,0.613,-6.5942,9.3493,7.617
1953,-0.5622,0.4258,0.6033,-8.5179,17.3951,5.8613
1994,-1.7887,0.1511,1.6252,-74.1057,-29.5057,-37.9097
2007,-0.8017,0.4124,0.6294,-4.4416,6.4332,-12.444
2020,-0.6222,0.3203,0.656,-10.6248,7.334,-9.4975
2033,-0.6281,0.1389,0.5239,-27.5408,7.8531,-20.1234
2046,-0.5824,0.0391,0.6113,-19.8309,6.5706,-25.8333
2059,-0.5839,0.0698,0.7192,-18.2889,10.3264,-37.5585
2100,-0.9855,0.7585,0.9824,28.4592,-0.1775,-0.1845
2113,-0.7868,0.5278,0.5911,21.5126,8.6775,-8.5509
2126,-0.924,1.0144,1.0527,47.1768,1.5783,8.8842
2139,-0.7453,0.6094,0.8103,33.0699,6.0363,-10.2303
2152,-0.642,0.4023,0.6382,-2.9454,2.9523,-15.8028
2165,-0.6357,0.3694,0.6846,-15.6477,1.3493,-18.4135
2206,-0.6408,0.3442,0.6753,-2.808,-1.6584,-2.3066
2219,-0.6391,0.3535,0.6714,0.1691,-1.4599,1.388
2232,-0.6376,0.3572,0.6726,1.2378,-1.3225,3.098
2245,-0.6408,0.364,0.6797,1.0241,-0.6965,2.9605
2257,-0.6401,0.3674,0.6746,0.3523,-0.2996,1.6628
2271,-0.6393,0.3596,0.6821,-0.0293,-0.2843,-0.0471
2312,-0.6454,0.363,0.676,-0.64,-0.0706,-2.2761
2325,-0.6379,0.3618,0.6748,-0.3194,-0.2385,-1.6959
2337,-0.6398,0.3599,0.6729,1.0241,-0.9866,-0.1387
2351,-0.6408,0.3599,0.6809,2.9783,-0.3912,2.1361
2363,-0.6391,0.3645,0.677,2.1081,-0.6355,1.846
2377,-0.641,0.3657,0.6865,0.3829,0.0668,0.0293
2418,-0.6388,0.3674,0.6738,-1.1591,-0.4981,-0.8562
2431,-0.6422,0.3523,0.677,0.6577,-0.3149,-0.1692
2442,-0.6418,0.3603,0.6777,0.5661,-0.4828,1.2506
2455,-0.6405,0.3635,0.6792,0.3218,-0.2843,0.5636
2468,-0.6381,0.3606,0.6765,-0.7164,-0.7423,-0.215
2480,-0.6369,0.3662,0.6853,-0.7011,-0.2691,-1.2379
2521,-0.6371,0.3608,0.6736,-1.5103,-0.3301,-1.1158
2534,-0.641,0.3599,0.6775,0.1691,0.021,-0.1387
2547,-0.6405,0.3557,0.6809,1.36,0.3569,0.7926
2559,-0.6391,0.3618,0.6843,2.4897,0.3569,1.7544
2572,-0.6388,0.3655,0.6782,0.734,0.8607,0.3041
2586,-0.6366,0.3628,0.6812,0.3829,0.5554,-0.7341
2627,-0.6388,0.3584,0.6831,-1.2355,-0.3912,-0.9784
2640,-0.6437,0.3606,0.6787,-1.0217,-0.6355,0.1972
2652,-0.6369,0.3645,0.676,0.0623,-0.4523,0.0903
2665,-0.6364,0.3569,0.6809,-0.1209,-0.2233,0.3346
2677,-0.6396,0.3584,0.6763,-0.1362,-0.6965,0.93
2689,-0.6398,0.3623,0.6807,0.3676,-0.1927,0.5941
2730,-0.6391,0.3564,0.6816,-0.9606,-0.0401,-0.2914
2742,-0.6381,0.3594,0.6816,-0.0293,-0.1317,0.5331
2755,-0.6413,0.356,0.6772,-0.0446,-0.4065,0.4873
2767,-0.6364,0.3608,0.6785,0.6119,-0.7423,1.4491
2780,-0.6386,0.3625,0.6829,1.5126,-0.3759,1.4033
2792,-0.6381,0.3716,0.6846,0.8409,0.0821,0.6399
2834,-0.6383,0.364,0.6787,-3.4339,-0.2996,-3.7417
2847,-0.6354,0.356,0.6743,-2.9912,-0.7271,-1.9249
2860,-0.6379,0.3555,0.6758,-0.4568,-1.2462,0.4873
2872,-0.6371,0.3542,0.6863,1.4821,-1.3225,2.5789
2885,-0.6364,0.3577,0.6772,2.3218,-0.7882,2.8537
2898,-0.6374,0.3647,0.6836,1.589,0.1279,0.8689
2940,-0.6381,0.3584,0.6785,-2.2431,0.876,-2.3524
2952,-0.6379,0.3528,0.6738,-1.0217,0.2195,-0.7494
2966,-0.6393,0.353,0.6763,0.2455,-0.4828,1.1132
2979,-0.6352,0.3572,0.675,2.047,-0.5591,2.2277
2992,-0.6352,0.3616,0.6758,2.6424,-0.3454,2.1056
3005,-0.6344,0.3665,0.6814,1.2378,0.3722,0.6399
3046,-0.6369,0.3572,0.6772,-0.9759,0.9218,-1.4517
3059,-0.6371,0.355,0.6772,0.3218,0.3569,0.4109
3072,-0.6369,0.3567,0.6782,1.0546,0.1584,1.7697
3085,-0.6401,0.3577,0.6782,1.6042,-0.0553,2.2888
3097,-0.6383,0.3608,0.6785,1.4821,0.6164,1.9376
3110,-0.6379,0.366,0.6741,0.2455,0.8149,1.098
3152,-0.6401,0.3591,0.6775,-0.8385,-0.4828,-2.1387
3165,-0.6357,0.3582,0.6816,-0.7622,-0.6049,-0.9631
3178,-0.6335,0.3582,0.6807,-0.2431,-0.9866,0.8842
3190,-0.6383,0.3589,0.6746,0.3676,-0.4981,1.9987
3203,-0.6393,0.3618,0.6807,-0.0904,0.4027,1.785
3216,-0.6388,0.365,0.6748,0.5355,1.2577,0.7621
3257,-0.6398,0.3528,0.676,-1.1133,-0.0095,-1.2685
3269,-0.6371,0.3535,0.6831,0.047,-0.4981,0.5941
3283,-0.6379,0.3594,0.6802,0.3523,-0.4828,1.8613
3296,-0.6352,0.3611,0.6838,0.276,-0.1317,1.846
3308,-0.6388,0.365,0.6853,-0.1209,0.3264,0.7773
3322,-0.6386,0.3645,0.6799,-0.4721,0.708,-0.4898
3363,-0.6369,0.3603,0.6792,0.1081,-0.1622,-0.5814
3375,-0.6413,0.3589,0.677,-0.9606,-0.5744,-0.8257
3388,-0.6354,0.3572,0.6802,-1.098,-0.4065,-0.383
3401,-0.6369,0.3586,0.6814,-0.3347,-0.2538,1.1132
3414,-0.6391,0.3599,0.6794,0.4134,0.0363,1.5712
3427,-0.6396,0.3621,0.6802,0.8409,0.3874,0.9453
3468,-0.6357,0.355,0.678,-1.3118,0.0057,-1.0853
3481,-0.6391,0.3569,0.6792,0.2302,-0.3607,0.2125
3492,-0.6379,0.3584,0.6775,1.6348,-0.3149,1.4491
3506,-0.6332,0.3613,0.6868,0.963,-0.3607,1.2201
3519,-0.6364,0.3667,0.6824,0.0775,-0.4523,0.0445
3532,-0.6354,0.3635,0.6816,-1.0064,-0.3149,-1.3906
3572,-0.6383,0.3557,0.6829,0.3065,0.0057,0.243
