time_ms,ax,ay,az,gx,gy,gz
11,-0.6493,0.4221,0.6895,-1.0217,0.4485,-0.0929
52,-0.6479,0.429,0.6875,0.4287,-0.0706,0.5483
65,-0.6464,0.4236,0.687,0.1997,0.2653,0.0293
77,-0.644,0.4255,0.6838,0.6424,0.1431,-0.154
89,-0.6479,0.4304,0.6873,0.3371,0.1584,-0.0165
101,-0.6466,0.4263,0.6882,0.276,0.2347,-0.3982
112,-0.652,0.4253,0.6875,0.8104,0.1737,-0.154
154,-0.6479,0.4243,0.6909,0.0928,0.1126,1.2812
167,-0.6469,0.4263,0.6846,0.0165,-0.3607,1.2354
181,-0.6462,0.4304,0.6858,0.6577,-0.5897,1.3422
193,-0.6481,0.4307,0.6882,0.4439,-0.6202,1.1743
206,-0.6479,0.4302,0.6897,-0.3805,-0.5591,-0.0318
219,-0.6471,0.4309,0.6916,-1.2813,-0.6965,-0.9784
260,-0.6486,0.4204,0.6929,-0.0141,-0.3454,0.7621
273,-0.6496,0.4294,0.6875,1.7722,0.4485,2.4262
286,-0.6496,0.4241,0.698,2.1539,0.8302,3.4796
300,-0.6464,0.4321,0.6877,2.2607,1.1202,3.4644
312,-0.6486,0.437,0.6892,1.6042,0.937,1.9682
325,-0.6481,0.4402,0.6868,0.6882,0.1279,0.8231
367,-0.6527,0.4294,0.6936,-0.869,-0.834,-0.4746
379,-0.6469,0.4255,0.6855,-0.1209,-0.0401,-0.0165
391,-0.6464,0.426,0.6885,0.6729,0.0363,0.8842
403,-0.6447,0.4272,0.6863,1.3752,-0.2843,1.0827
416,-0.6503,0.4338,0.6895,1.5279,-0.0248,0.701
429,-0.6444,0.4331,0.6892,0.5966,-0.3301,-0.215
470,-0.6457,0.4287,0.688,-1.4492,-0.5133,-1.1616
483,-0.6498,0.4238,0.687,-0.7164,0.0057,-0.0471
495,-0.6462,0.4282,0.6877,0.1539,-0.0706,0.3957
507,-0.6454,0.428,0.6924,1.3447,0.3874,0.5178
520,-0.6481,0.4263,0.6941,1.9096,0.1126,0.8689
533,-0.6518,0.4268,0.6953,2.2455,0.9218,1.2048
574,-0.6457,0.4314,0.6899,2.734,2.0668,1.9376
587,-0.6498,0.4377,0.6951,0.8562,2.2195,2.6705
600,-0.6545,0.4353,0.6926,-1.5713,1.8989,2.5025
613,-0.6586,0.4319,0.6938,-2.5332,1.0897,3.4033
627,-0.6642,0.4431,0.7051,-2.7774,-0.5897,6.243
639,-0.7223,0.4324,0.6846,-10.2278,-2.6355,-1.4669
681,-0.6969,0.4966,0.6816,9.7722,-32.834,23.9682
693,-0.6086,0.5,0.6438,5.6653,-30.7882,26.6399
706,-0.5663,0.5012,0.6252,3.8333,-24.4523,26.8384
720,-0.5932,0.5239,0.6335,-3.6477,-18.7729,24.7163
733,-0.6549,0.5952,0.7185,-6.8538,-15.1698,27.8766
745,-0.6691,0.6226,0.7126,-9.1744,-14.7576,32.8995
787,-0.5714,0.5112,0.6582,-15.9683,-4.1164,37.2812
799,-0.5463,0.512,0.686,-20.9606,3.1355,32.1514
813,-0.5568,0.5161,0.6929,-21.953,5.8989,30.3804
826,-0.5617,0.5041,0.6924,-24.3958,11.3798,27.6476
838,-0.6071,0.4749,0.7122,-27.6019,13.2577,27.327
852,-0.644,0.4648,0.7036,-29.3118,15.5019,27.0522
892,-0.6298,0.4338,0.7341,-13.3423,11.7309,22.2125
906,-0.6029,0.4299,0.7283,-12.5179,11.792,19.1743
918,-0.5793,0.425,0.6909,-11.2965,14.4027,15.4949
932,-0.5993,0.4194,0.7087,-11.724,18.2348,10.014
945,-0.6278,0.4465,0.7024,-13.0217,19.1966,4.2583
957,-0.623,0.4553,0.6824,-12.9148,19.7004,1.7086
998,-0.6339,0.4763,0.6663,-11.4797,25.5935,-4.3066
1012,-0.6557,0.4375,0.7258,-9.3271,22.4332,-5.5127
1024,-0.6657,0.4302,0.7085,-7.9225,21.2577,-9.528
1037,-1.1999,0.2627,1.2827,-5.3881,-0.4065,-18.612
1051,-0.8796,0.4448,0.5781,1.2378,-0.8645,-16.2608
1063,-0.6386,0.4145,0.6899,17.7264,2.5248,-5.0853
1104,-0.7189,0.127,0.6372,-2.2431,1.0897,-23.6959
1117,-0.5387,0.3706,0.8162,8.1233,-6.0401,-27.8791
1131,-0.4479,0.1379,0.606,17.3142,-8.4828,-30.8257
1144,-0.6142,0.5249,1.0374,6.7645,-18.3149,-26.0318
1156,-0.4906,0.6291,0.6245,26.3218,-10.1469,-26.7036
1169,-0.7939,0.782,0.615,37.5432,-9.4904,-18.7188
1211,-0.8976,0.5815,0.5874,6.3065,-2.895,-21.3448
1223,-0.464,0.4438,0.5793,-27.0064,-3.9637,-31.07
1236,-0.3627,0.2664,0.6167,-9.5103,-3.0019,-15.5891
1250,-0.0336,0.4609,0.2131,-55.6171,-5.0935,-33.8028
1263,-0.4218,0.4473,0.6165,4.6882,-9.6431,-28.5356
1276,-0.9032,0.7353,0.7063,16.2455,0.3111,-15.2379
1316,-0.7082,0.5129,0.7624,8.7035,-3.2614,-16.0929
1330,-0.768,0.7595,0.7883,23.4516,-8.8798,-11.1005
1343,-0.7087,0.5425,0.6362,24.2607,-5.75,-21.3448
1355,-0.4738,0.6106,0.8105,-5.9835,-1.2767,-15.4822
1368,-0.9201,0.6208,0.7639,18.4745,-11.4599,-4.8104
1382,-0.1452,0.1516,1.0015,-12.0751,-7.8416,-21.5433
1422,-0.6637,0.3904,0.6833,10.7951,3.7615,1.8308
1435,-0.3854,0.1624,0.8718,-18.8385,-7.9179,-22.0929
1448,-0.6684,0.4202,0.6768,1.5279,-4.7882,-11.6501
1462,-0.6281,0.4333,0.7034,-7.9377,-5.5668,-11.528
1475,-0.6737,0.4348,0.667,2.902,-1.3836,-2.9478
1487,-0.6484,0.4263,0.6921,-4.8385,-1.9637,-3.299
1529,-0.6379,0.4189,0.7004,1.0088,-3.1851,-1.5127
1541,-0.6383,0.4248,0.6968,-0.5026,-3.521,-2.3219
1554,-0.6462,0.4228,0.6963,-7.098,-4.6965,-4.6883
1567,-0.6525,0.4236,0.6938,-12.7011,-4.834,-6.8868
1581,-0.6542,0.4282,0.6804,-17.0064,-3.9485,-8.612
1594,-0.7001,0.4136,0.616,-20.5637,-0.3454,-10.154
1634,-0.6979,0.3186,0.3899,11.2684,28.479,4.8842
1647,-0.7018,0.2744,0.4685,2.1691,8.0515,7.8918
1660,-0.3688,0.3284,1.6626,20.2149,15.3951,8.9911
1674,-0.4452,0.2771,1.0981,3.3752,11.2271,-0.6883
1687,-0.7228,0.2671,0.4253,2.0623,20.6317,-0.7646
1699,-1.0607,0.5005,-0.5518,-3.6477,21.1355,18.1819
1741,-0.738,0.3418,0.8652,26.1691,-0.7271,10.7468
1754,-0.8913,0.6174,0.24,38.6729,12.3874,30.4567
1766,-0.5116,-0.2644,1.2798,-3.6782,9.8989,-2.154
1779,-0.7499,0.2317,-0.189,35.192,24.2806,9.0674
1792,-0.3393,0.5293,1.908,15.65,10.5859,1.159
1805,-0.5365,0.5334,0.9722,25.9859,0.6622,12.1819
1846,-0.6632,0.2351,0.0735,5.5126,21.6699,-13.2379
1859,-0.7316,0.5906,0.312,10.9783,18.0057,5.1896
1872,-0.7018,0.3186,0.4451,4.2455,0.6622,5.1896
1886,-0.7109,0.4595,0.6875,-7.4187,-11.7194,2.2125
1898,-0.5075,0.5503,1.0164,11.0088,9.5325,12.0293
1911,-0.7145,0.3599,0.5164,3.7569,0.4027,-2.4135
1953,-0.6737,0.4089,0.6289,8.4439,4.5859,-0.7952
1965,-0.6293,0.4265,0.7236,4.0623,3.2424,0.4415
1978,-0.6689,0.4424,0.6677,-1.1286,6.6775,1.6628
1991,-0.6581,0.4343,0.6895,2.7951,10.5248,8.5178
2005,-0.654,0.4534,0.7058,-1.1896,9.5935,11.7239
2017,-0.6493,0.428,0.6516,-9.5561,-2.6507,6.6705
2058,-0.7995,0.53,0.7424,14.902,-43.292,7.1896
2072,-0.7218,0.5413,0.7095,22.1539,-46.7424,15.4491
2085,-0.644,0.6084,0.6948,12.1081,-46.5286,21.5865
2097,-0.5683,0.6299,0.6499,7.2378,-42.6355,29.1743
2110,-0.506,0.5886,0.6123,1.1157,-31.5973,29.7392
2123,-0.4709,0.5549,0.6294,-11.8156,-19.4141,18.8842
2164,-0.6693,0.5115,0.7129,-44.1362,-1.2309,0.6705
2178,-0.7023,0.4617,0.7056,-41.7087,-3.1698,2.8384
2191,-0.696,0.4102,0.6792,-38.2431,-2.4675,4.0903
2203,-0.7038,0.4167,0.6975,-31.0522,-2.1317,6.6857
2216,-0.6708,0.4155,0.6589,-25.5103,-2.6202,11.1438
2229,-0.6181,0.3989,0.6335,-22.3347,0.1737,10.5636
2270,-0.5675,0.3843,0.53,-31.9072,24.9981,-11.9707
2284,-0.6007,0.397,0.6248,-33.8156,30.0363,-17.1158
2297,-0.7157,0.3149,0.6099,-11.7851,-26.2538,-34.2608
2310,-0.6733,0.332,0.6519,16.3523,7.1202,-1.4211
2322,-0.6357,0.2932,0.6357,12.8256,5.7157,-3.2074
2335,-0.5426,0.1794,0.6423,15.3294,7.2577,-10.4593
2377,-0.7001,0.6731,1.3572,45.9554,9.2271,-21.1311
2389,-0.4252,0.2288,0.1145,7.1004,3.2577,-25.6501
2402,-0.3214,0.2454,0.4827,19.9554,12.479,-34.3524
2415,-0.4308,0.0535,0.9473,16.4745,9.0592,-32.0776
2428,-1.088,0.7329,0.9263,21.0241,1.105,-32.5967
2441,-1.1027,0.9133,0.9702,36.3065,0.5401,-13.7265
2482,-0.6625,0.47,0.8999,1.7111,-0.6049,-0.6272
2495,-0.5778,0.5132,0.7869,4.5355,2.0515,-9.8486
2509,-0.6684,0.5349,0.6838,-0.7622,2.0821,-6.3982
2521,-0.6554,0.4468,0.6777,-11.6629,-0.2538,-19.6807
2534,-0.6559,0.4128,0.6707,-12.0141,-1.8569,-19.9555
2547,-0.6542,0.3748,0.6658,-7.1591,-4.0401,-11.528
2589,-0.6513,0.4224,0.6887,7.0699,-3.75,9.4033
2602,-0.6447,0.4373,0.6887,3.6195,-2.4675,5.8918
2615,-0.6474,0.4316,0.6855,1.2531,-0.9561,1.7086
2627,-0.6484,0.4331,0.6899,-0.8996,0.3569,-1.7723
2641,-0.6498,0.4185,0.6836,0.5813,0.8607,-2.9478
2653,-0.6488,0.4246,0.6853,1.5126,0.2958,-2.5967
2694,-0.6527,0.4211,0.6843,2.3676,-0.7576,2.0445
2708,-0.6501,0.4197,0.6843,2.1081,-1.1393,2.9147
2720,-0.6479,0.4233,0.688,2.6882,-0.6355,3.8002
2733,-0.6481,0.4219,0.6848,2.9172,-0.6049,4.3804
2746,-0.6466,0.4316,0.6812,1.8791,-0.0706,3.0216
2759,-0.6505,0.4311,0.6929,0.734,-0.2843,1.0216
2800,-0.6471,0.425,0.6782,-1.6629,-0.8034,-2.673
2814,-0.6469,0.4233,0.6877,-0.7622,-0.4981,-1.0547
2826,-0.6508,0.4153,0.6948,1.4058,0.6012,1.4949
2839,-0.6484,0.4248,0.6892,2.6424,1.9905,3.2506
2852,-0.6476,0.425,0.6855,4.3523,2.6622,4.5789
2865,-0.6515,0.4275,0.6826,5.8333,2.4332,5.7239
2906,-0.6437,0.446,0.6877,1.1462,-1.2462,0.0445
2919,-0.651,0.4365,0.6877,0.0775,-1.8874,-1.6349
2933,-0.6459,0.4346,0.6863,-1.1896,-1.4446,-2.0776
2946,-0.6525,0.4265,0.686,-2.1515,-1.2462,-2.3524
2958,-0.6496,0.429,0.6865,-1.037,-0.834,-1.1616
2972,-0.6484,0.4268,0.6851,-0.1209,-0.3301,-0.3372
3012,-0.6496,0.4333,0.6914,1.7569,0.2195,1.6323
3025,-0.6474,0.4343,0.686,1.7264,-0.2538,1.6323
3038,-0.6501,0.4336,0.6882,0.8867,-0.4981,1.0216
3051,-0.6505,0.4363,0.6868,0.3065,-0.6202,0.1819
3064,-0.6488,0.4365,0.6841,-1.3271,-0.8034,-0.5967
3077,-0.6515,0.4333,0.6921,-1.098,-0.6355,-1.3601
3117,-0.6484,0.4314,0.6875,0.1386,-0.3454,0.1972
3130,-0.6484,0.4348,0.689,0.9783,-0.2691,1.4033
3143,-0.6498,0.436,0.6848,1.1462,0.3874,1.4033
3156,-0.651,0.4341,0.689,1.7569,0.7844,1.0064
3169,-0.6518,0.4358,0.6924,1.6042,0.6622,0.2583
3182,-0.6532,0.4375,0.6863,1.589,0.3722,-0.4135
3223,-0.6479,0.4343,0.6868,1.3905,-0.2385,1.098
3236,-0.6466,0.4316,0.6916,2.2149,0.2042,2.0445
3250,-0.6476,0.4385,0.6843,2.3676,0.3264,1.9987
3262,-0.6513,0.4424,0.6914,1.6653,-0.4828,1.2354
3275,-0.6513,0.4404,0.6902,1.2836,-0.2385,-0.0013
3289,-0.6471,0.4409,0.6892,0.1386,-0.2843,-1.0395
3329,-0.6479,0.429,0.6853,1.131,0.6775,0.3957
3342,-0.6479,0.4365,0.6904,0.8562,0.479,0.9758
3354,-0.6481,0.4365,0.6865,0.6729,0.9218,0.8079
3366,-0.6488,0.4365,0.6826,-0.0446,0.647,0.3193
3378,-0.6525,0.4377,0.6873,-0.411,0.4943,-0.2456
3390,-0.6503,0.4382,0.686,0.1997,0.0057,0.0293
3431,-0.6481,0.4346,0.6873,0.2302,-0.1469,0.3651
3444,-0.6525,0.4375,0.6899,0.4287,0.3264,-0.1845
3456,-0.6513,0.4385,0.6897,0.2607,0.2958,0.1361
3468,-0.6525,0.4375,0.6863,-0.9759,0.2958,-0.7646
3481,-0.6518,0.4377,0.6907,-1.4797,0.2958,-1.3143
3494,-0.6481,0.4353,0.687,-1.0064,-0.3759,-1.5891
3535,-0.652,0.4319,0.6912,0.4287,0.0973,0.5941
3547,-0.6476,0.4377,0.6873,0.3981,0.4332,0.7163
3561,-0.6471,0.4338,0.689,0.2302,0.5248,0.3193
3572,-0.6505,0.4424,0.6887,-0.5179,0.2958,-0.1082
