time_ms,ax,ay,az,gx,gy,gz
12,-0.7811,0.4852,0.4791,2.3503,-0.2984,3.0438
25,-0.784,0.4889,0.4776,0.4266,0.3581,0.7537
38,-0.7811,0.4879,0.4808,-0.7337,1.2436,-0.8951
51,-0.7838,0.4803,0.4818,-0.9169,1.0299,-2.3455
91,-0.7843,0.4889,0.4791,-1.1612,-0.8022,-1.1852
104,-0.7811,0.4798,0.4779,-1.436,-1.1381,-2.0096
117,-0.7823,0.4786,0.482,-0.1383,-0.3595,-1.4447
131,-0.7792,0.4801,0.4793,-1.5429,-0.2831,-2.544
144,-0.7809,0.4759,0.4718,-0.9475,0.0222,-1.4905
157,-0.7814,0.4798,0.4754,-2.3062,-0.5121,-0.544
197,-0.7836,0.4774,0.4793,-1.0085,0.6634,-0.7424
210,-0.7799,0.4789,0.4759,1.1594,1.0909,0.1736
224,-0.7789,0.4772,0.4722,2.1518,0.7093,-0.086
237,-0.7806,0.4811,0.4688,0.4724,0.7551,-0.1623
249,-0.7799,0.4786,0.4722,0.3045,0.7093,-0.2844
261,-0.7828,0.4776,0.4744,-0.5352,0.7245,-0.4218
302,-0.7809,0.4801,0.4759,-0.0925,-0.4053,-2.1012
315,-0.7848,0.4774,0.4764,0.1976,-0.3442,-2.1318
328,-0.785,0.4757,0.4757,-0.9475,-0.9243,-2.0096
341,-0.7831,0.472,0.4845,-1.2223,-1.1991,-1.4753
354,-0.7792,0.4706,0.4771,-0.7948,-0.7869,0.2041
367,-0.7814,0.4672,0.4796,2.0602,-0.1915,2.2194
407,-0.784,0.4908,0.4764,4.4266,0.2054,0.9369
421,-0.7809,0.4855,0.4754,0.4877,-0.6953,-1.4905
434,-0.7848,0.4796,0.4776,-2.9016,-1.932,-2.086
447,-0.7928,0.474,0.4771,-2.352,-3.0312,-1.8875
460,-0.7889,0.4657,0.4776,0.1213,-2.7106,2.2499
473,-0.7931,0.464,0.4737,3.6938,-3.1991,6.3415
514,-0.7882,0.4989,0.4691,-23.6192,-5.1991,-0.1318
527,-0.7025,0.5546,0.4908,-34.291,-6.1304,-9.7501
540,-0.8631,0.6771,0.3883,-17.3902,0.6176,0.8606
553,-0.9288,0.6398,0.5223,-4.581,0.2512,26.082
566,-0.9205,0.5262,0.5645,-13.2375,-23.1381,37.6698
579,-0.8324,0.4603,0.4676,-13.0543,-28.7869,43.7919
620,-0.7159,0.546,0.4737,-14.291,-15.1839,28.3263
634,-0.6952,0.5946,0.452,-16.123,-8.1762,26.1889
646,-0.7333,0.6197,0.4771,-24.6726,0.923,23.1354
659,-0.7462,0.6278,0.5096,-30.581,2.7703,21.1202
672,-0.7298,0.651,0.4671,-29.2986,7.1215,25.5171
685,-0.7394,0.6,0.4903,-29.8177,13.6558,28.9064
726,-0.7084,0.3964,0.4625,-23.4665,21.3352,24.3568
740,-0.7211,0.4586,0.4461,-18.7948,38.4802,15.2728
752,-0.7696,0.4879,0.4625,-28.062,36.6635,10.8606
765,-0.8136,0.5243,0.47,-26.3368,39.1062,12.2652
778,-0.8163,0.4696,0.4993,-21.6497,37.1062,11.6392
791,-0.775,0.4752,0.4588,-17.436,33.6405,4.6927
832,-0.8719,0.4796,0.4163,-1.8482,-11.4892,-22.086
845,-0.7919,0.461,0.4156,4.3961,5.2894,0.6469
858,-0.807,0.538,0.4408,13.3884,-1.0159,6.9827
871,-0.7994,0.5301,0.4276,8.3503,-2.1457,10.2041
883,-0.7904,0.5209,0.4295,13.5106,-0.3289,7.6698
896,-0.8009,0.5397,0.4613,14.3503,0.3581,5.3492
939,-0.8544,0.3129,0.3792,29.2358,-6.1762,-33.9791
951,-0.7865,0.409,0.5987,11.0831,-28.4969,-28.2997
964,-1.0414,0.2418,0.0667,12.0144,-22.6648,-46.0402
977,-1.1505,0.6273,0.3336,10.5029,-53.5503,-33.3837
990,-1.2071,0.7616,0.2489,5.2205,-53.0465,-42.0707
1004,-1.076,0.4076,0.3206,23.3426,-48.1457,-6.4982
1044,0.412,0.256,1.9276,-11.0238,-35.8556,-27.1394
1058,-1.0331,0.6019,0.6937,10.9762,-53.5198,-31.0325
1071,-0.3465,0.1402,0.8958,-25.7871,-70.6801,-34.544
1084,-0.9816,0.8006,0.2354,21.0373,-61.8251,-21.0631
1096,-0.5045,0.3993,0.5172,4.1365,-40.6648,-3.2921
1109,-1.0377,0.3675,0.1856,29.9686,-35.0007,-18.3608
1150,-1.1952,0.694,0.7569,30.2129,-17.3671,-19.9333
1163,-0.1893,0.4056,1.0089,-16.978,-16.5427,-5.6127
1176,-0.5199,0.3224,0.5616,2.564,-14.7717,-26.834
1189,-0.6749,0.6542,0.6475,21.0373,-7.3213,-18.2234
1202,-0.8006,0.649,0.557,14.9915,-6.7564,-3.6279
1214,-0.6837,0.3917,0.6312,0.2587,-2.4205,-9.7806
1256,-0.7494,0.4381,0.5902,-11.1154,-2.7106,-4.5134
1269,-0.746,0.4469,0.5828,-16.2146,-0.4816,-4.8798
1281,-0.7552,0.4523,0.5592,-19.4513,2.4497,-6.0554
1295,-0.7955,0.401,0.4766,-22.3978,8.007,-10.3455
1308,-0.8265,0.3859,0.3643,-7.8482,22.9688,-10.3608
1321,-0.6537,0.0648,0.3319,1.419,31.4421,-1.5821
1362,-0.7782,0.6539,0.6898,3.5411,31.8848,-1.4753
1375,-0.7059,0.2201,-0.2983,51.5411,49.8543,-14.2386
1388,-0.8778,0.4647,-0.2582,38.0755,44.7093,6.4026
1401,-0.817,0.4952,0.9491,-11.2528,58.7551,-7.3226
1414,-0.776,0.4462,0.0199,17.3732,55.8543,-9.4295
1427,-0.899,0.2652,1.3243,-10.5505,80.5566,-8.7424
1468,-0.7054,0.5377,0.7179,3.1136,33.3352,0.0667
1481,-0.755,0.6046,1.1114,-4.3826,39.2436,-0.5134
1494,-0.7367,0.7457,1.367,26.5182,67.61,11.0286
1507,-0.6822,0.5636,0.7811,7.7548,44.007,-5.9944
1520,-0.6949,0.6798,0.8429,21.022,76.7856,-5.5211
1533,-0.9088,0.6061,-0.0026,-7.6497,46.2207,9.1812
1574,-0.6898,0.5214,1.2415,-28.6421,47.3657,-3.3226
1587,-0.7518,0.3749,1.1219,5.7243,52.9841,4.2805
1600,-0.8512,0.6627,0.5526,-6.9322,34.7856,3.4102
1613,-0.8077,0.4379,1.7547,-2.8558,25.1062,1.9293
1625,-0.6544,0.4652,0.1451,22.0907,45.0146,8.6163
1639,-0.7965,0.4259,0.4198,10.4113,-3.6572,2.0515
1680,-0.8031,0.4669,0.3595,-4.8864,5.3352,3.7614
1692,-0.8102,0.4513,0.3529,-1.5276,4.297,7.6545
1706,-0.8111,0.4728,0.3443,-2.0314,0.7398,8.082
1719,-0.8126,0.4784,0.3531,-4.9322,-1.9625,4.4484
1732,-0.8238,0.4684,0.3538,-4.4589,-2.6495,2.6774
1745,-0.8158,0.482,0.356,0.3655,-4.7869,5.227
1786,-0.9212,0.7582,0.6554,-23.7566,-20.8327,6.5858
1799,-0.6078,0.8109,0.4605,-38.8711,-59.077,62.5553
1813,-0.9061,0.5318,0.5189,-61.9704,-72.0999,33.6087
1825,-0.9325,0.5563,0.4456,-61.5734,-85.306,25.8988
1838,-0.871,0.5084,0.4127,-62.8711,-85.6572,26.8606
1851,-0.7836,0.4838,0.3914,-63.8177,-84.2526,27.5324
1892,-0.7289,0.4698,0.3604,-52.9474,-41.2144,15.3492
1905,-0.6988,0.4713,0.3975,-46.0009,-25.5808,16.8759
1918,-0.7167,0.4706,0.4498,-44.6421,-17.9014,11.8682
1931,-0.743,0.4474,0.4654,-41.665,-12.2526,6.6469
1944,-0.756,0.4388,0.4544,-38.81,-7.9472,3.3339
1957,-0.7472,0.4237,0.4666,-32.9474,-1.4892,3.5782
1998,-0.7098,0.4335,0.4603,-13.3291,16.465,-5.9027
2011,-0.7494,0.4711,0.4661,-13.7566,21.6711,-9.8111
2024,-0.8045,0.5148,0.5062,-19.3444,21.6711,-7.918
2037,-1.1476,0.3666,0.9212,-37.3749,6.007,-21.9791
2049,-0.8544,0.4589,0.4119,-9.8329,0.8619,-3.1699
2062,-0.7386,0.4374,0.44,-6.0314,-2.7106,5.4408
2104,-0.7582,0.4357,0.47,12.6861,-4.5579,14.9064
2117,-0.7833,0.3229,0.4119,29.0373,3.839,7.3034
2130,-0.8021,0.4603,0.5033,16.9457,2.1138,3.7308
2143,-0.6456,0.3797,0.1729,16.564,13.3657,-4.4829
2156,-0.7462,0.2994,0.3819,17.2205,-6.2678,16.6316
2169,-0.9708,0.2484,0.8731,30.6098,25.1062,-28.9562
2210,-0.4784,-0.3541,-0.047,45.7396,11.4115,-17.4142
2223,-0.5856,-0.0626,0.3736,53.1594,10.6787,-16.315
2236,-0.7696,0.4051,0.3407,47.9533,1.152,-12.2997
2249,-0.4645,0.4249,0.4437,55.4037,12.6024,-4.4218
2262,-0.9298,0.8797,0.4862,81.3274,16.2207,18.0515
2275,-0.954,0.7316,0.3409,60.1518,1.8238,-22.773
2316,-1.0873,1.277,0.2994,78.6251,7.7932,-26.773
2329,-0.8292,1.284,0.3448,52.9609,-14.5732,-30.1776
2341,-0.7958,0.7113,0.4085,29.3579,6.9535,17.7766
2355,-0.7362,0.1329,0.4874,11.2052,0.5871,-2.7577
2368,-0.8202,0.609,0.5152,26.5945,0.5413,0.5247
2381,-0.8404,0.7252,0.4276,23.6632,-1.474,6.7232
2421,-0.8089,0.5367,0.4713,3.1289,0.1902,-0.834
2435,-0.7784,0.5055,0.4578,-1.2528,1.6405,-4.8798
2448,-0.7936,0.4859,0.4647,-1.2223,1.5337,-4.9714
2461,-0.7826,0.4896,0.4632,-1.8635,2.2054,-3.9944
2474,-0.7919,0.4906,0.4649,-3.2375,1.3505,-2.6356
2487,-0.7875,0.4852,0.4649,0.2587,1.1215,-1.0936
2528,-0.7877,0.4852,0.4632,-0.52,1.0909,-2.6356
2541,-0.7853,0.4913,0.4644,-3.5734,1.0451,-3.8569
2554,-0.7882,0.5157,0.4566,-2.5352,-0.3289,-2.2539
2567,-0.7875,0.4759,0.4593,-1.9093,-0.8022,-2.3913
2580,-0.786,0.4842,0.4625,-1.3139,-0.9243,-1.8264
2592,-0.7855,0.4767,0.4627,-0.6421,0.526,-0.6661
2634,-0.7901,0.4891,0.4574,-0.7795,1.2436,-0.5592
2647,-0.7894,0.4908,0.4657,-6.4284,1.2589,-5.2768
2660,-0.7892,0.4662,0.4593,-7.6955,1.4573,-7.231
2673,-0.7865,0.4696,0.4586,-2.8253,0.5108,-5.002
2686,-0.7923,0.473,0.4632,-1.2986,-0.4663,-2.0554
2699,-0.7887,0.4735,0.4576,0.5335,-0.4205,0.3721
2740,-0.7828,0.4842,0.4635,-1.5123,0.8619,-2.8951
2753,-0.786,0.4808,0.461,-0.7184,0.9077,-4.086
2766,-0.7875,0.4757,0.4578,0.3655,1.2741,-3.6585
2779,-0.7875,0.4789,0.4576,-0.2146,0.465,-3.3837
2792,-0.7931,0.4706,0.4566,-0.9322,0.2665,-1.231
2804,-0.7831,0.4747,0.4615,-0.4589,-0.3442,1.853
2846,-0.7801,0.4825,0.4586,0.8846,0.7093,1.4713
2859,-0.7899,0.4737,0.4549,4.3197,1.152,1.7614
2872,-0.7865,0.4816,0.4622,5.2968,1.7322,0.3568
2885,-0.7879,0.484,0.4571,1.3732,0.7245,-1.4447
2898,-0.7897,0.4803,0.4542,-0.9169,0.2207,-2.0096
2911,-0.7911,0.4801,0.453,-3.436,-0.5732,-1.9333
2952,-0.7853,0.4776,0.4608,-0.1536,-0.3442,-0.834
2965,-0.7865,0.4781,0.4583,-1.4665,0.694,-1.3684
2978,-0.7838,0.4715,0.4603,0.0296,0.2512,-1.2615
2991,-0.7897,0.4737,0.4605,2.0754,0.8467,-0.6508
3004,-0.7919,0.4838,0.4493,-0.3062,1.2741,-1.6737
3017,-0.7875,0.4706,0.4603,-0.0009,0.6329,-1.5974
3058,-0.7855,0.4708,0.4576,0.1823,-0.3747,-1.9944
3071,-0.7879,0.4701,0.4613,0.0754,0.0375,0.0209
3084,-0.787,0.4686,0.4591,0.335,0.5413,0.7079
3095,-0.7889,0.4674,0.4593,1.877,0.8772,1.6392
3109,-0.787,0.474,0.4542,3.1594,1.1825,2.4484
3122,-0.786,0.4828,0.4566,0.9457,1.3047,2.0667
3162,-0.7904,0.4735,0.4539,-0.6268,0.1444,-1.2921
3176,-0.7838,0.4718,0.4593,-0.1994,0.2207,-0.2539
3188,-0.7858,0.472,0.4588,-0.4742,-0.4053,1.0438
3201,-0.787,0.4691,0.4593,0.335,-0.7564,0.6621
3213,-0.7884,0.4757,0.4605,2.106,-0.3595,1.3186
3225,-0.785,0.4828,0.4627,-0.4131,0.4192,-0.0249
3267,-0.7909,0.4654,0.4564,-3.4055,0.1444,-4.4371
3280,-0.787,0.461,0.4522,0.1976,0.3886,0.2957
3291,-0.7858,0.4662,0.4522,2.5793,0.1138,4.0667
3305,-0.7877,0.4755,0.4517,1.4495,-0.6648,4.3568
3318,-0.7865,0.4906,0.4569,-2.7795,-0.1762,-0.1623
3331,-0.7914,0.4779,0.4608,-3.5123,0.9688,-3.1394
3372,-0.7894,0.4691,0.4515,2.2739,0.5718,0.4942
3385,-0.7862,0.4708,0.4588,0.9762,-0.39,1.9446
3398,-0.7914,0.4693,0.4571,2.3197,-0.2984,2.8301
3411,-0.7853,0.4833,0.4622,2.5182,0.4039,1.914
3423,-0.7862,0.484,0.4547,0.3197,0.4039,-1.1089
3437,-0.7887,0.4745,0.4544,-0.2146,0.0833,-2.4829
3478,-0.7838,0.4693,0.4525,0.2129,-0.7717,1.2423
3491,-0.7887,0.473,0.4591,-0.2452,-0.5121,2.2041
3504,-0.7897,0.4798,0.4544,-1.2528,-0.8633,0.6927
3517,-0.7879,0.4806,0.4564,-1.665,0.297,-1.3073
3530,-0.7904,0.4742,0.4571,-0.7795,1.1978,-2.3608
3543,-0.7909,0.4706,0.453,-0.7032,1.3352,-2.2844
3584,-0.7892,0.4635,0.4588,0.7625,-0.5885,0.9064
3597,-0.7894,0.4684,0.4503,1.4495,-0.5274,3.0744
3610,-0.7877,0.4728,0.4517,1.7243,0.8619,2.4331
3622,-0.7877,0.4735,0.4596,2.9304,0.8619,2.2805
3636,-0.7855,0.4742,0.461,2.0754,1.0299,0.5095
3649,-0.7931,0.4737,0.4505,-0.0314,0.694,-2.2234
3690,-0.7865,0.4623,0.4505,1.2358,-1.3671,0.1583
3703,-0.7875,0.4689,0.4598,1.7854,-0.9549,2.5247
3716,-0.784,0.4796,0.4591,0.9609,-0.4205,1.2576
3729,-0.787,0.4708,0.4622,-0.7642,0.2818,-0.9867
3741,-0.787,0.4747,0.4571,-0.978,0.9077,-3.002
3754,-0.7879,0.4733,0.4556,-1.4971,0.526,-3.7348
3795,-0.7865,0.4674,0.4503,-1.1001,-1.703,-1.002
3808,-0.7845,0.4662,0.4622,-1.1459,-0.9701,-0.086
3821,-0.7858,0.4711,0.4539,-0.1383,-0.222,-0.3913
3834,-0.7879,0.4674,0.4605,-0.1383,0.465,-2.0096
3847,-0.787,0.465,0.4539,0.2892,0.1902,-2.8798
3860,-0.7904,0.4635,0.4615,-0.0772,0.3886,-2.3608
3901,-0.7889,0.463,0.4561,0.5335,-0.5885,2.4179
3914,-0.785,0.4669,0.4586,1.0678,-0.1457,2.1889
3926,-0.7875,0.4711,0.4583,0.1213,0.6176,0.2194
3940,-0.7894,0.4718,0.4569,0.6403,0.2818,-1.4905
3953,-0.7845,0.465,0.4513,-0.4589,0.465,-2.6203
3966,-0.7875,0.4593,0.4554,1.3579,-0.1457,-1.5974
4007,-0.7833,0.4645,0.4581,0.3503,-0.2678,1.0438
