time_ms,ax,ay,az,gx,gy,gz
11,-0.6666,0.7647,0.7575,-1.0439,0.3256,0.2383
24,-0.6776,0.764,0.7558,-1.7004,-0.1934,-0.296
37,-0.6747,0.7559,0.7531,-1.9141,0.5699,0.1162
50,-0.6781,0.7593,0.7567,0.7118,0.402,0.8185
91,-0.6705,0.7662,0.7536,0.3912,-0.4835,-0.4334
104,-0.6742,0.7571,0.7577,0.8645,-0.1171,-0.2197
116,-0.6722,0.7618,0.7541,1.0019,0.3867,0.3299
129,-0.6734,0.7659,0.7572,-0.5096,0.3409,-0.0823
140,-0.6798,0.761,0.7587,-0.4027,0.3714,0.8643
153,-0.6769,0.7618,0.7543,0.7729,0.5699,1.3681
194,-0.6722,0.7652,0.7504,-1.0439,0.3714,0.162
207,-0.6734,0.7642,0.7521,-0.9828,-0.0713,-0.1892
218,-0.6695,0.7591,0.7577,0.3607,0.1119,-0.067
231,-0.6749,0.7574,0.7548,1.8263,1.0432,0.7421
244,-0.6759,0.7635,0.7653,3.9637,0.9363,1.765
257,-0.6771,0.761,0.7609,4.0553,0.7073,2.4215
298,-0.713,0.8138,0.7646,2.4828,-2.4988,1.2154
311,-0.7428,0.9163,0.777,2.834,-6.6973,6.4063
324,-0.8868,0.9925,0.9333,-8.7233,-8.911,21.5971
337,-0.7948,0.9263,0.7619,-9.105,-14.3156,30.7269
351,-0.7015,0.856,0.746,-15.8836,-17.4911,29.7498
363,-0.6415,1.1153,0.7116,-36.9523,-11.9492,53.8872
404,-0.3976,0.8597,0.6422,-6.1889,23.944,82.1162
417,-0.4437,0.8409,0.5736,-18.6775,41.4096,72.2383
430,-0.5126,0.8533,0.621,-28.6317,53.318,61.7345
444,-0.5003,0.858,0.6864,-22.3111,61.8982,66.849
456,-0.6283,0.7581,0.7816,-37.4867,61.8524,56.4979
469,-0.8854,0.6048,0.9911,-38.7386,47.8524,34.2383
510,-0.6275,0.3514,0.9665,2.2385,13.1501,-14.2044
524,-0.4769,0.6145,1.1166,31.979,12.4325,-21.3189
537,-0.7716,0.6192,0.7792,5.6584,-2.285,-40.8609
549,-0.9991,0.4253,0.8507,4.8187,-10.1171,-63.8991
562,-0.64,1.1363,0.6029,26.1469,-20.8041,-56.6014
575,-0.2833,1.2093,0.3222,4.1469,-30.4224,-65.3495
617,-1.3309,1.7027,-0.618,-15.5477,-27.3995,-25.5327
629,-0.5389,-0.2199,0.4938,-11.4714,-36.4072,-33.838
642,-1.4762,-0.3544,0.5744,31.3072,-25.1247,-25.7311
655,-0.3155,1.1907,0.1899,-13.1508,-25.0484,-40.3876
669,-0.3524,1.2874,0.0758,-36.9523,-17.6591,-51.2731
682,-0.787,0.8404,0.8705,-7.8989,-7.1553,-31.3647
722,-0.7423,0.6602,0.4628,13.9485,-9.0942,-9.1968
735,-0.8219,0.7535,0.29,-8.4027,-2.5598,-16.9525
748,-0.7655,0.678,0.6447,12.834,9.9898,-18.0212
762,-0.7511,0.8609,-0.2511,16.0553,31.3638,-2.0365
774,-0.9576,0.4244,0.3388,85.8569,32.173,7.2612
787,-0.4974,0.7027,0.307,102.315,49.3333,3.7803
829,-0.5636,1.1934,0.7379,-45.9447,3.8371,-29.6395
841,-0.5975,1.0662,2.1134,27.7958,-1.4453,5.9177
854,-0.599,0.9061,0.5832,-11.7157,1.8982,-7.5021
867,-0.577,1.105,1.268,19.353,-4.0713,-3.8075
880,-0.5016,1.0237,1.2104,8.4981,-0.7736,-13.5021
894,-0.6039,1.011,0.9921,14.8645,-1.1095,-12.7998
934,-0.691,1.075,0.7467,-37.2882,-22.7889,-14.5556
947,-0.8273,1.0665,0.7692,-39.7462,-25.1095,10.1162
961,-0.7855,1.0694,0.7392,-33.5172,-24.1934,34.0704
973,-0.8207,1.0213,0.8315,-40.4943,-27.7812,49.3986
986,-0.6424,0.9532,0.6979,-37.1813,-30.0255,63.2918
999,-0.4786,0.836,0.6149,-34.418,-20.6515,58.3147
1040,-0.3429,0.5979,0.4538,-54.5096,38.0508,27.6734
1053,-0.5736,0.1165,0.6166,-67.563,46.2951,-5.0747
1066,-1.3009,0.0618,0.883,-82.0057,13.5928,-50.2044
1079,-1.2743,0.5208,0.9877,5.0019,-8.4072,-2.9373
1092,-0.6952,0.2784,0.6632,32.666,-3.9034,0.4826
1106,-0.6908,0.3499,0.2006,5.9179,-1.0331,-53.3189
1146,-0.7945,0.9646,1.1999,48.4675,0.5394,-13.1205
1160,-0.8565,1.0643,1.3224,116.559,-6.3766,9.1696
1172,-0.8756,1.9187,0.6125,163.826,1.5776,42.3605
1185,-0.7237,0.8899,0.8358,88.6965,-5.8576,7.0933
1198,-0.6312,0.9825,0.7741,42.3759,0.8447,14.2383
1211,-0.6415,0.8489,0.7565,9.7347,3.1653,-1.8533
1252,-0.6925,0.7952,0.7245,-13.9599,-4.1171,-12.6624
1265,-0.6803,0.7891,0.7209,-8.876,-6.1324,-3.0136
1278,-0.6752,0.7801,0.7299,-2.7691,-5.6591,6.2689
1291,-0.6776,0.7886,0.7553,0.3149,-3.9492,10.8795
1304,-0.6705,0.805,0.7546,0.4981,-1.6286,9.765
1317,-0.6698,0.814,0.7458,-4.5096,-0.3156,3.994
1357,-0.6813,0.8118,0.727,3.9332,0.9363,-1.8838
1371,-0.6837,0.795,0.7343,2.437,-0.1018,-1.838
1384,-0.6805,0.8133,0.7348,-2.4638,-1.6591,-2.3418
1397,-0.6805,0.8086,0.7384,-9.7004,-2.5904,-3.8838
1410,-0.6756,0.7994,0.736,-9.0592,-2.4988,-2.754
1424,-0.6734,0.8045,0.7384,-10.2806,-2.1934,-2.7693
1464,-0.6764,0.7908,0.7433,-3.166,-0.2545,-5.609
1477,-0.6773,0.794,0.7419,-3.7767,0.0508,-6.8762
1490,-0.6815,0.782,0.7438,-0.2347,0.1119,-5.2884
1503,-0.6813,0.7854,0.7406,5.2767,0.4173,-2.5708
1516,-0.6732,0.7945,0.7309,0.9408,0.402,-1.3189
1529,-0.6825,0.785,0.7436,0.6202,-0.1324,-0.1892
1570,-0.6832,0.7852,0.7453,-5.5783,-0.6209,-2.7846
1583,-0.6786,0.7808,0.7416,-1.3187,-0.3919,0.1009
1596,-0.6737,0.7837,0.7387,4.9408,0.4478,3.2154
1609,-0.6756,0.7896,0.7423,3.3378,0.3714,3.994
1622,-0.6835,0.7894,0.7472,4.4981,0.4478,4.9864
1634,-0.6776,0.7937,0.7401,5.7958,0.234,4.9406
1676,-0.6803,0.8072,0.7421,0.4828,-0.3461,-0.4945
1690,-0.6791,0.8016,0.7362,-1.2271,-1.2469,-1.4258
1702,-0.6795,0.7959,0.7421,-2.647,-0.9415,-2.5403
1715,-0.6739,0.7996,0.736,-3.6546,-0.6667,-2.0976
1728,-0.6773,0.7842,0.7475,-3.7767,-0.3919,-0.464
1741,-0.6769,0.7903,0.7423,1.0324,0.4478,2.0856
1782,-0.6798,0.803,0.7509,0.5439,-0.1782,1.5666
1795,-0.6756,0.802,0.745,-2.0363,-0.1171,0.4826
1808,-0.6783,0.7967,0.7394,-2.418,-0.1934,-0.3266
1821,-0.6754,0.7979,0.7438,-0.8302,0.3409,-0.2044
1832,-0.6754,0.8033,0.7414,1.4752,0.3867,0.6505
1846,-0.6769,0.8038,0.7389,0.5286,0.2035,0.6047
1887,-0.6734,0.7925,0.7416,0.7271,-0.2087,2.9253
1900,-0.6781,0.7962,0.7436,3.0782,-0.1171,3.5818
1913,-0.672,0.804,0.7467,6.2996,0.1577,3.2765
1926,-0.6734,0.8062,0.7358,5.521,0.3104,1.7803
1939,-0.6715,0.8035,0.7392,0.8187,-0.1934,-1.9449
1952,-0.6832,0.8096,0.7392,-4.4943,-1.4301,-3.7159
1993,-0.6678,0.7798,0.7467,0.666,-0.8041,1.0627
2006,-0.6739,0.7891,0.7416,4.1164,0.3714,3.0933
2019,-0.6739,0.8016,0.7404,6.437,1.8066,4.0093
2031,-0.6786,0.8094,0.7416,5.3378,1.8066,3.3986
2045,-0.6749,0.8121,0.7443,1.0477,0.8447,0.9253
2058,-0.6798,0.8064,0.7394,1.5668,0.9058,0.4826
2099,-0.6813,0.8074,0.7431,-1.2729,0.2493,0.5131
2111,-0.6783,0.8045,0.7394,1.2462,0.2493,1.5208
2125,-0.6788,0.8038,0.7401,1.9943,-0.0713,1.8719
2138,-0.6766,0.8069,0.7394,1.6126,0.4631,1.536
2151,-0.6764,0.8084,0.7441,0.6355,0.6615,0.7269
2164,-0.6764,0.8064,0.745,-1.3645,0.5394,0.1162
2205,-0.6783,0.803,0.748,2.1622,0.5089,0.2231
2218,-0.6764,0.8045,0.7414,1.7042,0.4478,-0.3113
2231,-0.6722,0.8052,0.7394,-0.6012,-0.1018,-1.3647
2244,-0.6795,0.8077,0.7409,-1.7767,-0.1324,-1.7922
2257,-0.6791,0.8074,0.7419,-3.1202,-0.1476,-1.4869
2270,-0.6783,0.8086,0.7467,-5.6241,0.0814,-2.1586
2311,-0.6778,0.8042,0.7367,-0.5401,0.4478,-1.151
2324,-0.6766,0.8057,0.7419,0.2843,0.0508,-0.8609
2336,-0.6783,0.8011,0.7387,2.1469,-0.2392,0.6658
2349,-0.6769,0.8055,0.7362,0.4828,-0.4224,0.2841
2361,-0.6781,0.7986,0.745,-0.3722,-0.2392,0.1162
2373,-0.6749,0.7974,0.7421,-0.7233,-0.3003,-0.3113
2414,-0.6805,0.7996,0.7394,-0.2958,-0.453,-1.3953
2427,-0.6747,0.7991,0.7404,0.3149,-0.4835,-0.8609
2440,-0.6791,0.8001,0.7387,2.6355,-0.0713,-0.4182
2453,-0.6744,0.805,0.7487,1.2156,0.5089,0.1009
2466,-0.6798,0.8074,0.7375,-2.6775,0.2188,-0.7998
2479,-0.6773,0.7981,0.7426,-2.8149,0.4173,-0.4334
2520,-0.6786,0.7991,0.7438,4.2843,1.1501,2.62
2533,-0.6727,0.8047,0.7379,4.437,0.8905,3.6276
2545,-0.6769,0.8086,0.7433,5.0477,0.8753,3.1391
2559,-0.6769,0.8079,0.7397,2.8034,0.6463,2.2841
2572,-0.6752,0.8113,0.7445,0.6202,0.173,0.7269
2585,-0.6756,0.8082,0.7431,-0.3416,-0.0102,-0.0365
2626,-0.6747,0.8033,0.734,-1.0134,-0.4682,-1.1205
2640,-0.6761,0.8025,0.7411,-1.2882,-0.8652,-0.9831
2652,-0.6769,0.7991,0.7421,-0.2347,-0.682,0.1162
2664,-0.6712,0.8003,0.7375,-0.7233,-0.2698,0.5284
2677,-0.6781,0.8072,0.7399,-2.1126,-0.2698,-0.6472
2690,-0.6813,0.8089,0.7387,-2.2347,0.0508,-1.8838
2732,-0.6761,0.7957,0.7443,-1.9141,-0.9415,-0.6472
2744,-0.6749,0.7937,0.7387,-0.4332,-0.8347,0.4826
2756,-0.6744,0.7989,0.745,2.0401,-0.9263,1.8414
2769,-0.6737,0.8023,0.7399,0.4828,-0.4072,1.1696
2782,-0.6734,0.8113,0.7453,-2.7996,-0.1171,-0.3724
2795,-0.6798,0.804,0.7489,-4.5096,-0.4072,-2.2655
2836,-0.6788,0.7942,0.7462,2.6507,0.2798,1.246
2849,-0.68,0.7937,0.7414,2.6202,0.234,1.5818
2862,-0.6764,0.8025,0.7401,2.1622,-0.224,1.6276
2875,-0.6766,0.8033,0.745,0.0248,-0.6515,-0.5098
2887,-0.6781,0.7967,0.7426,-1.9905,-0.0866,-1.7311
2900,-0.6783,0.8018,0.7416,-1.9905,0.0661,-3.0136
2941,-0.6783,0.7974,0.7419,2.4065,0.4783,0.9711
2954,-0.6737,0.7952,0.7414,3.7347,0.7073,2.2994
2967,-0.673,0.8101,0.7355,1.979,0.86,2.0704
2980,-0.682,0.8045,0.7438,-1.4867,0.7989,0.5742
2993,-0.6805,0.7994,0.7477,-0.9523,1.486,0.8185
3006,-0.6776,0.7959,0.7384,1.0477,1.3638,2.0551
3047,-0.6764,0.8086,0.7399,1.6889,-0.4072,1.994
3061,-0.6715,0.8074,0.745,-1.7767,-0.8347,-0.6014
3073,-0.6752,0.8001,0.7406,-2.937,-0.7125,-1.5785
3086,-0.669,0.8042,0.7392,-2.9065,-0.8194,-1.5785
3099,-0.6769,0.7986,0.7441,1.4141,0.4173,-0.4792
3112,-0.6764,0.8003,0.747,2.666,0.3256,0.9406
3153,-0.6813,0.804,0.7482,-1.0286,-0.1324,0.4215
3167,-0.681,0.803,0.7433,-0.7691,-0.3308,-0.3266
3178,-0.6776,0.7996,0.7416,-1.0744,-0.5904,-0.4945
3191,-0.6776,0.8025,0.7409,-1.9752,-0.2392,-1.2579
3204,-0.6791,0.8016,0.7472,-1.6699,-0.224,-1.0594
3218,-0.6788,0.8067,0.7414,-2.708,-0.3461,-1.3953
3258,-0.6744,0.8018,0.7419,-0.2195,0.0508,0.3452
3271,-0.6769,0.7962,0.7411,1.3378,0.234,1.5513
3284,-0.6756,0.7945,0.7399,1.9027,0.402,1.8108
3297,-0.6725,0.803,0.7416,2.5133,0.0966,2.5742
3309,-0.6813,0.804,0.745,0.5897,0.005,1.4292
3323,-0.6764,0.8086,0.7401,0.2385,-0.0713,-0.067
3365,-0.6747,0.8045,0.7372,-4.7233,-0.3766,-3.8991
3377,-0.6749,0.7991,0.7423,-2.6012,-0.4377,-2.9678
3390,-0.6722,0.792,0.7438,-2.7233,-0.6667,-2.2502
3404,-0.6781,0.8011,0.7441,-1.2882,-0.6515,-0.3876
3416,-0.6786,0.7955,0.7431,0.6355,-0.3766,1.2154
3429,-0.6747,0.8006,0.7419,0.8187,0.2798,1.1849
3470,-0.6756,0.7947,0.7462,-2.4638,0.2035,-0.464
3483,-0.6786,0.7996,0.7465,-1.0286,0.1577,0.62
3496,-0.6783,0.803,0.7445,-0.6928,-0.2698,1.1085
3509,-0.6752,0.7957,0.7409,-0.0363,-0.224,1.0933
3522,-0.6769,0.7959,0.7499,0.9714,0.6768,1.2918
3535,-0.6805,0.7937,0.7462,2.0706,1.089,1.6429
3576,-0.6847,0.7998,0.7472,0.1317,-0.1629,-0.4945
3588,-0.68,0.7998,0.7379,0.8798,0.3867,0.6811
3602,-0.6698,0.8038,0.7477,-1.7462,-0.3003,0.2231
3615,-0.6742,0.7994,0.7455,-3.1355,0.1119,-0.1892
3628,-0.6778,0.802,0.7536,-3.1355,0.2188,0.4673
3641,-0.6866,0.7972,0.748,-0.1279,0.4631,1.3376
3682,-0.6717,0.8064,0.7401,-3.166,-0.5446,-1.4716
3695,-0.6798,0.7986,0.7453,-2.6928,-0.4835,-1.9449
3708,-0.6725,0.7998,0.7482,-1.4409,0.2035,-1.6548
3721,-0.6781,0.7979,0.745,0.5133,0.4478,-0.8456
3733,-0.6771,0.7969,0.745,-0.479,-0.224,-0.0823
3745,-0.681,0.7972,0.7404,-0.4485,0.0814,0.3452
3786,-0.6776,0.8023,0.7431,-2.7844,-0.5904,-1.5327
3799,-0.6744,0.7972,0.7489,-2.5706,-0.0713,-1.9754
3813,-0.6781,0.8042,0.7421,-2.4332,-0.4377,-2.2044
3826,-0.6683,0.794,0.7392,-5.3493,-0.6973,-3.2884
3838,-0.6788,0.7986,0.7475,-2.7996,0.2493,-2.2197
3851,-0.6769,0.7952,0.7499,-0.3874,0.3256,-0.5708
3892,-0.6795,0.7884,0.7375,-1.4256,0.2798,0.9406
3905,-0.6749,0.7898,0.7436,2.7118,0.2035,2.1925
3918,-0.6734,0.8018,0.7353,0.9561,-0.1476,0.6811
3931,-0.6759,0.7977,0.7433,0.1927,0.0203,-0.6014
3943,-0.6725,0.7913,0.7441,1.3072,-0.1629,0.0246
3956,-0.6776,0.7981,0.7379,5.3378,-0.056,1.0169
3997,-0.6815,0.8035,0.7453,-1.0439,-0.682,-1.1357
4011,-0.6793,0.7972,0.7438,-1.8225,-0.0255,-1.6853
4024,-0.6737,0.8018,0.7462,-0.5706,0.3409,-1.0899
4036,-0.6769,0.7952,0.7411,-0.4332,1.1043,0.162
4049,-0.68,0.7945,0.745,1.9179,1.0585,2.0856
4061,-0.68,0.8001,0.7431,3.0935,0.86,3.3376
4102,-0.6793,0.8074,0.7467,2.9714,0.631,2.5589
4116,-0.6769,0.8094,0.7441,1.0935,0.3562,0.6963
4129,-0.6734,0.8128,0.7428,-3.3798,-0.0408,-1.151
4142,-0.6766,0.7981,0.7441,-1.6851,0.0508,-0.9525
4155,-0.6698,0.8018,0.7421,-2.0057,-0.3308,0.0551
4169,-0.6786,0.8016,0.7387,-1.6393,-0.453,0.0704
4209,-0.6778,0.8096,0.7433,-4.9218,-0.6515,-1.5785
4222,-0.6756,0.7972,0.7487,-3.9599,-0.1782,-1.9907
4235,-0.6754,0.8016,0.7406,-1.8378,-0.2698,-1.5021
4248,-0.6734,0.8045,0.7401,-0.647,0.1272,-0.754
4259,-0.6766,0.7991,0.7511,-0.1889,-0.0102,0.0856
4272,-0.6712,0.802,0.7328,0.0401,-0.0255,0.4673
4313,-0.6783,0.8038,0.7431,-2.3111,-0.3766,-1.5937
4326,-0.6747,0.8001,0.748,-3.7767,-0.6973,-2.5403
4339,-0.6764,0.8016,0.7426,-2.7386,-0.8957,-2.2197
4352,-0.6698,0.7935,0.7394,-0.0668,-0.7431,-1.1968
4365,-0.6769,0.7972,0.7419,0.7424,-0.4377,-0.4334
4378,-0.6813,0.7955,0.7492,1.3378,-0.4224,0.3605
4419,-0.6771,0.795,0.7448,-1.1813,0.6615,0.5131
4432,-0.6732,0.8013,0.7475,-3.8225,0.1577,-0.3876
4445,-0.6749,0.795,0.7416,-2.1737,-0.1476,-0.8304
4458,-0.6793,0.7898,0.7448,-0.4027,-0.1629,-0.7846
4470,-0.6725,0.7959,0.7414,0.0401,-0.224,-0.9373
4482,-0.6742,0.7994,0.745,-0.1737,-0.2698,-1.4869
4524,-0.6764,0.7935,0.7465,-1.4103,-0.2392,1.1696
4536,-0.6734,0.793,0.7441,0.1011,0.3714,2.4368
4549,-0.6771,0.7979,0.7426,-0.1279,0.1272,1.765
4562,-0.6766,0.7977,0.7433,0.1011,0.6157,0.9253
4574,-0.681,0.7998,0.7443,1.124,0.3256,0.2536
4586,-0.6754,0.7998,0.7433,0.2538,0.3867,-0.2808
4628,-0.6739,0.7962,0.7458,0.6202,-0.3003,0.7116
4641,-0.6761,0.7945,0.7472,-1.4256,-0.0408,-0.1434
4654,-0.6744,0.7952,0.7433,-0.021,0.631,0.2536
4667,-0.6778,0.7959,0.7414,1.292,0.4173,0.7574
4680,-0.6727,0.7984,0.7419,-0.0363,0.6615,-0.2502
4693,-0.6764,0.8033,0.7443,-1.563,0.6921,-0.5556
4734,-0.6752,0.7918,0.7492,0.6813,0.3562,0.6811
4747,-0.68,0.7964,0.7448,3.8416,0.3409,1.0169
4760,-0.6766,0.802,0.747,1.0324,0.2493,-0.1739
4773,-0.6754,0.7945,0.7445,0.0401,0.0814,-0.3724
4785,-0.6771,0.7977,0.7502,0.1164,-0.0255,0.2383
4797,-0.6764,0.7981,0.7445,0.6355,-0.0866,0.7116
4838,-0.671,0.7969,0.7453,0.7271,0.7226,0.2078
4851,-0.6769,0.8011,0.7431,0.7118,0.4325,0.3299
4863,-0.6742,0.805,0.7443,0.2233,0.1119,0.391
4875,-0.6771,0.7937,0.7455,-0.9218,-0.224,-0.1128
4887,-0.6732,0.8052,0.7428,-1.8531,-0.8041,-0.067
4900,-0.6752,0.8006,0.7441,-2.2195,-0.2392,-0.5556
4941,-0.6756,0.793,0.7433,0.2996,0.3409,-1.2121
