time_ms,ax,ay,az,gx,gy,gz
11,-0.6769,0.8394,0.7321,1.9332,0.4478,0.8337
23,-0.6749,0.8404,0.7299,0.5286,0.4325,0.4521
65,-0.6788,0.8372,0.7289,-0.25,0.8142,0.5437
77,-0.6754,0.8423,0.7304,1.6736,0.8447,0.9101
90,-0.6776,0.8414,0.7304,1.1546,0.1119,0.7269
103,-0.673,0.8445,0.7275,1.8569,0.173,0.4063
116,-0.6761,0.8414,0.726,-0.2806,-0.2392,-0.2655
130,-0.6822,0.8387,0.734,0.1469,-0.2545,-0.067
170,-0.6803,0.8367,0.7311,-0.1126,0.4783,0.6658
183,-0.6759,0.8374,0.7296,1.4904,0.2493,1.246
196,-0.6788,0.8379,0.7309,1.8874,0.0203,1.0933
210,-0.671,0.8497,0.7306,-4.8912,-0.3003,-0.7693
222,-0.6732,0.8406,0.7284,-6.4638,-0.5598,-2.464
235,-0.6832,0.8348,0.7323,-6.0821,0.005,-1.7006
277,-0.7398,0.8348,0.7467,7.2767,-1.9797,1.4444
291,-0.8011,0.8602,0.7782,-1.2576,-9.1705,-8.0212
303,-0.8563,0.7317,0.6598,-11.1813,-13.9492,-25.7922
316,-0.9989,0.9334,0.7585,-8.7996,-26.6667,-18.0823
329,-0.8568,0.9141,0.663,3.7042,-28.6209,-5.0747
343,-0.7801,1.035,0.5263,-6.3264,-17.9492,10.5589
383,-0.4696,0.949,0.6073,23.7653,31.3944,84.7879
396,-0.4256,0.941,0.6742,9.0019,30.7531,79.2612
409,-0.3424,0.9126,0.62,-10.6164,39.6844,66.5437
422,-0.2389,0.823,0.5751,-8.3111,61.5165,58.7574
436,-0.2601,0.774,0.6117,-6.5859,74.0966,38.2383
449,-0.3995,0.7977,0.6444,-12.6164,84.6157,16.9253
489,-1.1361,0.5838,1.1066,-51.9447,7.6997,-42.0823
503,-0.6241,0.7784,0.8593,-4.7691,15.0737,-18.7998
516,-0.5607,0.6897,1.0202,-11.0439,-2.4377,-16.5098
528,-0.5531,0.8389,0.8503,-24.1279,-9.827,0.2689
542,-0.5533,0.7083,0.974,-40.0821,-37.9797,-14.7235
555,-0.9195,0.6495,0.8144,-39.8073,-51.4148,-14.3724
595,-0.8063,0.9883,0.224,-7.2729,-50.3003,-42.6472
608,-0.4413,0.7229,0.7914,-1.0286,-44.3614,-52.5098
622,-0.3727,0.6856,1.0424,-3.6393,-35.3843,-31.3189
635,-0.8363,0.8421,0.9108,16.6965,-8.5446,-5.9144
648,-0.7379,0.8165,1.0168,12.2843,-3.1095,3.536
661,-0.7699,0.9097,0.6867,1.063,-4.1629,9.1696
702,-1.0436,0.6497,-0.3053,130.849,39.9592,-5.7617
715,-0.8963,0.8389,0.6105,176.635,59.3638,6.1009
728,-0.7574,0.742,0.3251,131.017,59.486,3.536
741,-0.5304,1.3001,1.6933,70.0553,49.3027,-26.5556
753,-0.6017,1.2649,0.9008,65.2309,43.8218,-9.2273
766,-0.6603,0.8103,0.3449,8.1469,34.173,-13.838
808,-0.6295,0.9978,0.8046,15.0477,2.7837,-2.6014
820,-0.7013,0.8519,0.7367,20.666,4.4936,-5.1357
833,-0.6888,0.9646,0.9113,31.6889,-11.8881,-0.7693
846,-0.701,1.0325,0.8708,5.0935,-17.5522,6.6505
860,-0.6793,1.0318,0.7516,-26.7691,-17.3385,25.7498
873,-0.7608,1.0511,0.7253,-28.6928,-16.2392,41.3528
913,-0.4903,1.0337,0.5041,-82.708,-8.3003,39.475
927,-0.4628,0.9639,0.5133,-87.6088,4.8447,23.8261
940,-0.6981,0.8853,0.6816,-94.876,4.2493,5.4444
953,-0.7765,0.6375,0.5644,-97.8531,-5.2927,-7.4105
965,-0.8404,0.4332,0.8629,-44.0057,-2.3461,-11.4716
978,-0.7977,0.3443,0.7917,17.1546,3.1806,-13.7311
1019,-0.9366,1.1465,0.63,70.0248,-2.5904,-4.525
1032,-0.5345,0.8875,0.227,19.5668,-2.7583,-36.3113
1045,-0.8841,0.9556,0.7594,31.0935,1.2417,-24.6014
1059,-0.7491,1.1253,0.4899,18.1011,4.0814,-15.6853
1072,-0.66,1.6265,0.6044,38.1317,10.6157,18.1009
1085,-0.6378,0.8987,0.706,-2.8607,3.8982,-2.8304
1126,-0.6869,0.8489,0.6986,-4.2042,-6.8805,-8.754
1139,-0.681,0.8309,0.7045,-12.5859,-7.6438,-6.464
1152,-0.6866,0.8301,0.717,-13.6241,-5.8423,-2.4487
1164,-0.6839,0.8182,0.7228,-6.6012,-1.369,4.1773
1177,-0.6803,0.8331,0.717,-3.563,1.6539,8.4826
1190,-0.6891,0.8501,0.7255,-4.7691,0.4631,8.1314
1231,-0.6854,0.8528,0.7165,-23.5172,-7.5064,6.1314
1245,-0.682,0.8306,0.7221,-18.0057,-6.8347,7.4292
1258,-0.6813,0.8567,0.7221,-18.9676,-5.0789,6.3757
1271,-0.6832,0.8457,0.724,-29.1508,-6.7583,2.0856
1284,-0.692,0.8289,0.7282,-31.5019,-8.9568,3.7498
1296,-0.6734,0.8191,0.7194,-27.3951,-12.7583,6.5437
1338,-0.6981,0.8755,0.7619,-45.2271,-8.4682,-1.0594
1351,-0.6947,0.8113,0.7773,-25.3187,-1.1095,0.8643
1363,-0.6756,0.8333,0.7433,-12.7538,4.4173,4.1009
1376,-0.6693,0.8245,0.7296,-16.1584,5.1806,2.1773
1390,-0.8595,0.5171,0.8017,36.4828,2.3714,13.2154
1403,-0.6468,0.6993,0.6881,17.1546,4.402,5.0322
1443,-0.6673,0.8653,0.7094,-1.4867,-0.2698,1.5666
1456,-0.6832,0.8475,0.7187,1.7653,-0.4224,-1.1205
1469,-0.6876,0.8228,0.7336,4.8645,1.6692,0.6658
1483,-0.6803,0.8274,0.735,10.3607,2.9669,2.5895
1496,-0.6498,0.8445,0.737,8.666,3.6539,1.1696
1508,-0.6717,0.8475,0.7316,7.6889,3.0279,-0.6319
1550,-0.6788,0.8167,0.7294,-14.9218,-1.7202,-8.0976
1562,-0.6786,0.8211,0.737,-12.1889,-0.3919,-4.3266
1575,-0.6666,0.805,0.7392,4.0859,1.9592,1.475
1588,-0.671,0.8318,0.7284,6.3149,2.7226,2.3757
1601,-0.6739,0.844,0.7282,0.437,1.8218,-1.3037
1615,-0.6839,0.8306,0.7292,-5.1202,0.9516,-4.0518
1655,-0.6844,0.8309,0.7367,-4.7538,-0.4835,-5.6548
1669,-0.6842,0.8213,0.7394,-5.8836,-0.3461,-5.38
1682,-0.6742,0.8172,0.7238,0.1317,0.6005,-2.1128
1694,-0.6769,0.8213,0.7306,6.0401,1.3485,0.0551
1707,-0.6769,0.8233,0.7299,6.0401,1.5623,0.4368
1720,-0.6764,0.8365,0.7253,3.5057,0.9211,0.2689
1761,-0.6766,0.8338,0.7233,-5.0286,-0.7736,-1.1968
1774,-0.6803,0.8233,0.7299,-2.0973,-0.5751,-1.3342
1787,-0.6739,0.8255,0.7323,-1.2424,-0.8652,-0.464
1800,-0.683,0.8201,0.7238,1.4752,-0.1629,0.8948
1814,-0.6791,0.8291,0.7282,-0.4027,-0.4988,0.2231
1826,-0.68,0.8226,0.7323,-0.3722,-0.5598,-0.0212
1867,-0.6769,0.8086,0.7358,3.5057,0.1577,0.1773
1881,-0.6839,0.8267,0.7255,4.1164,0.1272,1.2918
1894,-0.6776,0.8267,0.737,1.2767,-0.3919,0.7116
1906,-0.6754,0.8274,0.7287,0.4828,-0.6515,0.5284
1918,-0.6776,0.825,0.7353,-0.9981,-1.0942,0.4673
1932,-0.6798,0.8282,0.7289,-0.0668,-0.8347,0.5284
1972,-0.6749,0.8306,0.7316,5.7194,1.1959,4.1925
1985,-0.6791,0.8274,0.7287,2.5591,0.3409,3.4444
1998,-0.6854,0.8411,0.7309,1.1698,0.2188,1.307
2012,-0.6815,0.8431,0.7299,-0.8149,-1.1705,-1.7311
2024,-0.6783,0.8223,0.725,-3.0134,-1.1858,-3.6548
2037,-0.6778,0.8208,0.7323,-3.7157,-1.5217,-3.1205
2079,-0.6805,0.8213,0.7338,-2.1126,-0.8194,-0.6166
2092,-0.6805,0.8245,0.7353,-0.6012,-0.1782,-0.296
2103,-0.6752,0.8228,0.734,-0.937,-0.0408,0.2383
2115,-0.6769,0.8284,0.734,-1.4867,0.1424,-0.0823
2128,-0.6752,0.8272,0.734,-4.0057,-0.4835,-1.5632
2141,-0.682,0.8235,0.7289,-0.6012,-0.6056,-0.1892
2182,-0.6817,0.8147,0.7362,-1.563,-1.5522,-0.4945
2195,-0.6791,0.8208,0.7379,3.7347,-0.6056,0.6047
2208,-0.6725,0.8284,0.7287,2.9714,0.3409,0.4521
2221,-0.6808,0.826,0.7397,1.4141,0.8905,-0.2808
2235,-0.6798,0.8304,0.7372,-0.6164,0.6921,-0.6319
2247,-0.6698,0.8162,0.7367,-0.9981,0.9516,-0.922
2288,-0.6822,0.8211,0.7336,1.9179,-0.0866,0.7116
2301,-0.6798,0.8248,0.7326,2.7118,-0.1171,0.9711
2315,-0.6771,0.8267,0.7279,-0.8454,-0.3461,-0.3113
2327,-0.6852,0.8208,0.7299,-2.4638,-0.6056,-0.4182
2340,-0.6803,0.8267,0.7328,-0.4638,-0.2545,1.1085
2353,-0.6778,0.8211,0.7321,2.0706,-0.3308,2.162
2395,-0.6739,0.8216,0.7328,-0.8912,-0.4835,-0.6624
2408,-0.6778,0.8243,0.7426,0.4217,0.2493,0.0246
2419,-0.6742,0.8257,0.7314,0.9714,0.3256,1.2154
2432,-0.6695,0.824,0.735,4.3301,0.6615,1.8108
2445,-0.6786,0.8294,0.735,3.3988,1.1501,1.2918
2458,-0.6783,0.835,0.7326,0.666,0.2798,0.0856
2499,-0.6832,0.8235,0.736,-4.5248,-1.6286,-3.7159
2512,-0.6781,0.8169,0.7343,-1.7157,-0.3766,-1.2273
2525,-0.6725,0.8199,0.7414,2.9714,0.7379,1.3986
2538,-0.6786,0.8235,0.7321,4.9866,2.005,2.5284
2551,-0.6817,0.835,0.735,3.1851,1.0279,1.536
2565,-0.681,0.8306,0.7299,0.7729,0.1882,-0.0212
2605,-0.6822,0.8182,0.7338,-2.6775,-1.0179,-1.5174
2618,-0.6773,0.826,0.7301,-0.1431,-0.3766,-0.3724
2632,-0.6747,0.8272,0.7333,2.2233,0.4783,0.7269
2645,-0.6788,0.8296,0.7272,0.3454,0.0356,0.6658
2656,-0.6788,0.8233,0.7287,0.2385,0.2035,0.7727
2668,-0.6805,0.8221,0.7316,-0.1737,0.1272,0.5131
2710,-0.6749,0.8204,0.7345,4.1622,-0.1629,-0.4487
2722,-0.681,0.8291,0.735,3.1546,0.1577,-0.4487
2735,-0.6778,0.8304,0.7348,-0.0821,0.0356,-0.1586
2747,-0.6764,0.8304,0.7306,-0.25,-0.3156,0.4521
2759,-0.6793,0.836,0.7367,-1.5477,-0.4377,0.6658
2773,-0.6744,0.8309,0.7314,-4.0821,-0.9568,-0.922
2813,-0.6808,0.8216,0.7311,3.3225,0.9211,1.3528
2826,-0.6708,0.8252,0.734,2.9408,1.0585,1.6276
2839,-0.6808,0.8338,0.7343,0.2385,0.2188,0.62
2853,-0.6793,0.835,0.7353,-2.3569,-0.2392,-0.1586
2865,-0.6686,0.8387,0.7321,-3.7309,-0.8194,-1.1663
2878,-0.6747,0.8313,0.737,-7.6699,-1.0637,-2.4334
2920,-0.6773,0.8145,0.7333,6.2233,0.8905,1.933
2932,-0.6769,0.8304,0.727,5.1851,0.9058,1.4139
2945,-0.682,0.8343,0.7304,2.9561,0.1119,-0.296
2958,-0.681,0.8311,0.7255,1.292,-0.3003,-0.7082
2972,-0.6773,0.8331,0.7318,-4.0363,-1.1705,-2.3113
2985,-0.6744,0.8223,0.7304,-3.8531,-1.14,-2.0976
3025,-0.6808,0.8296,0.7358,0.4675,0.402,0.391
3038,-0.6769,0.8196,0.7365,2.7118,0.8142,1.765
3052,-0.6749,0.8296,0.7392,1.292,0.7837,0.9253
3065,-0.6791,0.825,0.7379,0.3759,0.2646,0.6505
3076,-0.6764,0.826,0.7306,-1.4714,-0.3766,-0.1892
3089,-0.6773,0.8269,0.7367,-1.6851,-0.3919,-0.3571
3130,-0.682,0.8206,0.7328,5.7653,1.2722,2.8032
3143,-0.6766,0.8287,0.7301,5.4904,0.6921,2.7116
3156,-0.6747,0.835,0.726,2.6049,-0.3156,1.0627
3170,-0.6734,0.8279,0.7289,-0.2653,-0.453,-0.4029
3182,-0.6764,0.8372,0.7453,-0.4943,-0.1018,-0.3266
3193,-0.68,0.8294,0.7362,-1.2118,-0.3308,-0.6472
3235,-0.6776,0.8299,0.7311,-1.1508,-0.3003,0.3605
3247,-0.6776,0.8255,0.7333,0.6813,-0.0255,-0.0365
3259,-0.6759,0.8331,0.7394,2.1775,-0.2545,-0.7846
3272,-0.6703,0.8309,0.7321,0.9408,-0.2545,-1.3953
3286,-0.6822,0.8299,0.7379,1.4752,0.6615,-0.5403
3299,-0.6805,0.8255,0.735,2.7118,0.1577,1.0627
3339,-0.6813,0.8282,0.7323,1.4141,0.0966,1.2765
3352,-0.6778,0.8323,0.7365,2.8034,0.1272,1.6734
3366,-0.6739,0.8335,0.7333,3.5973,-0.2545,1.3528
3378,-0.662,0.8382,0.7267,-5.4561,-1.0484,-1.2731
3391,-0.6903,0.8291,0.7372,-6.021,-0.1629,-2.1739
3404,-0.6859,0.8318,0.7338,-2.7538,0.1272,-0.1739
3445,-0.6817,0.8272,0.7362,1.0782,-0.0866,-0.0823
3458,-0.6752,0.8316,0.7299,0.9256,0.005,-0.8456
3470,-0.6764,0.8309,0.7365,1.2614,0.0966,-0.2808
3484,-0.6737,0.8279,0.736,1.75,0.173,-0.2044
3497,-0.6798,0.8291,0.7338,2.834,-0.4682,0.8948
3509,-0.6756,0.8299,0.7345,0.5591,-0.453,0.2231
3551,-0.6776,0.8289,0.7265,-2.0363,-0.056,-0.3876
3564,-0.6791,0.834,0.7326,-2.2195,-0.1782,-0.2655
3576,-0.6788,0.824,0.7323,0.0248,-0.1934,0.3147
3589,-0.6778,0.8223,0.7328,1.6584,0.0203,1.2918
3602,-0.6703,0.8287,0.7392,2.4065,-0.1629,1.4902
3616,-0.6771,0.8284,0.7382,0.9866,-0.1171,0.4063
3656,-0.6734,0.8326,0.7355,-1.6393,-0.3614,-0.5861
3669,-0.6773,0.8277,0.7353,0.0401,-0.4072,-0.2044
3682,-0.6786,0.8294,0.735,1.2309,0.1882,0.849
3695,-0.6756,0.8291,0.7348,1.8416,0.5089,1.2612
3707,-0.6764,0.8367,0.7362,0.6202,0.234,0.6811
3720,-0.6781,0.8318,0.7384,0.2843,0.2493,-0.067
3761,-0.6749,0.8262,0.7397,-1.3951,0.2035,0.2536
3774,-0.6776,0.8257,0.7336,0.0095,0.7226,1.3834
3787,-0.6783,0.8374,0.7348,2.7882,0.7379,2.1162
3800,-0.6764,0.8338,0.7301,2.0401,0.4936,1.6582
3814,-0.6712,0.8309,0.7306,1.75,0.402,1.3223
3826,-0.6715,0.8394,0.7284,-0.6012,-0.1171,-0.4182
3868,-0.6734,0.8338,0.7362,0.3607,0.173,-0.3724
3881,-0.6773,0.8309,0.7316,0.3454,0.3867,-0.1128
3892,-0.6783,0.8294,0.7375,-0.1889,0.3867,0.2536
3904,-0.6778,0.8343,0.7279,-0.25,0.1882,-0.1434
3917,-0.6727,0.8362,0.7321,0.8187,0.0966,-0.1892
3929,-0.6781,0.8333,0.737,2.3912,-0.1018,0.4979
3970,-0.6776,0.8335,0.7323,-0.1889,-0.1018,0.7727
3983,-0.6791,0.8333,0.734,-0.5401,0.2188,0.6353
3994,-0.6744,0.8396,0.7353,-1.3493,-0.0255,-0.1739
4007,-0.6769,0.8338,0.7394,-2.6012,-0.6056,-1.1357
4020,-0.6798,0.8345,0.7311,-0.8149,-0.4377,-1.7617
4034,-0.6759,0.8311,0.7326,1.0019,0.0356,-1.5632
4074,-0.6722,0.8333,0.7392,-2.2195,-0.0866,1.5513
4087,-0.6798,0.8338,0.7326,-1.563,-0.1476,1.6734
4101,-0.6749,0.8355,0.7343,-1.8531,-0.1782,0.9406
