time_ms,ax,ay,az,gx,gy,gz
11,-0.7606,0.4867,0.5575,0.5335,0.1291,-0.2081
23,-0.7638,0.4913,0.5533,0.8235,0.4192,0.0056
35,-0.7596,0.4913,0.5455,0.793,0.5871,-0.1928
48,-0.7613,0.4938,0.5499,0.7625,0.0986,-0.4524
88,-0.7608,0.4877,0.5509,-1.2986,-0.0236,-1.3989
101,-0.7611,0.4867,0.5523,-0.5047,-0.0999,-0.2844
114,-0.7606,0.4845,0.5513,1.0831,-0.161,1.2881
127,-0.7584,0.4906,0.5531,0.6098,0.8009,2.1736
139,-0.7611,0.4903,0.555,1.2968,1.1978,2.2194
152,-0.7623,0.4916,0.5484,1.0067,0.6024,1.7461
194,-0.7582,0.4916,0.5501,-1.3902,-0.4511,-3.0631
207,-0.7613,0.4884,0.5535,-0.6421,-0.5427,-2.4218
219,-0.7591,0.4847,0.5521,-0.0772,0.0986,-1.0783
232,-0.7579,0.4899,0.5496,0.106,0.236,0.2194
244,-0.756,0.4889,0.5504,-0.0009,0.3581,1.0286
257,-0.7613,0.4886,0.5518,-0.2452,0.0833,0.4637
298,-0.7623,0.4864,0.5538,0.2281,0.4344,-1.0325
311,-0.7616,0.4847,0.5533,1.3884,0.1291,0.6927
324,-0.7594,0.4862,0.556,1.9075,-0.0999,1.8072
337,-0.7618,0.4864,0.5533,2.1365,0.0375,2.311
350,-0.7608,0.4906,0.5548,2.1365,-0.1304,1.7766
363,-0.7589,0.4984,0.5535,1.1747,0.7398,0.3415
404,-0.7643,0.484,0.5489,7.6785,-1.4282,3.9293
417,-0.7811,0.4723,0.556,12.2434,-3.2144,8.6163
431,-0.7696,0.5328,0.5626,8.4724,-4.9549,10.5858
444,-0.7528,0.5448,0.5684,-3.1459,-2.5885,7.1354
457,-0.8011,0.6,0.5448,-8.6726,0.5108,5.2728
470,-0.8929,0.6251,0.3487,-19.3597,16.3276,21.4102
511,-0.6876,0.3746,0.3116,-28.9627,-60.848,52.1125
524,-0.5004,0.3544,0.2669,-9.9551,-28.0236,28.4179
537,-0.5538,0.5475,0.3534,-0.0009,6.2207,18.6774
550,-0.6034,0.6229,0.3985,7.0525,25.5031,25.395
562,-0.6332,0.5858,0.5279,-6.0925,36.6024,27.0133
575,-0.6376,0.6739,0.5167,-15.8787,48.7551,33.9446
617,-0.6576,0.6405,0.5125,-33.7871,69.0146,45.2576
630,-0.7008,0.547,0.4903,-37.0849,77.8238,46.7079
642,-0.7608,0.4989,0.5902,-40.8711,72.8925,35.0744
656,-1.2179,-0.1085,0.8365,-33.5123,-35.7335,-43.9485
669,-1.1542,0.2552,0.0946,-45.7871,14.9077,11.1812
682,-0.6227,0.9708,0.3638,51.9838,0.0375,27.5934
723,-0.7828,0.5516,0.4867,0.2281,0.0833,1.853
735,-0.7787,0.5555,0.4845,1.877,0.7245,8.5705
748,-0.7804,0.5585,0.4915,6.106,1.6558,13.914
762,-0.787,0.567,0.4876,12.8388,1.4726,15.914
775,-0.7862,0.5741,0.4864,18.2434,0.6176,16.9675
788,-0.7775,0.5731,0.4854,27.3579,0.5718,18.998
829,-0.6803,0.7872,0.8773,18.6251,-48.619,-24.3913
842,-0.3004,1.2486,0.7567,12.7167,-85.2755,-26.544
855,-0.5221,0.8285,0.835,11.8464,-115.138,-26.9867
868,-0.3036,0.5057,0.2479,-51.7719,-90.39,-71.3989
881,-0.8089,0.5589,0.2,-73.0391,-91.4129,-62.086
894,-0.3783,0.5528,0.7489,-46.4742,-70.1457,-57.9638
935,-1.3212,0.7906,0.1563,-23.4818,-53.703,-17.7195
948,-0.9415,0.3849,0.8238,-54.8253,-44.8022,-25.2768
961,-0.712,0.828,0.9271,-19.9398,-57.1839,-30.7882
974,-0.7838,0.6468,0.5362,-1.0849,-42.6953,-66.4676
987,-0.65,0.2963,0.7039,-21.0238,-32.6343,-46.8951
1000,-1.069,0.6561,0.2547,16.5335,-22.619,-21.8569
1041,-0.078,0.0812,1.0804,-47.207,-9.993,-29.1852
1054,-0.6803,0.4581,0.681,-8.2299,-1.2755,-11.5058
1067,-0.8448,0.505,0.4456,-9.0543,-0.1457,-14.7424
1080,-0.7272,0.6112,0.6534,-24.7184,-13.2755,-18.1318
1092,-0.9037,0.4645,0.295,-50.1688,-9.7182,-22.2539
1106,-0.7235,0.4278,0.6273,-40.6879,-2.7259,-10.7577
1147,-0.7186,0.4474,0.6278,-67.9704,-2.5885,-25.8417
1159,-0.9515,0.4967,0.253,-62.0467,15.1825,-28.3302
1173,-0.8856,-0.0175,0.0601,-25.0543,62.0986,-34.1012
1186,-1.0672,0.2745,1.0223,98.9609,69.3963,5.9751
1199,-0.5646,0.0902,-0.049,108.625,59.7016,29.0133
1212,-0.8871,0.4396,0.5015,148.625,72.4802,37.227
1252,-0.6151,0.5917,0.0484,62.4571,89.4726,13.3339
1266,-0.9371,0.7169,0.2699,93.8006,68.7093,33.8072
1279,-1.0309,0.3685,-0.85,87.3426,102.847,6.4789
1292,-1.0248,-0.6437,0.3104,79.7396,78.1596,-19.6279
1305,-0.8746,0.109,0.5167,53.2358,67.7932,12.6011
1318,-0.6634,0.7215,-0.7099,-29.4513,49.5184,26.9675
1359,-0.6293,0.7135,1.1966,48.9915,11.9306,36.2652
1371,-0.8575,0.691,0.2364,-11.1765,23.9154,14.2652
1384,-0.6293,0.5585,1.044,3.8159,7.6253,17.914
1398,-0.7438,0.4603,0.6131,13.8617,-9.6114,16.769
1411,-0.7731,0.5441,0.4986,6.2434,-3.474,9.1507
1424,-0.7828,0.5575,0.4908,-0.7948,0.7245,2.0515
1465,-0.7875,0.5262,0.4774,-19.5123,7.0451,-13.0631
1478,-0.7894,0.5099,0.4737,-11.4818,5.9917,-5.9333
1491,-0.7931,0.5084,0.4818,-3.3902,3.6405,2.6927
1504,-0.7994,0.5231,0.4805,0.1976,1.3657,9.6392
1516,-0.7691,0.5033,0.5955,-2.0314,-6.0694,12.9369
1530,-0.3563,0.4247,1.2508,-29.4055,-56.4663,1.9446
1571,-0.9671,0.7113,0.6239,-37.7108,-69.6572,32.7385
1584,-0.8307,0.5902,0.7454,-54.0009,-78.9243,33.9446
1597,-0.7499,0.5563,0.5811,-54.7795,-91.1991,27.4866
1610,-0.7254,0.5035,0.5714,-65.6955,-83.9014,11.7766
1623,-0.6644,0.5895,0.442,-61.5581,-75.6572,4.5553
1636,-0.5694,0.5629,0.2501,-59.0085,-48.6495,4.6927
1677,-0.7289,0.4755,0.5846,-67.7108,11.0757,16.9827
1690,-0.8024,0.338,0.6075,-66.5963,5.5947,8.2805
1703,-0.7777,0.3087,0.4542,-57.0238,5.0146,-6.6508
1716,-0.6908,0.3282,0.3258,-40.4284,21.7016,-13.5058
1729,-0.6908,0.2689,0.4625,-24.8711,49.3352,-23.5974
1742,-0.4064,0.3478,0.4669,-10.6726,-51.0617,-49.0631
1783,-0.7718,0.1898,0.7423,49.7548,-3.7793,-1.5211
1796,-1.3358,0.5463,0.4879,92.8388,-9.9014,-3.4447
1809,-0.4239,-1.4179,-0.7282,-88.8406,16.6329,-24.2692
1822,-0.5326,2.1344,2.0304,113.114,18.4039,11.9598
1835,-0.9789,0.3014,1.3087,64.8846,2.7856,-12.2692
1848,0.0165,-0.5958,0.712,21.8312,2.6176,-99.4142
1889,-0.5672,1.3043,1.2164,76.0755,8.3428,-5.8722
1902,-0.6107,1.4259,1.002,47.3426,1.2131,12.311
1915,-0.7574,0.608,0.5792,-9.3749,4.3886,9.2728
1927,-0.744,0.5758,0.5958,-3.3597,8.4955,-15.0478
1941,-0.7482,0.5287,0.5804,-26.3215,10.6176,-31.2157
1954,-0.7506,0.4737,0.5709,-29.5276,8.8314,-31.8417
1995,-0.7491,0.4725,0.5799,3.2205,-2.1457,8.3721
2007,-0.742,0.4903,0.5826,-0.0314,-1.8862,6.54
2020,-0.7462,0.4991,0.5821,-8.5352,-0.4053,-0.9256
2033,-0.7523,0.473,0.5775,-9.1307,1.2894,-4.8493
2047,-0.7535,0.4747,0.5772,-3.894,2.0986,-5.3379
2060,-0.745,0.461,0.5697,-3.4513,2.007,-6.4218
2100,-0.7506,0.4569,0.5731,3.6327,0.8009,4.8453
2113,-0.7494,0.4703,0.5758,4.7167,-0.222,6.4179
2126,-0.7484,0.4764,0.5714,4.6403,-0.6495,5.5476
2140,-0.7469,0.4828,0.5814,4.1518,-0.4511,2.5705
2153,-0.7474,0.4833,0.5789,0.5335,0.4955,-0.7882
2166,-0.7469,0.4752,0.5828,-1.4207,1.2589,-2.773
2207,-0.7491,0.475,0.5777,-2.6421,1.9612,-0.2844
2220,-0.7496,0.4701,0.5767,-1.0543,1.2589,0.2499
2233,-0.7455,0.4752,0.5775,1.2205,0.1749,0.7995
2245,-0.7482,0.4796,0.5765,1.419,-0.2678,-0.4218
2258,-0.7508,0.4786,0.5753,-0.5963,-0.1915,-2.0707
2272,-0.7489,0.4747,0.5809,-2.3215,0.1596,-2.2081
2313,-0.7508,0.4647,0.5721,-0.7337,-0.6801,0.7537
2325,-0.7486,0.4757,0.5728,1.2052,-1.1228,2.3263
2338,-0.7501,0.4723,0.5753,1.1442,-0.6648,1.3644
2352,-0.7474,0.4776,0.5755,-1.3139,-0.5121,-1.2005
2365,-0.7494,0.4791,0.5819,-3.3902,-0.3747,-2.9256
2378,-0.746,0.4667,0.5758,-3.665,0.0528,-2.4982
2418,-0.7489,0.4689,0.578,-0.1841,-0.7259,1.1812
2432,-0.7535,0.4728,0.5792,-0.062,-0.8785,1.6698
2445,-0.7494,0.4769,0.5758,-1.1307,-0.4663,1.1049
2457,-0.7462,0.4759,0.5777,-0.062,-1.1991,1.166
2470,-0.7494,0.4679,0.5792,0.3808,-0.39,2.1583
2483,-0.7472,0.4742,0.577,-0.123,-0.1915,2.1431
2525,-0.7486,0.4733,0.577,0.4877,-0.7564,0.2499
2537,-0.7472,0.4737,0.5831,0.3197,-0.5579,1.0438
2550,-0.7496,0.4715,0.5855,0.9457,-0.3595,1.1965
2563,-0.7477,0.4742,0.5721,0.2129,0.5871,0.9064
2576,-0.7494,0.4725,0.577,0.3045,0.5108,0.8759
2587,-0.7482,0.4779,0.5736,-0.4131,0.6024,-0.1928
2629,-0.7501,0.4737,0.5777,-2.1383,-0.6801,-2.6356
2642,-0.7477,0.4698,0.5719,-0.749,-1.0617,-1.7043
2655,-0.746,0.4706,0.5731,-0.8864,-0.8327,-1.9791
2667,-0.7513,0.4689,0.5758,-1.6955,0.1749,-2.0249
2680,-0.7479,0.4691,0.5772,-2.0162,0.2818,-1.4447
2694,-0.7486,0.4672,0.5821,-2.7948,0.5108,-1.6737
2734,-0.7494,0.4654,0.576,-3.8635,0.297,-4.1012
2747,-0.7467,0.4549,0.5714,-1.2223,-0.2678,-2.4524
2761,-0.7464,0.4579,0.5706,2.3045,-0.7106,0.54
2774,-0.7484,0.4637,0.5758,3.8006,-0.0541,1.8988
2787,-0.7516,0.4657,0.5765,5.19,0.1749,2.1431
2799,-0.7467,0.4701,0.5821,3.0067,0.6024,1.1202
2841,-0.7479,0.4667,0.576,-1.2833,-0.1762,-1.46
2854,-0.7474,0.4579,0.5758,0.335,-0.7564,0.2194
2866,-0.7445,0.4674,0.5784,1.877,-1.1839,2.4789
2879,-0.7462,0.4637,0.578,3.6938,-1.1991,3.6087
2892,-0.7491,0.4742,0.5809,2.5945,-1.1991,2.2041
2906,-0.7494,0.4725,0.5853,-0.6421,-0.4511,-0.4982
2946,-0.7442,0.475,0.5819,-0.9475,1.1062,-1.5821
2959,-0.7479,0.4642,0.5816,-2.4131,1.3199,-2.1928
2973,-0.7474,0.463,0.5765,-1.0085,1.2741,0.0973
2986,-0.7467,0.4623,0.5767,0.1518,0.7703,2.1889
2999,-0.746,0.4672,0.577,2.7777,0.9688,4.0515
3011,-0.746,0.4686,0.5838,3.5716,1.1825,4.0973
3053,-0.7469,0.4696,0.575,2.1213,0.9077,0.7079
3066,-0.7511,0.4713,0.5797,3.3274,0.4344,1.1965
3078,-0.7506,0.4798,0.5741,3.6022,-0.3136,1.6087
3091,-0.7477,0.4808,0.5787,0.793,1.3199,-0.0707
3105,-0.7484,0.473,0.5726,-0.2452,1.4573,-0.4066
3118,-0.7491,0.4662,0.5772,1.5869,0.8925,0.5553
3159,-0.7521,0.4818,0.5811,-0.6879,-0.0694,-3.0936
3172,-0.7489,0.4772,0.5753,-2.581,-0.5885,-4.7882
3185,-0.7447,0.4676,0.5775,-2.6726,-1.0617,-4.6203
3198,-0.7474,0.4654,0.576,-2.1078,-0.8785,-3.2005
3210,-0.7504,0.4657,0.5826,-3.3444,-1.1075,-2.1623
3224,-0.7506,0.4628,0.5775,-3.436,-0.2678,-0.9409
3265,-0.7467,0.4762,0.5784,3.6632,0.5108,2.6011
3277,-0.7469,0.4786,0.5755,3.4953,0.2054,0.7995
3291,-0.7511,0.4781,0.5804,-0.4131,-0.2984,-1.8264
3304,-0.7511,0.4669,0.5792,-1.1917,0.1902,-1.8569
3317,-0.7513,0.4728,0.5721,0.0907,-0.0694,-0.6814
3329,-0.7472,0.4674,0.5782,0.9762,-0.0236,1.0133
3370,-0.7445,0.4845,0.575,3.3274,0.7245,1.8682
3384,-0.7504,0.4803,0.5748,0.9762,1.4726,-0.6203
3397,-0.7489,0.4774,0.5794,-0.9016,1.4115,-1.9027
3409,-0.7489,0.4676,0.5782,-2.7337,0.1902,-1.5211
3422,-0.7467,0.4708,0.5765,-1.7413,-0.7106,0.0973
3436,-0.7508,0.4747,0.5819,-0.9016,-1.0465,0.9522
3476,-0.7491,0.475,0.5782,-2.291,-0.7259,-0.8951
3490,-0.7464,0.4667,0.5792,-0.6879,-0.8327,-0.8188
3502,-0.746,0.4689,0.5799,0.0144,-0.5427,0.8453
3514,-0.7477,0.4711,0.5767,1.6022,-0.0541,2.5705
3527,-0.7511,0.4762,0.577,1.6938,0.6329,2.54
3539,-0.7489,0.4759,0.5721,2.564,0.9535,2.1125
3581,-0.7477,0.475,0.5777,-0.9016,1.0299,-2.7272
3593,-0.7486,0.4662,0.5731,-0.3062,0.9841,-2.1776
3606,-0.7469,0.4664,0.577,0.5945,0.4955,-0.0096
3619,-0.7469,0.4693,0.5721,0.9915,-0.0541,1.456
3633,-0.7484,0.4723,0.5714,0.564,-0.5885,2.4179
3646,-0.7477,0.4762,0.5738,-0.3368,-0.5427,1.0133
3687,-0.7516,0.4691,0.5711,-1.6345,0.4802,-1.6737
3700,-0.7469,0.4693,0.5736,-0.5505,0.007,0.0209
3712,-0.7472,0.4706,0.5753,-0.0925,-0.7411,1.1049
3724,-0.7513,0.4698,0.5789,1.1594,-1.5045,1.4713
3737,-0.7474,0.4774,0.5772,0.6709,-1.7182,0.4789
3751,-0.7479,0.4828,0.5792,-0.9322,-0.5427,-1.6737
3791,-0.7477,0.4698,0.5799,-0.2452,1.152,-0.4371
3804,-0.7499,0.4684,0.5758,1.5564,1.1062,1.2576
3818,-0.7494,0.4733,0.5731,2.6861,0.8161,2.9827
3831,-0.7506,0.4762,0.5755,1.4953,0.7093,1.4866
3843,-0.7467,0.4806,0.5765,0.0754,0.7703,-0.4371
3856,-0.7474,0.4808,0.5784,-2.3826,0.8314,-2.3302
3898,-0.7486,0.4681,0.5753,-1.1765,-0.5121,1.3034
