time_ms,ax,ay,az,gx,gy,gz
13,-0.7945,0.413,0.3795,-0.3368,-1.0465,0.769
26,-0.7941,0.4147,0.3951,0.7014,-1.1075,1.456
39,-0.7938,0.4222,0.389,0.9304,-0.161,1.6545
52,-0.7943,0.4227,0.3909,0.0144,0.0528,-0.6508
93,-0.7989,0.4161,0.389,-0.3215,0.1902,-0.2997
105,-0.796,0.4137,0.3931,0.5182,-0.0999,0.3263
117,-0.797,0.4173,0.3873,0.5487,-0.4816,0.6927
130,-0.7948,0.4125,0.3922,1.0984,-0.619,1.166
142,-0.7945,0.4139,0.3907,0.5945,-0.6648,1.4713
155,-0.7958,0.4181,0.3909,0.1518,-0.2984,0.5247
197,-0.8004,0.4134,0.39,-0.0314,0.2818,-0.2081
209,-0.795,0.4139,0.3863,1.1289,0.6482,0.9827
222,-0.7926,0.4188,0.3856,0.9151,0.2512,1.1812
235,-0.7992,0.4147,0.3905,2.4419,0.0528,1.5629
249,-0.7948,0.4237,0.387,2.9304,0.3428,1.3492
261,-0.7958,0.4227,0.39,2.8083,0.6787,1.2118
302,-0.8099,0.4139,0.3922,5.9686,-0.6953,10.1889
315,-0.8158,0.4007,0.3873,8.0144,-3.764,17.7919
329,-0.8258,0.3937,0.3814,1.5258,-7.0923,28.8606
342,-0.8028,0.4806,0.3785,-3.2528,-13.2602,42.2499
355,-0.7867,0.465,0.3577,-8.8558,-16.9091,44.2194
368,-0.9457,0.579,0.0203,13.6022,15.1825,53.4102
409,-0.8131,0.6332,0.3189,-36.9169,-24.5885,75.0744
422,-0.5633,0.4271,0.2906,-43.1765,-6.6343,62.4637
435,-0.4957,0.4137,0.3358,-43.4207,17.6711,38.6927
448,-0.5646,0.4789,0.3631,-44.5658,32.7856,14.6621
461,-0.6459,0.5484,0.3846,-48.3215,46.5413,6.311
474,-0.7565,0.5553,0.4393,-49.9551,53.3047,8.6927
515,-0.8807,0.4366,0.4215,-43.4207,34.9383,-0.1165
528,-0.8773,0.4322,0.4254,-30.352,7.2894,-6.544
541,-0.7894,0.317,0.38,-19.5734,10.7856,0.9064
554,-0.8111,0.3732,0.3128,-0.291,8.8619,-0.4218
566,-0.8302,0.4657,0.3558,13.7701,8.7703,20.8148
579,-0.7479,0.3375,0.5968,13.4495,-7.2602,18.5247
620,-0.9933,0.62,0.318,44.0296,-35.077,-35.1089
634,-0.8168,0.2015,0.6146,20.5029,-62.6037,-58.1623
647,-0.4154,0.641,0.8892,25.9533,-69.3671,-41.3379
660,-1.7115,1.0096,-0.5312,37.6938,-81.3671,-71.002
673,-0.8028,1.1915,-0.4057,12.9457,-99.1839,-51.3837
686,-0.9225,-0.3095,0.4903,-0.3062,-93.1533,-57.9027
727,-0.0126,0.6756,1.1182,21.1136,-53.4892,-0.4829
740,-0.9901,0.4261,-0.6562,85.9533,-56.2526,-15.9485
752,-0.8949,0.4259,0.525,24.8693,-40.0694,-24.8188
765,-0.8036,0.4352,0.4513,19.2205,-24.0846,1.6087
778,-0.9205,0.8558,0.3746,43.8159,1.7016,22.6927
791,-0.7701,0.5414,0.5264,25.1442,-6.4969,12.4484
833,-0.7569,0.4642,0.5357,-10.2604,-9.0617,-2.5287
846,-0.7611,0.4505,0.5387,-18.4436,-8.7106,-4.6203
859,-0.805,0.5062,0.5306,-33.8024,-4.9091,-6.4524
872,-0.858,0.5138,0.0992,3.2816,40.3581,-7.4295
885,-0.9977,0.005,-0.0175,16.2587,60.0986,-31.4905
897,-0.713,0.5704,1.036,24.0449,80.9077,-10.315
939,-0.7892,0.9169,0.22,29.8006,113.778,2.6774
951,-1.0123,-0.0265,-0.5202,3.1289,67.0604,16.769
965,-0.7157,0.6412,-0.8637,107.831,127.503,35.0133
978,-0.2814,-0.8966,-1.8261,136.686,68.5108,-2.4218
990,-0.7508,0.2352,1.3634,-61.2375,29.7016,-1.2157
1004,-0.4413,0.3251,0.3094,47.6174,85.778,-12.8493
1045,-0.6786,0.2679,0.9969,19.9686,13.778,3.0438
1057,-0.7831,0.3629,0.5594,0.4113,6.3734,-4.8188
1070,-0.8058,0.4308,0.3841,0.2892,8.068,-2.2997
1083,-0.8111,0.442,0.347,4.0296,5.8848,4.6163
1097,-0.8107,0.4466,0.3433,0.3045,4.2665,6.0056
1110,-0.8102,0.4505,0.3399,-1.9856,1.8238,7.6698
1150,-0.8233,0.4525,0.3353,0.1213,-4.6801,10.0056
1164,-0.8148,0.4547,0.3399,2.3961,-5.4587,9.4866
1177,-0.8192,0.4447,0.346,6.0754,-6.2831,7.6698
1190,-0.8111,0.5091,0.3739,-4.5352,-11.0312,4.1889
1203,-0.8331,0.7123,0.4505,-14.2146,-32.8633,19.7003
1216,-0.9527,0.5787,0.3084,-19.4971,-51.1991,75.3339
1257,-0.8104,0.4803,0.4032,-43.9398,-61.8098,24.0667
1270,-0.7494,0.5162,0.4547,-48.352,-62.4205,16.5858
1282,-0.712,0.4591,0.3863,-51.0696,-60.7717,13.8224
1296,-0.6339,0.4642,0.2342,-49.8482,-37.703,8.5705
1309,-0.649,0.5008,0.2335,-34.8864,-6.5121,7.685
1322,-0.7045,0.5204,0.3807,-36.1994,9.4573,4.8911
1363,-0.6568,0.2923,0.3656,-27.9856,45.6253,-17.8569
1376,-0.9471,0.4767,1.0035,-41.9704,-31.4282,-44.9104
1389,-0.8522,0.3336,0.4493,3.3121,13.6253,5.8377
1401,-0.8692,0.3451,0.4005,29.2968,-3.4434,16.9217
1414,-0.6813,0.2154,0.5968,-4.123,-7.932,-1.2157
1428,-1.3316,0.6886,0.3109,61.0984,0.6329,-17.2463
1468,-1.1847,1.4435,0.5177,74.7625,-11.5503,-5.3073
1481,-0.3412,0.5736,0.0274,41.7854,2.1138,-32.0249
1495,-0.4151,-0.1632,0.0797,42.6251,28.0528,-22.7577
1508,-0.9347,0.6769,0.6209,41.3732,-10.6343,-42.3302
1521,-0.5067,0.1703,0.1978,14.8235,6.0375,-29.5669
1533,-0.7762,0.6705,0.337,20.8846,7.0299,35.0591
1575,-0.795,0.4715,0.4017,-1.1307,5.9306,-11.5211
1588,-0.8038,0.4498,0.3971,-2.9016,3.2131,-11.4905
1600,-0.8016,0.4327,0.3919,-1.0849,0.7398,-3.8111
1613,-0.8038,0.4396,0.4041,3.2205,-1.5961,5.9293
1627,-0.797,0.462,0.4039,1.5869,-2.8785,8.8453
1640,-0.7943,0.4747,0.4054,-0.4894,-2.5427,6.9369
1681,-0.7999,0.4637,0.4012,-4.8864,2.8161,-9.8111
1693,-0.7936,0.4586,0.4056,-8.978,2.0833,-10.9562
1707,-0.798,0.4256,0.4056,-2.5658,1.7474,-6.3302
1719,-0.8014,0.4376,0.4014,4.3197,1.4879,1.6545
1732,-0.7923,0.4557,0.4027,5.2052,2.007,4.7843
1745,-0.795,0.4674,0.4002,-2.5047,0.0986,1.0438
1786,-0.7945,0.4549,0.3985,-2.9475,0.7551,-4.6356
1799,-0.8011,0.4449,0.4041,-2.1383,0.8772,-5.0173
1812,-0.8006,0.4496,0.4017,0.7625,1.3199,-3.7806
1826,-0.7945,0.4444,0.3953,2.0907,1.3047,-2.2234
1839,-0.7958,0.4498,0.3958,-0.352,0.9688,-1.6432
1852,-0.8036,0.4449,0.3968,2.3503,-0.3442,-0.0554
1893,-0.7941,0.4508,0.4012,-4.4131,-1.2907,-6.0096
1906,-0.7982,0.4425,0.4061,-4.7948,0.1138,-5.5669
1918,-0.7965,0.4447,0.4049,-3.6497,1.1215,-4.6966
1931,-0.7977,0.4452,0.4012,-1.5276,1.1215,-4.773
1944,-0.8016,0.4391,0.4024,0.1518,1.7932,-3.9638
1957,-0.8004,0.4369,0.3907,0.6709,1.0604,-2.4066
1999,-0.8011,0.4349,0.4027,-2.4436,-0.2526,0.5095
2011,-0.7953,0.442,0.4041,-1.7108,-0.0083,0.4331
2024,-0.7958,0.4383,0.4007,-0.6421,-0.3442,0.1889
2038,-0.7967,0.4454,0.3973,-2.5963,-0.1304,-2.3608
2050,-0.7989,0.444,0.3985,-3.2833,0.3123,-2.7272
2063,-0.7999,0.4332,0.4027,-1.2223,0.9688,-1.2615
2105,-0.7972,0.4335,0.4,0.0602,-0.222,1.0286
2118,-0.7945,0.4391,0.4044,1.6785,0.4955,1.2728
2131,-0.7904,0.4464,0.3956,-1.3597,-0.6801,-1.0173
2143,-0.7972,0.4357,0.4029,-3.2223,-0.4053,-3.3837
2156,-0.7965,0.4347,0.4041,-1.7566,0.5108,-2.4676
2169,-0.7945,0.4288,0.3995,-2.4742,0.6024,-0.8951
2211,-0.796,0.4379,0.398,-1.2528,-0.0999,-1.3226
2224,-0.7914,0.444,0.399,-3.9551,-0.9243,-3.4753
2237,-0.7997,0.4291,0.398,-3.1307,-0.4511,-1.3379
2249,-0.797,0.4308,0.4073,-1.0391,0.2054,0.54
2262,-0.7945,0.4344,0.4005,-0.1078,0.4344,1.0591
2275,-0.7941,0.433,0.4017,0.793,-0.3595,0.8148
2317,-0.797,0.4369,0.3975,-2.5658,-0.3747,-4.1012
2329,-0.7984,0.4303,0.4007,-2.7184,-0.3442,-4.8188
2342,-0.7945,0.432,0.4022,-5.6803,0.694,-6.5745
2356,-0.797,0.4239,0.3944,-6.2299,0.923,-5.689
2369,-0.7904,0.4281,0.3946,-7.8482,-0.0541,-4.5287
2381,-0.7941,0.4234,0.3956,-6.0009,-1.4129,-2.3455
2423,-0.7941,0.4256,0.4,-8.7337,-1.6419,-1.8264
2435,-0.7931,0.4254,0.4034,-7.1612,-1.077,-1.4142
2449,-0.7872,0.42,0.4029,-4.1536,0.7093,-0.3913
2462,-0.7965,0.4149,0.4039,-0.352,1.1673,-0.4218
2475,-0.7948,0.4234,0.4022,2.8541,1.9001,-0.1012
2488,-0.797,0.4244,0.3988,3.6174,1.6253,-0.4066
2529,-0.7955,0.4198,0.401,-1.7108,-1.5503,-0.5898
2542,-0.7931,0.4208,0.4007,-1.6497,-1.0465,-0.3455
2554,-0.798,0.4195,0.4066,0.1823,-0.5121,0.1736
2568,-0.7921,0.4232,0.3968,2.0602,-0.1762,0.4179
2581,-0.7894,0.4237,0.3975,2.2892,0.6787,-0.4218
2593,-0.7931,0.4203,0.3929,1.5411,0.8467,0.6011
2634,-0.7972,0.4149,0.4056,1.19,1.1673,3.4408
2647,-0.7933,0.4198,0.3995,2.7625,1.2283,5.7614
2660,-0.7928,0.4234,0.398,3.648,0.7245,6.4331
2674,-0.7943,0.4208,0.4005,5.0831,0.7703,7.4102
2687,-0.7994,0.4288,0.4,5.5258,0.5871,7.7766
2699,-0.7955,0.4327,0.3951,4.6556,0.6634,7.1202
2741,-0.7975,0.4342,0.3931,-1.3902,-1.1075,6.2194
2753,-0.7982,0.4313,0.4,-0.3826,-1.6266,7.8377
2767,-0.7962,0.4332,0.3971,0.7167,-1.2297,10.0667
2780,-0.7967,0.4349,0.4032,2.6251,-0.6343,11.4866
2793,-0.7999,0.4459,0.3985,3.3579,0.526,10.4331
2805,-0.7938,0.4545,0.3946,2.1976,1.3963,8.2652
2846,-0.8002,0.4471,0.3944,-0.0925,0.7093,3.0133
2859,-0.8021,0.4418,0.3995,0.106,-0.9549,3.4255
2873,-0.8033,0.4449,0.3951,2.0144,-1.764,4.8911
2886,-0.8004,0.4488,0.4029,2.335,-2.4053,5.8988
2899,-0.7977,0.4552,0.4063,2.4419,-2.4969,6.8911
2911,-0.7921,0.4603,0.4024,0.3503,-1.7488,4.9369
2952,-0.7967,0.4508,0.4029,-1.2681,0.7703,1.5782
2966,-0.7943,0.451,0.4044,0.2587,0.7245,2.8453
2978,-0.7999,0.4496,0.399,1.9533,0.5566,4.4026
2992,-0.8009,0.4618,0.4007,1.6785,0.2054,4.6927
3005,-0.795,0.4628,0.3985,1.1136,-0.0846,4.311
3017,-0.8006,0.4647,0.3995,0.7625,-0.3136,2.2499
3058,-0.797,0.451,0.4007,1.6938,0.3886,1.1812
3071,-0.8002,0.4576,0.3953,1.2968,0.297,2.4179
3085,-0.798,0.4576,0.4007,1.8159,0.6482,2.8148
3097,-0.798,0.4669,0.398,0.4877,1.0909,1.3492
3111,-0.8009,0.4645,0.4024,-0.6116,0.5718,-0.8646
3124,-0.7989,0.4606,0.3995,-0.6116,-0.1152,-1.7348
3164,-0.7994,0.4593,0.4012,0.3197,-0.3595,0.5858
3178,-0.798,0.4623,0.4024,-0.0314,-0.6648,-0.0249
3191,-0.7962,0.4618,0.3963,1.0067,0.2818,0.3415
3204,-0.8016,0.461,0.4017,1.022,0.4955,-0.7577
3216,-0.797,0.4593,0.3975,1.6327,0.297,-1.002
3230,-0.7982,0.4618,0.3966,1.4342,0.4344,-1.0783
3271,-0.8004,0.4603,0.4017,-2.291,-1.1839,-2.1165
3283,-0.7992,0.4586,0.3983,-0.4436,-0.4816,-1.0783
3297,-0.7987,0.4567,0.4051,1.4495,-0.0694,-0.3302
3309,-0.7994,0.4552,0.4012,2.3655,0.4497,-0.8646
3323,-0.7994,0.4562,0.3966,1.8006,0.5718,-1.4905
3335,-0.796,0.4564,0.3997,1.48,0.0375,-1.3684
3377,-0.7972,0.4584,0.399,-0.8253,-0.7411,-2.6966
3389,-0.7992,0.452,0.4039,1.1289,-0.8327,-1.7959
3403,-0.7982,0.4549,0.4019,0.9762,-0.6495,-1.3531
3415,-0.7955,0.4552,0.4014,1.251,-0.1762,-0.4676
3429,-0.8009,0.4562,0.4068,1.3732,0.5566,0.2805
3441,-0.7953,0.4571,0.3995,1.1442,1.0909,-0.4676
3482,-0.7992,0.453,0.3958,-0.581,-0.39,-1.9333
3496,-0.798,0.4464,0.3958,-1.0849,-0.7717,-0.2234
3509,-0.7977,0.4498,0.4051,-0.5047,-1.0465,2.2805
3521,-0.8009,0.4545,0.3997,0.9151,-0.0999,3.853
3534,-0.7984,0.4635,0.4024,0.4877,0.526,2.1431
3548,-0.7984,0.4613,0.3968,0.1671,1.1978,-1.231
3589,-0.8004,0.4537,0.3914,-0.81,-0.9854,-2.6203
3602,-0.798,0.4525,0.3988,-2.4284,-1.474,-1.6432
3614,-0.7941,0.4513,0.3978,-2.6116,-1.7793,-1.002
