time_ms,ax,ay,az,gx,gy,gz
12,-0.6413,0.425,0.6929,0.8409,0.0668,0.3193
23,-0.6464,0.4341,0.6887,-0.9301,-0.5133,0.2277
36,-0.6462,0.4268,0.6914,-1.2507,-0.6049,0.4109
49,-0.644,0.4294,0.6951,-0.64,-0.4675,0.6399
90,-0.6474,0.4277,0.6934,0.4134,0.2347,0.1667
103,-0.6462,0.428,0.6921,1.421,0.2653,1.0522
116,-0.6427,0.4258,0.6936,0.734,-0.0706,1.1896
128,-0.6474,0.427,0.6973,0.7798,-0.0553,1.3117
142,-0.6454,0.4326,0.6892,1.131,-0.3301,1.4186
155,-0.6484,0.4346,0.6941,0.7035,-0.4675,0.2277
196,-0.6462,0.4253,0.6904,-0.7316,0.2042,-1.1616
208,-0.6481,0.4248,0.6924,0.1997,-0.0859,0.0445
220,-0.654,0.425,0.6943,0.9936,0.2653,1.098
234,-0.6474,0.427,0.6902,0.963,0.0821,2.0598
247,-0.6432,0.4346,0.6948,0.3981,-0.4217,1.4644
260,-0.6403,0.4331,0.6909,-0.7011,-0.4675,0.014
301,-0.6466,0.4243,0.6916,-1.037,0.3264,-1.7417
314,-0.6496,0.4204,0.6892,-1.0828,0.418,-0.7188
327,-0.6471,0.4175,0.6919,0.8104,0.9218,0.7315
338,-0.6442,0.4224,0.6833,2.1233,1.3951,1.2201
352,-0.6488,0.427,0.6829,2.0165,1.1355,1.388
365,-0.6488,0.4299,0.6887,1.3447,1.0744,0.4415
405,-0.6479,0.4311,0.6909,0.963,0.6012,0.4567
419,-0.6447,0.4265,0.696,1.0088,0.4027,0.6094
432,-0.6408,0.4316,0.6992,1.4363,0.6775,1.6628
445,-0.6501,0.4302,0.6992,-0.3652,1.0744,2.5483
457,-0.6537,0.4348,0.6956,-2.0446,1.3645,3.8613
471,-0.6664,0.4338,0.6953,-9.4034,1.1355,3.617
512,-0.9125,0.4741,0.8318,7.8027,-36.2691,26.1056
525,-0.7218,0.521,0.7166,11.7416,-40.4217,37.617
538,-0.6098,0.5852,0.6291,6.7798,-38.8798,42.4415
551,-0.5448,0.6025,0.595,-3.3881,-30.9866,42.4567
564,-0.5412,0.6428,0.6172,-12.3347,-24.2233,43.4949
577,-0.5656,0.6101,0.6479,-22.0293,-15.2309,41.6323
618,-0.6493,0.5869,0.7449,-39.5866,-0.0248,32.5636
632,-0.6579,0.6177,0.7461,-40.6553,-2.0553,38.4567
644,-0.5883,0.5845,0.6824,-43.7698,0.7538,43.9529
657,-0.5627,0.5247,0.6689,-44.6095,5.9141,46.2735
670,-0.5761,0.4346,0.6497,-45.7545,13.2424,39.8002
683,-0.6083,0.3411,0.6943,-42.1515,16.5096,29.4644
724,-0.6369,0.2974,0.7173,-23.5408,25.8683,4.5331
737,-0.6669,0.3142,0.7185,-17.1744,22.9065,1.2048
750,-0.6652,0.343,0.7207,-14.3805,20.1126,-2.7494
763,-0.6318,0.3679,0.699,-9.9377,18.8149,-3.3143
776,-0.5912,0.3809,0.6331,-6.64,22.0057,-5.1616
789,-0.5976,0.4036,0.675,-5.9072,24.7691,-5.7417
830,-0.652,0.3633,0.5708,17.5737,6.1737,-4.4288
843,-0.6056,0.5452,0.8262,12.1997,3.3493,10.7163
856,-0.4345,0.3352,0.8093,5.7722,-1.9027,-4.1845
869,-0.6115,0.425,0.6926,14.4897,2.1737,-9.299
882,-0.6559,0.3955,0.791,13.9707,-3.3683,-13.0853
895,-0.487,0.1929,0.7637,25.1768,1.9447,-19.299
937,-0.6432,0.542,0.5596,13.3294,-9.0935,-18.4135
949,-0.7301,0.4565,0.5935,13.8027,-5.1393,-25.8181
962,-0.8717,0.5923,0.6938,17.4363,3.9599,-7.4059
975,-0.4347,0.5317,1.0508,2.4134,1.1966,-11.6654
988,-0.4704,0.52,0.6177,1.2684,-2.1469,-17.1921
1002,-0.4132,0.415,0.6782,-33.7698,-3.1698,-4.4746
1042,-0.7218,0.2603,0.7869,11.5584,-0.437,-13.8944
1055,-0.7162,0.4189,0.7205,0.3981,-5.4294,-17.4669
1068,-0.756,0.5933,0.4788,1.3447,-0.895,-9.7265
1081,-1.2636,0.8479,1.0515,36.3676,-3.9637,2.0445
1094,-0.5868,0.0347,0.8767,2.2149,-0.5439,-15.6196
1107,-0.9071,0.4878,0.5867,15.4516,0.3874,-13.6501
1148,-0.0805,0.3354,0.6401,-2.64,1.3035,-15.4059
1161,-0.527,0.426,0.7839,-1.0217,-7.5057,-7.8639
1174,-0.6388,0.6355,0.5986,-34.0599,-0.6049,-1.7265
1187,-0.5314,0.0498,0.4607,-33.7698,6.8302,-9.3143
1201,-0.7382,0.6138,0.5525,16.2913,4.5096,-2.7188
1213,-0.623,0.4641,0.7654,-10.7927,5.3645,13.327
1254,-0.6083,0.3606,0.7454,-1.5103,-1.7194,-7.1005
1267,-0.724,0.667,0.8018,-6.9606,-0.1317,6.93
1280,-0.6401,0.3704,0.551,-7.2049,-0.5286,-6.9478
1293,-0.6647,0.3972,0.6873,10.7493,4.6317,6.2583
1306,-0.6322,0.5476,0.7415,-14.7469,-4.208,-8.4135
1319,-0.6982,0.4927,0.6365,1.0546,0.8912,-0.0471
1360,-0.6647,0.4507,0.6699,-8.869,-9.4904,-9.7265
1373,-0.6776,0.4482,0.6394,-11.8461,-9.75,-11.2532
1387,-0.7089,0.4292,0.5916,-12.7469,-4.2996,-12.7646
1400,-0.7582,0.4492,0.5278,-14.9454,0.5706,-10.6578
1411,-0.5924,0.4402,0.9795,6.0317,5.2118,4.014
1425,-0.7216,0.4922,0.5718,18.902,9.1202,2.472
1466,-0.6772,0.6011,0.5579,14.7798,16.5859,7.9224
1479,-0.727,0.5156,0.6401,6.6577,9.4561,7.2812
1492,-0.7294,0.4382,0.5728,-2.4874,8.0668,0.3804
1505,-0.6484,0.5493,0.8596,30.5813,14.4027,7.3575
1518,-0.6574,0.4939,0.3557,7.9859,15.3951,6.9758
1532,-0.6642,0.4333,0.0837,-5.5866,25.7004,-5.757
1572,-0.7289,0.4136,0.3899,10.3065,13.6393,8.0598
1586,-0.569,0.1958,0.8745,-7.4645,14.0057,-4.5509
1599,-0.6847,0.4004,1.2544,20.8409,-1.3225,-7.8486
1611,-0.5946,0.3098,1.2717,7.131,17.2424,-0.8104
1624,-0.7804,0.8157,0.55,1.4974,6.0515,6.0445
1637,-0.5326,0.3447,0.7839,2.4897,13.2424,-2.0624
1678,-0.609,0.3142,0.6289,-4.4568,8.2195,-14.3524
1691,-0.6689,0.3945,0.502,8.963,11.9752,-7.8028
1704,-0.6332,0.3699,0.3342,2.8867,5.2424,-10.673
1718,-0.5409,0.509,0.822,4.2149,14.479,12.0293
1730,-0.4704,0.2664,1.3474,9.3905,-4.1469,2.4873
1743,-0.5588,0.3904,0.9854,7.421,1.5783,-5.528
1784,-0.4897,0.4431,1.1921,6.734,-3.9637,2.6247
1797,-0.5902,0.4106,0.9744,11.65,-2.6202,0.0293
1810,-0.6344,0.4404,0.7146,10.2302,-6.7576,-2.9784
1823,-0.5939,0.3838,0.7043,2.2455,0.7233,-1.6654
1836,-0.6545,0.4658,0.689,3.4821,-5.0324,-2.0471
1849,-0.6725,0.4346,0.6658,3.818,-1.2309,0.7621
1890,-0.6369,0.4492,0.7686,8.0317,-4.2385,14.8231
1904,-0.5973,0.4995,0.8564,12.734,-19.353,19.1285
1917,-0.7743,0.4573,0.6985,4.2913,-30.5439,9.2506
1929,-0.7538,0.5186,0.6953,3.4821,-33.6431,1.4186
1943,-0.6984,0.5452,0.7163,0.6577,-29.3072,4.5178
1955,-0.6591,0.5232,0.7351,0.2149,-27.1851,7.5102
1997,-0.5546,0.5439,0.6916,-3.3729,-15.8569,15.1438
2010,-0.5854,0.5481,0.6555,-16.1362,-13.2156,6.4567
2023,-0.6005,0.5691,0.6702,-21.7851,-9.0782,2.9453
2035,-0.6545,0.5193,0.6914,-26.6706,-7.521,2.4109
2048,-0.6762,0.4731,0.708,-22.182,-8.4523,3.2048
2061,-0.6742,0.4353,0.7166,-19.8919,-10.2843,3.7392
2102,-0.6449,0.4299,0.6604,-13.037,-8.2385,5.846
2116,-0.6181,0.4475,0.6431,-11.1896,-4.4065,5.2659
2128,-0.6242,0.438,0.6665,-12.5026,-0.8645,2.6094
2141,-0.6376,0.4236,0.6663,-13.4797,-0.2996,-0.7036
2154,-0.621,0.4436,0.6321,-13.0522,0.937,-3.5433
2168,-0.6088,0.4626,0.5859,-21.1438,7.5325,-6.2456
2208,-0.6872,0.4878,0.5808,-22.8232,28.3264,-5.6043
2222,-0.8483,0.4128,0.8318,-19.953,21.9752,-11.8486
2235,-0.8278,0.4861,0.5203,-2.0599,-6.7882,-26.4898
2247,-0.6523,0.4534,0.6316,2.4897,5.3951,-7.9555
2260,-0.654,0.3999,0.6526,-1.2813,-0.9103,-6.3677
2273,-0.6652,0.375,0.6619,-1.9225,-1.353,3.2201
2315,-0.4003,0.0449,0.364,-12.7774,10.1126,-27.8028
2327,-0.4396,-0.1941,0.415,-1.8309,3.1966,-37.7265
2340,-0.6227,-0.2134,0.6636,27.65,0.7538,-27.1311
2353,-0.7113,0.2561,0.5762,46.2607,4.7233,-30.5204
2366,-1.1794,0.0308,0.5112,41.6958,-3.6278,-23.0089
2380,-0.4716,0.2488,0.5093,27.192,1.563,-28.8104
2420,-0.4574,0.2754,0.1365,7.421,8.6622,-25.9097
2433,-0.8324,0.6074,0.6897,8.7493,6.3874,-9.2685
2447,-0.3424,0.2654,0.3689,-25.724,8.4027,-30.7341
2459,-0.6552,0.4109,0.6277,-1.6324,1.3035,8.0751
2472,-0.705,0.9219,0.7539,9.3905,-0.834,13.3422
2485,-0.6515,0.459,0.6838,-0.7622,1.7309,-7.0395
2525,-0.6515,0.4038,0.679,0.6119,-3.4904,0.8231
2539,-0.6481,0.4165,0.6792,1.8791,-4.4217,5.0064
2552,-0.6491,0.4246,0.6895,4.1233,-4.0706,6.4109
2565,-0.6491,0.4311,0.6887,2.5508,-2.4523,3.846
2578,-0.6479,0.4377,0.6873,0.6729,-0.895,-0.3982
2591,-0.6471,0.4292,0.6865,-0.7774,0.5706,-4.4135
2632,-0.6488,0.4138,0.6882,0.3523,-0.0553,-1.1311
2645,-0.6532,0.4116,0.6802,2.0928,-0.6813,2.0293
2658,-0.652,0.4165,0.6855,3.4363,-0.7882,3.9835
2671,-0.6471,0.4199,0.6833,3.5279,-0.7729,4.4415
2684,-0.6479,0.4226,0.6873,3.9249,-0.0706,3.7697
2697,-0.6493,0.4321,0.688,4.4745,0.876,2.2888
2738,-0.6508,0.4202,0.6853,1.3447,-0.3912,-1.0547
2751,-0.6515,0.426,0.6846,-0.6248,-1.5515,-0.5967
2765,-0.6503,0.4228,0.6826,-1.1438,-2.6507,0.0598
2777,-0.6513,0.427,0.686,-1.6019,-2.5133,0.243
2790,-0.6457,0.4277,0.6877,-1.3881,-1.7347,0.1972
2803,-0.6493,0.428,0.6892,0.734,-1.1698,0.6094
2844,-0.6474,0.4355,0.6848,1.2378,-0.4523,-0.9784
2857,-0.6508,0.4316,0.6853,-1.3576,-2.1622,-2.0776
2870,-0.652,0.4238,0.6909,-2.0141,-3.124,-2.3066
2883,-0.6496,0.4228,0.6895,-2.3805,-3.2462,-1.7875
2896,-0.6493,0.4141,0.687,-2.7164,-2.7271,-0.6578
2909,-0.6476,0.4172,0.6882,-1.4492,-1.063,0.5025
2950,-0.6464,0.426,0.6868,2.1081,0.9065,2.7468
2963,-0.6459,0.4272,0.6946,1.3752,0.1584,1.9987
2976,-0.6437,0.4316,0.6929,0.0775,-1.2156,1.1132
2989,-0.6471,0.4346,0.6929,-1.7545,-1.8569,-1.0853
3002,-0.6464,0.429,0.6956,-3.3118,-1.7347,-1.9555
3015,-0.6464,0.4263,0.6812,-4.7316,-1.2614,-2.3372
3056,-0.6493,0.4199,0.6873,-1.0217,0.3874,-0.3982
3069,-0.6471,0.4221,0.688,0.0317,1.0592,0.243
3082,-0.6457,0.429,0.6916,-0.3042,1.3035,0.0293
3095,-0.6454,0.428,0.6897,-0.6095,0.647,-0.2608
3107,-0.6444,0.4216,0.6919,-1.6629,-0.0553,-0.6578
3120,-0.6422,0.4165,0.6904,-1.6171,-0.4523,-0.3066
3162,-0.6474,0.4199,0.6887,-0.1209,-0.3759,0.3193
3174,-0.6469,0.4209,0.6848,0.9172,-0.2691,0.1056
3186,-0.6481,0.4216,0.6846,0.505,-0.1622,-0.5356
3198,-0.6444,0.4228,0.6873,0.3829,-0.0859,-0.8868
3210,-0.6474,0.4226,0.6853,-0.0751,-0.2843,-0.9173
3222,-0.6459,0.4175,0.6907,-0.1209,-0.3149,0.1209
3263,-0.6449,0.4216,0.689,0.8104,0.3722,0.5789
3276,-0.6462,0.4221,0.6912,0.5355,0.4638,0.472
3288,-0.6503,0.4214,0.6919,0.6729,-0.2233,0.5178
3301,-0.6564,0.4243,0.6851,0.2913,-0.1011,-0.4135
3313,-0.6425,0.426,0.6919,0.047,-0.208,-0.444
3325,-0.6447,0.4233,0.6895,-0.1209,-0.3607,-0.9478
3366,-0.6488,0.4211,0.6875,-1.1591,0.8607,-0.0165
3379,-0.6452,0.417,0.689,-0.2431,0.5554,0.7621
3391,-0.6484,0.4219,0.6877,-0.3652,0.0973,0.2735
3404,-0.6479,0.4221,0.6885,-1.037,-0.8492,-0.215
3416,-0.6449,0.4187,0.6848,-1.6935,-1.2767,-0.2761
3429,-0.6459,0.4214,0.6907,-1.8919,-1.353,-0.3677
3470,-0.6444,0.4221,0.6938,0.3218,0.9523,-0.1082
3483,-0.6437,0.4163,0.6924,0.8714,0.9065,0.0293
3495,-0.6452,0.4199,0.6931,0.9172,0.9523,0.2888
3507,-0.6457,0.4197,0.6892,0.0775,0.5096,0.7468
3519,-0.6464,0.4177,0.6914,0.505,0.4943,1.2964
3531,-0.6481,0.4209,0.6914,1.5126,0.1279,2.0445
3573,-0.6515,0.4224,0.6914,0.0928,0.1126,-0.154
3587,-0.6501,0.4241,0.6941,-1.3576,-0.1469,-0.8104
3599,-0.6486,0.4265,0.6853,-2.1057,-0.2843,-0.7188
3612,-0.6457,0.4202,0.6863,-0.8538,-0.2233,-1.1005
3625,-0.6469,0.4216,0.6909,-0.6248,-0.1622,-1.07
3638,-0.6435,0.4207,0.6897,-0.411,-0.5744,-0.5662
3679,-0.6425,0.4185,0.6882,-1.2355,0.6775,-0.7952
3692,-0.6493,0.4187,0.6895,-1.0522,0.2958,-0.383
3705,-0.6464,0.4226,0.6924,-0.4721,-0.0095,-0.4746
3716,-0.6462,0.4236,0.6929,0.2607,0.0668,-0.2303
