time_ms,ax,ay,az,gx,gy,gz
9,-0.734,0.3273,0.544,1.7701,-0.0388,2.3263
22,-0.7296,0.3302,0.5352,0.8388,-0.3595,-0.1165
34,-0.7342,0.3251,0.5401,0.9304,-0.4205,-1.1089
47,-0.7364,0.3253,0.5406,1.2358,-0.619,0.1889
88,-0.7452,0.3138,0.5399,2.5487,-3.7946,8.998
101,-0.7428,0.3368,0.5404,0.6251,-5.1686,10.7537
115,-0.7906,0.4073,0.4666,-10.5352,-0.2678,7.9751
127,-0.8602,0.4706,0.5977,-15.7413,29.2283,14.7995
140,-0.9642,0.3863,0.7413,-7.0849,-24.0694,22.8301
153,-0.8011,0.462,0.5172,0.3655,-32.4053,33.1507
194,-0.5726,0.339,0.4676,3.9075,-0.0694,47.1812
207,-0.63,0.412,0.5294,-13.0085,16.4497,30.998
220,-0.7005,0.4918,0.5858,-29.4207,22.0833,24.4026
233,-0.6971,0.5211,0.5445,-43.1307,27.5795,26.311
246,-0.6908,0.3624,0.5396,-41.0543,34.6787,26.2347
259,-0.6791,0.2504,0.4803,-41.4207,38.4039,15.7308
300,-0.7777,0.1651,0.4334,-20.8253,9.0604,-21.6127
313,-0.7372,0.284,0.4835,-22.1536,7.9612,-21.5363
327,-0.7665,0.3465,0.4981,-17.1612,5.7016,-11.1241
339,-0.7477,0.3566,0.502,-19.0696,5.6558,-8.5592
352,-0.7474,0.3329,0.5201,-16.6116,3.5489,-9.6585
366,-0.7616,0.3417,0.5274,-10.581,-0.7564,-10.8493
406,-0.3844,-0.0839,1.3536,-8.749,-43.0617,-18.2081
419,-0.4701,0.3346,1.2059,8.5335,-58.6037,-12.9562
433,0.3485,-0.9474,0.4149,-72.0772,-66.7411,-56.4676
445,-0.1739,-0.2887,0.721,-5.8787,-69.306,-40.6814
458,-0.5934,0.4444,0.4596,-6.4436,-78.3747,-42.8188
471,-0.5758,0.1305,0.4454,-13.9551,-56.6495,-47.6737
512,-0.9525,-0.1183,-0.2614,85.8312,-26.1762,-20.2997
525,-1.0838,0.5001,0.4134,49.3121,-19.535,-6.4676
538,-0.8273,0.6422,0.8492,43.7243,-14.3595,1.8224
551,-0.763,0.1222,0.314,44.3655,-10.3747,-17.918
564,-0.5104,0.4523,0.776,35.251,1.2741,-19.8569
578,-0.8138,0.5008,0.6763,28.8235,-12.222,-4.086
618,-0.6871,0.2867,0.9056,-64.0009,30.3428,-40.7577
632,-0.7223,0.569,0.6512,-34.3673,49.7016,-10.834
645,-0.6598,0.162,1.0277,-34.0162,59.2589,-2.5134
657,-0.6664,0.0265,0.5006,33.2968,67.0146,8.4484
670,-0.6876,0.4442,-0.4272,34.2281,88.2207,15.395
683,-0.7477,0.1971,1.0167,23.4037,52.8619,22.2805
724,-0.3385,-0.1159,0.7447,0.0602,62.1138,6.0056
737,-0.5958,0.3248,0.6556,40.0602,48.8314,19.0896
750,-0.827,0.5165,0.5479,27.4495,62.6024,29.6698
763,-0.4159,-0.1515,1.1844,14.6556,61.1215,-0.8188
776,-0.8158,0.4293,-0.0175,53.4495,21.0604,5.5171
789,-0.7528,0.1688,-0.2402,20.7014,47.9306,9.3644
830,-0.7601,0.3102,0.4979,0.1976,0.526,4.5095
843,-0.7565,0.3324,0.4993,4.1518,1.5184,7.5171
856,-0.7633,0.3407,0.4935,1.1747,2.6482,8.998
869,-0.7689,0.3456,0.4849,-1.8482,1.1215,12.0515
882,-0.7665,0.3526,0.4867,-12.4284,-0.2984,11.4102
895,-0.7687,0.3304,0.4859,-22.5047,-2.4511,11.9904
937,-1.0336,0.3902,0.6197,-51.665,-60.7869,16.9522
950,-0.9313,0.413,0.6051,-34.6421,-78.8327,7.6698
962,-0.7162,0.4371,0.526,-30.81,-76.8327,12.5247
975,-0.5755,0.4786,0.4674,-37.8024,-67.6724,10.311
988,-0.5428,0.433,0.5023,-47.9551,-52.1915,14.8606
1001,-0.5094,0.4693,0.39,-48.3978,-33.8251,21.0286
1043,-0.6044,0.2599,0.358,-57.436,39.7474,17.4102
1056,-1.8509,-1.4179,2.1738,-125.375,42.9993,-45.5211
1069,-1.0172,-0.4059,0.0848,-76.9932,-5.3518,-19.2005
1081,-0.723,0.0968,0.4752,26.3655,8.7551,-0.1012
1094,-0.735,0.2618,0.5123,40.0144,-4.619,25.2881
1107,-0.6822,0.026,0.3787,53.5258,-13.8862,25.9446
1148,-0.43,0.7701,0.4193,37.0831,1.9764,-25.5211
1162,-0.693,0.2167,0.3455,38.3503,12.0986,-29.4447
1175,-0.9501,1.4584,1.293,57.6022,9.3047,-25.3531
1188,-0.3978,0.8522,0.7813,35.0831,-12.4816,-22.2386
1200,-1.1385,1.2594,0.534,32.0907,9.5489,8.8606
1213,-0.7867,0.7565,0.536,-3.665,4.3734,-8.9104
1254,-0.764,0.3541,0.5333,34.106,-1.3366,-3.5211
1267,-0.7208,0.284,0.5267,6.106,-0.8175,0.082
1280,-0.734,0.3182,0.536,7.2816,-3.6419,6.0973
1294,-0.7279,0.3277,0.5506,2.335,-3.8862,5.624
1306,-0.7311,0.338,0.5533,-0.4589,-3.0617,3.3186
1319,-0.7284,0.3339,0.5506,-3.1917,-0.7259,-1.6737
1360,-0.7286,0.3138,0.5477,-2.6268,1.6405,-6.9714
1373,-0.7237,0.307,0.5372,-2.5658,1.2436,-6.315
1386,-0.7286,0.3031,0.5384,2.5945,0.8009,-3.0936
1400,-0.7306,0.3131,0.5472,-1.3139,1.2894,-1.46
1412,-0.7281,0.308,0.5421,-0.1383,0.9993,1.5018
1425,-0.7264,0.3319,0.5489,-3.1765,0.3276,1.2881
1466,-0.7237,0.2984,0.5294,-4.9169,3.2436,-5.0325
1480,-0.733,0.3036,0.5352,1.877,-0.2373,-0.5134
1492,-0.7291,0.319,0.5462,0.793,-0.0999,-0.8951
1505,-0.7333,0.3058,0.5413,1.1747,0.4802,-1.5516
1518,-0.7289,0.3175,0.5433,1.0067,0.4344,-1.918
1531,-0.7274,0.3063,0.5438,-0.8558,0.8161,-2.0249
1572,-0.7245,0.3126,0.5504,-6.4131,1.7474,-1.3073
1585,-0.7269,0.306,0.5406,-5.665,3.1825,-2.2539
1598,-0.7316,0.3053,0.5367,-5.6345,3.4421,-2.544
1611,-0.733,0.3031,0.5325,-4.3062,2.0222,-2.4371
1625,-0.7262,0.3068,0.5355,-2.0925,0.2665,-2.1165
1638,-0.7235,0.306,0.536,-4.978,-0.1915,-3.6279
1678,-0.7269,0.305,0.5352,2.106,-0.4511,-0.6356
1692,-0.7274,0.3119,0.536,-0.6116,-0.8175,-1.6127
1705,-0.7237,0.3041,0.5394,-2.0314,-0.4511,-2.2234
1717,-0.7228,0.2965,0.5367,-1.8635,0.1596,-1.9944
1730,-0.7291,0.2977,0.5343,-0.062,0.1596,-0.4066
1743,-0.7262,0.2999,0.5323,0.5487,0.2665,-0.6356
1784,-0.7296,0.3033,0.5347,1.2052,-0.4053,1.0591
1797,-0.7247,0.2941,0.5404,3.1594,-0.6343,1.7156
1810,-0.722,0.3036,0.5379,2.7625,0.0528,1.2118
1823,-0.7279,0.3033,0.5406,2.3045,0.9077,1.2118
1836,-0.7279,0.305,0.5423,1.2968,1.6253,1.0896
1849,-0.7294,0.3092,0.5384,0.3961,1.8543,0.8759
1891,-0.7311,0.3097,0.5372,0.1365,1.1215,-0.2692
1903,-0.7291,0.3028,0.5318,1.7701,0.4344,-0.2386
1916,-0.7308,0.3053,0.534,1.6785,-0.4663,-0.0249
1930,-0.7228,0.3024,0.5333,2.3655,-1.0159,-0.0402
1942,-0.7259,0.305,0.5355,0.6556,-1.077,-0.5898
1955,-0.7274,0.3302,0.5423,-1.3444,-1.3824,-1.1241
1996,-0.7279,0.3072,0.5445,-1.0238,-1.2602,-1.9333
2010,-0.7225,0.3006,0.5382,-0.2604,-0.8938,-1.5211
2022,-0.7259,0.3004,0.5409,1.1442,-0.1457,-0.3455
2035,-0.7262,0.3038,0.5399,0.4113,0.8925,0.1736
2047,-0.7247,0.3024,0.536,-0.352,1.3047,0.8453
2060,-0.7262,0.3092,0.5316,-2.0314,0.7703,0.769
2101,-0.7252,0.3092,0.5301,-0.8558,1.0299,-1.0936
2114,-0.7301,0.3004,0.5379,-1.436,0.8925,-2.1318
2127,-0.7262,0.305,0.5352,0.1213,0.5413,-2.0402
2140,-0.7279,0.2963,0.5416,-0.1994,0.6176,-1.1852
2153,-0.7225,0.2967,0.5352,0.5793,0.1444,-0.2692
2166,-0.7328,0.3031,0.5394,0.5335,-0.39,0.0973
2207,-0.7262,0.3041,0.5374,-2.6421,-0.0236,-1.5211
2221,-0.7296,0.2977,0.5369,-3.207,0.1902,-2.2539
2233,-0.7264,0.295,0.5333,-0.1688,-0.5121,-1.7195
2246,-0.7298,0.2921,0.5399,1.4037,-1.0007,-0.147
2259,-0.7267,0.3006,0.5391,0.6251,-0.2831,-0.6508
2272,-0.7281,0.3021,0.5399,-1.8177,0.5566,-1.1699
2314,-0.7242,0.2911,0.5274,-5.0543,1.1367,-1.7501
2326,-0.7296,0.2865,0.5406,0.4113,0.2818,0.2805
2337,-0.7203,0.3024,0.5343,0.6709,0.4192,0.2347
2350,-0.7252,0.3036,0.5387,-0.1078,0.5718,-0.9256
2362,-0.7284,0.3002,0.5352,2.1213,-0.39,-0.7882
2375,-0.722,0.296,0.533,1.6785,-0.6343,-1.1394
2416,-0.7276,0.2941,0.5394,1.3579,-0.4816,-0.1165
2429,-0.7294,0.296,0.5401,1.0525,-1.1381,0.3721
2443,-0.7252,0.2953,0.5372,0.1365,-1.1839,1.0438
2455,-0.7257,0.2897,0.5284,1.4648,-1.2907,2.082
2468,-0.7245,0.3026,0.5391,0.3961,-0.7259,2.1431
2481,-0.7237,0.2958,0.5389,-0.0925,-0.3136,2.0056
2522,-0.7281,0.2967,0.5377,2.6098,0.7703,1.9904
2535,-0.7257,0.306,0.5311,1.4342,0.297,1.3797
2548,-0.7289,0.3016,0.5308,0.0602,0.297,0.2805
2560,-0.7264,0.3002,0.5409,0.1365,-0.619,0.4026
2573,-0.7257,0.2977,0.5347,1.7548,-1.4129,1.2881
2586,-0.7252,0.3004,0.5301,2.5335,-1.1839,1.1812
2627,-0.7286,0.2989,0.5416,-0.7795,-0.5274,-0.7119
2640,-0.725,0.3002,0.535,-0.0162,-1.5656,0.5553
2653,-0.7308,0.2977,0.5433,0.0296,-1.3824,1.3186
2666,-0.7296,0.3009,0.5369,0.4877,-0.8327,1.3034
2679,-0.7245,0.2972,0.5428,0.5335,-0.3289,1.166
2692,-0.7274,0.3055,0.5433,0.8846,0.0222,1.1202
2732,-0.7281,0.3024,0.5391,0.4571,1.4573,0.8453
2746,-0.7301,0.3009,0.5413,-0.1078,1.5031,1.1354
2759,-0.7252,0.3026,0.5367,0.5487,0.6024,1.1965
2772,-0.7286,0.3065,0.5389,-0.9016,0.4802,0.6316
2784,-0.7262,0.3072,0.534,-1.8482,0.2054,-0.3302
2797,-0.7303,0.3024,0.5384,-0.9475,0.0375,-0.7577
2838,-0.7296,0.2987,0.5355,-0.2604,-1.4129,-0.8646
2851,-0.7245,0.3004,0.5367,2.3655,-1.5198,1.1049
2864,-0.7298,0.3014,0.5426,4.0907,-1.2907,2.2652
2877,-0.7235,0.3019,0.5413,4.7777,-0.5427,2.4484
2890,-0.7311,0.3068,0.5396,2.5182,0.3428,1.9904
2903,-0.7303,0.3114,0.5411,0.5487,0.9077,0.54
2944,-0.7264,0.3011,0.5306,1.3426,-0.0999,1.0591
2957,-0.7237,0.3019,0.5355,2.106,-0.6495,1.9751
2970,-0.7267,0.3031,0.5462,3.022,-0.3289,2.5705
2983,-0.7252,0.3094,0.5426,2.8541,-0.0388,2.3568
2996,-0.7276,0.3138,0.5411,1.1289,0.236,1.0896
3009,-0.7274,0.3109,0.5345,-0.8406,0.4802,-0.5592
3050,-0.7272,0.3089,0.5372,-6.3062,-0.0999,-3.0325
3063,-0.7262,0.2987,0.5369,-5.0085,-0.2984,-1.8264
3076,-0.7298,0.2955,0.5433,-1.3139,-1.1381,0.7232
3089,-0.7252,0.306,0.5426,-0.2757,-0.848,1.0438
3102,-0.7289,0.305,0.5433,-0.749,-0.3289,0.311
3115,-0.7264,0.3036,0.5365,-0.6268,0.7856,-1.1089
3156,-0.7281,0.3028,0.535,0.6403,1.2436,0.3721
3169,-0.7284,0.3055,0.5338,1.2816,1.0757,0.8453
3182,-0.7235,0.3068,0.5343,0.0449,1.3352,0.4637
3195,-0.725,0.3046,0.5311,-0.6574,1.0146,-0.9104
3208,-0.7308,0.3004,0.5357,0.4724,-0.0694,-0.086
3221,-0.7269,0.3038,0.5391,0.9151,-0.4663,0.6011
3262,-0.7262,0.3016,0.5394,-1.1001,0.4344,-0.9867
3275,-0.7264,0.2965,0.5411,-1.0543,0.5108,-0.8646
3288,-0.7269,0.2999,0.5318,2.1365,0.068,0.2652
3301,-0.7289,0.3014,0.533,2.0754,-0.8327,1.7461
3314,-0.7267,0.3131,0.5396,0.9151,-1.3366,1.8835
3327,-0.725,0.3102,0.5391,-1.3139,-0.3747,-0.147
3368,-0.7279,0.3004,0.5394,-1.6192,0.5413,-1.0173
3381,-0.7289,0.2977,0.5308,1.022,-0.2068,1.2423
3394,-0.7308,0.2994,0.5313,1.877,-0.9701,2.8606
3408,-0.7274,0.3065,0.5399,1.7701,-1.0617,2.2041
3420,-0.7267,0.308,0.5406,1.709,-0.5885,1.0744
3433,-0.7281,0.3124,0.5391,0.4877,0.6024,-1.9027
3474,-0.7325,0.2938,0.536,-0.3673,0.923,-0.8646
3487,-0.7267,0.298,0.5335,1.709,-0.3595,1.4255
3500,-0.7291,0.3053,0.5374,3.0373,-1.5503,2.7843
3513,-0.7298,0.3053,0.5389,3.3732,-1.1991,2.0209
3526,-0.723,0.3075,0.5328,1.5716,-0.4358,0.1278
3539,-0.7279,0.306,0.5362,-0.0162,0.6482,-1.9791
3580,-0.7303,0.2963,0.5384,-0.4589,-0.7259,1.227
3593,-0.7284,0.3004,0.5372,0.2892,-0.3595,2.6011
3606,-0.7215,0.3043,0.5399,0.7167,0.3428,2.3568
3619,-0.7235,0.3046,0.536,0.7625,1.0604,1.0591
3632,-0.7303,0.3021,0.5335,0.7625,1.0299,0.4637
3645,-0.7294,0.3006,0.5389,1.0678,0.4192,-0.2234
3687,-0.724,0.3043,0.5325,-0.8558,-0.0541,-1.8264
3699,-0.7281,0.3026,0.5372,-0.3062,-0.3442,-1.9638
3712,-0.7289,0.2963,0.5333,0.9762,-1.0923,-0.605
3725,-0.7237,0.3021,0.534,-0.123,-1.2449,0.2041
3738,-0.7281,0.3028,0.5404,1.938,-1.3824,1.8682
3751,-0.7264,0.3026,0.5435,1.3426,-0.2373,1.8224
3792,-0.7262,0.3065,0.5382,-0.7948,0.5413,-0.4218
