time_ms,ax,ay,az,gx,gy,gz
13,-0.7521,0.4479,0.5687,-0.352,0.3276,-1.7195
26,-0.7523,0.4462,0.5658,0.5029,-0.0083,-0.3913
39,-0.7496,0.4484,0.565,1.0678,-0.5121,0.7995
52,-0.7479,0.4579,0.5653,0.4113,-0.4816,0.9675
92,-0.7447,0.4493,0.5692,0.7319,0.8009,0.4942
105,-0.7482,0.4532,0.565,0.7625,1.0146,0.4789
118,-0.7508,0.4527,0.5682,1.48,0.0375,0.8911
132,-0.7521,0.4542,0.5697,1.419,-0.6495,1.0286
145,-0.7464,0.4562,0.5662,1.0373,-0.6953,1.0438
158,-0.7525,0.4562,0.5692,-0.3368,-0.7259,-0.1776
199,-0.7494,0.4505,0.5636,0.2892,-0.0999,0.8301
211,-0.7491,0.4476,0.5745,-0.0009,0.3886,0.7232
223,-0.7508,0.4505,0.5704,0.5487,0.2818,1.3186
236,-0.7489,0.4488,0.5701,1.6327,0.4039,2.8453
250,-0.7464,0.4596,0.5684,2.1671,0.1291,2.998
263,-0.7501,0.4598,0.5699,1.3274,0.1902,2.0515
304,-0.7525,0.4574,0.5741,0.3961,-0.222,-0.2386
317,-0.7506,0.4532,0.5714,1.1594,-0.3289,1.1354
330,-0.744,0.4545,0.5745,2.5487,-0.4205,2.0515
342,-0.7477,0.4574,0.568,2.7014,-0.222,2.6621
355,-0.7494,0.462,0.5806,1.5564,0.3276,1.456
368,-0.7538,0.4628,0.568,0.7625,1.1215,0.4942
410,-0.7589,0.4381,0.5694,9.7854,-2.3747,9.3186
423,-0.7579,0.4886,0.5765,11.5106,-5.5656,13.1812
436,-0.7469,0.5148,0.5772,10.6556,-8.4816,16.4484
448,-0.819,0.6214,0.5118,-6.9475,-4.39,14.8301
463,-0.9657,0.7714,0.495,-12.7032,23.4573,25.2728
476,-1.2464,0.5272,1.0181,-22.5352,-37.0159,35.9598
516,-0.556,0.4647,0.3121,16.0296,-8.4205,40.4637
529,-0.5624,0.5494,0.4957,4.3045,14.2818,28.4179
542,-0.5795,0.649,0.5501,-9.2223,26.9077,33.0896
555,-0.5585,0.7323,0.534,-17.1459,36.1138,40.3568
568,-0.5091,0.7518,0.5267,-24.9016,50.4039,53.4866
581,-0.5216,0.6195,0.5616,-37.3444,61.3199,56.9827
622,-0.7301,0.4164,0.5711,-47.9551,74.2054,11.9293
635,-0.7672,0.3075,0.6002,-46.7337,67.9001,-3.9944
648,-0.8319,0.3424,0.6305,-47.665,59.7322,-19.4905
661,-0.8578,0.1207,0.421,-34.7337,12.1596,-32.6203
674,-0.7525,0.4479,0.4405,1.5869,12.7856,-2.9409
687,-0.7853,0.5189,0.4849,5.9075,7.4115,12.2347
728,-0.785,0.5358,0.4954,21.8312,1.381,29.0133
741,-0.7718,0.5321,0.5267,21.7396,2.0222,23.8682
754,-0.9557,0.6178,-0.0055,4.4877,-21.5045,4.1125
768,-0.4281,-0.2628,1.8617,-37.4818,-26.4816,-25.4447
781,-0.3761,0.4335,1.4742,-56.8711,-71.7335,-101.246
793,0.3139,0.255,2.1722,-66.3368,-88.0541,-69.4142
834,-1.6102,0.7206,1.0941,16.6403,-82.9854,-46.9867
848,-0.3253,-0.2933,0.3248,-18.1841,-73.2449,-54.8188
860,-0.5316,0.0829,0.9029,-0.2146,-61.2907,-17.6432
873,-1.0138,1.058,0.0018,-12.062,-61.6572,1.7156
886,-0.6341,0.7005,0.9176,15.1289,-55.4282,6.1125
899,-0.8439,-0.0263,0.3919,-22.3368,-31.2907,-26.1776
940,-0.7792,0.4076,0.7828,2.4571,-11.4434,-35.5211
953,-0.5411,0.3365,0.4215,-26.2604,-3.1991,-31.7959
966,-0.8353,0.6617,0.5052,-1.3902,-0.9091,-20.086
979,-0.5936,0.3089,0.7896,-13.2833,4.9688,-12.3608
992,-0.7555,0.3592,0.5738,25.19,3.3657,5.9598
1004,-0.7171,0.4237,0.6341,17.2663,5.0604,3.9598
1046,-0.775,0.5145,0.5567,-60.3062,6.4497,-24.315
1059,-0.6283,0.4015,0.9083,6.9304,22.923,-17.0783
1072,-0.4776,0.0707,1.3209,10.1671,34.5871,-19.6127
1085,-0.8194,0.277,0.4691,72.4724,47.0451,-3.7043
1098,-0.8014,0.9994,0.8953,87.0068,57.3199,8.4179
1112,-1.0301,0.5419,-1.0734,65.8312,87.381,-10.9256
1152,-1.0409,-0.1657,0.2804,55.4648,95.778,2.0209
1165,-0.693,0.8978,2.0411,79.5258,83.8085,5.853
1178,-0.8043,0.2355,0.6107,50.6861,60.6482,8.082
1192,-0.6781,0.8019,2.1738,71.7854,52.465,20.9064
1204,-0.7589,0.0206,0.8287,91.5258,57.7627,12.0973
1217,-0.7711,-0.2807,1.5819,-18.9016,53.1215,-0.0096
1258,-0.6634,0.7948,2.1632,8.0144,30.9535,6.1278
1271,-0.6454,0.6691,0.8326,10.8846,7.8696,13.0286
1284,-0.7945,0.5677,0.4339,2.2587,-19.0312,1.4866
1297,-0.7445,0.4171,0.4796,-24.1841,-3.0312,2.8148
1310,-0.763,0.6561,1.0882,9.8617,14.3276,3.914
1323,-0.7203,0.5568,0.8096,-8.7337,4.6482,1.624
1364,-0.7899,0.5338,0.471,-2.8711,3.9917,2.1583
1377,-0.7914,0.5397,0.4637,-4.5658,4.9535,1.1202
1389,-0.7887,0.5404,0.4586,-5.7413,5.2436,0.1125
1403,-0.7941,0.5355,0.4583,-7.4818,3.839,-0.4371
1416,-0.7982,0.5253,0.4613,-5.9856,2.4955,1.1049
1429,-0.7975,0.5306,0.4583,-3.665,0.1444,2.8911
1470,-0.795,0.5543,0.4637,-6.4742,-13.3518,1.9293
1483,-0.7826,0.5362,0.4737,-14.2757,-14.6953,4.2194
1496,-0.7606,0.5692,0.6981,-23.0391,-28.5274,4.2194
1509,-1.0275,0.7059,0.7493,-34.9169,-42.2984,10.1889
1523,-1.1595,0.6483,0.8121,-38.7337,-78.9396,25.3339
1535,-0.9205,0.6395,0.5741,-39.8329,-101.627,26.0667
1576,-0.5802,0.7357,0.5111,-70.6879,-54.5121,29.853
1589,-0.6107,0.5943,0.5199,-74.2757,-41.9625,29.8682
1602,-0.6534,0.5399,0.4808,-67.6955,-28.6648,24.8453
1615,-0.6893,0.4713,0.6663,-63.0543,-19.8404,15.9598
1628,-0.7572,0.5506,0.5257,-54.5352,-14.2984,11.4713
1641,-0.7106,0.483,0.4842,-52.8406,-9.5808,7.7919
1682,-0.6236,0.2755,0.3885,-37.7413,55.6558,-2.4982
1695,-0.7555,0.3273,0.5242,-27.4818,61.9917,-11.6432
1708,-1.0997,0.4247,0.8883,-29.6803,42.5413,-16.3302
1722,-0.984,0.5028,0.3304,-11.1459,-16.4358,-15.9027
1733,-0.787,0.4901,0.5282,-0.2299,3.381,3.227
1747,-0.753,0.4891,0.5733,3.6174,-8.8785,6.6469
1788,-0.6246,-0.0995,0.5189,26.2587,-6.3747,-13.1241
1802,-0.6354,-0.4667,0.5208,24.9762,-13.3365,-1.5974
1814,-1.0355,0.9996,-0.5922,77.9228,4.9688,-13.9638
1827,-0.6327,1.6239,0.6165,68.6098,3.9917,-43.0936
1840,-1.1913,0.4293,0.013,151.908,15.2741,-41.5821
1853,-0.2523,0.6341,0.7274,118.03,5.7169,-66.6356
1894,-1.1983,0.6341,1.2296,99.2205,11.1062,-33.8569
1907,-0.7171,0.7303,0.4691,67.3426,-16.39,68.6469
1920,-0.7491,0.6246,0.5531,12.2129,3.2741,12.4942
1933,-0.7618,0.5897,0.5706,5.2816,7.0757,-19.231
1946,-0.7516,0.5716,0.5662,-15.1917,10.3886,-41.7348
1959,-0.7616,0.5204,0.5521,-23.4207,10.3581,-44.0402
2000,-0.7638,0.4657,0.5506,10.7625,-2.4053,11.8377
2013,-0.7611,0.5145,0.5567,17.0525,-4.161,20.998
2026,-0.7577,0.547,0.5643,9.9686,-3.4892,15.1354
2039,-0.7584,0.556,0.5572,-1.0543,-0.1762,1.9293
2052,-0.7587,0.5404,0.5633,-7.1917,1.5337,-9.2768
2065,-0.763,0.5235,0.5582,-7.5734,2.3886,-13.5058
2106,-0.7591,0.5001,0.5496,-0.4589,1.5337,-0.1012
2119,-0.7638,0.5035,0.5516,2.335,0.3581,3.9293
2132,-0.767,0.5167,0.5555,2.8083,-0.1457,5.4408
2145,-0.7645,0.5279,0.554,-1.5276,0.297,1.7919
2158,-0.7582,0.534,0.5509,-4.4284,0.4497,-1.4905
2170,-0.7608,0.5194,0.5555,-4.5658,0.5871,-3.7501
2212,-0.7616,0.5126,0.5575,-2.1994,-0.7869,-2.2386
2225,-0.7599,0.5074,0.5528,-2.5505,-0.848,-1.2005
2237,-0.7594,0.5172,0.5616,-4.9169,-0.161,-1.4142
2251,-0.7608,0.5018,0.5575,-4.4284,0.694,-0.315
2264,-0.7599,0.5111,0.5618,-1.8635,1.4268,1.1812
2277,-0.7618,0.5055,0.5477,-1.1307,1.4268,1.1812
2317,-0.7587,0.5145,0.5523,-4.0772,1.4421,-3.5974
2331,-0.7643,0.4916,0.5472,-2.581,0.4497,-3.002
2344,-0.7635,0.4957,0.5528,1.3579,-0.9854,1.1354
2357,-0.7613,0.5013,0.5596,0.106,-0.4511,1.9598
2370,-0.7633,0.506,0.5526,-0.7795,0.5871,1.0744
2382,-0.7601,0.5101,0.5548,-3.4055,1.5489,-1.1241
2424,-0.7579,0.5094,0.5516,-7.8177,-0.848,-8.1165
2437,-0.7621,0.5018,0.554,-5.1307,-0.6648,-6.9409
2450,-0.7604,0.5035,0.5614,-5.3902,0.5871,-6.4371
2462,-0.7587,0.4911,0.5526,-4.8253,0.9993,-5.7806
2475,-0.7604,0.4899,0.5548,-2.6268,0.8467,-3.7501
2489,-0.7579,0.4933,0.5504,-0.1383,-0.0388,-0.2081
2530,-0.7635,0.5028,0.5543,2.0602,-0.619,3.4408
2543,-0.7626,0.5055,0.5492,-0.4436,-0.9549,0.8606
2555,-0.7599,0.4991,0.5443,-1.7413,-0.9396,-0.8188
2568,-0.7596,0.4935,0.5494,-4.0467,-0.1304,-2.1165
2581,-0.7618,0.4928,0.5528,-1.6039,-0.0236,-1.2921
2594,-0.7618,0.4972,0.5579,0.0602,-0.5732,-0.1928
2634,-0.7618,0.4972,0.5445,-0.9169,0.7703,0.5095
2648,-0.7611,0.4969,0.5582,-1.0238,1.7474,0.6011
2661,-0.7633,0.504,0.5511,-1.9246,1.61,-0.0249
2674,-0.7623,0.493,0.5496,-0.52,0.8772,0.0667
2686,-0.7604,0.4947,0.5504,2.0754,0.3276,0.6316
2698,-0.764,0.5001,0.5523,0.3808,0.3123,-0.8646
2740,-0.7616,0.4989,0.555,-1.3749,-0.5579,-1.8722
2753,-0.763,0.496,0.5526,-2.9627,-0.5121,-2.9714
2766,-0.7608,0.4838,0.5452,-1.5581,-0.6648,-2.7272
2778,-0.7643,0.4925,0.5535,0.0296,-0.2526,-1.5211
2792,-0.7613,0.4969,0.5479,-0.123,0.3123,-1.2615
2805,-0.7611,0.4891,0.5499,0.6709,0.0375,-0.0402
2845,-0.7616,0.4938,0.5448,1.4037,-0.3136,2.3415
2858,-0.7652,0.4969,0.5562,0.2434,0.068,0.2805
2871,-0.764,0.5047,0.5448,-1.0391,0.0222,-2.1928
2884,-0.7633,0.5018,0.5553,-3.8177,-0.0541,-4.9409
2897,-0.7633,0.4869,0.5492,-3.3902,0.0833,-4.8493
2909,-0.7601,0.4855,0.5509,-1.3139,0.5566,-2.6203
2951,-0.7616,0.4872,0.5526,2.3503,-0.3747,0.9369
2964,-0.7577,0.4913,0.557,3.877,-0.1457,1.7308
2976,-0.7611,0.4952,0.5511,2.8541,0.2818,0.6927
2990,-0.7572,0.4947,0.5526,1.6174,0.3276,-0.3302
3003,-0.7623,0.4906,0.5516,0.6709,-0.2678,-0.4218
3016,-0.7596,0.4908,0.5462,0.3655,-0.4511,-0.1623
3057,-0.7601,0.4955,0.5504,0.5182,-0.0541,0.5553
3070,-0.7589,0.4908,0.5565,0.2434,0.1902,0.5247
3082,-0.756,0.4955,0.5577,0.4571,0.6634,0.0667
3093,-0.7648,0.4891,0.5523,-0.1994,0.9077,0.4484
3106,-0.7587,0.4925,0.5528,-0.1688,0.4955,-0.0096
3118,-0.7591,0.4945,0.5489,-1.7719,0.3428,-1.46
3159,-0.7623,0.4911,0.5472,-3.3139,-0.1915,-3.0936
3172,-0.7616,0.4847,0.554,-0.4589,-0.3289,-1.4905
3185,-0.7589,0.4886,0.5528,-0.4742,0.526,-1.3379
3198,-0.7604,0.4855,0.557,0.0754,-0.0236,-1.0478
3211,-0.7618,0.4855,0.5543,1.2205,-0.1457,-0.2844
3223,-0.7587,0.4923,0.5499,1.3274,-0.1762,1.0438
3265,-0.7572,0.493,0.5575,0.2892,0.2054,-1.1852
3277,-0.7567,0.4894,0.5511,-1.0085,0.2207,-2.5745
3291,-0.7591,0.4784,0.5518,-0.5047,-0.1457,-1.2768
3304,-0.7606,0.4852,0.5553,2.2281,0.1902,0.6011
3317,-0.7591,0.4908,0.5518,1.5106,0.5108,1.3186
3330,-0.7606,0.4911,0.5516,1.1747,0.1138,1.7461
3371,-0.7594,0.4925,0.5501,-1.0085,-0.8785,-1.46
3384,-0.7565,0.4916,0.5548,-2.6879,-0.4053,-3.231
3397,-0.7557,0.4879,0.546,-2.8711,0.0222,-3.5363
3410,-0.7618,0.4823,0.557,-0.9322,-0.2068,-1.1089
3423,-0.7572,0.4862,0.5543,1.2205,0.0833,1.395
3436,-0.7591,0.4857,0.554,1.6174,0.5566,2.1583
3477,-0.7579,0.5018,0.5513,-1.7108,0.1138,-1.9944
3490,-0.7618,0.4886,0.5579,-2.7948,-0.0236,-4.0249
3503,-0.7613,0.4806,0.5487,-1.1154,-0.4511,-2.2844
3516,-0.7601,0.482,0.5572,1.3732,-0.4663,0.6774
3529,-0.7594,0.4818,0.5614,2.793,-0.1762,3.5171
3541,-0.7587,0.4891,0.5572,4.6403,-0.1304,4.4637
3583,-0.7582,0.4921,0.5543,-1.5429,0.5413,-1.6127
3596,-0.7623,0.4855,0.5572,0.2129,-0.0541,0.3263
3608,-0.7584,0.4896,0.5565,2.5335,-0.2373,2.0667
3622,-0.7567,0.4952,0.5555,2.7625,-0.9701,2.3721
3635,-0.7574,0.4918,0.554,1.6174,-0.7259,0.7385
3648,-0.7604,0.4947,0.5528,0.0296,0.0375,-1.4905
3689,-0.7599,0.4842,0.5528,-1.9551,0.0528,-0.0707
3702,-0.7645,0.4835,0.5523,-0.291,0.3123,2.3568
3715,-0.7591,0.4911,0.5511,0.4266,0.1138,3.7156
3728,-0.7569,0.4913,0.5567,2.7777,-0.1915,5.624
3740,-0.7577,0.4979,0.547,3.5869,-0.6953,5.5476
3754,-0.7574,0.5021,0.5528,1.9991,-0.7869,1.685
3795,-0.7611,0.4852,0.5523,-3.2681,0.7551,-4.0402
3808,-0.7591,0.4818,0.5589,-0.3215,-0.1762,-0.2386
3821,-0.7582,0.4899,0.5513,1.0831,-1.077,2.6621
3834,-0.7596,0.4881,0.5543,1.1594,-0.6343,2.998
3847,-0.7604,0.4899,0.5511,1.251,0.0528,2.5553
3860,-0.7604,0.4972,0.5526,0.9304,0.7398,1.9904
3901,-0.7638,0.4928,0.5489,-1.4665,0.1902,-1.0173
3914,-0.7626,0.4901,0.5489,-0.0009,-0.0999,-0.376
3927,-0.7582,0.4935,0.5531,-1.0391,-0.5121,-0.6508
3939,-0.7584,0.4908,0.5572,-0.7032,-0.4511,-0.2997
3952,-0.7613,0.4943,0.5575,-0.2146,-0.5121,0.1889
3964,-0.7577,0.4906,0.5553,0.3655,-0.39,1.0896
4005,-0.7611,0.4925,0.5521,-0.0772,1.0757,-0.4829
4018,-0.764,0.4923,0.556,0.5029,0.923,-0.1928
4030,-0.7628,0.4925,0.5533,0.793,0.5108,-0.3913
4041,-0.7599,0.4916,0.557,0.2129,-0.0846,-0.147
4053,-0.7621,0.4906,0.5489,1.8006,-0.6801,1.4102
4067,-0.7569,0.4928,0.5533,3.1442,-0.9243,1.5171
4108,-0.7626,0.4938,0.5553,0.3961,0.465,-0.7119
4120,-0.7572,0.4955,0.5543,-0.8711,0.5108,-0.8493
4134,-0.7591,0.4945,0.5445,-0.8711,0.4039,-0.7424
4146,-0.7572,0.494,0.5528,-0.7795,0.007,0.0209
4158,-0.7613,0.4869,0.5531,-0.1994,-0.4969,1.0591
4170,-0.7574,0.4921,0.5489,0.9915,-0.1152,1.3492
4212,-0.7579,0.493,0.5516,-0.3062,0.7703,-1.0631
4224,-0.7604,0.4933,0.5499,-1.5123,0.4955,-0.9409
4238,-0.7577,0.4903,0.5531,-1.3902,-0.2678,-0.2386
4251,-0.7572,0.4886,0.5575,-0.3062,-0.2984,0.4789
4263,-0.7611,0.4928,0.5535,0.1213,0.0528,0.4331
4276,-0.7579,0.493,0.5611,1.2052,0.5413,0.7843
4317,-0.7611,0.496,0.5528,0.8541,1.7322,0.1431
4330,-0.7591,0.4991,0.5533,-1.0238,1.3047,-1.0325
4343,-0.7608,0.4916,0.5479,-1.6803,0.8467,-1.7959
4356,-0.7621,0.4943,0.5504,-0.4284,-0.2678,-1.4447
4369,-0.7584,0.4884,0.5521,0.7167,-1.0007,-0.2386
4382,-0.7599,0.4957,0.5462,0.9762,-0.7869,-0.3302
4423,-0.756,0.4896,0.5494,-0.8864,0.9077,-0.8035
4435,-0.7608,0.4891,0.5496,0.8846,0.6024,0.5858
4448,-0.7638,0.4935,0.5496,2.0144,0.5108,1.5782
4461,-0.7616,0.4894,0.5518,1.648,0.1444,0.8453
4474,-0.7611,0.4979,0.5492,0.2587,-0.0236,-0.315
4486,-0.7587,0.4935,0.5504,-0.3215,-0.0846,-0.9562
4528,-0.7601,0.4894,0.5535,-0.3978,-0.222,-0.5287
