time_ms,ax,ay,az,gx,gy,gz
12,-0.7345,0.4247,0.6016,0.6403,0.4955,0.2652
25,-0.7313,0.4234,0.6038,1.5869,0.297,0.9522
38,-0.7328,0.431,0.6007,2.4571,0.1138,1.3186
51,-0.7311,0.43,0.597,0.7014,-0.0694,-0.1318
92,-0.7301,0.4278,0.6092,-0.978,-0.4358,-0.5287
105,-0.7279,0.4256,0.6053,0.4113,-0.4969,-0.2234
117,-0.7267,0.4259,0.6053,-0.2299,-0.6037,-0.0707
130,-0.7289,0.4288,0.6021,-1.1765,-0.2526,-0.4676
144,-0.7294,0.4249,0.6048,-0.749,-0.4511,-0.3455
156,-0.7311,0.4276,0.6092,-1.3291,0.1138,-0.7424
197,-0.7328,0.4276,0.5977,1.2052,0.5718,0.4331
210,-0.7279,0.4254,0.6038,0.8846,0.2665,0.5858
222,-0.7308,0.4252,0.6051,1.4648,0.0833,0.1736
235,-0.7257,0.4308,0.6046,0.335,0.1902,-0.7424
247,-0.7296,0.4249,0.6053,-3.5581,0.3581,-2.2386
260,-0.7311,0.4266,0.6043,-4.81,0.3428,-2.2386
301,-0.7286,0.42,0.6034,0.6098,-0.5274,1.0286
314,-0.7269,0.423,0.5975,2.7319,-0.6648,1.6545
328,-0.7311,0.4354,0.6026,-0.5658,-0.4969,-0.2997
340,-0.7269,0.4232,0.6085,-2.4742,0.526,-1.5821
353,-0.7279,0.4281,0.6046,-0.8711,0.8161,-0.1318
366,-0.7318,0.4252,0.6007,-2.0314,0.8619,-1.1089
406,-0.7242,0.4249,0.6012,0.1365,-0.9396,0.0515
420,-0.7272,0.4264,0.6051,1.9686,-0.5274,0.5553
433,-0.7281,0.4293,0.6048,2.0907,0.0375,0.0209
446,-0.7316,0.4276,0.6073,1.0525,0.1749,-0.1928
459,-0.7308,0.4269,0.6053,-0.4589,-0.0846,-0.6356
473,-0.7284,0.4298,0.6048,-2.5352,-0.2984,-0.6508
513,-0.7337,0.4239,0.6031,2.4113,-0.5885,1.2423
526,-0.7272,0.4244,0.6048,2.2587,0.2054,0.5553
539,-0.7306,0.4217,0.5992,3.0984,0.0986,0.7537
552,-0.7323,0.4291,0.6012,1.4953,0.0375,0.3263
565,-0.7296,0.4254,0.6085,0.9151,-0.1457,0.6469
578,-0.7286,0.4137,0.6029,2.1518,0.0375,3.0896
619,-0.7496,0.4457,0.6007,7.7396,-4.3747,14.4484
632,-0.7518,0.505,0.576,-20.6574,-6.0541,5.0744
645,-0.878,0.7311,0.3665,-32.978,8.1902,6.0973
659,-0.8522,0.902,0.4867,-29.7871,35.9154,33.0591
671,-1.0213,0.4293,0.9173,-39.4513,-14.5274,41.2576
684,-0.7213,0.4171,0.3919,-8.6726,-22.2526,53.6087
725,-0.569,0.4896,0.5225,-3.4513,19.7169,39.5782
739,-0.5824,0.5621,0.5804,-20.0162,35.7169,31.4713
752,-0.6483,0.5492,0.6207,-38.8711,39.8543,20.3721
764,-0.6712,0.5746,0.5826,-52.8711,45.7627,10.6927
777,-0.7125,0.5157,0.6038,-57.0391,46.8925,5.7003
790,-0.683,0.4515,0.5316,-48.749,51.9764,3.914
831,-0.7638,0.2692,0.5765,-21.5429,12.0833,-20.1318
844,-0.7413,0.3868,0.5489,-20.5658,11.3352,-14.9409
857,-0.7359,0.2357,0.6641,-13.7261,7.4268,-5.6585
870,-0.7594,0.4457,0.5323,-1.9704,8.8161,-0.544
884,-0.7594,0.451,0.5394,-0.7948,10.8772,1.3644
896,-0.7621,0.4244,0.5426,5.5411,12.3581,3.4408
938,-0.4671,0.1661,0.6339,-21.6955,-57.6419,-34.2386
951,-0.7106,-0.164,0.3494,-10.8864,-56.9549,-66.4829
963,-0.253,0.8893,1.338,-72.2299,-81.6724,-33.8111
976,-0.8197,0.0465,0.6339,70.2281,-86.4816,-30.147
990,-1.1839,-0.1635,0.1971,59.0831,-102.955,-20.9409
1003,-0.0455,0.2364,1.2257,38.2129,-93.3365,-23.1241
1043,-1.2938,0.9498,0.1934,25.7548,-45.8556,-3.9638
1057,-1.3121,0.6771,0.3201,19.1747,-32.8175,-15.7348
1070,-0.496,0.8385,0.6239,13.3732,-25.6572,-14.8951
1083,-0.8275,0.5343,0.6197,22.4877,-16.9396,-26.6203
1096,-0.5565,0.1095,0.8118,11.7243,-13.0465,-16.5898
1108,-0.7203,0.7355,0.6532,8.8388,-3.2907,18.8148
1149,-0.7125,0.4962,0.6517,8.2281,-3.1381,4.7995
1163,-0.6991,0.4833,0.6661,-10.7795,-5.8556,-5.5058
1175,-0.6988,0.4623,0.6678,-23.665,-5.5808,-13.9791
1188,-0.7286,0.433,0.6246,-32.352,0.2818,-19.4295
1202,-0.7379,0.3788,0.6524,-18.291,13.6711,-25.4295
1215,-0.5995,0.4796,1.012,-13.1917,28.7856,-14.0249
1255,-0.7543,0.451,0.8814,-9.9246,62.465,9.1202
1268,-0.8238,0.1044,0.5655,13.1442,58.2665,-8.9256
1282,-0.7521,0.4225,0.2076,-20.978,48.0833,20.7079
1295,-0.8341,0.9645,0.2569,2.7777,56.694,42.6621
1307,-1.017,1.0394,-1.2211,21.709,64.5718,22.8301
1320,-0.6444,0.1051,2.1251,-42.2146,57.6405,2.6163
1361,-0.6586,0.3075,0.6607,-27.665,17.0757,-11.0631
1374,-0.6385,0.3756,0.8463,-8.4436,28.4802,-10.4676
1387,-0.7369,0.3441,0.5142,7.4495,9.7169,-5.002
1401,-0.7128,0.3551,0.5758,-10.1688,17.7169,-9.1547
1414,-0.7059,0.3478,0.6912,-5.0238,8.3734,-5.2463
1427,-0.7501,0.3888,0.5499,-2.4742,6.2207,-4.1165
1467,-0.764,0.3768,0.5262,0.2587,3.9917,2.5095
1480,-0.7594,0.3907,0.5343,-6.4894,2.2818,3.1354
1494,-0.7489,0.3602,0.5238,-4.3673,0.1291,10.5858
1506,-0.7587,0.3736,0.5269,-2.7032,-2.0236,20.311
1519,-0.7643,0.3981,0.5367,-4.8406,-3.8251,24.0209
1533,-0.7442,0.4261,0.7113,-19.7108,-12.3442,16.4942
1573,-0.8795,0.5643,0.4671,-3.1001,-70.8633,39.4713
1586,-0.6644,0.4151,0.4981,-14.9475,-61.8862,34.0667
1600,-0.525,0.4188,0.4293,-18.978,-45.2907,28.2194
1613,-0.5035,0.3583,0.4251,-14.7337,-26.2373,27.8988
1626,-0.5245,0.3736,0.4574,-12.9627,-6.0999,24.7995
1638,-0.6581,0.413,0.5853,-13.7719,2.1291,23.4408
1680,-0.682,0.5062,0.5455,-42.0314,25.5337,8.2499
1693,-0.693,0.4647,0.5553,-50.1688,29.2894,5.4255
1705,-1.1395,-0.0495,1.1724,-63.1001,26.3886,-15.5211
1718,-0.8956,0.2789,0.3387,-2.52,-9.077,-19.2157
1731,-0.7482,0.2945,0.4986,-0.0314,6.8467,-18.1928
1744,-0.7452,0.3448,0.5494,8.2739,2.6482,-1.0936
1785,-0.5389,-0.0072,0.9571,26.3197,-15.5198,-21.5516
1798,-0.9403,0.2101,0.7237,58.8999,-0.8785,-17.1241
1812,-0.2162,0.6693,-0.5812,35.938,15.3963,-75.689
1825,-0.9027,0.7604,0.4173,40.335,20.3276,-63.9944
1837,-0.089,0.5939,-0.0514,35.3884,20.1749,-78.1318
1850,-0.3854,1.0707,-0.1469,-11.1459,28.2207,-52.3302
1892,-0.7621,0.5104,0.5594,-1.436,4.6482,-10.4676
1904,-0.753,0.4562,0.5509,-8.52,4.5718,-18.1318
1917,-0.7525,0.4239,0.5553,-1.7871,1.7016,-15.8569
1930,-0.7411,0.4203,0.5648,-5.0849,0.7093,-13.4753
1943,-0.7416,0.3956,0.5658,-6.6421,-0.5732,-9.2005
1957,-0.7394,0.4005,0.5701,-5.4513,-1.4892,-2.0096
1997,-0.7408,0.391,0.5684,-2.123,-0.2068,2.0515
2010,-0.7418,0.4195,0.5719,5.8159,0.526,2.2805
2023,-0.7386,0.4281,0.5728,0.9457,2.2512,-4.9714
2037,-0.7403,0.4281,0.566,-7.4971,2.7245,-10.605
2050,-0.7386,0.4034,0.5665,-11.9398,2.4344,-13.5516
2062,-0.743,0.3722,0.5631,-2.6574,1.61,-6.4676
2103,-0.7396,0.4,0.5667,-0.6726,-0.6495,2.1736
2117,-0.7423,0.3988,0.5687,-1.4971,-0.3747,2.6011
2129,-0.7396,0.4027,0.5667,2.2892,0.5413,4.9675
2142,-0.742,0.412,0.5699,0.5182,1.1367,2.2194
2155,-0.7423,0.4073,0.5643,0.8388,1.1215,1.1507
2168,-0.7433,0.4115,0.5633,-1.0849,0.923,-0.544
2210,-0.7418,0.4027,0.567,-2.1841,-1.1991,-0.5592
2222,-0.7403,0.3988,0.5565,0.0296,-0.5579,0.9675
2234,-0.7399,0.4095,0.5626,-0.4742,-0.39,1.0438
2247,-0.7418,0.399,0.5689,-2.4436,-0.8175,0.2652
2261,-0.7377,0.4054,0.5621,-0.8864,-1.4282,0.8301
2273,-0.7377,0.4054,0.5648,-2.2299,-1.0617,-1.1852
2314,-0.7418,0.4071,0.5728,-1.8177,0.3276,-2.6203
2327,-0.7428,0.3959,0.5633,-1.5734,0.2054,-1.9485
2340,-0.7442,0.3964,0.5626,0.0296,-0.39,-0.3302
2353,-0.7408,0.4054,0.5645,-2.7642,-1.6572,-1.1547
2366,-0.7391,0.4,0.5706,-4.5963,-1.9167,-2.3608
2379,-0.7406,0.3978,0.5618,-3.5276,-1.0159,-2.2386
2420,-0.7428,0.4,0.5626,1.419,0.0986,0.998
2433,-0.7435,0.3976,0.5606,1.2052,-0.0236,1.3644
2446,-0.7411,0.4027,0.5687,0.1976,0.1902,-0.1165
2459,-0.7381,0.3959,0.5704,-2.4742,0.1138,-1.7043
2472,-0.7384,0.4029,0.5701,-4.062,0.5108,-2.8493
2485,-0.7403,0.3961,0.5692,-5.0696,1.381,-3.0325
2526,-0.7377,0.3907,0.566,1.4953,-0.222,2.6469
2539,-0.7433,0.4054,0.5621,0.2281,-1.1228,1.0896
2552,-0.7403,0.4027,0.5689,-1.7719,-1.2602,-2.3455
2565,-0.7403,0.4066,0.5692,-5.4055,-1.9014,-5.8111
2579,-0.7396,0.3937,0.5653,-5.6192,-1.2755,-6.6966
2591,-0.7384,0.3812,0.5694,-3.4971,-0.1915,-3.8722
2632,-0.7355,0.3905,0.5667,1.9228,0.2054,4.6163
2645,-0.7389,0.3993,0.5706,2.9915,0.3886,3.8377
2658,-0.7408,0.4086,0.5694,0.2129,0.526,-0.1012
2671,-0.7438,0.4032,0.5699,-4.3368,0.5566,-4.315
2684,-0.7416,0.3924,0.5645,-2.9475,0.7398,-4.6661
2697,-0.7345,0.3766,0.5565,-4.52,0.4192,-4.4066
2739,-0.7408,0.3971,0.5706,1.5716,-0.9854,1.1965
2751,-0.7379,0.3939,0.5643,0.1213,0.3123,-0.5745
2764,-0.7391,0.4015,0.5621,-2.2299,0.9077,-2.6508
2777,-0.7369,0.392,0.5621,-1.9704,1.152,-3.0631
2791,-0.7359,0.3888,0.5636,-3.0238,0.3581,-2.2386
2803,-0.7372,0.3885,0.5611,-3.4971,-0.5274,-1.4905
2845,-0.7379,0.4022,0.5682,-0.9169,-1.5198,-1.0783
2857,-0.7347,0.3934,0.5741,-2.9169,0.1902,-3.1547
2871,-0.7364,0.3871,0.5689,-2.3368,0.8314,-2.1928
2883,-0.7386,0.3846,0.5616,-0.8864,1.2436,-0.5898
2896,-0.7408,0.3788,0.5616,2.564,1.3657,2.1889
2909,-0.7403,0.3841,0.5694,5.0831,1.3199,4.1431
2950,-0.744,0.3966,0.5677,-1.1154,-0.1762,-0.5592
2963,-0.7374,0.3959,0.5689,-2.8558,-0.7411,-2.0707
2976,-0.7364,0.3832,0.5694,-3.0543,-0.9549,-2.5898
2990,-0.7413,0.389,0.5665,-1.4055,-1.1839,-1.4447
3003,-0.7391,0.3822,0.567,0.0296,-0.7564,-0.773
3015,-0.7401,0.3829,0.5592,3.419,-0.1762,1.5018
3056,-0.7352,0.3993,0.5748,0.4877,0.9841,-0.5745
3070,-0.7391,0.3939,0.5697,0.3045,1.1367,-1.5363
3082,-0.7369,0.3907,0.5653,-1.6039,0.7703,-2.2539
3095,-0.7381,0.3898,0.5606,-3.7413,-0.222,-2.3913
3108,-0.7386,0.3841,0.5643,-0.5658,-1.1533,-0.1928
3121,-0.7423,0.391,0.5684,0.5182,-1.3824,0.9064
3162,-0.7389,0.3927,0.5626,-1.6955,-0.0846,-2.147
3175,-0.7377,0.3844,0.5672,-0.5963,0.2818,-1.46
3188,-0.7369,0.3866,0.5714,0.1365,0.2207,-0.5134
3201,-0.735,0.3907,0.5672,1.022,0.007,0.7232
3215,-0.7399,0.3846,0.5662,2.5335,0.2512,2.0515
3227,-0.7333,0.391,0.5662,3.6174,0.5718,2.5095
3268,-0.7386,0.3946,0.5653,-3.2375,0.4039,-2.6966
3282,-0.742,0.3861,0.5614,-2.4742,0.6634,-2.2997
3294,-0.7403,0.3839,0.5621,0.0602,0.3581,-0.376
3307,-0.7359,0.3827,0.5636,3.419,0.4802,1.456
3320,-0.7391,0.3905,0.5662,3.6785,-0.1457,3.2118
3334,-0.7342,0.3944,0.5682,4.0754,-0.1762,3.4255
3374,-0.7396,0.388,0.5697,-1.0849,0.2818,-1.9791
3387,-0.7381,0.3932,0.5655,-0.8253,0.8467,-1.7959
3400,-0.7394,0.3841,0.566,0.1671,0.8009,-1.1547
3413,-0.7381,0.3978,0.5626,1.8464,-0.4663,0.3415
3426,-0.7394,0.3942,0.5655,0.0602,-0.5579,0.0362
3439,-0.735,0.3944,0.5684,-0.3368,-0.2831,-0.0096
3480,-0.7372,0.3841,0.5689,0.1671,0.3428,-1.2157
3493,-0.7355,0.3844,0.5706,-0.0925,0.297,0.1431
3506,-0.7416,0.3851,0.5665,2.4419,0.2207,2.1431
3519,-0.7369,0.3959,0.5618,1.9991,-0.4816,2.0362
3532,-0.7381,0.3942,0.5719,-0.7184,-0.1762,-0.5287
3545,-0.7399,0.3871,0.568,-1.4207,-0.0083,-1.3226
3586,-0.7364,0.3795,0.5631,0.3655,0.3581,-0.7272
3599,-0.7357,0.3783,0.5653,2.9609,1.0451,0.4331
3612,-0.7386,0.3876,0.567,3.2663,0.4344,1.6087
3625,-0.7406,0.3944,0.5687,3.709,-0.4816,1.7614
3638,-0.7364,0.3932,0.5684,1.6174,-0.7259,0.8759
3651,-0.735,0.3915,0.5684,-1.0085,0.2665,-1.1394
3692,-0.7403,0.3851,0.5667,-0.0162,0.8619,-0.376
3705,-0.7394,0.3915,0.5609,0.6861,-0.4663,1.853
3718,-0.7406,0.392,0.566,-0.0314,-0.5885,0.9522
3731,-0.7377,0.4005,0.5662,-0.6726,-0.5427,-0.2234
3743,-0.7381,0.3978,0.5706,-0.9475,0.3734,-0.7119
3755,-0.7401,0.3895,0.5665,1.2663,0.5566,-0.2386
3797,-0.7364,0.3885,0.5682,0.6556,0.1444,-0.4218
3809,-0.7389,0.3876,0.5692,0.2587,0.2207,-0.3608
3821,-0.7386,0.3944,0.567,-0.352,-0.0083,0.1125
3834,-0.7369,0.389,0.5699,-0.9016,0.526,0.0056
3845,-0.7367,0.389,0.5697,-0.52,0.3734,0.4789
3857,-0.7347,0.3893,0.5741,0.1365,0.7703,0.3415
3898,-0.7389,0.3902,0.5633,-3.9246,0.3123,-4.0249
3911,-0.7394,0.3807,0.5638,-2.3978,0.1749,-3.4142
3924,-0.7411,0.3802,0.564,-0.3215,0.0528,-1.4905
3937,-0.7396,0.3827,0.5621,0.7625,0.0222,-0.4371
3949,-0.7384,0.3859,0.5699,1.9228,-0.4205,1.1354
3962,-0.7357,0.3942,0.5677,1.2358,-0.4969,0.3721
4003,-0.7379,0.3832,0.5638,0.2434,0.4955,-0.7272
4017,-0.7381,0.3815,0.5682,2.6251,0.5871,1.2118
4029,-0.7367,0.3895,0.5689,2.3808,0.4955,1.5934
4042,-0.7367,0.3878,0.5611,2.3197,0.8772,1.624
4055,-0.7408,0.389,0.5601,1.2052,0.2512,0.8606
4069,-0.7411,0.3893,0.5704,-0.3062,0.1902,-0.0554
4109,-0.7357,0.3883,0.5643,0.8388,-0.3442,1.2576
4122,-0.7416,0.3902,0.5675,1.1442,-0.1915,1.3339
4136,-0.735,0.3954,0.5655,0.1365,-0.0999,0.6011
4148,-0.7374,0.3915,0.568,-1.665,-0.4053,-0.1928
4161,-0.7372,0.3863,0.567,-1.2681,-0.0541,-0.5745
4175,-0.7355,0.3832,0.5636,-1.1765,0.4497,-0.8646
4215,-0.7413,0.3929,0.5694,1.4037,-0.2526,1.4255
4228,-0.7377,0.3917,0.5633,1.1442,-0.4205,1.0286
4241,-0.7359,0.3929,0.5694,-3.3291,-0.2526,-1.5516
4255,-0.7359,0.3841,0.5616,-2.7032,-0.2068,-1.4142
4267,-0.7381,0.3827,0.5684,-1.4665,-0.3136,-0.8951
4280,-0.7381,0.3844,0.5697,0.7625,-0.6343,0.3415
4321,-0.7367,0.392,0.5719,-0.8406,-0.5579,-0.8035
4334,-0.734,0.3912,0.5699,-1.1917,-0.1915,-1.4447
4348,-0.7367,0.3883,0.5692,-2.5963,-0.0083,-2.4524
4360,-0.7362,0.3822,0.5662,-0.7184,0.5718,-1.3379
4373,-0.7377,0.381,0.5611,1.9686,0.8925,-0.4218
4386,-0.7386,0.3898,0.565,0.4571,0.6329,0.2957
4428,-0.7413,0.3876,0.5682,-0.5352,-0.7564,-0.4066
4441,-0.7362,0.3851,0.5726,-1.2528,-0.5121,-2.0249
4453,-0.7367,0.3829,0.5701,-0.7032,-0.0388,-1.0936
4467,-0.7364,0.3866,0.5701,0.3655,0.007,-0.4982
4478,-0.7379,0.3834,0.5701,1.5869,-0.3136,0.9064
4491,-0.7401,0.39,0.5714,1.9228,-0.6343,1.8224
4532,-0.7367,0.3863,0.5684,0.793,0.2818,-0.1776
4545,-0.7391,0.388,0.5684,0.9915,0.7703,-0.2081
4557,-0.7345,0.3927,0.5728,-0.9169,0.5718,-1.2768
4571,-0.7367,0.3844,0.5672,-2.0009,0.2818,-1.3531
4584,-0.7372,0.3849,0.5697,-1.6955,-0.0388,-0.9409
4596,-0.7369,0.378,0.5616,-0.8406,-0.2831,-0.0402
4637,-0.7384,0.3856,0.5672,-0.352,-0.0388,0.0973
