time_ms,ax,ay,az,gx,gy,gz
11,-0.7181,0.8979,0.7264,-0.037,0.1783,-2.1226
52,-0.7193,0.8991,0.7303,-0.9988,-0.1882,0.1522
64,-0.7147,0.8949,0.7323,-0.4797,0.2088,1.0529
77,-0.7193,0.8969,0.7294,0.818,0.6363,1.0224
90,-0.7183,0.9035,0.721,0.5584,0.4836,0.0911
103,-0.7161,0.8986,0.7286,0.131,0.6515,-0.4738
115,-0.7178,0.893,0.7242,0.7416,0.7126,-1.0081
156,-0.7191,0.8998,0.7257,-1.1362,-0.1576,-0.1226
169,-0.7178,0.8964,0.7184,-0.8614,-0.0507,0.0911
182,-0.7198,0.8988,0.723,-0.8767,0.0714,-0.1837
194,-0.7166,0.8913,0.7259,-0.0522,0.2699,0.4881
206,-0.7152,0.8986,0.7276,-0.7698,0.4683,-0.5043
217,-0.7218,0.8974,0.7313,0.818,0.9569,-0.3364
258,-0.7213,0.9037,0.7274,3.276,1.2012,1.4041
272,-0.7235,0.8991,0.724,3.6882,0.7737,0.8697
285,-0.7261,0.8986,0.7274,1.963,-0.0202,-0.5043
297,-0.7225,0.9191,0.7296,0.192,-1.1958,-3.7715
310,-0.731,0.9355,0.7423,-37.7774,-4.5546,-18.9165
323,-0.711,0.9513,0.7501,-36.7545,-4.1576,-23.1455
365,-1.085,1.3249,1.0145,-49.6858,-29.608,80.1674
378,-1.0401,1.0146,0.8146,-51.2278,-43.837,102.213
391,-0.7467,0.8366,0.785,-39.7164,-45.608,103.038
404,-0.4566,0.6982,0.4469,-34.7545,-30.9057,100.32
417,-0.2777,0.5868,0.3756,-28.1438,3.7966,72.3354
430,-0.2335,0.8031,0.4652,-35.2736,39.6439,44.0911
471,-0.5875,0.6215,0.7308,-50.724,118.697,-26.3669
483,-1.876,1.8725,2.2474,49.1233,-10.295,-5.8173
496,-0.8887,0.4911,0.9537,33.1691,14.0409,-28.5959
509,-0.6539,0.9381,0.6903,-16.6782,23.2164,-12.5348
522,-0.7034,0.8393,0.7345,-8.4492,16.9416,-0.1379
535,-0.7044,0.8114,0.7652,19.8104,16.8195,29.343
576,-0.8328,1.84,0.2157,185.108,-63.0278,-77.6341
589,-1.1051,1.1022,1.2272,76.0546,-88.6614,-116.947
602,-0.4451,0.401,0.8033,-7.3042,-107.791,-161.329
615,-0.0968,-0.8658,0.6593,57.9783,-114.555,-158.214
628,-0.9996,2.6776,-0.1317,29.8104,-44.8752,-90.8402
641,-0.5155,0.7907,0.8885,-41.1667,-8.4782,-56.7333
682,-0.7679,0.859,0.6776,-27.808,-14.8294,-21.2371
695,-0.7799,0.8122,0.7804,-29.7774,-8.0813,-33.4051
708,-1.0201,0.2275,0.4774,-49.1057,54.3615,-17.5425
721,-0.7803,0.6344,1.1373,52.5279,83.0485,21.6026
734,-0.8995,0.1576,0.1026,-35.0446,78.5447,13.8468
747,-0.7227,0.6908,0.5433,-5.5637,65.2622,7.0529
787,-0.6219,0.5226,1.5248,15.5661,13.7813,-4.6264
801,-0.6864,0.7843,0.7792,13.9783,20.2393,14.3201
813,-0.6387,0.8278,0.9916,13.6424,12.1019,22.885
826,-0.6322,0.8803,0.9398,15.1081,21.6439,26.9461
840,-0.658,0.9289,0.8402,12.7416,3.476,27.5415
853,-0.6431,0.9338,0.9066,10.0546,1.5218,30.3354
894,-0.8731,1.1498,0.8043,23.7798,-82.0965,103.084
907,-0.65,1.0673,0.5516,-10.8614,-68.692,86.3812
920,-0.3021,0.8327,0.3627,-26.6324,-36.8141,62.8545
933,-0.1185,0.7455,0.285,-41.0751,10.85,24.6255
945,-0.1785,0.9418,0.3497,-53.0141,55.537,-8.6112
958,-0.3778,0.8224,0.3702,-86.7393,95.1096,-31.8173
1000,-0.7779,0.7331,0.671,-61.9759,9.247,-46.9776
1012,-0.7174,0.7387,0.7389,-13.182,5.0943,-10.2448
1025,-0.7501,0.7113,0.7347,27.1691,5.3691,11.343
1038,-0.9776,0.5304,0.5899,24.9554,12.2546,7.0224
1051,-0.6265,0.652,0.9671,23.5508,5.1401,-46.1684
1065,-1.5242,-1.19,0.5431,-45.8538,12.6973,-101.069
1105,-0.346,-0.0396,0.8783,58.3752,-17.1194,-79.2982
1118,-0.7789,0.7057,0.3297,50.6348,-2.1729,-16.3364
1131,-0.6451,1.0043,0.7418,-1.1362,4.1935,1.3583
1144,-0.689,0.9819,0.7838,-16.953,2.5141,-5.9242
1158,-0.7169,0.8861,0.7555,-14.1591,2.4225,-15.3745
1170,-0.7237,0.8764,0.7398,-27.5332,-0.1882,-23.6035
1211,-0.7169,0.8068,0.7538,-14.5103,-5.4859,-0.1532
1223,-0.7186,0.8131,0.7499,-8.3729,-5.5622,4.1216
1236,-0.7132,0.8048,0.7535,1.5813,-4.2798,8.1216
1249,-0.7147,0.8261,0.7523,6.1462,-2.3408,5.6789
1262,-0.7181,0.8378,0.7533,5.1386,-0.692,0.2743
1276,-0.7135,0.8263,0.754,6.2378,0.7584,-1.4661
1316,-0.7213,0.8256,0.7499,17.9325,-0.295,7.4957
1330,-0.7164,0.8442,0.7643,15.4287,0.0867,9.0835
1342,-0.7159,0.8359,0.7574,17.1539,0.5447,10.6255
1356,-0.7164,0.8493,0.754,17.902,1.4454,10.2285
1369,-0.7191,0.8644,0.754,15.3218,2.5294,8.2438
1381,-0.7127,0.8598,0.7516,9.6119,1.8424,5.3278
1422,-0.7174,0.8456,0.7401,9.4439,1.0027,3.1293
1436,-0.7139,0.862,0.7469,12.2073,0.85,6.9766
1449,-0.7205,0.87,0.7506,5.7951,0.8348,5.0529
1462,-0.7154,0.8681,0.7452,4.5279,0.8806,3.801
1474,-0.7154,0.871,0.7484,0.6042,-1.1347,1.9995
1487,-0.711,0.8547,0.7457,2.8485,-1.15,3.9232
1528,-0.713,0.8664,0.7447,-0.1896,-1.3027,1.0682
1541,-0.7198,0.8717,0.7506,2.2836,-0.4172,1.8163
1554,-0.7154,0.8708,0.7479,1.7035,0.9416,1.6178
1567,-0.7115,0.8652,0.7525,1.902,0.621,1.8316
1580,-0.7132,0.8666,0.7477,5.734,0.9874,3.3888
1592,-0.71,0.863,0.7389,6.9249,1.0943,4.8545
1633,-0.7103,0.8913,0.7416,4.0852,0.7737,1.1446
1647,-0.7125,0.8861,0.7411,-0.4339,-0.5546,-0.9929
1660,-0.7169,0.8691,0.7489,-1.1667,-0.6767,-0.5348
1673,-0.7139,0.8725,0.7391,0.8791,-0.0965,1.114
1686,-0.7127,0.873,0.746,2.6348,0.2699,2.3049
1698,-0.7115,0.8713,0.7521,2.8943,0.1172,3.0377
1740,-0.7105,0.8786,0.7479,5.1997,1.9493,2.1827
1752,-0.7135,0.8852,0.7433,6.6195,1.6286,1.801
1765,-0.712,0.8847,0.7381,7.3981,2.0867,1.969
1778,-0.7154,0.8901,0.7433,3.963,0.6973,1.1446
1792,-0.712,0.881,0.7428,0.5432,-0.1576,1.1904
1805,-0.7132,0.8825,0.7428,1.1386,-0.3866,1.7247
1845,-0.7156,0.882,0.7369,1.8256,-1.0431,0.1827
1859,-0.7154,0.8857,0.7418,-0.0828,-1.15,-0.2906
1871,-0.713,0.8854,0.7438,0.7416,-0.0355,1.0071
1884,-0.7064,0.8861,0.7523,0.5126,-0.066,0.6255
1896,-0.7159,0.8818,0.7467,-0.1286,-0.6309,-0.26
1909,-0.711,0.8832,0.7384,0.8791,-0.0965,0.5339
1950,-0.7069,0.8932,0.7328,1.5661,-0.1576,1.0987
1963,-0.7127,0.8854,0.7469,2.0241,0.7584,1.2056
1975,-0.7088,0.8886,0.7481,0.9249,0.0714,0.427
1987,-0.7117,0.8844,0.7398,2.8027,0.392,1.3888
2000,-0.7159,0.8783,0.7398,2.0241,0.3309,2.2285
2013,-0.712,0.8864,0.7447,2.9249,0.2699,3.0529
2054,-0.7108,0.8874,0.7342,0.5279,0.9874,-0.3364
2067,-0.7052,0.8879,0.7428,0.421,0.8042,-0.1684
2080,-0.7139,0.8893,0.7445,0.8791,0.8348,0.3201
2092,-0.7149,0.8908,0.7401,1.7035,1.247,0.9919
2104,-0.7125,0.8918,0.7428,0.9249,0.7126,0.9766
2117,-0.7083,0.8844,0.7379,1.3218,0.0561,1.7094
2158,-0.7098,0.9093,0.7447,3.9172,2.1935,3.8163
2171,-0.7152,0.8981,0.7403,3.1539,2.4073,1.1904
2184,-0.7125,0.9027,0.7408,2.3142,2.392,0.6713
2197,-0.7159,0.8971,0.7372,1.8409,2.0561,0.6865
2210,-0.7095,0.8927,0.732,2.1462,1.5828,1.3736
2222,-0.7137,0.8952,0.7347,1.9783,1.2317,2.5339
2264,-0.7137,0.8976,0.7369,1.7187,1.4149,0.7629
2277,-0.7132,0.8993,0.735,1.5813,1.537,-0.1379
2289,-0.7147,0.8981,0.7372,0.6195,1.2622,-0.0616
2302,-0.7127,0.8966,0.732,0.5279,-0.1576,0.7781
2315,-0.7115,0.8952,0.732,0.2836,-0.2798,1.6636
2328,-0.7139,0.9037,0.734,1.6729,0.5447,2.1827
2369,-0.712,0.8984,0.7416,0.6653,0.5752,-1.2524
2382,-0.7135,0.904,0.7377,-0.953,-0.463,-1.8784
2395,-0.713,0.8947,0.7337,-0.8156,-0.8599,-0.7944
2408,-0.7174,0.8976,0.7416,0.5584,-0.3866,1.8316
2420,-0.7095,0.9015,0.735,1.4897,-0.0507,2.0453
2433,-0.71,0.9037,0.7428,0.8943,-0.066,1.8316
2475,-0.7117,0.8957,0.7323,0.2226,0.7737,-0.2906
2487,-0.7132,0.9023,0.7377,0.4668,-0.0355,0.3507
2500,-0.7169,0.9013,0.7289,0.131,-0.1423,0.3049
2513,-0.7142,0.9062,0.7281,-0.9988,-1.2416,0.0606
2525,-0.7108,0.9032,0.7359,-0.6477,-0.9973,0.1369
2537,-0.7125,0.9032,0.7381,-0.9683,-0.8599,-0.9013
2578,-0.7098,0.8998,0.7357,1.734,0.9874,0.4881
2591,-0.71,0.9059,0.7308,0.2684,0.6821,-0.2906
2604,-0.7154,0.904,0.7362,-0.2965,-0.0813,0.427
2616,-0.7088,0.9023,0.7333,-0.2049,-0.1271,-0.2295
2628,-0.7117,0.9025,0.7328,-0.9225,-0.5698,-0.7638
2640,-0.7054,0.9001,0.7342,-0.953,-0.8752,-0.9471
2681,-0.7139,0.8974,0.7379,-0.3271,-0.5393,-0.0005
2694,-0.7105,0.9006,0.7364,-0.037,-0.0049,0.4575
2708,-0.713,0.9059,0.7369,-0.1438,-0.1118,-0.3364
2719,-0.7027,0.9023,0.7345,-0.0675,0.2393,-0.3364
2731,-0.713,0.9003,0.7406,1.1081,0.8348,0.0148
2743,-0.7132,0.9091,0.7384,1.1691,0.9416,0.4575
2785,-0.7066,0.9042,0.7367,0.9554,0.7737,1.6026
2797,-0.7091,0.8998,0.7384,0.9401,0.1783,1.3583
2811,-0.7127,0.9101,0.7357,1.1691,1.308,0.7934
2824,-0.7093,0.9054,0.7347,0.3447,0.7279,-0.5959
2836,-0.7105,0.901,0.7355,0.4363,0.8653,0.0911
2847,-0.7069,0.9001,0.7318,-0.1896,0.2088,-1.0387
2889,-0.7103,0.9049,0.7308,-2.037,-0.2187,-4.7944
2902,-0.7156,0.893,0.733,-1.7927,-0.6614,-3.6951
2914,-0.7137,0.8918,0.7362,1.1539,0.0103,-0.489
2927,-0.7127,0.8988,0.734,1.4592,0.1325,1.282
2941,-0.7132,0.9015,0.7284,1.902,0.2088,1.5873
2954,-0.7142,0.9025,0.7386,1.7798,0.3767,1.0835
2994,-0.7188,0.8979,0.7315,3.4134,0.1783,0.0148
3007,-0.7098,0.9015,0.7289,0.5432,0.3309,0.3965
3021,-0.7208,0.901,0.7401,-0.2813,-0.1576,-0.3516
3033,-0.7103,0.8971,0.7306,0.9096,0.2851,1.5415
3045,-0.7147,0.8996,0.7379,0.7569,0.2088,1.4499
3058,-0.7125,0.9001,0.7396,1.6119,0.1172,2.6865
3099,-0.7127,0.9071,0.7318,0.2226,0.5752,-0.4432
3113,-0.7117,0.8986,0.7337,-0.6324,0.3309,-1.5272
3125,-0.713,0.9008,0.7272,-0.0522,0.6057,-1.0539
3138,-0.7093,0.8966,0.7311,0.8485,0.621,0.3812
3151,-0.7088,0.8952,0.7403,0.5432,-0.4782,1.7705
3163,-0.7105,0.9001,0.7381,1.1691,-0.3561,3.2972
3204,-0.7127,0.9018,0.7381,-0.4645,0.7737,-1.7562
3218,-0.7156,0.9013,0.7325,-0.5408,0.4225,-1.9394
3230,-0.7122,0.9008,0.7311,0.4668,0.3767,-0.4127
3243,-0.7098,0.8923,0.7359,0.6195,-0.066,1.6026
3256,-0.7105,0.9032,0.7272,1.2149,-0.0355,2.7934
3269,-0.7105,0.9113,0.7367,1.3218,0.7737,1.4041
3310,-0.7164,0.9081,0.7294,-0.6019,0.4989,-4.6417
3323,-0.7161,0.9003,0.7294,2.192,-0.0965,-3.8631
3336,-0.7135,0.8959,0.7357,0.3447,-0.0202,-0.9165
3349,-0.7156,0.8991,0.7325,0.0088,-0.5393,0.1827
3361,-0.7122,0.9013,0.7369,-0.3423,-1.2263,0.9919
3373,-0.7127,0.9013,0.7352,0.7722,-0.295,1.7094
3415,-0.7149,0.9045,0.7311,-0.3729,0.9111,-1.9089
3428,-0.7132,0.8957,0.7357,-0.3576,0.5294,-1.2066
3441,-0.7154,0.8991,0.7311,0.7569,0.3157,1.0987
3453,-0.7161,0.8984,0.7274,0.9096,-0.4172,2.5339
3466,-0.7125,0.9025,0.732,1.3523,-0.1271,2.427
3480,-0.7122,0.9045,0.733,0.2684,-0.0049,1.2667
3521,-0.7144,0.8986,0.7328,0.4363,0.7279,-0.199
3533,-0.7147,0.9047,0.7274,0.6195,0.1935,0.6255
3546,-0.7137,0.9015,0.7315,0.2226,0.1783,0.885
3560,-0.712,0.9054,0.7408,0.9249,0.0867,1.8774
3572,-0.7142,0.9047,0.7328,1.4745,0.7737,1.801
3585,-0.7093,0.9057,0.7284,1.047,0.7889,0.8392
3626,-0.713,0.9003,0.7279,-0.8461,0.1935,-2.3974
