time_ms,ax,ay,az,gx,gy,gz
33,-0.9781,0.6654,-0.2865,-3.7413,36.297,-4.147
74,-0.7623,0.6224,0.5216,12.6251,-1.8098,2.3415
87,-0.7015,0.7901,0.3729,-10.3368,38.0986,5.0591
100,-0.7862,0.7384,0.3995,16.9457,19.3963,2.2957
113,-0.5924,0.6927,1.3512,-15.6955,18.6635,-0.147
126,-0.7608,0.6366,0.4769,-7.5429,6.5871,3.395
138,-0.7081,0.5111,0.64,7.9228,-0.9854,4.7232
180,-0.7762,0.6327,0.5538,12.7014,-5.993,12.2652
193,-0.7899,0.6222,0.545,9.7396,-10.8633,8.4789
205,-0.7452,0.6341,0.6602,4.5182,-19.1839,1.624
219,-0.7818,0.8129,0.5499,-11.5429,-46.9091,-8.8188
232,-1.0074,0.7633,0.7511,-0.123,-49.6266,36.9369
245,-0.9964,0.618,0.7462,12.3808,-88.9091,27.456
286,-0.5196,0.6529,0.5152,-2.4436,-50.39,28.9217
299,-0.5939,0.6949,0.6129,-19.665,-37.1075,21.3492
312,-0.6166,0.7023,0.5731,-26.4589,-27.3824,14.2652
324,-0.5831,0.7196,0.4845,-34.9474,-7.1686,7.8377
338,-0.6859,0.682,0.5992,-37.1459,2.236,4.4789
351,-0.6634,0.649,0.5787,-40.6268,7.4268,-3.3837
392,-0.6612,0.6044,0.5001,-41.207,49.7322,-22.4371
405,-1.8509,0.578,2.1738,-41.9245,32.2512,-32.1623
418,-0.7613,0.4786,0.5003,-18.4894,-7.3518,-20.2234
431,-0.7411,0.4628,0.6671,-34.2146,1.7932,-25.8875
444,-0.7545,0.4784,0.5919,-22.3826,-5.993,-9.7959
457,-0.7433,0.4933,0.6241,-11.436,-9.474,17.2118
498,-1.1022,0.2804,1.0824,75.9228,15.7627,-46.3302
510,-0.1302,0.9315,0.3883,79.6022,19.7932,-39.7653
524,-0.4498,0.4186,1.1151,29.419,8.9993,-30.2539
537,-0.7093,0.305,0.7418,84.7625,2.8925,-47.2005
550,-0.6031,0.1383,0.2977,-67.9704,8.6482,-5.002
563,-0.7757,0.8924,0.4034,43.2358,-0.3442,4.5858
604,-0.7345,0.5755,0.6256,-11.6039,2.1596,-29.0325
617,-0.7355,0.5445,0.6319,-4.6268,2.068,-13.7653
630,-0.7337,0.5428,0.6334,6.1671,3.5795,5.6087
643,-0.733,0.5699,0.6239,15.1136,3.381,20.1736
656,-0.7328,0.6014,0.6231,16.4419,3.8848,25.8377
668,-0.7352,0.6263,0.6212,10.0907,2.923,21.5018
709,-0.734,0.6276,0.6221,-1.9856,1.0146,-7.2615
723,-0.7367,0.6153,0.6243,-3.2223,-0.3289,-11.0936
736,-0.7313,0.5961,0.62,-2.4436,-0.7564,-10.0402
749,-0.733,0.5975,0.6226,-2.2604,-0.5274,-6.4218
762,-0.7357,0.5817,0.6212,1.2663,-0.1762,0.1889
774,-0.7352,0.5953,0.6236,5.1747,0.5718,5.4408
816,-0.7347,0.6236,0.6265,-0.9933,1.3352,-5.2921
829,-0.7355,0.6134,0.6241,-4.5505,0.8314,-9.0783
842,-0.7352,0.5965,0.6134,-4.5047,-0.1304,-8.5898
855,-0.7342,0.5965,0.6136,-3.4513,-1.6419,-6.605
867,-0.7333,0.597,0.6283,-3.436,-0.7564,-4.3302
880,-0.7345,0.5936,0.6221,-1.9398,-0.2526,-1.6279
922,-0.7362,0.597,0.6278,1.1747,1.1978,1.4866
935,-0.7369,0.5961,0.6207,2.7014,1.1062,1.2423
947,-0.7428,0.6097,0.6251,2.1213,0.8619,0.5247
960,-0.7316,0.6127,0.6195,-0.3368,1.5337,-2.2844
973,-0.732,0.6058,0.6182,0.1976,0.5108,-4.0707
987,-0.7381,0.6056,0.6241,-2.3673,-0.0999,-4.8188
1028,-0.7352,0.5904,0.6226,-5.1307,-0.7106,-3.0173
1040,-0.7364,0.5885,0.618,-3.5734,-0.8327,-1.2005
1053,-0.7359,0.5922,0.6229,-1.7413,-0.9549,0.3415
1067,-0.733,0.598,0.6209,-1.9246,-0.9701,0.0515
1080,-0.7379,0.5873,0.618,-0.5352,-0.9701,-0.2692
1093,-0.7362,0.5946,0.6224,1.6174,-0.8327,-0.0554
1133,-0.7337,0.5975,0.6204,-1.4971,0.0986,-0.9562
1146,-0.7335,0.5919,0.6256,-0.7184,0.3581,-0.605
1158,-0.7323,0.5914,0.6217,-1.3749,0.0222,-0.1012
1171,-0.733,0.5902,0.6219,-0.291,0.6482,0.8911
1184,-0.7313,0.5856,0.6207,-0.2757,0.2054,0.6774
1196,-0.7347,0.5934,0.6263,0.1365,0.9077,1.8835
1237,-0.7359,0.5868,0.617,0.2587,1.4421,2.082
1249,-0.7342,0.5956,0.6239,1.0373,1.5489,2.5705
1263,-0.7352,0.5948,0.6178,1.9228,1.4115,2.6163
1275,-0.7337,0.6056,0.6234,1.4342,0.7093,1.5018
1289,-0.7337,0.5948,0.6273,1.8159,1.7474,0.2957
1301,-0.7352,0.5936,0.6209,1.709,1.9459,-0.376
1343,-0.7359,0.5887,0.6217,0.9151,1.8085,2.5095
1355,-0.7399,0.5924,0.6239,4.5182,1.2894,4.9522
1369,-0.7352,0.5985,0.6219,4.7625,1.7016,5.624
1381,-0.7347,0.5995,0.6221,4.6251,1.61,6.1125
1395,-0.7357,0.6005,0.6226,3.3274,1.9917,6.6011
1408,-0.733,0.6031,0.6121,3.1136,2.2818,5.8988
1449,-0.735,0.6136,0.6141,0.7167,1.381,3.6392
1462,-0.7394,0.6092,0.62,-1.9704,1.7474,1.1965
1475,-0.7352,0.608,0.6131,-4.581,0.5871,-1.002
1488,-0.733,0.6092,0.6085,0.6403,-1.4282,-0.6966
1501,-0.7389,0.6053,0.6165,-5.3749,-1.9014,-0.4066
1514,-0.7386,0.6022,0.6165,-3.3749,-2.2526,1.1507
1554,-0.7357,0.6036,0.6236,-5.1307,-1.7793,5.5324
1568,-0.7357,0.5985,0.6248,-0.3673,-1.1991,7.7308
1581,-0.7347,0.6044,0.616,2.3045,-0.2068,9.0591
1593,-0.7345,0.6141,0.6234,-1.0085,-0.2373,8.3873
1607,-0.7347,0.6185,0.6202,3.1136,-0.4663,8.2805
1620,-0.7342,0.6085,0.6112,-0.1994,-0.222,5.9904
1661,-0.7374,0.6212,0.6221,-8.9322,-0.6343,-0.9409
1674,-0.7325,0.6136,0.6185,-8.5963,-0.4969,-1.5363
1687,-0.7355,0.6017,0.6163,-4.3062,-1.4129,1.3492
1699,-0.735,0.6085,0.618,2.4571,-3.2907,4.7995
1712,-0.7369,0.6156,0.6178,4.4571,-3.4892,6.998
1726,-0.7362,0.6319,0.6231,-1.0543,-3.4282,3.6087
1766,-0.7345,0.6129,0.6273,-9.6803,-4.1915,-3.3989
1779,-0.733,0.6009,0.6292,-7.0085,-3.993,0.54
1793,-0.7333,0.5995,0.6268,1.4037,-3.7946,5.6698
1806,-0.7316,0.6212,0.6317,5.709,-3.4587,5.7919
1819,-0.7269,0.6407,0.6334,-0.291,-1.6266,-0.4982
1832,-0.7301,0.6254,0.6339,-5.1001,0.1138,-5.9791
1873,-0.7276,0.6002,0.6292,-3.1765,-0.3289,-4.086
1886,-0.7328,0.6051,0.627,-1.6803,-0.9701,-3.1241
1898,-0.7303,0.6041,0.6251,-1.6803,-1.4587,-2.7882
1912,-0.7291,0.608,0.6312,-2.291,-1.6114,-2.3455
1925,-0.7298,0.6005,0.6283,-1.4971,-1.0159,-0.9256
1938,-0.7298,0.6034,0.6312,-1.3139,-0.2068,0.6163
1979,-0.7311,0.6117,0.6348,1.5411,0.8467,1.0896
1992,-0.7318,0.6095,0.6341,-0.9933,0.8314,-0.9714
2004,-0.7289,0.6119,0.6258,-2.2452,0.6329,-2.9256
2018,-0.7308,0.6083,0.6307,-4.5963,-0.1152,-4.544
2031,-0.7279,0.598,0.6314,-3.4665,-0.2831,-4.0249
2044,-0.7333,0.5926,0.627,0.7625,-0.2984,-1.3684
2085,-0.7291,0.5997,0.6278,6.7014,0.4802,3.0744
2097,-0.7291,0.6105,0.6314,1.4342,1.0451,2.7232
2111,-0.7291,0.6073,0.6322,2.3655,1.0299,2.0973
2124,-0.7306,0.6085,0.6324,-0.0772,0.3276,0.2652
2135,-0.7352,0.6085,0.6309,-0.7337,0.3123,-1.0631
2149,-0.7325,0.6014,0.6317,-0.749,-0.0083,-2.1165
2189,-0.7303,0.6009,0.6336,3.8922,-0.8327,1.8072
2203,-0.7335,0.6061,0.6329,4.8846,-1.0312,3.227
2216,-0.7318,0.6083,0.6285,2.4724,-0.619,2.6163
2229,-0.7294,0.6158,0.6268,2.5487,-0.2526,1.4102
2241,-0.7294,0.618,0.6297,-0.123,0.1596,-0.8188
2255,-0.7298,0.61,0.6236,-1.7261,0.8314,-2.6356
2295,-0.7325,0.6056,0.6322,-2.1688,0.465,1.1812
2308,-0.7298,0.6066,0.6283,-3.2986,0.8009,1.8072
2322,-0.7289,0.6097,0.6307,-3.0085,0.4192,1.7003
2335,-0.732,0.6068,0.6305,-2.1078,0.6482,1.3797
2348,-0.734,0.6085,0.6309,-3.6803,-0.2068,0.0362
2360,-0.7313,0.6097,0.6287,-3.0085,-0.0388,-1.3073
2402,-0.7313,0.6012,0.6297,0.4266,-0.8785,0.6316
2415,-0.7313,0.6066,0.6292,1.1289,-0.6037,1.5476
2427,-0.7345,0.6083,0.6329,0.6098,0.0528,0.7079
2440,-0.7316,0.6066,0.6248,0.4724,-0.4511,0.311
2453,-0.7296,0.6073,0.6331,-0.1994,-0.1304,-0.8951
2465,-0.7308,0.6034,0.6285,0.1213,0.0528,-0.3608
2506,-0.7303,0.5983,0.6312,-0.6268,0.7703,1.5782
2519,-0.7316,0.6107,0.6285,-0.8558,1.2131,2.1125
2532,-0.7311,0.6083,0.6302,-2.4894,1.2741,1.3644
2544,-0.7347,0.6107,0.6317,-6.52,1.7016,-0.4371
2557,-0.7325,0.6026,0.6309,-8.9016,1.9001,-1.2615
2571,-0.735,0.5821,0.6236,-8.5352,1.1673,-0.3302
2611,-0.7318,0.6066,0.6305,-4.5963,-0.0083,2.3568
2624,-0.7274,0.6053,0.6292,-3.6803,-0.1762,1.5934
2638,-0.7359,0.6007,0.6292,-1.436,-0.0846,1.0896
2651,-0.7347,0.6061,0.6246,-0.3062,-0.0388,-0.1928
2663,-0.7303,0.6041,0.6331,-1.0391,0.3581,-1.231
2676,-0.7291,0.6046,0.6295,-2.0772,0.2054,-2.3608
2716,-0.7345,0.5958,0.6305,2.5335,0.6634,2.1736
2729,-0.7337,0.6031,0.6297,4.7472,0.9535,3.4866
2743,-0.7276,0.6678,0.6414,-3.9398,1.1978,-0.1776
2756,-0.7294,0.6114,0.6226,2.5945,-0.161,1.0286
2768,-0.7313,0.6039,0.6248,-12.0467,0.4955,-3.1089
2782,-0.7318,0.6017,0.6248,-4.352,-0.7717,-4.544
2823,-0.733,0.5975,0.63,1.9686,0.6329,2.2041
2835,-0.7294,0.6007,0.6278,3.8922,0.3276,2.6163
2848,-0.7323,0.61,0.629,5.1442,0.007,2.4484
2862,-0.7306,0.6117,0.627,1.0373,0.3276,0.5095
2875,-0.733,0.6337,0.6351,-1.9704,0.0528,-3.689
2887,-0.7362,0.6046,0.6229,-1.9704,-0.6495,-4.8035
2929,-0.7298,0.5807,0.6258,-7.9093,1.2436,-4.1012
2942,-0.7364,0.5909,0.6265,-3.207,0.6787,-1.6432
2954,-0.732,0.5907,0.6317,3.0678,0.4192,2.2347
2967,-0.7313,0.5973,0.6307,4.7167,-0.3747,3.8835
2981,-0.7313,0.6066,0.6273,1.6327,-0.2526,3.0744
2994,-0.732,0.5997,0.6297,1.709,-0.5732,2.4637
3035,-0.7325,0.6024,0.6214,-2.7184,-0.2068,-1.1547
3048,-0.7303,0.6014,0.628,-2.1078,-0.7564,-2.0707
3061,-0.7337,0.5946,0.6248,-0.9475,-0.6648,-1.0478
3073,-0.7306,0.5943,0.628,2.106,-0.7717,0.6621
3086,-0.7296,0.5929,0.6302,3.7701,0.0833,2.1125
3099,-0.7311,0.6002,0.6322,3.3579,0.4192,2.769
3140,-0.7325,0.6127,0.6312,-0.8558,0.2818,-1.0325
3153,-0.7286,0.6041,0.63,-3.9246,0.1902,-2.9256
3167,-0.7308,0.6009,0.6322,-4.52,0.8772,-2.4676
3180,-0.7345,0.6009,0.6331,-2.4284,0.0833,-0.6661
3193,-0.7294,0.5978,0.6322,-1.0085,0.3886,0.2041
3205,-0.7298,0.6044,0.6319,-0.0314,0.1291,1.0744
3246,-0.7298,0.6112,0.6339,-0.52,-0.3136,-3.1089
3260,-0.7335,0.6007,0.6275,-1.7719,0.0375,-4.1165
3273,-0.732,0.5975,0.6273,-1.0543,0.1596,-3.4753
3285,-0.7325,0.5939,0.6253,-1.3291,0.465,-2.8951
3299,-0.7337,0.5919,0.6261,-0.2452,0.4955,-2.147
3312,-0.7301,0.599,0.6251,0.6556,-0.0236,-1.0478
3352,-0.7281,0.5992,0.627,-1.0696,-0.39,0.0056
3366,-0.7301,0.5968,0.6229,-2.0772,-0.2984,0.2805
3379,-0.7318,0.5956,0.6334,-1.2833,-0.2984,0.5705
3392,-0.7259,0.5956,0.6329,0.1823,-0.161,1.5476
3405,-0.7345,0.5926,0.6322,1.877,0.0375,2.3568
3417,-0.7333,0.5968,0.6307,2.0449,0.0528,2.1736
3459,-0.7306,0.6,0.6241,-0.978,0.465,-1.5211
3472,-0.7301,0.5958,0.6263,-1.3139,-0.0846,-1.5821
3484,-0.733,0.5985,0.627,-2.0925,-0.4511,-1.0325
3497,-0.7342,0.5929,0.6229,-0.2604,-0.4205,-0.773
3510,-0.7284,0.5995,0.6243,1.938,-0.5579,-0.376
3523,-0.7316,0.6022,0.6348,0.3503,0.0222,-1.002
3563,-0.7308,0.5917,0.6314,0.1365,-0.2678,-0.4066
3576,-0.735,0.6002,0.6273,0.793,-0.6037,0.2347
3590,-0.734,0.5956,0.6302,3.4953,-1.4434,0.2194
3603,-0.7303,0.6002,0.6331,3.5564,-0.9243,-0.773
3615,-0.7306,0.5943,0.6263,4.7167,-1.0465,-0.773
3629,-0.7286,0.5961,0.6346,4.5945,-0.2831,-1.1394
3670,-0.7257,0.5948,0.6309,-5.4665,1.3047,-2.4676
3683,-0.732,0.5902,0.629,-0.2757,0.0986,-0.8035
3695,-0.7296,0.5917,0.6287,-0.3215,-0.1304,0.2957
3707,-0.7298,0.5956,0.6317,0.7625,-0.0083,1.0133
3719,-0.7335,0.597,0.6253,0.5335,-0.4816,0.7995
3732,-0.7308,0.6005,0.6278,0.0907,-0.4969,0.6163
3774,-0.7262,0.5939,0.6297,-1.3291,0.6634,-0.2081
3786,-0.7323,0.5968,0.627,-1.1765,0.8467,0.4942
3799,-0.7298,0.5939,0.6253,0.4571,1.0451,0.1889
3812,-0.7294,0.5995,0.6309,0.3808,0.1749,-0.0249
3825,-0.7347,0.5968,0.6275,-1.2986,-0.2068,-1.1699
3838,-0.7291,0.5951,0.6305,-1.6039,-0.2068,-1.5516
3879,-0.7298,0.5968,0.6319,2.5182,0.3276,1.3186
3892,-0.7284,0.5936,0.6309,3.0525,-0.0083,1.6698
3904,-0.7308,0.5934,0.6322,4.2892,-0.0694,1.1507
3917,-0.733,0.5948,0.6307,1.3426,1.1062,-1.002
3931,-0.7316,0.5948,0.6261,-2.7184,1.5795,-3.2463
3944,-0.735,0.588,0.6268,-2.1994,1.381,-2.5745
3984,-0.735,0.587,0.6319,1.2358,0.0222,1.6545
3997,-0.7345,0.5636,0.6185,1.6174,-0.0694,1.8988
4010,-0.7311,0.5934,0.6302,-0.9627,0.4192,0.8911
4024,-0.7342,0.5975,0.6314,-1.1917,0.6329,0.1278
4037,-0.7294,0.6,0.6378,-2.1383,0.6329,-0.7882
4049,-0.7323,0.5922,0.6241,-2.2604,0.6482,-0.7119
4091,-0.7328,0.5929,0.6253,-4.123,0.4039,-0.3608
4104,-0.7311,0.5858,0.6373,-2.291,0.5718,0.3873
4117,-0.7313,0.5907,0.63,-0.6268,1.0604,1.3644
4129,-0.7359,0.5919,0.6256,-1.7871,1.0146,1.8835
4142,-0.7364,0.5909,0.63,-1.6192,1.3047,1.3797
4155,-0.7291,0.5904,0.6263,0.0449,0.3123,1.4102
4197,-0.7289,0.5817,0.6287,-1.8482,0.2818,0.0362
4210,-0.7296,0.5907,0.6295,0.1518,0.2054,1.8682
4222,-0.7328,0.5873,0.6285,1.9686,-0.3289,2.8911
4236,-0.7323,0.5948,0.6268,2.3045,-0.3442,2.6927
4248,-0.7308,0.6024,0.6312,1.2663,-0.0999,1.0591
4261,-0.7318,0.5931,0.6302,0.2434,0.1138,-0.5745
4303,-0.7357,0.5846,0.6309,-0.3978,0.0222,-0.4524
4316,-0.734,0.579,0.6253,2.9304,0.297,2.1431
4328,-0.7281,0.5914,0.6251,4.2587,0.297,3.685
4341,-0.7318,0.6012,0.6214,4.2434,-0.3136,3.5018
4355,-0.7316,0.5946,0.6317,3.7243,-0.2526,2.5247
4368,-0.732,0.6002,0.6261,2.3045,-0.9549,0.5247
4408,-0.7301,0.5912,0.6251,-0.1383,0.1444,-2.1165
4422,-0.7298,0.5897,0.6287,1.0525,0.5108,-0.0096
4435,-0.7301,0.5941,0.6248,2.7319,0.1902,1.3492
4447,-0.7337,0.5948,0.6256,1.2968,0.0833,1.3034
4461,-0.7296,0.59,0.6263,3.3121,-0.619,2.6621
4473,-0.7323,0.599,0.6302,2.4266,0.068,0.4637
4515,-0.7335,0.5907,0.6305,-0.0162,0.2054,-1.0936
4527,-0.7357,0.598,0.629,0.7319,-0.0846,-0.2081
4540,-0.733,0.5961,0.6309,0.106,-0.1457,-0.5592
4553,-0.7323,0.5973,0.6302,0.8083,-0.2373,-0.3302
4565,-0.7316,0.5951,0.6326,-0.2604,-0.0541,-1.2157
4577,-0.7306,0.5929,0.6263,0.0602,0.2054,-0.5745
4619,-0.7355,0.5929,0.6239,-0.0162,0.4039,0.0973
4632,-0.7303,0.5912,0.6314,-1.1765,0.236,0.2347
4645,-0.7316,0.5961,0.6251,-1.7413,0.3886,-0.6661
4658,-0.7342,0.5931,0.6243,-1.4055,0.1749,-0.3913
4671,-0.7291,0.5914,0.6226,0.0144,-0.1915,-0.1776
4684,-0.7323,0.598,0.6287,0.335,-0.2984,-0.0554
4725,-0.7301,0.5953,0.6292,-1.9704,-0.3747,-1.1241
4737,-0.7264,0.5973,0.6234,-3.5887,0.6024,-1.7195
4750,-0.733,0.5892,0.6221,-1.9093,0.2207,-1.2005
4764,-0.7345,0.586,0.6285,-0.749,0.0986,-0.5287
4776,-0.7342,0.5919,0.6278,-0.1688,0.1902,0.7232
4788,-0.7357,0.5897,0.6295,1.6174,0.2818,1.7156
4829,-0.7333,0.5924,0.6314,-1.3597,0.4192,-1.7348
4842,-0.7345,0.5868,0.6312,-0.6879,0.7245,-0.834
4855,-0.7313,0.5875,0.6236,-1.2375,0.1596,-0.1165
4868,-0.7335,0.5943,0.6253,-0.1383,-0.5732,0.6469
4879,-0.7374,0.5939,0.6314,-1.207,-0.4663,0.311
4892,-0.7355,0.5863,0.6231,-0.2604,-0.1915,0.2194
4934,-0.7335,0.5951,0.6322,-2.1841,0.2665,-1.2921
4946,-0.7333,0.5912,0.6265,-1.5123,0.2054,-1.5058
4960,-0.734,0.587,0.6273,-0.6116,-0.1762,-1.2615
4973,-0.7313,0.5863,0.6283,0.4266,-0.5579,-0.4676
4985,-0.733,0.5839,0.6253,0.0449,-0.5427,0.1736
4996,-0.7311,0.5824,0.6268,2.2892,-0.0999,0.7843
5038,-0.7345,0.597,0.6297,-0.0314,0.0833,-0.6356
5051,-0.7337,0.5902,0.6307,-2.352,0.297,-1.6432
