time_ms,ax,ay,az,gx,gy,gz
12,-0.6927,0.7644,0.7152,0.1317,0.1119,0.1925
25,-0.6908,0.7627,0.7047,-1.6088,0.2035,-1.38
38,-0.6957,0.7515,0.7111,-1.7767,0.0966,-1.7922
78,-0.6947,0.7569,0.7133,-0.7844,-0.2392,1.4597
92,-0.6886,0.7574,0.714,-0.4027,0.2188,1.704
105,-0.6947,0.7574,0.7155,0.5591,0.6005,1.475
117,-0.6927,0.7623,0.7091,-0.0363,0.7684,0.6811
129,-0.6966,0.7581,0.7084,1.0172,0.3104,0.8643
143,-0.69,0.7566,0.7055,1.5668,-0.4377,1.0017
184,-0.69,0.7642,0.7106,0.9408,-0.1934,1.7498
196,-0.6922,0.7654,0.7069,-2.0515,0.0203,-0.006
210,-0.6918,0.752,0.7143,-0.2958,0.402,-0.067
223,-0.6964,0.7557,0.7157,1.2309,0.7837,1.475
236,-0.702,0.7557,0.7111,3.4599,-0.4224,4.4521
249,-0.7157,0.7474,0.7165,6.9714,-2.7889,10.4826
290,-0.932,0.6993,0.7714,37.6126,-7.3843,17.5818
303,-0.9898,0.8013,0.7629,18.1622,-26.056,0.5131
316,-0.8312,0.7867,0.8339,24.6049,-24.0255,0.8185
329,-0.7926,0.9324,0.5634,16.1622,-21.2621,8.162
341,-0.534,0.8926,0.5988,35.6889,-12.5904,35.1238
355,-0.4244,0.7845,0.5602,23.9943,2.234,39.9482
396,-0.3526,0.8995,0.6364,15.5668,55.9592,19.9024
408,-0.3932,0.907,0.8031,4.7882,64.3867,17.8108
422,-0.6405,0.8499,0.8044,-28.1584,58.5241,-3.0136
435,-1.3211,0.7989,1.2043,-42.6775,23.9287,-32.7998
448,-0.994,0.7203,0.8346,15.353,7.0279,-5.838
461,-0.5968,0.5911,0.7502,15.75,-2.2392,-9.4411
502,-1.246,0.7662,0.297,31.8111,-43.0026,-14.8762
515,-0.5169,0.815,1.3327,-17.3645,-63.8118,-43.3495
528,-0.6188,0.5547,0.8124,-42.3111,-74.453,-85.4869
542,-1.1105,0.2762,0.7233,-49.4714,-67.995,-84.1434
554,-0.5599,1.4444,0.5705,26.3607,-50.0102,-35.6395
568,-0.6866,0.8003,1.4264,35.2462,-30.9415,-22.1128
608,-0.8695,1.0074,0.6105,69.2767,9.3485,23.5513
621,-0.8226,0.9991,0.1786,-26.8149,0.631,-11.4258
635,-0.683,0.8223,0.5815,-45.6241,-2.1018,-17.0899
647,-0.8956,0.5784,0.3507,-73.6851,6.2493,-39.8685
660,-1.0504,0.5472,0.0834,-40.0057,31.6539,-40.235
673,-1.0084,1.0557,1.3283,31.2462,53.7455,7.6124
714,-0.4813,0.6243,1.2392,105.231,71.089,41.7192
727,-0.598,1.0386,0.4521,73.1393,59.0585,42.1315
740,-0.514,1.0354,1.11,52.9256,43.1195,41.1085
753,-0.6056,0.8299,0.8063,54.3149,30.3867,24.3605
766,-0.6786,0.8548,0.1286,36.9714,25.776,10.4826
778,-0.5331,0.7398,1.1296,50.0706,0.0356,15.1238
820,-0.7062,0.9241,0.7296,15.3072,-27.9492,-4.1128
833,-0.661,1.0359,0.6757,-34.3874,-36.514,-9.3647
846,-0.7052,1.1966,0.5451,-72.1889,-35.995,2.1773
859,-0.7523,1.1832,0.7184,-62.2958,-40.8347,41.7803
873,-0.6893,1.0579,0.7099,-63.4256,-42.4072,65.1544
886,-0.6144,0.8645,0.5871,-66.1737,-35.8423,51.8414
926,-0.4811,0.9026,0.5609,-75.563,20.3104,8.4979
939,-0.7311,0.5015,0.6737,-89.4561,21.4554,-15.151
952,-1.1275,-0.2356,0.5424,-80.4485,0.1424,-64.8456
965,-0.91,0.292,0.7768,53.2309,10.2493,-11.7922
978,-0.7069,-0.0839,0.6789,43.2767,-5.2774,-20.9831
991,-0.7557,0.92,0.3742,63.0935,3.318,-19.0899
1032,-0.7958,2.1592,1.161,88.1622,3.1043,-1.9602
1045,-0.7186,1.1475,1.258,16.7271,-1.1247,5.4444
1058,-0.6744,1.2842,0.7362,-2.4027,5.318,16.7116
1071,-0.6852,0.7823,0.683,3.7653,3.9898,-2.5556
1084,-0.7501,0.8374,0.705,4.8645,2.0966,-18.3418
1098,-0.7101,0.7571,0.6613,-14.0515,-1.2774,-22.922
1138,-0.6898,0.7327,0.6989,-0.9218,-6.285,12.4979
1151,-0.6839,0.7586,0.7004,10.8492,-3.7507,21.4902
1164,-0.683,0.7977,0.7055,6.895,-0.056,14.4215
1177,-0.7018,0.8023,0.7035,5.124,3.2569,3.765
1190,-0.7013,0.8082,0.7038,-1.6393,4.234,-5.8075
1203,-0.7001,0.7872,0.6874,-12.1126,3.089,-12.8762
1244,-0.6998,0.7564,0.6969,-12.2042,-2.2545,-1.6853
1257,-0.6893,0.7508,0.6881,-7.0439,-1.6744,3.1849
1270,-0.6927,0.7583,0.6967,-3.9294,-0.6362,3.8872
1283,-0.6971,0.7581,0.7043,-4.2042,1.5928,1.3681
1296,-0.6805,0.7574,0.6847,-5.105,3.944,-2.3571
1308,-0.7074,0.763,0.6979,-5.3035,5.2875,-4.2655
1350,-0.702,0.7671,0.6877,1.0019,3.6692,4.8032
1363,-0.7008,0.7945,0.6859,-10.7538,1.715,1.3986
1376,-0.7091,0.7647,0.6906,-15.9599,-0.2698,0.8795
1389,-0.7027,0.731,0.6894,-16.7233,-0.4835,6.1162
1402,-0.6908,0.7237,0.6671,-16.4485,0.7073,3.5818
1414,-0.6957,0.7547,0.684,-20.3416,-0.8805,0.8948
1455,-0.6952,0.751,0.6894,-4.8912,1.8982,1.5208
1469,-0.713,0.7669,0.6984,-5.7615,1.7455,0.0246
1482,-0.691,0.7156,0.6874,6.3454,0.3104,11.2154
1495,-0.6966,0.7698,0.6908,12.4675,-0.911,15.0322
1508,-0.701,0.7759,0.6945,5.4752,-1.3232,10.4826
1520,-0.7018,0.773,0.6884,5.0019,-0.911,6.7879
1562,-0.6944,0.784,0.6837,5.5057,-0.682,-0.754
1575,-0.702,0.773,0.6884,-0.647,-1.0942,-3.0441
1588,-0.7035,0.763,0.6933,0.3301,-2.0713,-1.1052
1601,-0.6918,0.7779,0.6913,-1.4103,-2.453,-0.5098
1614,-0.6974,0.7654,0.6903,-3.8683,-1.8728,-0.4792
1627,-0.6991,0.7679,0.7004,-0.1584,-0.7583,0.3299
1667,-0.6996,0.7732,0.6955,1.2004,-0.0713,2.1773
1681,-0.7035,0.7708,0.6877,1.9027,-1.0026,2.4521
1694,-0.6974,0.7818,0.6935,0.6202,-2.0866,1.6734
1708,-0.6942,0.7669,0.6938,-6.9523,-2.7736,-1.1968
1720,-0.6974,0.7679,0.7023,-7.2729,-1.9492,-1.7922
1733,-0.6971,0.7737,0.6906,-3.8836,-0.6209,-1.8686
1773,-0.6969,0.7662,0.6935,1.353,0.2951,-1.0899
1787,-0.7001,0.7632,0.6969,2.2996,0.3562,-0.006
1800,-0.6954,0.7625,0.6913,3.353,-0.0408,0.8643
1813,-0.6971,0.7708,0.695,5.9485,-0.3003,2.4215
1825,-0.6925,0.7793,0.693,1.1088,-0.4988,0.8032
1839,-0.6969,0.7811,0.6982,-4.8454,-0.8194,-1.5021
1880,-0.6952,0.7725,0.6996,-2.418,-0.3156,-1.4563
1893,-0.6974,0.7723,0.7013,0.0095,0.1272,-1.7311
1906,-0.7003,0.7652,0.6967,1.9485,0.6157,-0.4334
1919,-0.6986,0.7708,0.6957,-0.6622,-0.1171,-0.3418
1930,-0.6998,0.773,0.6974,-2.876,-0.6667,0.1009
1943,-0.7008,0.7752,0.6938,-4.25,-0.8957,-0.6319
1985,-0.6966,0.7657,0.7021,-1.4561,0.2035,-1.5174
1998,-0.6993,0.7613,0.7001,0.6507,0.2646,-0.1434
2010,-0.6979,0.7576,0.6984,5.3836,0.2188,2.6811
2024,-0.6976,0.7735,0.6999,3.8263,-0.2545,2.2689
2037,-0.691,0.7745,0.6923,0.1469,-0.4072,1.0627
2050,-0.6952,0.7657,0.695,-4.3264,-0.0713,-0.7693
2091,-0.6986,0.7684,0.6935,-0.7691,-0.2545,0.7116
2104,-0.6957,0.7557,0.694,-0.25,0.1577,1.1391
2117,-0.7013,0.7725,0.6891,0.895,0.1119,1.0322
2130,-0.6947,0.7715,0.6964,-3.334,0.0508,-2.3266
2143,-0.7015,0.762,0.6984,-5.4867,0.0966,-3.6243
2156,-0.6988,0.7625,0.7001,-4.3416,0.1272,-2.9678
2197,-0.693,0.7569,0.6911,4.6355,0.0203,2.2078
2210,-0.6918,0.7632,0.695,4.4065,-0.0866,2.4215
2222,-0.7005,0.7706,0.6962,0.0706,-0.0102,0.2536
2235,-0.6959,0.7576,0.6986,1.7653,0.4173,0.7879
2248,-0.6964,0.7576,0.6982,2.9714,0.3867,2.0093
2261,-0.6986,0.7654,0.6947,3.2614,0.1424,2.9559
2303,-0.701,0.7647,0.6986,-3.7767,0.0356,-1.8533
2316,-0.6949,0.7686,0.6935,-1.7309,0.234,-1.4716
2329,-0.692,0.7657,0.6933,-0.0057,-0.0713,-0.8151
2341,-0.7023,0.7605,0.6962,1.0172,0.1424,-0.2502
2354,-0.6988,0.7698,0.6945,-0.1737,-0.2698,-0.3418
2368,-0.6947,0.7664,0.6991,-2.3111,-0.7125,-0.922
2409,-0.694,0.7591,0.6989,-0.9218,-0.1782,1.0933
2421,-0.7005,0.7642,0.6986,0.6049,-0.6973,1.4597
2434,-0.6942,0.7659,0.6957,0.3454,-0.285,0.4368
2447,-0.6925,0.7701,0.7006,0.1927,0.0966,-0.6166
2460,-0.6988,0.763,0.6977,-1.3035,0.4936,-1.5327
2473,-0.6971,0.7576,0.696,-0.6012,0.5547,-1.0136
2514,-0.6947,0.7684,0.6964,2.4675,-0.3308,2.4673
2526,-0.694,0.774,0.7033,0.0706,-0.4682,0.5131
2539,-0.6971,0.7698,0.704,-1.0439,-0.056,-0.9067
2552,-0.6925,0.7701,0.6996,-2.0668,0.2798,-1.2731
2565,-0.6964,0.7637,0.705,-2.418,0.6005,-1.2426
2578,-0.6993,0.7615,0.6962,-1.792,0.6005,-0.1128
2618,-0.694,0.7737,0.6933,3.1393,-0.056,1.8108
2631,-0.6947,0.7728,0.6967,0.9714,0.1272,0.3452
2644,-0.6976,0.7747,0.6938,-2.5554,-0.5598,-1.4563
2657,-0.6983,0.7627,0.694,-4.4943,-0.514,-1.6548
2670,-0.6964,0.7625,0.6957,-4.0363,-0.4682,-0.6319
2683,-0.6986,0.762,0.6964,0.895,-0.056,1.765
2723,-0.6976,0.771,0.6999,-0.2347,0.0966,-1.1052
2737,-0.6983,0.7618,0.6957,-2.4943,-0.2087,-1.5937
2750,-0.6966,0.7679,0.6977,-2.7691,-0.224,-0.8609
2763,-0.6949,0.7671,0.7001,-2.4332,-0.1171,-0.296
2775,-0.6959,0.7684,0.6972,-2.937,0.2493,-0.7998
2788,-0.6996,0.7613,0.6974,-0.3722,0.3104,-0.5861
2830,-0.692,0.772,0.6967,-0.25,-0.8347,0.2841
2843,-0.7005,0.7664,0.7018,-0.7386,-0.1324,0.1467
2855,-0.6988,0.7679,0.7016,-0.647,0.0508,-0.0365
2867,-0.6976,0.761,0.7016,-0.3874,0.6615,-0.464
2878,-0.6983,0.762,0.7011,0.8492,0.7989,0.2078
2891,-0.6998,0.7647,0.6986,1.8416,0.2798,1.5666
2931,-0.6954,0.7691,0.7013,-4.7538,0.3104,-2.5403
2945,-0.6971,0.7659,0.7001,-2.9218,0.6463,-2.9983
2958,-0.6954,0.7564,0.7018,-1.8683,0.8753,-2.1739
2971,-0.7005,0.7591,0.6979,0.666,0.3562,-0.006
2983,-0.6957,0.7588,0.6955,1.8263,-0.056,1.7803
2995,-0.6937,0.7625,0.6984,3.4446,-0.3308,3.1238
3037,-0.6964,0.7686,0.705,-1.0744,0.234,-2.6777
3050,-0.6949,0.7701,0.6989,-4.3874,0.6921,-3.1815
3062,-0.7018,0.7583,0.6957,-3.5325,0.234,-1.5021
3076,-0.6961,0.7618,0.6986,-2.647,-0.1018,0.3605
3089,-0.6961,0.7593,0.6994,-0.25,-0.5751,1.9177
3102,-0.6942,0.7657,0.6982,0.4217,-0.1934,1.5971
3142,-0.6993,0.7627,0.7021,-0.1126,0.5394,-0.9678
3155,-0.6979,0.7583,0.6986,0.4675,0.2188,0.6505
3169,-0.7025,0.7698,0.6972,1.3988,0.234,2.1162
3182,-0.6927,0.7693,0.7023,-0.4943,-0.1629,2.2689
3195,-0.6964,0.7715,0.6996,-0.0973,-0.4377,1.7803
3208,-0.6964,0.7706,0.6984,-0.876,-0.1018,0.1162
3248,-0.6927,0.7681,0.6977,-0.8607,0.4173,-1.1357
3262,-0.6971,0.7593,0.6967,-0.5706,0.0508,0.5742
3275,-0.6954,0.7644,0.6964,0.0095,-0.1629,1.8108
3287,-0.6971,0.7642,0.7016,1.582,0.0508,2.8185
3301,-0.6964,0.7671,0.7013,-0.2195,-0.3003,0.6658
3314,-0.6969,0.7652,0.7008,0.1164,0.0661,-0.7388
3355,-0.6961,0.7691,0.6991,-1.5019,-0.3003,-1.0747
3367,-0.6959,0.764,0.694,-1.8836,-0.5598,0.162
3380,-0.6954,0.762,0.7023,-1.8531,-0.8652,0.2536
3393,-0.693,0.7659,0.6994,0.4065,-0.0713,0.5742
3406,-0.6935,0.7649,0.7008,0.6507,0.5547,-0.0365
3418,-0.6952,0.7671,0.6991,1.3225,0.4478,-0.525
3459,-0.6957,0.7706,0.6982,0.0859,-0.5751,1.2154
3472,-0.6954,0.7671,0.6996,-2.25,-0.3156,0.3452
3485,-0.6922,0.7644,0.6974,-1.2882,-0.1476,0.4368
3497,-0.6964,0.7691,0.696,-1.1966,-0.0866,-1.2579
3510,-0.6988,0.7632,0.7021,0.3912,0.5241,-1.6395
3524,-0.6949,0.7605,0.6994,2.7118,0.402,-0.4487
3565,-0.6954,0.7579,0.7016,-0.6622,-0.4988,1.5208
3577,-0.6952,0.7649,0.6972,0.3301,0.0508,1.704
3591,-0.693,0.7688,0.7047,-0.6012,0.2951,0.2841
3604,-0.6986,0.7647,0.6989,0.9714,0.7073,0.0551
3616,-0.6991,0.7703,0.7028,0.8798,0.4783,-0.1892
3627,-0.701,0.7742,0.6964,-0.1279,0.1119,-0.6777
3669,-0.6937,0.7676,0.7043,0.8798,-0.2698,1.2918
3681,-0.6964,0.7671,0.6994,-0.0668,0.4325,0.1314
3693,-0.6966,0.7644,0.6984,1.4141,0.6157,-0.0976
3707,-0.6993,0.7659,0.6964,1.124,0.6768,-0.7082
3720,-0.6998,0.7669,0.694,0.7118,0.2188,-0.2808
3733,-0.6979,0.7664,0.6945,-0.4485,-0.7736,-0.2044
3774,-0.6922,0.7623,0.7047,0.3912,0.3562,-0.0823
