time_ms,ax,ay,az,gx,gy,gz
0,-0.6066679935449178,0.4382368346633295,0.6990527817078352,1.599296997937775,0.4664921108771871,2.965037398654326
10,-0.579519659974578,0.4708055689859136,0.7334054802595249,-3.2262722016776695,-3.5621780457246754,-3.7252844062822454
20,-0.5945314125664644,0.45086390391045317,0.7189330266880322,2.2954606079639586,2.7674441468458983,0.5474736566402503
30,-0.5811260947362529,0.45961198633414785,0.7240662067300921,-0.2561102462928957,-1.8003981467209438,-1.9177719200798313
40,-0.5830943107892497,0.46254796642525137,0.7284139922787086,2.599916338624424,0.5182877651393923,1.0883669025849416
50,-0.5673640749353481,0.4775587761238624,0.7405980367038444,1.1078778615648517,1.4190847702257654,0.32517415349839357
60,-0.5862067810162764,0.4593650540110937,0.7207541208719005,-1.4326475234616387,-1.2529852151550258,-3.1220286618660116
70,-0.6110384960670308,0.44112788052244156,0.7045167606786042,-3.431429123460119,-0.9590210584740514,-2.78283683476823
80,-0.5630328471467396,0.4819496050664136,0.7469887189413388,-0.6404019067930034,0.08556047277092374,0.16553468880250796
90,-0.5645454199687395,0.47782630467095566,0.7459578523317205,-0.4969096907279523,-1.7433671412889946,-0.6246006117800794
100,-0.5811356067706254,0.46605299185796,0.7281813312325274,0.9617423595243444,-0.7335930369339164,0.43145259482877557
110,-0.579654272804763,0.46325477714908325,0.7287552823081985,-0.24037110193946054,-3.1866244726281368,-2.079812251371547
120,-0.6075978670564007,0.43591855579111205,0.7032223567079425,-2.7716263478791645,-4.87337374778875,-5.479974560532549
130,-0.6037727220478308,0.4376625523928444,0.7076536542349242,1.1559317231695578,-1.2493061054393186,-1.4957777280912137
140,-0.5775469178314191,0.4642534393930972,0.7326456837783705,2.871473753705831,0.9177000746704286,1.0733515663779563
150,-0.5666274718845641,0.4806309544761015,0.7458597377360057,0.45096087646408956,-0.5462943154944588,-0.7612510971425519
160,-0.5617676084063108,0.4861000176516168,0.7510842598975606,6.0121271282963855,5.854144430816865,4.69861912478791
170,-0.58032390640594,0.4642697300330838,0.7299709844908594,0.07857449341838148,1.3554822203330013,-1.0085558749976233
180,-0.5938767032119042,0.4483615360063342,0.7110693593785286,-0.5977834683312435,2.323073248259497,1.4036144504856805
190,-0.5623586112595189,0.4835244122620344,0.7417912727088793,-2.3651987835925627,-1.0077828595705927,-0.49924406318673564
200,-0.5692544177990153,0.4758616404230043,0.7404115604327504,-0.2953684972282733,-0.7338923139274127,0.9086243688146451
210,-0.5654654331946714,0.4755799605149454,0.7444146482636046,-2.7623755580357097,-3.815968548219619,-2.033700485664206
220,-0.5516060105635952,0.48589505554352297,0.7608702183108713,1.5783414433352947,1.524273135115036,1.9871333468812542
230,-0.583190224083745,0.4577924452684426,0.7297686049667677,5.964837440305719,2.474380563245857,3.1511943388371164
240,-0.5915682965082074,0.46646282910049974,0.7198449120346737,3.2411835724897995,-0.16363339217568454,-0.0063061244262777524
250,-0.563653183651149,0.4825391959701477,0.7461285636576002,0.8195605264517833,1.0227275279278223,-0.9265838809677858
260,-0.5594332067587169,0.4882688277304755,0.7545519291806803,-5.061311348960441,-2.0516995743807986,-4.295752229505689
270,-0.5688793039312345,0.4720123404978249,0.742966693243732,-8.371605668157052,-2.618533463511576,-4.57427497302368
280,-0.5953039159072875,0.46268968894745827,0.7161997467124728,-2.4222740971628487,-2.426590865328101,0.9599884990192191
290,-0.6339880382168586,0.49079380173351067,0.7024995590270111,4.970899466023885,-1.2488975800778819,6.231379890430587
300,-0.6875940056114931,0.4438154726680886,0.7196890779723464,27.239892602998612,18.764521624409053,16.90273524398863
310,-0.7987784466865695,0.2874909525367255,0.8852306059703523,27.607315456378082,-0.674403909177266,2.25627969442703
320,-0.5995926218089216,0.4142140371928643,0.7236866590246649,36.12142303419812,-29.01788270700077,-2.9134299763350473
330,-0.5480147679039966,0.43257010878807034,0.6628527409429721,42.472261786853466,16.49537070508957,-11.557616379321793
340,-0.5917527095735664,0.478532401919186,0.7092944467563385,41.12685708548617,23.019809831591317,-14.869826325637636
350,-0.5171979840090757,0.570497752755616,0.7545363467083376,38.87296271748248,25.202006513480853,-20.048166358001556
360,-0.5049926532820164,0.6402678204575564,0.6890652025711144,31.22238707650149,29.30635781814414,-17.597599081129076
370,-0.46518063113175323,0.6220855466463272,0.7165837573386642,25.570013290918205,34.35733718110677,-13.439954362134241
380,-0.5388316892323073,0.6422339223752631,0.6906804139840335,5.846831039453894,44.41455008060823,-2.648941310509736
390,-0.5298342086223475,0.5737159962247422,0.6267914837773381,3.4374982218498804,50.95901784904954,4.0938958655626365
400,-0.6429181291816015,0.2678319647106238,0.6321637119610416,21.815730855045622,1.5514450615166866,-19.217908275201555
410,-0.6266741579052985,0.48738535426585333,0.7080874425511783,2.8201015645627434,1.248694296099921,-4.838129965568445
420,-0.6003684690316844,0.5205873039568252,0.7114414375614023,0.772271309785074,3.908089479115029,-0.9915538173833289
430,-0.5908545248593197,0.5222110248069404,0.7064365903896224,-13.661613306512944,1.7913447514509562,-1.0630251253667589
440,-0.6039482133754476,0.49338341558448123,0.6900459922367861,-14.091208201083166,6.079070257912842,1.1704196323150091
450,-0.6154050203359427,0.48591678044823466,0.6897134328570987,-20.517375638418564,6.2553165043544965,-1.30180588307902
460,-0.6009403835892969,0.48963728289514175,0.6986640383303054,-11.508978710139047,9.242866030924077,5.02127158919123
470,-0.4884610965598818,0.4453790290203402,0.9306984551787311,-12.472110598713183,-22.932761785337558,0.06028468864533221
480,-0.45807810385491127,0.47271756476378174,0.7368025309895923,-21.889258176423972,-78.9514334331908,4.690020401152518
490,-0.38389622798676787,0.29955128346339266,0.857611570677791,-33.90902857697416,-76.87017422132055,12.451717322068355
500,-0.6947889825560483,-0.06344662448115021,0.8670309915719915,-18.53831413718086,-74.6571977731834,1.2152520973936234
510,0.07004825477376092,0.34580260314178374,0.8964859397136491,19.896349155750936,-75.82510577827709,-0.9891376030752655
520,-0.6052520521808143,0.3332803947414344,0.7899808387474381,-0.3825773500995959,-58.44893652394354,-13.470397914622772
530,-0.4662664826324032,0.6191542784226073,0.8025034505741466,-12.645836393594767,-48.74197392162394,-29.532043588916228
540,-0.7059876480663988,0.21786085513959894,0.7983415789803054,-3.0397504406087643,-38.314133152474,-69.09542438049786
550,-0.5568004958462237,-0.00198896702242741,0.6609641218424634,-43.673306347430135,-34.033510854585224,-54.45123846086645
560,-0.47909031086435966,0.8040424366722625,0.9615733305164886,0.4971347816327243,-32.435120867290344,-44.87016203691117
570,-0.5393736943596024,0.553795565939219,0.9561936962497567,-7.1920258022490575,-17.304720081173645,-33.45249853862789
580,-0.5081944165349546,0.6045222480687724,0.8400878056685298,-18.798150151305055,-6.8275796095805354,-3.658211206032872
590,-0.6185031489239369,0.7214217350864672,0.7484346623432172,-31.771718344723237,4.169920973768345,-10.721940352338331
600,-0.670446575262593,0.20207433257764817,0.4807505860033056,-42.52333777131399,20.587315895912912,-29.114714158624817
610,-0.6313303188047582,0.14918379853718916,0.6282803563812687,-28.87736652523076,34.96658726427651,-17.79905429904367
620,-0.3358435604390142,0.2577250353397699,1.0528559870107514,6.43368580902613,52.00366792682439,1.6038408765087233
630,-0.3293451256471501,0.7423561275713778,1.342764330176231,77.36423845711997,72.67816769028812,4.672105537504335
640,-0.9799587750852877,0.5774416423885507,-0.41650178603073645,46.12104800079574,86.4082994263746,9.496478127307663
650,-0.316584705927377,0.6822328507660566,1.534972016497,67.74520420904412,78.61370505589406,7.613283281404657
660,-0.5006509702886086,0.6068210715785354,1.1999594337268404,74.95938281922903,95.87822325616266,-13.984591586091154
670,-0.4290622857937729,0.6763359762391525,0.9498247813063291,48.70566273036518,77.51256415317684,-3.056995262961434
680,-0.7471838268813805,-0.3920288734712796,0.5747021611808977,-3.511217972594487,63.64789966636776,18.53416819364922
690,-0.24466403612682136,0.3722955775896111,1.7774039246636457,99.90025897942789,54.241472781469156,-1.3516062514940854
700,-0.41838237392756494,0.4497771176276495,0.9759264674503838,3.182699067622625,34.85049794911783,0.10292572656701404
710,-0.6039207752060608,0.39351081253577563,0.6564800118696954,-35.6127596511611,20.156143313757916,8.195791804022136
720,-0.6688121009361756,0.515085033184765,0.5666371409298413,-10.076683079569072,9.086087840688677,4.539310640312798
730,-0.5986547196960225,0.47107376544723634,0.6905905154691732,-3.739749908577153,1.7622032210393264,0.4363748980887884
740,-0.6597501470339567,0.4431322264269184,0.6183982793775841,-9.558180825516267,-2.992428356597772,-5.3094135788726415
750,-0.6553605692416359,0.45416362073650984,0.6204524686935863,-5.3539202660751695,0.2871890197020595,-2.6820492988443947
760,-0.6255927774611408,0.4824190229610582,0.6477976102099618,-7.600141223931475,-4.304013039876824,-6.552698546264186
770,-0.6404514490039513,0.47125996749930466,0.6297862200264196,-1.1616016797807394,-4.799530580758693,4.339546571448784
780,-0.6281811331138376,0.49116155375722365,0.6513788358730123,-10.411167065734357,-3.9680909667692283,6.897045825686134
790,-0.6693261313240888,0.550326824762791,0.8052307079751977,-23.48787146537798,-10.621573511307645,17.082398713529773
800,-0.7723920201451693,0.6309068488210194,0.952245369920856,-34.19813751686419,-68.49876949352837,32.48574383935233
810,-0.7151838920618729,0.5393474564989146,0.7442331776930177,-35.576402785947245,-86.42159991678324,17.49840933740745
820,-0.5039038078056564,0.5601642462482408,0.6872318180913991,-47.2262596691946,-68.85743546682372,18.071108161838115
830,-0.43210937570284486,0.5880376790541125,0.657905495296529,-53.34894882518247,-56.71477491102741,32.43584555609241
840,-0.46826004973045754,0.5093439321448396,0.6150121858805604,-54.76153083260117,-44.62676323289835,40.50114390915244
850,-0.5210199106253812,0.39350156905105466,0.5994028939324707,-48.11476164539487,-21.78929041904097,40.38992796314674
860,-0.5248273839896515,0.4157673211911099,0.5035514854531271,-39.04082362603373,-0.8809409946439422,24.388876010443177
870,-0.49047114829858196,0.3801085112493304,0.5291911060032662,-30.96162404159062,46.2618594737217,16.309236725703236
880,-0.5543839523265969,0.4038859055180955,0.5525870912139967,-23.560229178703402,43.10453070076136,11.619261129893122
890,-0.681014316121568,0.4860705827334496,0.5324310279801653,-3.1936758828502514,-19.96905077019509,1.642245967536906
900,-0.5606201893278503,0.5239851479724303,0.7535691748774279,23.34222597091823,-6.615584934693171,13.23958798741572
910,-0.5373340863857434,0.2875829707108662,0.9133213218626527,35.015441694309914,-12.371304351801543,-3.3203943805769764
920,-0.21014706482362777,0.3446701999091675,0.876489590344797,0.6395612032738502,16.137258493739886,-58.52691711783369
930,-0.5532714710479454,-0.04285776396041241,0.9717640099770208,38.907845833721154,8.823099807463361,-69.00244879418865
940,-0.42503666115236116,0.8496296053358481,0.788491832207283,63.9711987630326,8.581455010351107,-52.57450251035787
950,-1.01917691283283,1.0224648676894876,0.595814084696563,84.49966444292293,10.658821426220666,-41.7911746022431
960,-0.5787180056561118,1.166183534577762,0.6135885489860695,15.996558788236127,-0.06596866690540737,13.518952442011578
970,-0.5919061550690338,0.5239538074384213,0.6903063595169702,-2.200854503233142,3.8182236962324243,-20.96203628045339
980,-0.559998615562295,0.5082097903130396,0.7574284540859344,-10.894037726189573,7.293248648901444,-17.454726944536915
990,-0.5865378382053335,0.43337772156906673,0.7169651988017728,-12.454908842092886,5.705106591096025,-16.920363334783673
1000,-0.6137891033925665,0.3873675058689995,0.6840905685772156,-4.862043069108813,-0.3149169130963081,-8.369953929165396
1010,-0.5899900267619075,0.41989643739822247,0.7080079503870617,4.651424287575108,-4.812302454465881,2.4891554652783725
1020,-0.5702201747693938,0.46390575191973965,0.728347488930714,-5.01828739309027,-3.782787311978349,-3.180841787862379
1030,-0.6066228041852367,0.42737138681959863,0.6955259027748263,-4.487491435562701,-0.8331596589386286,-4.7091282003617785
1040,-0.5571168765241831,0.46879209041938397,0.7429336136248067,-3.5758496512528932,1.753122794883961,-4.71482683603957
1050,-0.5628696321177021,0.4510914306602167,0.7331155711615185,-2.5276003035070276,2.8292699536096935,-3.5068544264239305
1060,-0.6093435933074709,0.4123522169607995,0.6862860369273962,-2.9454067757127484,0.6371349426144179,-2.4202187038243315
1070,-0.6071383940348781,0.42054698701109317,0.6929249148979439,1.503254310215167,0.04954503322997772,3.31476557294522
1080,-0.5829497972130877,0.4496436850139746,0.7178752445500097,1.4202343002289597,1.371062747188403,1.2656466080712638
1090,-0.5668063286199957,0.4650709563329515,0.7339222213430018,-0.2674685684991005,1.9825901438758193,-1.9086711311919047
1100,-0.6123134010721708,0.41304267356293056,0.6909709362282059,-0.6201867017899065,2.1653183160642113,-2.1139377202788254
1110,-0.5811230405957597,0.4363014535861502,0.7133755662298957,-3.86578516741229,0.07250708866032396,-3.2676397372010655
1120,-0.5715117597783453,0.4438640516289211,0.7322344235148645,-1.5795211966283682,-1.7850990096475008,-3.6129864949677337
1130,-0.6114920993746656,0.4092541797767507,0.6899946799915553,2.0746922468002227,0.6254491680898302,-2.5316721948380194
1140,-0.5876812005560179,0.4357095698242725,0.7092132438500226,0.6166608405818148,2.6106888514772315,-1.510831152741996
1150,-0.6136789502979868,0.41228447925846384,0.6844876496852061,-2.128398499921965,4.6470221729253405,0.8533568094818506
1160,-0.5923133602178686,0.42610308023160565,0.706422060773773,-4.605888627194508,4.034326073970233,2.388595955822604
1170,-0.5967612460660874,0.41123577444746406,0.7007732861812076,-4.25490009297969,-0.39043044168769697,1.1462404486167832
1180,-0.606648407165916,0.3999588604646818,0.6892096003391038,5.9288601158163585,2.0523946578900785,6.3210082476838
1190,-0.5973322999198235,0.4221161756412955,0.689262475373907,5.029790188512562,1.4504733283118685,6.075100205056207
1200,-0.5883777405793355,0.4362775159223065,0.7102108039658828,2.04424099030376,2.8042605457007386,4.48909299680287
1210,-0.6361399362692755,0.3831144971154168,0.6632999050697039,-3.3118022817861177,1.945013679061467,1.2245707113923707
1220,-0.5911456434003955,0.4223604460556836,0.7038040691454852,5.852979892796144,9.288387950051595,9.718850520609237
1230,-0.5904283997099481,0.43428248092092253,0.7085154863268136,4.166919993191086,3.9453896124443286,5.989716956966363
1240,-0.602783554543812,0.4408826707145342,0.6890014197459613,-1.7641642821838874,2.3490386764427487,3.4003869006538423
1250,-0.5871361475997958,0.4527825065761254,0.7114617562272757,-15.141614767098698,0.344870108767104,-2.9848212000939545
1260,-0.5744363508044151,0.4514618750489148,0.7268284956960465,-10.342804724294043,4.741162244110647,7.54284418970764
1270,-0.585918581831042,0.4406097071396064,0.7065587588151044,-3.2405136400754966,-3.579827337598516,9.258524382798807
1280,-0.6153105628184578,0.42462464894716234,0.679779892864521,-4.557286897128639,-3.2555428532711255,6.8056602632869865
1290,-0.6117907044070157,0.4176587183818138,0.6846086362044718,-8.00695068887266,-2.2478369908943425,4.1487041276921826
1300,-0.5800550489036789,0.44351254268181295,0.7155831966683064,-4.939591457793977,-2.723704634613785,4.411689149236757
1310,-0.571699252488526,0.4593629063394432,0.7237818128797974,5.357665961986804,-3.3564631563208636,7.413734297132379
1320,-0.6028412913766763,0.43745301660989827,0.6984257157794713,10.526004550143405,-3.90522210168638,8.715793120805783
1330,-0.5764388578413561,0.4775909676189062,0.721342142062868,5.988045169745901,-1.8110674991064892,7.417810219641737
1340,-0.5693307085184469,0.479011844531725,0.7280238871011346,-0.5215998214177371,1.8184010594129125,3.779516443546179
1350,-0.5922403531852295,0.4586011458134697,0.7090524956072333,-2.9218614629243964,2.5802652086922744,-0.48028729623188915
1360,-0.6055895053473451,0.4304481814144959,0.6933400978378084,-3.7053893994071547,0.3640589394000863,-0.5340464274340535
1370,-0.6090396665530399,0.4200903500344389,0.6861452461625519,-0.33151602492634913,-2.388371947905658,2.4320760636447094
1380,-0.5806724373605217,0.4601173211096491,0.7163425168301534,-2.964739632644228,-4.577014251374569,-0.32341196401318406
1390,-0.5866581467127779,0.4475831600059423,0.7127203159509938,-1.9654358085723316,-1.5925870732357248,-0.780288951712669
1400,-0.6049320182096561,0.42155477721927953,0.6938103123180187,-1.9586684834293802,-3.1720469973788488,-3.1836770192269186
1410,-0.5888412526369676,0.43780506503538485,0.7056295078487771,-0.6599405586423103,-1.1121934445008792,-3.11880431715667
1420,-0.6137316990493297,0.4141666619261731,0.6905223204658827,-1.1849508503274375,-1.0204488342645113,-3.045447843159421
1430,-0.606780212654733,0.4104352860689587,0.6941690000963924,3.1876911579279423,2.8031379567930084,1.4077023837851494
1440,-0.6085965896084382,0.4107479960240593,0.6872419634288803,2.716015527406044,2.44161620347547,2.2365726833001958
1450,-0.6011888055095058,0.42019465856367194,0.6919276199468118,2.3191417671926082,-0.6060046170519802,1.4952288255184893
1460,-0.5785932753063274,0.4504548358146718,0.7195131540274796,0.11429992746696971,-1.6903298982553245,-1.2830979197896126
1470,-0.5707766957129339,0.44830242985168217,0.7263537203024386,2.219292000299749,-0.21636731461873637,0.07400211376287569
1480,-0.5852796667734734,0.4364713515945339,0.7106395253135972,0.2677516120188346,-1.7315658699284455,0.6900712319926849
1490,-0.57762939870063,0.44557956854654995,0.7194412630880737,9.787176422630584,0.19498477778434609,6.019078187359317
1500,-0.5980078775317519,0.43014483327741165,0.7012929261482164,16.766545529991227,-1.2492900882509146,7.731305583583647
1510,-0.588066766747718,0.45887130588573294,0.7137191503442558,1.5027293434289255,-0.4052621563626504,0.8483707567196879
1520,-0.5839682774481821,0.4539549838212952,0.7180977407689443,-2.8744852410945403,2.2654470367543764,-0.527537497439134
1530,-0.5580618190765608,0.4733047529127815,0.7448719164215499,-2.737222476564441,0.5954564443139423,-1.9663735066096248
1540,-0.6014056208141544,0.4255807803111161,0.7002940723119739,4.400276329729734,3.1276593083610695,3.510118767169449
1550,-0.5944276004436789,0.4365314545551335,0.7031928793408011,6.389035802754844,-0.27124510662850004,3.6072723091220498
1560,-0.5765688236783457,0.47461617414249924,0.7294721412323192,1.849384685834384,2.5956319199270053,4.158068210435224
1570,-0.5718936149559312,0.47231524225414845,0.7286574171598829,-1.0179644298672748,0.9152555194571763,1.491995721446396
1580,-0.6107341596961767,0.4332500419351588,0.6909055559261806,-3.0489709427580705,-0.7676787538222873,-1.6000399822843414
1590,-0.569648871817792,0.47447796721554664,0.7306397738716895,-3.6444644984723267,-2.5374980667163736,-4.046463481146363
1600,-0.5912888967634289,0.44989620204651626,0.7084644568640555,-3.014072414152385,-1.3934543687489676,-3.266259020131624
1610,-0.627121401180828,0.41615252065595576,0.6816594634621871,-0.271402620306739,-5.07194639904929,-0.4738931835244189
1620,-0.5988927243324711,0.44067661598125835,0.7034466386154204,5.914681531430637,0.9699094188595243,5.0490320097171395
1630,-0.5631299902339879,0.4823454658202182,0.7409433395284329,-0.9461757519923526,-4.562886728987044,-2.7431551102250733
1640,-0.5903888224942643,0.4529633757242978,0.7159825301282879,0.7813343708042338,-0.012268537338421481,-1.459570786105367
1650,-0.5814800122957021,0.4555455553731185,0.723297431161624,0.9605077358324231,1.2560101035459437,-1.5061405505876297
1660,-0.5888990105654425,0.45281723410437236,0.7142150436321992,-1.692727020606325,-1.4046832224263235,-0.9079751943891383
1670,-0.5873343930362389,0.4529709726576643,0.7168964128513017,-2.561374380106108,-1.4279607665349017,0.03747338933463418
1680,-0.5792564134073438,0.4596682528399788,0.7242210247333473,-4.0970399464655625,-0.3984778261691173,-0.3309473612663158
1690,-0.6051279351504903,0.43284118954370426,0.6971496228591746,-5.1630556820783955,-2.3822849029524726,-2.7167038869460556
1700,-0.5913580992364218,0.4450572194226111,0.7065395350106206,-3.7256723837111188,-0.3821131062976034,-1.4062350226934413
1710,-0.5983717699465011,0.44356821755804365,0.7017750415079039,1.7386886047852963,1.3085074431446568,0.8358114339349674
1720,-0.6216640231115323,0.4217287787781209,0.6844797086270896,-3.4164834155785115,-0.7185912921385247,-3.4639707472095638
1730,-0.5735261710002703,0.460486768687959,0.7278030939012314,-4.82971661232885,-1.6538733872073308,-4.702543027537525
1740,-0.5655506554366184,0.45212737268275394,0.7339336011194698,0.06771854370691721,-1.1320033251931418,-2.5056285524945903
1750,-0.5819037258543218,0.4447144257173206,0.72220681595663,1.8167753819815071,-2.189933376416698,-1.9901860246247345
1760,-0.5714421308266477,0.4659728380065328,0.7329953533354858,-5.115860208572222,-0.5243791129571189,-6.063448119825326
1770,-0.5916843041782912,0.43838240487655394,0.7086595546873848,-3.651209912432643,1.767430157202207,-2.423571003946096
1780,-0.5875745204794229,0.4417725890545593,0.7134481536249793,-0.764481020777134,1.3061525945185184,0.44418571744752433
1790,-0.5930066476621465,0.43504368421543343,0.7063644164092456,0.9404546237974053,0.27514531953186977,1.4116351873715218
1800,-0.5813125418140805,0.449437399620854,0.7165518225481687,-1.2921180970232669,-3.567173794385745,-1.8373735100905715
1810,-0.5941236664897255,0.43174892661471764,0.7044681528753716,-2.422624806775175,-0.9170731007861024,-2.3864368519169044
1820,-0.5869375494476943,0.43933361945840516,0.7132126214155905,0.5749189933631607,-0.09992767322217688,-0.8068408208230167
1830,-0.5836634709537692,0.44847660888681856,0.7229872612694181,2.920234225469983,1.256030966907901,0.7294239454576813
1840,-0.606492111984324,0.42144697272495013,0.6940516316924985,2.7798165728809767,-0.7589696456784383,-0.31217655288695384
1850,-0.5774674614856524,0.4558923100286826,0.722960966847402,2.2266915231509814,-0.15332328710569573,-0.12394812503889949
1860,-0.5726820160560462,0.46086246982237966,0.7261801954580268,-2.0298570356965184,-1.991234120012594,-2.0796130041182046
1870,-0.6018859183175982,0.42749573498909815,0.702286746056427,0.8942545369631966,-0.6251352659322877,0.6945945959603487
1880,-0.5493474534407846,0.4921349327998058,0.7480793066838748,1.0992042221261045,1.053404879536872,2.4348684118308093
1890,-0.5719042016208241,0.4571642683239962,0.7321003883690786,-4.6634516460546305,-0.9212733660845525,-2.156778065780242
1900,-0.6022215605483106,0.4284279336667901,0.7022275934640436,-1.492835789809269,1.6597380107953301,0.1841306513583082
1910,-0.612924858591813,0.4201604998880083,0.6856105410972095,2.200153489434284,1.168774647295905,2.8871587646358456
1920,-0.6138040891277536,0.42008498308801484,0.6869165783781614,1.809982679736862,0.592724251707156,2.3809254597161567
1930,-0.5874971160950989,0.444666060961925,0.7133712356705446,-4.884729323876699,-2.125391269421327,-3.0021611809581716
1940,-0.5768154724662972,0.45025679621461767,0.723734236452507,-4.236946225329333,-4.643973379381672,-5.518774964333627
1950,-0.5535450646062398,0.4721552189278395,0.7469900777824525,2.1075796017785464,1.5206165346342568,0.9292930998480613
1960,-0.5704517526857281,0.45740081673977695,0.7329068827204996,2.161090664620145,2.1030881511890795,1.9664497189074641
1970,-0.6045975459336052,0.4273093981176692,0.6998271599026007,-1.136043904224285,-0.2047965715000748,-0.9358567171554365
1980,-0.6000024558494698,0.4279500956627116,0.6971149857562139,-0.37392925433538365,1.3237900620336378,-0.37872019787837347
1990,-0.6000752130630842,0.4304748000567812,0.6988810113814282,0.07078504854522194,2.0448308799901733,-0.14044791057958905
2000,-0.5979934574013326,0.4256611294730989,0.7031961983001538,-0.9126640539081824,-0.18018161897949114,-0.14332894953929765
2010,-0.5961167406069467,0.4233695018955561,0.7066593261741403,-1.404132982354712,-3.004478459806953,0.7174675609600925
2020,-0.5669373800366826,0.459173162859528,0.7356323790262304,1.567244722707145,-3.31061087657468,1.9398721849666367
2030,-0.5942058585352474,0.4335932003610246,0.7119358830423732,-0.6836714277279825,-2.713746177454925,-0.7325185208068763
2040,-0.6157851820980469,0.41300674550226335,0.6842732130312545,-0.5699592187497382,-0.8127503810340316,-1.358894963860628
2050,-0.5705148547822144,0.4517233643519685,0.7226161718888398,-2.7164332492454455,-0.9538269892419525,-3.2802461727033836
2060,-0.5617826897560337,0.4574507685206662,0.7356802414081249,-1.4859619915250508,0.5640362820032606,-2.220659378472876
2070,-0.5706082192648052,0.4503474444332911,0.7319601044249258,-1.0881050266886023,1.4310041043881847,-1.7003304973602262
2080,-0.5680770059555991,0.4545313398782332,0.7362854945098769,-1.3685413930313346,2.1968011994675254,-1.8674403528794778
2090,-0.5705403299909775,0.4516041140101844,0.7308096886290752,-0.7501325040073776,1.9529875591286847,-1.6172980480832353
2100,-0.587094938645566,0.43136247246442216,0.7102943726828728,-1.0869917641973728,2.514951362420953,0.048976119697132114
2110,-0.6030877182686852,0.41481027383606583,0.6936799196601261,0.045549975968788736,0.48432383954308045,0.24039816206895648
2120,-0.5927300360024688,0.4252840060058938,0.707374354313696,-0.30531172867724665,-3.585877333797891,-0.44811969122980067
2130,-0.5890707635551108,0.43754800347279227,0.7113918718099559,5.7629142042064885,1.2947802352759197,5.720173638720698
2140,-0.5691551927321932,0.4621866736271733,0.7291076111993253,4.837382040628875,1.8042958784045597,4.50951189293338
2150,-0.578174957113298,0.43990377488243565,0.7234512790528108,-0.7444946462403057,-1.6573299457480313,-2.371092548815283
2160,-0.6069708317235861,0.4065430616605988,0.6899684235911223,2.250498284986111,0.4284520012725474,0.3308835536300885
2170,-0.5928037164637426,0.4287922556287852,0.7062875244016834,3.309545223278572,0.05792731294276321,0.9012592394489178
2180,-0.5798810271088727,0.4487504726238643,0.7163679375362803,0.5440739216808161,-0.8624476821306999,-0.7787285448624475
2190,-0.5767115829941825,0.449480864908218,0.7249799540105054,2.6095800053630334,3.6129013158449133,2.7501644368495017
2200,-0.6017983159057985,0.41993659630301905,0.6976499739380793,-1.542177511542996,-2.120181334098612,-1.219291648757876
2210,-0.5847393545617459,0.4332845051231596,0.716558176602657,0.1596189296102642,-1.1779842444981345,-0.14046205645359
2220,-0.6021604940555233,0.4206246887757987,0.7033423839522808,-0.6546264532053052,-0.46596473581103465,-1.0045937628781094
2230,-0.5539947531272329,0.46629598181523124,0.7488083887988195,-2.4711863734099526,-1.4773706126638726,-2.033380872317269
2240,-0.5787565897535101,0.4412919359026974,0.7261660699740133,-3.5932323609787407,-2.894896629454975,-2.552591627645792
2250,-0.6040437376059461,0.4230500146256468,0.6968561041653925,4.178090394399123,-0.15194428488497236,2.05844009944295
