time_ms,ax,ay,az,gx,gy,gz
0,-0.7437035560416494,0.5100688531207469,0.5801575824609243,-0.5403663214017779,-1.569758968414741,0.6036795336362726
10,-0.733588657279224,0.5313844505819318,0.5971278690229959,-0.6970652758470532,0.48749275028166184,-1.6842917351429731
20,-0.7340891675158027,0.5246044466239442,0.5870617841718286,-1.221678413613078,-0.10201174817848019,-2.6606299724701685
30,-0.7292790609402854,0.5215173502275688,0.5911831500666351,-2.7900778389925263,-2.5698011845067406,-3.4997371844301384
40,-0.7579459965452846,0.4933704879846811,0.5629990462603177,2.347932157668068,1.228767233680051,2.36708724079764
50,-0.7184210184051384,0.537180208675045,0.5993569569688476,2.730749680204993,0.98982422179769,3.534668574847698
60,-0.7307205100064814,0.5331654959747926,0.591922021762582,-1.32017484265694,0.2614642094723965,-1.476551665316975
70,-0.7522794727063963,0.5012687180692807,0.5654605638836261,-1.9994405633654864,-1.5990440900123164,-2.9791992189178753
80,-0.7439696063153117,0.5124813781510916,0.5802012637070457,-0.02123405773526421,-0.5331032476882096,-0.6657929409643591
90,-0.7639252946969624,0.49721851138754564,0.5627342482033033,3.930733507384562,2.444194695860917,4.19825487837833
100,-0.7450277134920293,0.5204028743534306,0.5847193578416414,0.3539173577503023,-1.006327309307583,1.0324967535693812
110,-0.7382752048429456,0.5381837723650249,0.6127436320525547,5.428644972497478,2.8559689467555245,3.588514216116373
120,-0.7401095350483923,0.52941714252871,0.6048271282998354,0.5504708048888667,1.851309874904723,6.0615307939148035
130,-0.816070875943008,0.4863121167728194,0.5669298914535378,-2.6729223428404802,-2.039414141150013,12.58685042713047
140,-1.019915234811866,0.4948786480043921,0.6065633163800844,3.2072959394080067,-20.718948783821467,18.923997100242786
150,-0.8422175278021997,0.5614264517996812,0.6028941317915695,10.027835013496604,-38.88807987351134,16.878098881879115
160,-0.6761767963881246,0.584057039375839,0.5715416908681168,-4.625095900748664,-16.0338392872404,29.963844810260913
170,-0.6867837305324013,0.5748897003159681,0.5822808656348974,-13.102001688219984,-7.292666351914899,33.340037317497426
180,-0.5988793294115509,0.5967179515703541,0.5566858307119338,-16.925701271432438,3.417064943401132,31.342193482313945
190,-0.6117315790976668,0.5746461500470543,0.4606707821973888,-24.58497450147927,17.969932427745327,22.596769803721703
200,-0.605071712990085,0.6656175050510368,0.5585235347505909,-30.832421649918775,34.38540247366696,16.161130123613884
210,-0.7408814351613026,0.5558111452939449,0.5429726581979719,-34.39189256157656,42.82845511745741,-5.121515329841802
220,-0.9011977388087177,0.5068771722022112,0.6473299759973136,-26.29764109271883,30.279051801564783,-19.810457636640226
230,-0.7592327839690768,0.6508226030720936,0.36546549320461086,-2.2162579961886393,6.0041470820804355,-15.804055603127487
240,-0.7466062694467057,0.46976272920542633,0.6060776485774918,3.2315944603488043,2.573604278724254,-10.539928273325023
250,-0.7420904755113749,0.5092426816341371,0.5802142970872758,8.622861965934446,1.1105947631842215,0.33133685663294854
260,-0.7457305469611878,0.49161749321825843,0.606351685460999,15.824662809215052,4.906173776467211,10.956862560207124
270,-0.7447829903332587,0.32522330215641954,0.8607476844249466,6.6344168841970355,-6.171915241801395,-4.38373474053984
280,-0.64994019620353,0.2812780576685108,0.9830585866306156,-7.60573611770137,-28.954312421511272,-24.54589756553955
290,-0.6612664375320803,0.6649564647529435,0.5681830260118466,24.172093620471454,-37.08755517964915,-26.78217578036958
300,-0.26571582878335676,0.6214194165219853,1.0783531828962483,32.38164481455427,-45.15019833817927,-37.62063196092214
310,-0.8615512667720241,0.6005480354797329,0.5035529613626807,27.656415818334022,-43.24713597406488,-34.17272340252744
320,-0.8795409782377083,0.6631806876428774,0.4367387815031953,21.56053398054133,-22.616575995738085,-20.394767651843075
330,-1.0243908356321028,0.9005311193928843,0.29026524360161055,13.038027165193478,-18.706767061669083,-16.82123350641958
340,-0.8629740175483565,0.6943012820468434,0.3914011085023427,-9.677274164530015,-11.565571680920064,-17.400827776154287
350,-0.7725821514196201,0.5606923386610799,0.5641034780930744,-7.4649305505085035,-1.320869216584506,-8.547589909757525
360,-0.7372142465701023,0.559755624224444,0.6201536025349256,-6.324431436950233,-0.4380980913215661,-8.624773654053898
370,-0.7874817043103693,0.5875502145341002,0.44784811434659116,17.180848249133003,24.66695599354556,-1.7834426337426406
380,-0.8181832376975479,0.5177698494223327,0.28445828895619657,20.541413203721827,36.01932012091449,7.450995790052026
390,-0.7927053121311406,0.7969062580205404,1.1685367699554916,-4.397818375902602,37.49756410586683,17.990496294647176
400,-0.79799121576731,0.4657239312331187,0.8424730766767855,3.0424565883260737,42.30016419860428,18.83045007603353
410,-0.6393967007311999,0.4251687830467525,0.6246133333027057,18.28755166721447,61.459971742041944,15.811798168309663
420,-0.6964869762077698,0.6006459925564323,0.4930109737489075,-0.09994027561983354,34.280421141680314,5.492498390055301
430,-0.7034031216275863,0.6301699964175524,0.5861333584991026,3.38449360792445,21.124532052577347,0.8709962667725107
440,-0.7390127360353025,0.48307482152401227,0.7392884016900038,-5.441716806803044,11.756286102825705,-4.57702345417913
450,-0.7037918114392108,0.4970801075266737,0.6951904287563642,-3.8932872426858007,5.543090830085367,-2.6155998864296945
460,-0.730662657955585,0.4928419149639968,0.583876364969422,2.5302635686858927,3.026736977797047,6.291201397667721
470,-0.7587650033498539,0.5144212210428719,0.6128423203266198,-3.7522501014803225,-1.0236932037114346,15.219024509440294
480,-0.8261929372387217,0.5308211256792347,0.6359418401890078,0.2595559578803107,-14.909249924950764,16.15854583956391
490,-0.9006975100531691,0.5912801233436432,0.6188528269140702,14.046195082963173,-31.440843351343993,25.91771287373974
500,-0.7607911716295963,0.5727578860926432,0.5469420410500107,16.725709502060862,-35.93193692920347,30.956069726024715
510,-0.6830063488784112,0.5542995488656576,0.5633870950629476,16.90389748025072,-35.64428571454812,26.08096759001092
520,-0.634137692700326,0.7856113539752957,0.47699301954997503,-15.942682387495074,-11.915896588425456,5.911550915675207
530,-0.6474435350059761,0.7024598528456912,0.5403462280461114,-24.61290363346351,0.5968236099906895,7.593555940641679
540,-0.6603502195971865,0.5754336559304682,0.555840366035171,-36.44041676835612,4.281614360160919,-2.6351402495429355
550,-0.6867274208499339,0.5305625660215155,0.5573753760753323,-42.22857023316635,13.046801516263432,-14.312248299990014
560,-0.6882431378749209,0.4606218063814357,0.4668657537244764,-47.460936672686,24.45125609356231,-27.78084240442747
570,-0.7486255027594605,0.418660828360402,0.5479452795564133,13.412360597221994,0.5838120899773656,9.81675329287497
580,-0.712245778550226,0.1799649281173385,0.5958803225008372,19.382487729914565,4.488992293540712,7.060153845423801
590,-0.6791413875566534,-0.12711699661707668,0.6088718795243198,34.793659922717985,7.862978505068339,-11.194307721146549
600,-0.7615444644178809,0.33162967119378683,0.5990907681409138,32.85857077755971,8.072733911542791,-20.591652646132502
610,-0.6780155646222502,0.5059019871962247,0.36796100184475866,22.951754747861365,10.597405780961077,-1.3941360921417676
620,-0.7088902854617928,0.5756630413890984,0.5536206068388204,1.3993874863065363,1.536960649343392,-5.21953479902728
630,-0.7476354562694814,0.5455714827489222,0.5866678973477082,-3.7773973348449004,0.7447774406591888,-19.702814676844365
640,-0.7649702825135501,0.46835846954632704,0.543418964724965,0.2752618296606877,1.3508190478431445,-11.699683895459492
650,-0.7640991601410496,0.48992030813917875,0.5503658855773829,-2.232736199503769,-2.0735397458144385,-4.094742381243884
660,-0.75053632890176,0.5105203103022582,0.5609980203711995,-0.23735202532846555,-1.0316156064276514,3.462371797301423
670,-0.7417961413316717,0.5319207233589175,0.5765023560854821,0.7510363458501033,2.208692369527338,-0.5458476874488158
680,-0.7712271336503537,0.49206069198227254,0.5470795464661135,-2.7642820178379717,-0.5001735355287955,-7.041069688012688
690,-0.7423496764631327,0.5043201595860184,0.5716399168304769,2.999028132270764,3.7017590064672654,2.486128707313279
700,-0.742372932637721,0.5145045575219379,0.5784796041349913,3.0366556803883586,2.524751847956527,6.0910302276299255
710,-0.7798246587697351,0.4922493684576856,0.5415982699187742,3.3200352879993495,1.8075520570751373,5.298220360432035
720,-0.753849082654372,0.5224566870102296,0.5707328121535109,2.6709591003471544,3.0515764042979634,2.1548672005007523
730,-0.7342954279523004,0.5203867397107115,0.5842804544380885,-0.031681907212071425,0.8332039179033779,-1.218283767034566
740,-0.7596748988737423,0.5027989623746559,0.5605564519973792,-0.8564717218071891,-1.5113653291646285,-0.6788435926229004
750,-0.7512519181613719,0.5192998313073025,0.5686985884810106,3.7503064545284994,2.30349131185088,4.472322090069595
760,-0.7532256567602711,0.5169384569743589,0.5703612668907234,0.8075034364528255,-1.150389734934258,0.9090370384953541
770,-0.7328335701996016,0.5335083122571382,0.580518256087553,1.6350872834299723,1.3839695750738876,1.5415507217983886
780,-0.7392106252015118,0.5201181814363504,0.5742327243029456,-1.7848108150060091,-0.2103070762344902,-0.82939561720312
790,-0.7244943996438353,0.5412253511672545,0.5853255372965249,-3.404959864246271,-1.7403895752385738,-1.0300622768554355
800,-0.7333925640633534,0.541129238957102,0.5868513743666669,-3.3368199724813183,-1.7353995100519233,-1.1679957205932299
810,-0.754733605353099,0.5096781561786613,0.5628227635527879,0.03705995714293856,-0.268378937031664,0.34031242981858745
820,-0.7596760257992179,0.5171897537459529,0.5612487790478315,0.737379567145545,-0.31469493917197583,-0.2409130766480726
830,-0.7646726884919924,0.49711445058084297,0.554484212120183,1.732549726229941,2.4808509504894585,2.2978360157981337
840,-0.7506478670021559,0.511222161235353,0.5645542267942716,1.2624129301860991,1.243813941473856,2.8297710662431834
850,-0.7378741372109612,0.5348460864167516,0.5769905138101451,0.8545782742941679,0.09454466843175235,1.8769519909729055
860,-0.7608192855145687,0.5166566974149206,0.5500489833503226,0.2509579666572925,0.5318526145782408,0.3775918978736742
870,-0.7445616096235936,0.5295800625243676,0.5716547930534904,1.0251026728225066,1.3299673975988604,0.5720486385830434
880,-0.7449742009766556,0.5157390417287422,0.5691755763041365,-0.07583515429462817,-0.9551359787146005,0.5329284530405753
890,-0.7746770211238282,0.4939121726267049,0.5395131385476036,2.0270677241084303,1.5992576936447391,3.1584512423277955
900,-0.7452828637993053,0.5318043821410423,0.5686175595417452,-0.03035096026344214,0.4769745786891551,0.6566733506397697
910,-0.7466108165389642,0.5335873241959462,0.5780289839856398,-1.6974562937975501,-0.0071715856274741085,-1.5133908701941985
920,-0.73205303578429,0.5354429163789868,0.5808011388665796,-1.2049253609166903,-0.05654930506323341,-1.582695717277031
930,-0.7706806530054636,0.5077967178337552,0.5466245238829454,0.9618861908604966,-0.21504495662405093,0.8061388019296943
940,-0.7477469513464857,0.5301385870060086,0.5718969542987999,-1.6127252778435772,-1.1015692332931557,-1.4409865522776697
950,-0.7385527342280271,0.5309188340107595,0.5806383058374669,-0.6082831255443366,0.7954343561499259,-0.6684447909818104
960,-0.7533388221798517,0.5121231475371556,0.5629265748105274,-0.8359923200899572,-0.05431376778394481,-0.4101914604017029
970,-0.7496219533305863,0.520139118272998,0.5576703608756699,-0.7695449732355103,-0.4002604111168738,-0.03375805388838016
980,-0.7400356171682326,0.5313634799115686,0.5771061853141525,1.5924346181388553,0.9400352848464663,-0.5782950358510524
990,-0.7597740387182416,0.5086301143826811,0.555798447739863,-2.6164819634614327,-3.360102876548274,-4.2844818190079765
1000,-0.7396491362667554,0.5339441082993877,0.57646907660436,3.2142187613805984,2.7869205316121652,2.2092307151966657
1010,-0.7756517859132981,0.5023779180130175,0.5412226772466824,1.577794503451648,1.8332088775011772,0.9979577285364172
1020,-0.7653824316641591,0.5082882391722463,0.5528274708835978,-2.48853059879625,-2.274200244133757,-3.8956045301952376
1030,-0.7709160960406479,0.503095583324798,0.5448601336826633,1.4876474990128092,-0.5273061134176654,2.2973433647009616
1040,-0.7737930494843211,0.5247440254653543,0.5613657226650238,1.7763840871412715,0.5282931202342007,3.3349825184713247
1050,-0.7820373944979239,0.5540146884707394,0.5747489213966398,-7.790749717902637,0.16621732609266116,2.9822224292073396
1060,-0.9685894150276407,0.5366176028133999,0.6512602935861592,-11.53757805623181,-14.435571971541272,17.27333628053676
1070,-1.017964812242865,0.4701797113348272,0.615251515642787,-2.5534756297813352,-42.03949762909599,32.725007662937394
1080,-0.6976103040038725,0.6672806549996448,0.5320082318455995,5.496421184384324,-9.94154171031346,17.55849294207993
1090,-0.7187371024842022,0.7459394036197078,0.593728788644198,-6.646462622494049,5.172440106001952,12.866466806924345
1100,-0.6968601351253125,0.7110642130031531,0.5271471414183638,-22.65450191336235,12.634496472649289,10.799039064348968
1110,-0.7101225462809174,0.6347599615036141,0.5251050402757024,-21.195860841831493,20.1999576709868,12.680945940099681
1120,-0.6656385153082085,0.6015991561299026,0.6150004601215145,-26.836921264284726,24.238537473455374,11.784634776946419
1130,-0.8011986709689162,0.4717667917820604,0.6247225379593617,-21.929042410124513,17.649277257210798,0.5349816446191801
1140,-0.8509742529731541,0.44036636593237255,0.6057294037309883,-12.070453447833982,9.516154566826362,0.8569428074663203
1150,-0.7819683260334171,0.4458260943254934,0.5911437712089869,-1.5130081327313063,1.0746149827146345,5.020365587873979
1160,-0.7530250862370249,0.49423192355341394,0.5808546405088819,3.255973854668951,-2.4674322630878844,3.237069955625088
1170,-0.7683428466226849,0.5705911358307837,0.5569736912600844,2.1674772345706286,-3.8209562004828084,1.4554266646733058
1180,-0.7654897618456099,0.5579758214010949,0.5608227515005517,0.6711489699675723,-4.56127992770352,-0.5394834781264664
1190,-0.7603354286924681,0.53227215718802,0.5663357438248898,3.0115324449689527,-3.0745095408780942,0.25831931404895075
1200,-0.7634519534658052,0.548747505517129,0.5401100186959615,2.0236306254914718,-3.0789529142146437,0.14312661107431865
1210,-0.7199466152607165,0.5986036682630027,0.5394533540577355,-0.03554706681403954,-0.29895028138893065,0.6790540367724934
1220,-0.7043400779603576,0.6090440176475972,0.5676923077240793,-2.636911882506037,1.3689845164991683,0.3577577467877482
1230,-0.7252606546844452,0.5577417830384572,0.5338031517675801,-3.9794664982832826,10.425341871426566,0.4831440006800407
1240,-0.7039286699708671,0.5697100671487646,0.4920239994738534,-14.371254558087188,20.293955226565867,-6.568780888256951
1250,-0.7658876028817272,0.5175070114326072,0.5878990439789904,-25.009167157197837,19.416944107557647,-14.761237446369332
1260,-0.9520902914212004,0.49107700891391015,0.6165061130434729,-16.02771475560876,-5.21879867867211,-23.321560684933992
1270,-0.7689801368133479,0.5219517690396096,0.581151619928655,1.5968141257008712,10.415298163115597,-7.075929560696457
1280,-0.7805526217170682,0.5080540529906762,0.5224069803141399,5.817774595039352,2.7133412464214324,-2.782860254363661
1290,-0.7581482850700372,0.5284911039415419,0.5600346428857543,10.169790008107976,2.9531246161606965,5.60935147451157
1300,-0.7576133409538582,0.5200318719658085,0.5713094803678959,13.91464188916147,4.546169490529609,8.735564589274546
1310,-0.7497912498710831,0.4462238358925746,0.6663692694193839,12.764179749220748,-2.0881829396326523,10.542316487239002
1320,-0.8098513845850506,0.3264696456016166,0.5949036002995663,13.586483876781385,-15.459410132032788,5.16478533193766
1330,-0.7590197999161793,0.4259012797213854,0.8250647581423604,44.688026269335055,-35.34294015062693,-15.235698726261978
1340,-0.9154804712863664,0.5390804759959925,0.5504621375762762,21.94430715936488,-43.311943184576904,-29.66251195712578
1350,-1.1079910247091898,0.9850306372493263,0.5445626108187989,47.896737905351166,-34.74419559463757,-12.817458295557957
1360,-0.8331362190576176,0.8205777638353441,0.46146412939808673,34.84220223765387,-19.149002722161388,-6.720239397208856
1370,-0.889515908733423,0.762153976700334,0.24144450585079089,-4.2396608914019795,-12.756793068042217,-18.611638703111584
1380,-0.7699700941997336,0.5620047448156867,0.5404222355083016,-7.987878891190156,-3.526537846493494,-14.667043545427898
1390,-0.737442605014993,0.5094117640750908,0.5861154707455962,-5.778592551628927,-0.28835606160770255,-0.7514161259670966
1400,-0.7793619511773408,0.49832304350446394,0.5404911080929716,-10.973979107531626,-1.880423222984091,-10.578500366267704
1410,-0.8001123826122358,0.4814250303334596,0.43428226061898545,-7.175281539480668,10.534381952915393,-12.92960644852082
1420,-0.7782333657447488,0.5242290541436614,0.4434319689348108,9.779084992096452,21.481291597523956,-8.590606062919834
1430,-0.786620068863706,0.4697648987756087,0.06821828765885068,13.189533492023012,28.51405953627424,-7.7687386498719455
1440,-0.7494812960707826,0.31174489936567384,1.1154862965796304,-5.862268739861904,17.0178982354663,8.522681046191048
1450,-0.7618377217867021,0.46554156161013616,0.6821500413305922,-3.2881543816960557,32.85182961131015,3.2523867647905087
1460,-0.6496814382402084,0.4541040673928106,0.9255263581220909,-4.846381690215274,28.461263684099663,3.3152291385030117
1470,-0.6553073501244903,0.46810372968051633,0.8996534491068788,1.65909290461035,20.855309906514417,2.292254704322582
1480,-0.6838102186730416,0.5041229918339669,0.7001022048386741,-2.989432154295587,10.137812142550038,0.7936942041471222
1490,-0.7493465837020122,0.5083963533084263,0.6019069564388367,0.8753834697379668,6.449535773633064,3.828308714503383
1500,-0.7559422493068024,0.49878092951785563,0.5780125900868149,2.1485033145096817,4.250340727236054,5.472125004327566
1510,-0.7625510740445388,0.5008113531152261,0.5742033165302302,3.0757023475245946,3.0881449188436934,5.493792365872178
1520,-0.7823364572713284,0.49647284894482513,0.5470306551173981,0.8702309371081007,4.070375406027688,7.011277864711819
1530,-0.7643714936603987,0.506855309852848,0.557001232044398,-4.657331456031809,-0.30990274424834685,6.861753043384289
1540,-0.7798256282615291,0.5045851178505669,0.5695033714622265,15.42375399660481,-22.858140493187495,21.67327938481777
1550,-0.7544202011390291,0.4999348046809053,0.555240469958656,21.856861564549785,-33.644174964235745,19.66070128049477
1560,-0.6952003454574827,0.5799240781749732,0.4808038341039624,14.617303756011264,-27.993488088693848,14.57682697124412
1570,-0.7237791403843234,0.5958350996349115,0.47440568313721265,0.9582695437422722,-11.517188949805623,12.275648326231526
1580,-0.6412799726150938,0.6281816075311051,0.5554939856603963,-7.258922260279557,-3.4570028053398945,7.786323358022176
1590,-0.7170580953347226,0.5448359803205148,0.5083689475115026,-16.951614850303624,9.148099335303257,-1.5365667832889374
1600,-0.8339039979066526,0.455243299687985,0.6600086067850017,-25.23438150372791,12.053764062449968,-11.967967308173547
1610,-0.8122702487679919,0.5753497088411268,0.30870869273796986,-14.881079339926568,-8.347448671765784,-21.918694726228576
1620,-0.7410144567414856,0.40968002552878824,0.5542712386113374,-3.436681238409164,-2.231829774543307,-10.85844269866992
1630,-0.7353841460603876,0.4823388068985034,0.5808256238566729,-0.6856215109650685,-3.5230458218093657,-3.8643558964813858
1640,-0.733632052432163,0.6448409193774055,0.5388619655693994,22.08219796005814,7.279175438353287,1.5133730419323153
1650,-0.7939644628001723,0.8137346076190163,0.5060054633125827,24.61615229393637,7.332360524501101,1.138698756155355
1660,-0.7412052274384797,0.6660930081655806,0.3527885271404984,-16.620025946553067,0.9813219749445172,-11.852087281457104
1670,-0.6285975746439109,0.590172727767258,0.6372531546473476,0.7678612089127896,2.322696998469679,-16.741231050280344
1680,-0.7645850452242127,0.7724433685986956,0.5957738259696348,0.9949658296547518,3.4656323896393446,1.658156600098939
1690,-0.7395109565241711,0.5524605850664159,0.58368925762035,0.11437495738058567,1.7475050014041247,-0.40741382974530316
1700,-0.7350005855036823,0.522635230384464,0.5769672148148257,-3.9737596136328714,-1.7148206587357786,-3.10801253025193
1710,-0.7340967827277752,0.5303576168656411,0.583298655378764,-1.1811068186122669,1.3569867627356837,0.3238969590038898
1720,-0.7566032198771196,0.5149763433688982,0.5624070253342568,-2.707766445153256,-0.578844797953084,-4.345544121309015
1730,-0.7658243296867225,0.48920002063648993,0.553693268160033,-2.633004186614813,-0.7362738883766236,-5.613726506877981
1740,-0.7654181634960321,0.5010564460069971,0.5566000474704885,-1.0578377845845301,0.09760544598096227,-1.7407445997840223
1750,-0.7251536658341876,0.5473898682141298,0.5929450504225453,-4.227740919701355,-2.734527860698905,-3.050329410951213
1760,-0.7220394823394737,0.5379410566834577,0.5915229999535688,-1.9072270051039923,0.27984281181897613,-2.1723751537112
1770,-0.7447214167462459,0.5114183517632453,0.5759318178369494,0.1977647014061812,1.349835814300874,-0.5410834689376842
1780,-0.7628077478605827,0.4963128871250161,0.5552525607898764,-0.41068018021599284,-0.009564511801923387,-0.7733875454814035
1790,-0.7532501181216505,0.5020019877898475,0.5621104481422605,-1.0843108530183363,-1.271884872391671,-0.5761374703962482
1800,-0.7382299753725324,0.5265502651488659,0.5768149135275819,-3.0707415075902507,-0.1993403092083771,-1.5443077231350313
1810,-0.7675153861798475,0.4977878932886852,0.5516130744726778,-3.387010676298364,-1.140525721514133,-2.993679140446992
1820,-0.7509962102056802,0.5082802778388076,0.5642305773501781,-0.006730939599272734,1.763053312005383,-0.7077814832213762
1830,-0.739838599855829,0.514471754871772,0.5773714148713108,0.9042789788474501,1.4780156000791234,0.48519495452391453
1840,-0.7733778207571061,0.48692941892007163,0.543922849587462,0.36628197566609066,-0.443561962851971,0.5189289403757351
1850,-0.7602858417370638,0.49736126256142893,0.5561682311368428,-1.651899343535816,-1.5423741649085758,-0.6345932909477758
1860,-0.7650994695302704,0.49724529011689256,0.5515511930898142,1.2285243486567818,1.4146090231638941,1.2879325784636302
1870,-0.7496437231144719,0.5088848597723146,0.5702911163876181,1.5712453039523582,2.7626011635500274,1.5365874858834736
1880,-0.739540378258615,0.5196709532817031,0.5741266587591586,-2.174583468804968,-0.5771700504979695,-1.8129120842496336
1890,-0.7525626217204222,0.5062883200135868,0.5697203267642811,2.129952402757834,3.4191069158459055,2.526661077637404
1900,-0.7522801200575207,0.5092119120323733,0.565221620509554,-1.6404166197470202,-1.67028121277414,-2.3666103159065655
1910,-0.76772976705516,0.4899138325360589,0.5447851673370225,2.2633075893250645,1.060905228222178,0.5318870174079109
1920,-0.7572024870210474,0.4999518053363882,0.5605331922678185,-0.7851914955407382,-0.7353611456111473,-1.053184580897169
1930,-0.7618433455213908,0.4969229390520912,0.5537064118130558,0.2699250284611877,0.5150091910884934,0.8824108082636107
1940,-0.7840870549492727,0.4797573831047198,0.5306267391799616,-1.2704649444317997,-0.4313621777553982,-0.6002915778452719
1950,-0.7795226792555151,0.47963249921018436,0.5347169481281181,0.1602354189568972,1.1393774638319178,1.1341984653134194
1960,-0.7530482396731247,0.5021129613693759,0.5542043846304995,-1.7261908669014852,-1.2454513604108792,-0.7637214617246095
1970,-0.7483341973486091,0.5110840860345954,0.5732893812939263,0.0969909666292671,-0.2954056043759384,-0.058807887784618706
1980,-0.760170806239927,0.49625787162487056,0.5567282828238704,3.0750180876287407,2.159536533993569,2.1587392469989246
1990,-0.7398896515811432,0.5166401987117348,0.5765581512925285,-0.9924662647533842,-1.5415313943627371,-2.485475152912466
2000,-0.7575781692351573,0.5017540744738882,0.5585169394147856,-2.882405057225075,-2.37357244293365,-3.4424344736379315
2010,-0.7445843320433337,0.5025395951802113,0.5708199628401412,3.291884787964594,3.8466518465558095,3.4201589126189575
2020,-0.7434362718308425,0.5144426440924528,0.574493076815755,1.8820070300362395,1.1190707605061698,1.8521569556261004
2030,-0.7541267121806495,0.5011141067748849,0.5567380126588028,4.515325862336103,3.70582468655454,4.037509925614341
2040,-0.7653027381052059,0.4930259476421466,0.5462671232593621,-0.3118913934377261,0.1321926416393818,-0.2578897643203585
2050,-0.7636871576266787,0.4904600084405791,0.552688091421672,-3.3972483867042658,-2.9689331608228775,-3.1138229543086986
2060,-0.7685872270687537,0.4932087912850993,0.5511005484793208,2.0812527121456545,1.7426895189155833,2.3364800266033736
2070,-0.742045140230664,0.5134910063923387,0.5698272585402882,-0.2789859725780266,-0.738259138169646,-0.9146430307603064
