time_ms,ax,ay,az,gx,gy,gz
0,-0.7345345181189487,0.5149706188625475,0.6641956233111411,5.007220934806229,1.7104271783214104,4.61501486075299
10,-0.7454714229494229,0.510736758980769,0.6555376788171051,3.075898490659509,3.2031421963046913,3.1778314454533096
20,-0.7309232875592241,0.5195639786782273,0.6704564434398628,-4.146092203734481,-1.8702002757542953,-4.24748860602009
30,-0.7130027709289791,0.5379043735895276,0.6907460435591778,-0.7969304138602242,0.8689950626858778,-1.055699155021705
40,-0.727307485994349,0.5222503316471181,0.6726151637179965,0.3781612613598897,1.0202590414568506,0.641152069167185
50,-0.7260148432100378,0.5172788768421709,0.6752324686500725,-2.0231593057302244,-1.7786899615451635,-2.694385551027146
60,-0.711667232686167,0.530439729417083,0.6857600233651605,-4.013605562019855,-2.4926125463125475,-4.320253899334204
70,-0.7313606495585432,0.5094498028502134,0.6609772936353951,-1.7173377659970108,-0.4308876234286232,-1.7731479815268232
80,-0.7393650461347052,0.5052678750336239,0.6574149591414008,-2.5050953221648333,-0.6015650096158566,-0.37619293622546757
90,-0.7185693697351058,0.5246861228638213,0.6814406607680911,1.097111244821762,2.421398420988718,1.2053161484172965
100,-0.7116541772550851,0.5295816038948639,0.6810172731229654,2.160366468416959,1.5220367189487152,0.3100663730908176
110,-0.7304802804784437,0.5132614364100014,0.6592127828793979,-0.03331897551401242,-0.48128562223712257,-1.61438950703412
120,-0.7192378668810274,0.5245951276283702,0.6715224142480587,1.1614288211926613,1.5974389475752733,0.5309431787233585
130,-0.7230213838732563,0.5208273164612429,0.6729942414453891,1.5135998517176703,2.741445103914825,1.6753280406520208
140,-0.7232070359048822,0.5212499787270511,0.6725828306125984,0.33630647258545143,0.46352824023801786,-1.2093520938533462
150,-0.7038780682256667,0.541515205114847,0.6972295585189964,-0.6776995204585736,-0.7351990379076092,-2.4577348267317056
160,-0.7402302146449864,0.5017973025237119,0.6619022488939528,-1.8769569469092664,-1.4950018026297638,-2.1497202608939743
170,-0.7588935025518895,0.4756804683973776,0.6424164404804699,-0.7724464528717305,-0.6146683877754102,-0.14325757370105408
180,-0.7430579211163596,0.4880682641772935,0.6542434638324629,3.659643405241061,2.1499204977364608,3.7873890866508093
190,-0.7190255581080786,0.5311159329600897,0.68091910988032,5.865642207469136,1.956797223366934,2.478301979014372
200,-0.7177647661533318,0.5341488272427036,0.6784008436134026,-0.7274962966838783,-2.2421499518176735,-3.0052312350480808
210,-0.718339111462432,0.5294365031629865,0.6836187498156387,0.47067669574624693,1.7645127622701111,2.19433990833625
220,-0.7452689123262788,0.5034875100561345,0.6661399448419708,0.1889262162616383,-0.5094427326665514,1.5544515048904421
230,-0.7248627718312574,0.5130278312045364,0.6830294148757937,2.630567245857238,-1.9861011406590126,4.039964706049834
240,-0.7404340927290102,0.5132185632232684,0.6649932494199939,-3.8080555779532275,-1.5473687362929396,7.8175404899853245
250,-0.6674452995024394,0.5876534051144435,0.6833477578670929,-31.589021118878218,-6.77044063650157,-0.29468541272863624
260,-0.7526205957497437,0.7055051646670615,0.6355431848601487,-25.91213667354558,-3.9275448195795226,-0.2831390402831744
270,-0.8945088503529328,0.6690732269982965,0.6927720138604565,-0.1538620816299603,2.7968337204126565,25.573474541352198
280,-0.8488564392798693,0.5800956352373746,0.7983953658759676,-7.379212973291906,-24.755140540316457,38.27123203779561
290,-0.7577359761720487,0.5184019090092903,0.6820428367563093,-1.1597064371602221,-24.634952523371787,48.90258273944221
300,-0.6280034049771025,0.6278003604976413,0.6724232072621501,-8.119089507464961,-12.759874472984766,32.18869322171538
310,-0.6499449787287356,0.656358399832895,0.6433758017380405,-15.396294913448134,-5.6932634581751245,28.318914968481412
320,-0.6927742771359062,0.6599549307950551,0.6665549295540558,-23.72088319706477,1.8028240390858383,27.769118154565085
330,-0.6593192502948511,0.7119173923597176,0.6829708645590462,-27.254573952211945,3.7285644010034464,28.193103252733987
340,-0.665983907731549,0.6705448537716705,0.683097094283482,-24.163251578090808,12.89151702448534,34.66842989489031
350,-0.6764501420265395,0.4161424038843011,0.6189719741127327,-19.998360507837525,20.611519153918746,28.682177458943542
360,-0.6841944410560673,0.48727772865594143,0.6171794471496292,-17.37946002059155,38.89290277130022,18.428907514877213
370,-0.7394178190144987,0.5239405151648698,0.645109211443334,-26.177777497392825,37.82612759161087,16.383041781592862
380,-0.7377959784552823,0.5669542027769124,0.7051056102135815,-21.989520189401777,39.89878671566559,17.523880375153084
390,-0.7244690089479375,0.526189347150243,0.6914031346465018,-18.182750890348967,36.22576292141178,11.936174423470252
400,-0.8135695759701596,0.4994103810950549,0.6174855736562307,-9.435981826412108,4.575094260800401,-11.109924017980774
410,-0.7732962110865136,0.4961401847503534,0.6060743345698771,0.3415826833733018,-0.06794263940227419,-6.642988639624765
420,-0.7592350358889537,0.5771791955987494,0.6375438878406753,12.528252816953055,-2.4285950192080095,2.2856071012201076
430,-0.7631865449965611,0.5635295957985484,0.6144161090588661,9.472311978575448,-3.4634338669072093,6.915611220552876
440,-0.7472207495428501,0.5667117896480192,0.6302915592192161,17.12411191132811,1.663885757298888,6.29479571602758
450,-0.7589115287972005,0.512073940445543,0.6493838538116443,14.996011886833132,-5.223795587514907,-16.186852438050668
460,-0.7628197922732121,0.391986784721157,0.6947830920299914,13.087761379931594,-18.84300772515817,-36.350022817866915
470,-0.9290205055002747,0.3493091904085802,0.4961785112825973,2.399540635157689,-26.808278185511153,-43.86486392823846
480,-1.1197006987950548,0.6045922209206951,0.5481635680083482,3.1167121624469134,-48.90625956245533,-39.11679267380049
490,-1.2122423453345132,0.8200817152663656,0.5332147636556709,-2.244805464034573,-54.16095982631363,-42.48809165894881
500,-0.9615632581386347,0.40296262738614635,0.6403533379959111,20.28240971586634,-47.906613957700905,-11.491238797806709
510,0.48972596355955184,0.379939306973876,1.7659632129902973,-13.236724400048878,-41.93703298623069,-28.10307796219918
520,-0.6613562418701686,0.486941415797576,0.9913216135772547,-6.621561601644596,-59.40695216327175,-30.22215585249337
530,-0.5947413184852562,0.48873745805035596,0.7271435522872729,-6.032492482373096,-66.0239757953288,-25.363941915907084
540,-0.6408165272573214,0.5780040746180789,0.5723183321668984,7.176115941781754,-51.03069257610962,-13.161418170919532
550,-0.9000175325419777,0.422945344611607,0.488219495806011,22.860218389110383,-35.90210898193297,-18.62664281366393
560,-1.1062726502689253,0.7161224895245348,0.9988815791794567,26.958261587593856,-18.86814871081186,-25.62902347475474
570,0.007707328091282474,0.45349793373465713,1.1050547435116,-18.828762148610426,-18.410066464420172,-5.252081949337532
580,-0.4582138500005119,0.423182949324649,0.732765384068284,2.688480592155871,-12.248173500510113,-25.19893611026222
590,-0.6304813942715066,0.7037148142579506,0.8043645639270058,16.862862871777534,-6.945954159262275,-16.785069426229313
600,-0.6526134741808081,0.5755061450737913,0.7952538152233143,6.171030130437714,-5.207263325573453,-8.678960812623366
610,-0.6254216881813733,0.4680499188908555,0.80881466939171,-4.7735374297786874,0.7904497464818632,-1.6843643058232205
620,-0.6720184800167828,0.4751819270788954,0.7723368048086674,-17.109173655196777,-1.9918514777966603,-2.759850409769707
630,-0.6567363017383108,0.510917996546554,0.7776295418854304,-23.010895738745006,-0.21529870910117888,-4.58999361562635
640,-0.7777079268610025,0.3986715585696202,0.6344033761647324,-22.98442750539933,10.00747552777532,-5.075535567756919
650,-0.779745400555046,0.3346068503908796,0.5320879854299452,-9.552437609549727,23.66092788413206,-9.197719623476928
660,-0.6423095698845822,0.2801701049202389,0.6235835987826299,3.3081046539683534,34.00528496587876,-0.5177747398365178
670,-0.7455706347140408,0.47917210521666076,0.3870701753958378,29.318228376760374,45.8801896286503,-8.679677942154424
680,-0.9119767270552507,0.40639369826087096,-0.11142275614568338,41.590928631200725,46.311019707626315,-12.057069055491255
690,-0.7524061201453416,0.5158759508275172,0.8608299432586802,-0.5149272242821735,56.58111693312913,-4.595079260791017
700,-0.8223598171891562,0.4669566574593847,0.26585179046212126,15.134530198243802,60.199480758101075,-9.859667924342315
710,-0.659396199206474,0.3066195300725557,1.5740988419897821,-14.063110678265048,78.72275738754925,-8.712214291541365
720,-0.5911247432396919,0.5916841900944119,0.9855633751603546,0.46410570196139345,34.13909866503779,-1.6893483849025346
730,-0.5451611538610972,0.6968057451837373,1.4181167161772206,6.18011860496642,49.72378543099956,1.981967853490096
740,-0.5274892865079241,0.7073787727537494,1.3038156562632472,21.321847795611006,61.048666684026074,2.2622014226796923
750,-0.5533105817338644,0.6882497351202268,1.0168441773806178,13.331768510370408,64.31517928225439,-10.422635023652528
760,-0.8452653225296405,0.6899301237746803,0.4200998657188268,0.6769236596644559,55.529102185759776,5.587144900818836
770,-0.523712824551325,0.5715543386633427,1.3182956314701035,-27.415968383860122,48.18606494625567,2.916280641951262
780,-0.5554301300555126,0.4236411537721907,1.3394688207531447,7.7560921464839225,55.49700025143088,4.715746835314182
790,-0.729478309397387,0.6769193721578289,0.9858651160325361,-5.244820707503767,34.51908044336097,4.857252771358494
800,-0.5155371901675716,0.5055474799020719,1.5092067658247852,4.506882892824928,30.962346518688076,1.7468966055326605
810,-0.7231722941273309,0.46408508749875077,0.4195340369505615,17.72350247441665,23.211538735610976,1.926557218388238
820,-0.803594704252114,0.4489558156377993,0.5390890612179053,1.5994881261583402,1.4232290588545051,2.5087217001107116
830,-0.7680148785627017,0.5045813127465746,0.5599693208476592,-1.979825746544931,3.8159058630809692,6.294415008615112
840,-0.8077233894045726,0.4856410857091307,0.5157714626823177,1.8030094580799432,3.372007584362341,10.673141701094771
850,-0.7892573048991254,0.5130452891457284,0.5431506613147407,-5.854018769982787,-3.812619308379604,3.6749567418565587
860,-0.8042068193686905,0.49991787382456077,0.5413913802648981,-5.497848140541516,-5.492872100562696,1.4558073728785437
870,-0.8026197004188345,0.6112806172066755,0.6534315346830507,-4.536056316230118,-8.603319019923594,8.433199120446735
880,-0.6873557173548579,0.8641295180258122,0.7883273291860106,-22.081216962365403,-36.64083706827895,40.25411972311861
890,-0.7383464701193648,0.68457039500358,0.6754610337933019,-41.529247414518785,-66.54617838469231,58.79937485876761
900,-0.8470986179771235,0.6275661972967496,0.72353632254112,-58.82422130055296,-86.35487080945948,38.54863615938297
910,-0.8664024188242785,0.5319005848174162,0.6043409798143744,-60.51323075547971,-90.78150790858372,37.07205758320915
920,-0.7508099130816762,0.5177882846466225,0.5758839973244156,-60.14683888715573,-87.688220597564,39.204254389312126
930,-0.6821080034961142,0.5149180184858648,0.5487213982884609,-46.24942300088489,-37.010399936434126,29.23405098024732
940,-0.6692339035744161,0.4975105236407993,0.575410645497214,-43.282310179744286,-24.38485401388455,24.43546444753551
950,-0.6710679535002962,0.500464387676783,0.6412362735917784,-40.02113786805739,-14.104689361628077,20.27597483059272
960,-0.6908037664472286,0.4843580970245458,0.6520407308250873,-37.983979253869954,-8.599900825498176,14.355557269323358
970,-0.6908696140280514,0.46694437207536305,0.6544194098298219,-36.696541750086105,-5.881002339731919,8.084971520835605
980,-0.682061506411021,0.4440017318312883,0.6175775429558213,-15.10929234203352,16.414971529895286,0.7291327527390876
990,-0.6878944419771645,0.5155714861293059,0.6595251883409073,-16.57620384192146,21.617445281389,-7.819509564786712
1000,-0.7673789501950964,0.5494023880026008,0.7954196980133882,-25.84902517217104,18.29919448106913,-7.304856887944348
1010,-0.9645706330480809,0.4220289948959674,1.047043033020521,-33.16223909131638,4.770909925534394,-10.745575627683122
1020,-0.7832007379528202,0.46538704788086277,0.5994642973548844,-9.030864584185714,-1.5021260400320244,1.323621718050819
1030,-0.7154981360770613,0.4527724786675376,0.6245564733527077,7.904762458988931,-2.7493298468432816,11.095009884304465
1040,-0.7229611855933155,0.39213348210434396,0.626734522017434,22.98797474876258,-2.0041949837080484,1.287600482885248
1050,-0.7573973665813707,0.45975086552413214,0.6731749797327135,19.610714636927927,2.231837342955542,0.29644567928560794
1060,-0.6300598778008253,0.42888239381320814,0.34199512102377133,13.785202925887376,11.5948623945313,-9.849960457907468
1070,-0.7041283067121857,0.33867748932656977,0.6600439506131252,20.10156258295791,-3.4288610504492882,5.687961296741843
1080,-0.7432909744258392,0.1012503830722747,0.8470068490424281,29.923395690205062,22.08566276577468,-33.01561647911269
1090,-0.5423148364261476,-0.2677541485636137,0.23006674974087074,46.27521914795085,11.863521269481407,-26.58432082718868
1100,-0.6376830226770195,0.2282941678562164,0.537659168742475,46.54877477757966,4.19369655320694,-25.75378120259731
1110,-0.5364939882908182,0.41817402768953077,0.5208545066658647,53.71000874638123,10.832895947839717,-16.210039012578083
1120,-0.8116101481336014,0.8623978268190715,0.6807666694835749,83.58770183096748,18.884373310862973,1.7195909847320874
1130,-0.9262084483339273,0.8039886156114819,0.577216406790521,53.73968857495732,-0.8040404910943981,-37.411256549097885
1140,-1.066013809945488,1.3677871218767146,0.5347785029832605,69.93319312082323,4.426690293765265,-43.54917448543592
1150,-0.8065124064450848,1.2099567577035117,0.5426853795101965,42.76680051148008,-10.072736237417084,-28.111479892368862
1160,-0.715337364588089,0.5242527521928031,0.6386840823091217,28.29652581968706,8.651594812498118,9.251333155451432
1170,-0.7121112672233635,0.43335363115662284,0.7076507116109296,17.65104044994012,-1.363404155271454,-6.888242693562281
1180,-0.7807512647676605,0.7498949513910911,0.6649555755016316,26.35101447518808,-0.30474594276349465,0.41368789312517074
1190,-0.7749617655260372,0.6035512662658393,0.6530352727357505,7.379043469458985,0.4672592737787494,-0.3139105405308359
1200,-0.7266164644781186,0.5483932508226489,0.6521695663008944,0.35355977688494145,4.091991348992403,-2.128584057438074
1210,-0.7424679020648915,0.5232750001581774,0.658269049868884,-4.730646934266328,-0.7834831082435936,-7.087716896204315
1220,-0.7564682501080898,0.5054240354522168,0.6340574362442164,-2.3566473911128383,2.663493680635576,-2.6242719389735423
1230,-0.7507993873083275,0.5148588075824716,0.6474366910659158,-0.6856188375696375,2.901193684624975,-0.06770478374664668
1240,-0.7562406688270561,0.5033652545155726,0.63797054090179,-1.838356620078203,-0.15193431148213943,-3.1956513559233866
1250,-0.7376768684994336,0.5247616621874815,0.6546061817862805,-2.0567249551456426,2.347415469029369,-1.7159313144632795
1260,-0.7014930753953807,0.5876026178769294,0.6877459290448039,-3.4187402604441806,-0.23433918078131444,-2.1712485196032745
1270,-0.7423809526011627,0.5098527612398175,0.6476672357759274,-2.3553623145229583,-0.7252778245733219,-1.9359289155294659
1280,-0.7228637834953696,0.5334005347206444,0.6679956656644226,-3.4129782246644216,-2.6096983084763274,-3.282120300422632
1290,-0.7430689405350536,0.5100993505831544,0.6477013101335078,-2.821337778727285,-1.2889144506569647,-2.51933569618331
1300,-0.7470602367120499,0.5205415410129844,0.6470970874472739,-3.022752122771119,1.7202453150040913,-1.362423696575184
1310,-0.7290506112740363,0.5247858692343229,0.6659084547364236,-7.34800257310863,2.494932818631915,-3.836418350058819
1320,-0.7298717484994357,0.512536294086616,0.6597106106408739,-8.592690445323413,-2.086488555028063,-7.837099033045285
1330,-0.755276906261484,0.4945932073347628,0.6420696633445784,-2.5397840953883586,-0.6890549294483658,-2.725934321834261
1340,-0.7370438413471706,0.5125446900562979,0.653617858791589,1.9042813750409038,0.9730995401941867,1.571120937474939
1350,-0.7270449832428703,0.5265165943796418,0.6608170366996191,-0.4893050936281882,2.4648886563990646,-1.1677792336799286
1360,-0.7592525447621192,0.49378125220633584,0.6301977910155008,0.9727769873783267,3.273678313711483,-1.679532966008816
1370,-0.7319181243701586,0.5199358070595194,0.6568532723847438,-0.775461231452987,0.7951935094637634,-3.825823563272646
1380,-0.7220094665938376,0.5305818999679985,0.6698876730762213,-3.1546031456257566,-1.730436420692477,-4.2824268304280775
1390,-0.7529555453535639,0.4935385933102585,0.6363591055147342,3.1899616025831543,3.518185663801365,4.5840517536935685
1400,-0.7670777871531738,0.48162196291673187,0.6142920787184778,1.1922556201218732,0.7708080256445902,1.6987690546202492
1410,-0.7523883718017018,0.49905477468761333,0.6364772954709742,3.260200589940859,-0.08560252572413307,-0.31626075247963015
1420,-0.7352652581198885,0.5200768700997139,0.6558179766345821,4.839373405112873,1.4685761492145337,-1.0266181796721205
1430,-0.7329005081799522,0.5268554369539263,0.6558131092430206,0.7643455830829438,0.8404879459908372,-1.5507892508882961
1440,-0.7510045424244572,0.5081580975008831,0.637857378310962,-3.3154440323952388,-1.1334008384433498,-2.69322582894981
1450,-0.74310480926745,0.5117232978929476,0.6458540397818504,-4.534064316771867,-2.930699221850608,-3.490840190532791
1460,-0.7142465190742221,0.5368988515882211,0.6739488843952463,-1.4981865536810082,0.08943672950822096,-1.2351643169151783
1470,-0.7339135519642502,0.5098556241204266,0.6527023325542423,-2.5837495192303455,-1.6777228579722718,-3.271472124176408
1480,-0.7421735921248681,0.5073619690231485,0.6512017059508033,0.33699360725369654,-0.6433411756677152,-2.563631338480901
1490,-0.7552850385744956,0.508972630402371,0.6322107474944959,-0.5974103669153304,1.2932040915552367,-1.5989965473770675
1500,-0.730296964018375,0.5139278796946796,0.6596299535805674,-0.9685294116144163,-0.23463779181663325,-2.3718831760902956
1510,-0.7025491664579906,0.5409823887274533,0.685759535742289,2.008735798170327,1.8866505144310388,0.79884264226411
1520,-0.7360442396446847,0.5070911882031139,0.6547739038806001,1.8917229291204056,1.9081657642811378,1.9358972345192988
1530,-0.7187901479921623,0.5237102601460948,0.6721544326858467,-2.659310946307047,-3.4741697647046186,-3.205153666569452
1540,-0.7449898056481398,0.502577702745159,0.641657691352368,1.6421404422518182,-0.5716925423369088,-0.011142837919795534
1550,-0.7157537721622999,0.5404863868242638,0.6700963730679838,-0.42968701029187395,-0.6565567113147921,-0.09985478907980871
1560,-0.7615755930402975,0.48988961363784445,0.6274129978473887,2.259288867415184,3.268406784212561,1.9955517359184
1570,-0.7257629671323906,0.5168268371111957,0.660065487462101,-0.20174317933607244,0.1510113175316958,0.11393558785736468
1580,-0.7070003288932039,0.5368609852105722,0.6811888699581985,-1.2690613714402905,-1.7972605255153313,-0.29440543318577306
1590,-0.728466617675774,0.5181543938333919,0.662357855720398,-1.280063288243923,-3.2646135197144055,-1.9356895122428006
1600,-0.7575059836119825,0.4956749503925516,0.6332179881436582,0.05997576728921716,-0.4381811259538395,-0.1953411604613995
1610,-0.7397083015015606,0.5062146216984844,0.6517603760092577,-3.7837518468206874,-0.14174167550700817,-3.252388678153936
1620,-0.7531254631819946,0.4829295577149303,0.6311065412725209,-3.0976617812419027,-2.561880572816599,-3.0487374434703014
1630,-0.7153840187417769,0.5249046779233932,0.6666488532375686,5.306275999324724,2.0097377918295085,5.543118295685437
1640,-0.7312838319248508,0.5232282450466484,0.6531929237478988,0.3603499643917498,-1.5784456224320196,2.403712948423468
1650,-0.743548337067148,0.519104922037754,0.6464302284994159,-3.222751802542031,0.2757386920406018,-0.48932243457391633
1660,-0.7482389996327403,0.5035963050158881,0.6431489951532563,1.2614077871479838,3.124152181975647,1.0475112357299587
1670,-0.7114643465865746,0.5333913944185343,0.6757535489157611,-0.8437361788582356,-2.6348450984618714,-1.5106554586587104
1680,-0.7552468054894759,0.49163583102948644,0.6366999845237984,-0.4090108747178216,-3.2821704964928315,-0.7150731392158134
1690,-0.7071271602323551,0.5475980302951395,0.6829826933830662,3.2909186096480325,0.7050853290419126,1.8822449430825485
1700,-0.7516987877094937,0.5067891734411638,0.632976710433218,0.05729182687999817,0.39470717441917136,-1.2439567543033614
1710,-0.7244894925070285,0.5248623827842432,0.6615672570482414,-1.2450586983199408,-0.8154929138203545,-2.536549306051558
1720,-0.725065972533253,0.5182909350386153,0.6583972182970496,1.1341787487075987,0.04588658603801776,2.3092702499060502
1730,-0.7177045070447255,0.5352888296288892,0.672498407787279,3.5610530380358436,3.2817814344352527,5.638042106338209
1740,-0.7658362329522487,0.49130150874841955,0.6225563195804373,-0.9999125705495702,0.45759680980148676,0.40231542719065316
1750,-0.75498426263802,0.4982763156097998,0.6359926394634113,-2.75827396803549,-0.3219724457968386,-3.2331139179301904
1760,-0.7727889444867937,0.477145469820905,0.6166199675418682,-1.1318177030734349,1.4103773911868362,-2.119854437292862
1770,-0.7432078022481174,0.4959704999147975,0.6484245697256047,-0.05783113232063086,-1.649736692186639,-0.22273383972031724
1780,-0.7371729331009874,0.5095496498601682,0.6475603157160563,1.3319261217801381,-1.077030331336183,1.9102883036153315
1790,-0.7520152813537346,0.4966175020558049,0.6340036740841029,3.7092529437931137,1.9914278438859796,3.0865726188151683
1800,-0.7077090777495324,0.5394398756031987,0.6821710853534431,3.216397489681976,1.3174131541411926,1.3262215119623655
1810,-0.7132468383093001,0.5386854758565672,0.6762151264637932,-2.011268618089445,-1.757939799141034,-3.908453106821109
1820,-0.7316953800496211,0.5099384165127325,0.6518914735242513,-1.1426032494114813,-2.8101398622277616,-2.6143322268046782
1830,-0.7294738174355082,0.5125498342296981,0.6599456019220509,2.211583930876273,-1.0118688092055939,1.9343862732578114
1840,-0.7481553384009888,0.5024795298947572,0.6374599623967743,0.7908802750242594,-0.808067718029637,0.6468090335405152
1850,-0.7207482511186762,0.52389719642285,0.6704779602425103,-2.71167842532329,-1.2450305099826886,-2.8027494533319004
1860,-0.7426194017149637,0.5063930899862027,0.6449488693687405,-2.2865938295633583,0.32828281236288726,-3.5127172302355847
1870,-0.7266895946800732,0.5191644463190754,0.6580057867657803,-2.5236208045697563,-1.1582848292736312,-2.956944966036974
1880,-0.7443963291483112,0.49423795624053923,0.6412298942152417,-1.8645836836482443,-1.9440655092705095,-0.8741237245048923
1890,-0.7387129238445274,0.5035931794388304,0.6461241699429626,0.9233016792430009,0.9640656668736913,1.1754289467306016
1900,-0.7800205850778232,0.46182766123579955,0.6105241686071315,0.7591600371593236,1.648706470012686,-0.5237435969817683
1910,-0.7372024469238996,0.5020892116114899,0.6478034106147625,0.36513064890813823,0.8569583223253634,-2.30119443593471
1920,-0.7531137224295678,0.4863916484874915,0.6415589291934214,-0.043056551964951006,0.5206657092959194,-1.3827702308600716
1930,-0.7420195791824663,0.4965215124741871,0.6463233515984683,2.2596410208349442,0.6143911668626704,3.3207003294173854
1940,-0.7198936738971442,0.5214781179168795,0.6677099769412908,0.7013992386029486,-0.04033911397340162,0.9816713967827118
1950,-0.72282279818629,0.5244137875840077,0.6671436461737072,-0.025498966441211524,0.14216278302361018,-1.1523215205747728
1960,-0.724063803056275,0.516337420439522,0.6585565457729156,1.9826655422512216,3.023566499463709,0.30499847593939355
1970,-0.745190069968494,0.4886966318819748,0.6405824986276617,0.9918384363602714,0.17189245901313954,-1.7489002290177424
1980,-0.7545416560019275,0.4793957093565552,0.6292069554080987,0.245243293041702,-0.5956219068842261,0.6631249964807895
