time_ms,ax,ay,az,gx,gy,gz
0,-0.8156550173366265,0.8553488143425272,0.555886217510931,-1.67342950850001,-2.474989055840661,-1.9042867395322864
10,-0.8337466667578994,0.8449296599050092,0.5450707884550471,1.5308517554510348,-0.7483799276390023,1.0728031890312026
20,-0.7974869124928908,0.8853896917285307,0.5772493494007326,-1.0081028898900661,-1.9389130555019356,-0.4970496501333299
30,-0.8111681650139525,0.872031999284612,0.5674337373520891,-1.2777514894128743,-1.0965733777592197,-0.9713095692692059
40,-0.8218982673416351,0.8614940988370201,0.5632550854642692,-0.3839552832523734,-0.07449826261463022,-0.7841433332870478
50,-0.8119008461678828,0.8726142852556055,0.5710102839582284,0.4771336291340722,0.41198551581928966,0.14491642690585724
60,-0.8014915758144731,0.8766220709948923,0.5710325282002296,1.2570087615769225,0.936148938173643,1.2121319377633561
70,-0.8460102971877168,0.8394353279562656,0.5320106507658904,0.8426290738060269,0.2258063152649913,1.1040683289910382
80,-0.8242383665940739,0.8659771149299291,0.559044812773893,3.3322551300503913,1.6697327364515389,3.5618014901558492
90,-0.8149066042375916,0.8745892358069092,0.5689706161178782,1.0732197910197754,-1.1480546034973793,0.9803448356214752
100,-0.8170778412382408,0.8687901404106684,0.5653922512206178,1.4091097408833715,0.00851596723026693,1.2333376305434238
110,-0.7939321090897987,0.8891305575259699,0.5872007177596182,0.6328248738989981,0.9213860822180411,0.9059410603352569
120,-0.815992254204595,0.8656087028408808,0.5576516203058643,0.13011918539029588,0.002664325897912989,0.7182158044828351
130,-0.8249266910046348,0.8647098082100827,0.5535073737425414,-1.587234157245603,-0.6302902897690247,-0.5210450162934949
140,-0.8159332091913909,0.8705693822957189,0.5639772383859474,-0.6159597439718838,0.4237629611470377,0.5244700470807613
150,-0.8265810473944947,0.8616459094639392,0.5585093573087202,-4.165761797648878,-3.043664430322071,-3.046952316357558
160,-0.8356971761457455,0.8517504556875838,0.5501904752383092,-3.123350536005935,-1.8736217568338762,-2.008315122393628
170,-0.827294164342514,0.8589627717609895,0.5598401596723299,2.1481641315078295,1.7303329520025916,2.8356357637220735
180,-0.8798045379176367,0.8492409043083086,0.554798529787433,9.6210999973907,1.083406066882623,8.099179573148414
190,-0.9003512784488775,0.886097544788873,0.5549127653405455,11.336176834172903,0.07745371094763265,6.498831006177058
200,-0.8999634581466156,0.9907570637834892,0.5754697981600818,-1.3646967872140214,-6.1628762533493235,-3.1319005697877307
210,-0.9841422671178007,1.0960794819096558,0.5809282602399815,-21.890294911959646,-13.5526013763744,-2.362799352067485
220,-1.017240848944521,1.099950057527,0.5590591935228538,-32.13330001229439,-15.636612927309448,11.181107789941528
230,-0.9122108409880083,0.9777640840520366,0.49620646130303747,-31.861954148033412,-13.96196267242668,23.297174859824498
240,-0.8417129405530538,0.9735476614125138,0.4311831337692465,-50.867943561194714,-11.206383087437782,19.926526845130358
250,-0.4056990618231029,0.7584580826889376,0.4671390242646314,-61.46222435351511,45.805324353251066,62.853731283484656
260,-0.36902079360878776,0.47456947092817564,0.5958123479141076,-59.79224254870619,73.830179124982,45.68865790480997
270,-0.6037406960079308,0.297758270269161,0.8436292438456438,-68.97538776642348,69.96529908914724,-9.620887266049813
280,-1.0324299557690322,0.36230950421712604,0.9843331483503018,-66.24196701196196,44.45984478396553,-51.22044791598318
290,-1.3837205728280255,0.5973539176188003,0.8686391002299841,-38.531915371508724,7.291156225045868,-53.98065744926244
300,-1.0252325322124078,0.4859301332702806,0.676513060777838,4.4576308682820684,-2.7099727183741438,-33.57984141751997
310,-0.7972706470969165,0.4457565836437562,1.2523555224270078,-29.47430709725531,-24.887584975788446,-74.4623885159648
320,-0.5726934570726295,0.7505351388358233,0.4276630438389129,47.320526426900216,-51.31717034875993,-98.98231548482597
330,-0.7976370805880352,1.3971656244461597,-0.04317518476266295,63.29813141004586,-42.05731231505997,-78.77027172802697
340,-1.0849310461742254,1.7049956035785656,0.043237130464928324,28.051132194684367,-13.355610674439518,-32.24177987009245
350,-0.9668833670494502,1.2805235955563332,0.24592863093888373,5.949759518168726,1.2142961801855983,5.092830564625885
360,-0.7869607348039807,0.8432071755573008,0.24729043052630015,-0.04699341765409537,-0.21411696045264628,20.48866352072258
370,-0.9951395426399546,0.8737559487447775,0.238695490970578,14.020789279371403,-0.07895996054866905,25.25272700426096
380,-0.9604891185667594,0.766325229234468,-0.20263561949234046,25.04015273259953,10.024523726805697,20.020687582581687
390,-0.8074331007092851,0.826678529338194,0.05365831092431371,58.804289089210286,34.56378431802035,33.69088104066278
400,-0.7342576482249575,0.9162756815654641,0.5689215137118031,66.45672564487327,50.35629155296241,44.352159453981095
410,-0.8074780926686228,0.8382172005065069,0.6505800748797557,9.682376136019824,28.35875791886285,18.882700933235064
420,-0.7330235868450806,0.7463706472276488,0.6904227722823788,27.54071680202465,37.09848664413525,34.19094413897845
430,-0.6853250661397214,0.9372051641242698,0.7574098710552373,66.60635445477635,5.507278080874301,30.008644209324984
440,-0.7663565083235512,0.9394217444415339,1.1285132026492761,34.48033559164006,7.733619980278595,4.13941725752778
450,-0.8145972610031118,0.9531184121921882,0.9828016940975157,56.67940950928729,9.762341302034411,10.466113515120734
460,-0.8372136815469745,1.1443840391284041,0.6476277150919397,47.47606544451215,-7.556411373406665,21.56343071938405
470,-0.8757473722352017,1.395044527680233,0.5945830996209109,-50.7752055331292,-28.15342908576096,18.512959360733333
480,-0.7826987867026187,1.1415136226002875,0.5245597963128361,-73.53912779622921,-25.61417490338653,35.490748762564344
490,-0.6215937577078752,0.9786866332002677,0.4560983189267387,-99.24554308432856,-22.249908912183926,30.5987832107503
500,-0.5100144951040103,0.814576654215687,0.3865471815071549,-99.99026407056269,-7.762019815871714,22.235649175721033
510,-0.5496989993783804,0.6901622868507459,0.36072029500538044,-94.63860031524862,3.041975370053062,2.834174237148946
520,-0.824589047042791,0.4811060980267292,0.40321519882275664,-85.5239770989703,3.5060969243937965,-15.863165811696616
530,-1.064513806674317,0.23065245614027807,0.5593549231780676,-58.888145041407,-7.303681323235677,-25.385751260256193
540,-0.8222826270517929,-0.03088380527400283,0.42272067937929786,31.946261093032508,-9.761364922703729,-25.848671963791876
550,-0.7590713852426811,0.09522230746142274,0.49382315838941016,49.74250963225845,-4.430791772952663,-35.463504711095155
560,-0.6802961812560389,1.111313150971414,0.18555536372374076,61.24948304774078,-3.95981149459496,-19.405834665494805
570,-0.7191921335963255,1.2563904490562996,0.24518313832864763,69.32510020669267,-1.770057047612289,-9.688041559766067
580,-0.8231585913507807,1.0527697587810438,0.7109290171447158,55.013668352778964,3.3303786173643353,-3.5866920986713065
590,-0.8165364198344573,1.2990273340858653,1.101592120031178,8.44768285332869,-1.4184044057602474,-3.689838857007448
600,-0.5528469128896428,0.9734853627426049,0.5167064180359703,12.489045837426083,1.445958947520058,-5.204900286770382
610,-0.8070983363497887,0.86533365404884,0.5368475520487382,5.40085462351917,1.9300101229741098,-11.91037415739775
620,-0.847037081137223,0.8094217137207855,0.5228075363476392,2.7545484531745092,-1.2995593729232915,-11.394788621454202
630,-0.8385475037626418,0.8105699727174001,0.5325061351662932,1.873597591092566,0.24516252113800022,-3.3640602835977145
640,-0.8442795649262391,0.8213992225306238,0.5394596880680045,-0.21425422677372286,1.582440576453484,5.268869590102707
650,-0.8403539958609763,0.82605328987871,0.5366617389507305,-4.69286626665642,-3.5053502335360167,8.230209948702361
660,-0.8198970732690705,0.8370921028063291,0.5536340564588232,0.5619976305545548,-0.8023923401200397,17.16706973388141
670,-0.8164341536507184,0.8518630073594182,0.5704656226873251,0.16832346623472993,-2.0976134287480157,15.088541251329852
680,-0.8121408210469333,0.870908306241601,0.5631002308858769,3.8491776123270958,0.04229574434232575,6.3503874767170405
690,-0.8334659286429831,0.8601574478274645,0.5356942399293904,8.049727656462851,2.9227918024539585,2.7784544303819985
700,-0.8190526122314977,0.8810287969374345,0.5527561208148136,5.872631114639217,0.4581135262509196,-1.2698675985203938
710,-0.8184166571408871,0.8859471782444526,0.556542743985486,2.7405517085093374,-0.6041738420022577,-4.006111792629
720,-0.8211985733360909,0.8832877115083191,0.5538819584831531,-3.8256620885117845,-0.3429720253854027,-7.195540278171405
730,-0.8149905489396304,0.8644656944958343,0.5632423939384372,-7.462065593317643,-1.6418500652683283,-8.307652690437484
740,-0.7987024099427661,0.8754737536731411,0.5839931673364399,-9.924466504930741,-4.842760052197086,-8.938257720822504
750,-0.8447315840759994,0.8348396357569687,0.5427211680702256,-3.3858315723532684,-1.3676042726644857,-1.495996842278135
760,-0.8221879510297913,0.8620819486503608,0.5690313235148381,2.099227412454434,0.7213149368619061,3.631342254440951
770,-0.8264150484397493,0.8554253253537736,0.563742170030742,4.738481301176214,1.029169762675212,4.940169643312969
780,-0.8031500952734453,0.8748767704745443,0.5724426065656371,5.380303811234885,-0.6293259779430129,4.908629681077446
790,-0.821745094711625,0.860871845444197,0.5528997003415735,2.5466311160903152,-0.5513510620857848,2.786831298575126
800,-0.8207414058618948,0.8674108965710381,0.5615566235990738,3.1157844874051563,0.507241339367449,2.560616028225335
810,-0.8446369593001395,0.8460546005781491,0.5336883242801262,1.7251024797350876,-0.7913671996861706,0.22218479721545914
820,-0.8394920251051532,0.8467208032762829,0.5365743240776696,0.4584788696582699,-0.050299569027729696,-0.4768172566781054
830,-0.8026633108672985,0.8734792169731108,0.5831314620534669,-2.2127679792797394,0.6540118869574966,-1.0770691887761743
840,-0.7832664656342553,0.8896177119453816,0.5948182323188944,-0.036696174015189875,1.0161499559606215,0.9889869264231952
850,-0.8408635796744964,0.8288249896797963,0.5389367423332034,-1.0307529110651603,0.5746822347249452,0.6830480669405604
860,-0.8002184150958076,0.8740238738401689,0.5845512135160363,0.44172382721529296,0.47328301418444246,1.915710094839298
870,-0.8346164339291477,0.8438361543574334,0.5498434237145579,1.8574924894292346,-0.3652600817222849,2.0312533517600753
880,-0.8372375925002954,0.8410883028630798,0.5417741423621995,1.3373107621296842,-1.3751411651105077,0.5011308234056555
890,-0.7903848146341722,0.8854353927036674,0.5816536934592563,-1.0932062887247804,-1.3573309304910128,-1.6283875514025445
900,-0.8224611266852629,0.8582363571292465,0.5429638567273862,-3.453735973406993,-0.7003793982042548,-3.499578468760538
910,-0.8117542170663907,0.8666380105153388,0.5591957952946087,-7.292193189185097,-3.7695712841182347,-7.694515143314258
920,-0.828638234491731,0.8398674813479909,0.5502116358544699,-5.628959831184339,-2.022736907078035,-4.823759248770166
930,-0.8005753002375093,0.8640782691494324,0.579611634057724,-3.690962184825964,-0.9926874268373901,-1.6906483775839427
940,-0.7893925952798119,0.8796136776239338,0.5883301198451971,-5.126193745569211,-2.5628772521357828,-1.850127130863071
950,-0.8454033273838935,0.8306538313112154,0.5346356332393591,-5.481036911749028,-1.6557440951815074,-0.8243700189937255
960,-0.8297030727521393,0.8466873176812024,0.5659556855772364,-3.025630916003305,-0.2690952647239606,1.3335493991433032
970,-0.8290332667797544,0.8575091644977146,0.559327796326466,0.8378968214185858,1.4199299660153208,2.1275758944316148
980,-0.8271021895291681,0.8619461190903438,0.5596916937354377,-0.005262837942519111,0.1923118985946304,0.4376738424989677
990,-0.858647595549849,0.8256565713464051,0.522897678264165,-1.5531591243847134,0.08150436906328126,-0.262962877414962
1000,-0.825121028736114,0.8558331783051887,0.5537699091618001,-5.216397937118328,-2.6042800444278984,-3.1129063127094483
1010,-0.8211551220739124,0.8622454155521249,0.5625632539266171,-2.560181263800442,-0.7300603623153461,-0.5262161042580493
1020,-0.7960641595751681,0.8832488664253976,0.5863868755784424,-1.329407285975813,0.9348617697819779,1.8607781608497054
1030,-0.8251017080166334,0.8457021974769253,0.5613060311290018,-1.9495736367217777,0.35570133954454985,2.123460501932506
1040,-0.7913354150961203,0.8825139313264047,0.5910294517458805,-2.5618890537406207,-0.5231237203921446,-0.0270108010193566
1050,-0.8474171890354869,0.8319332273361105,0.5362554859687022,-2.4225685585019896,-0.845462310404965,-1.1328103330158803
1060,-0.8054758180524753,0.8743133710109601,0.5788973335185293,-0.3504160379792724,0.7378419940475857,0.40959513663788594
1070,-0.82894465091878,0.8454821505767173,0.5494508935246901,-2.0332403230781066,-1.1992271040262958,-1.4922696086467488
1080,-0.8131502754634878,0.8613512356128266,0.565601614806234,-1.162045325398778,0.04618927206263457,-0.29637855406490565
1090,-0.8139127896368269,0.867323167860042,0.57400911796596,1.689348628370528,2.0630147056531976,1.8154481162674783
1100,-0.8207878327071263,0.8626018364185721,0.5617627910614528,-0.3365247262660086,-0.1896891909941668,-0.33220307527286974
1110,-0.8089290869140833,0.8695158200823083,0.5710353827221559,-1.1838514532438063,-0.7971633872204453,-0.7349288112614201
1120,-0.8258920319170439,0.8484133463340083,0.5550463808425522,1.684977236307257,2.358529767080957,2.3854238023761827
1130,-0.8430894537330605,0.8347399225911983,0.538686538582372,-0.5042487418494971,0.1698024015530346,-0.2151956130384426
1140,-0.7931287779677716,0.8902341431592526,0.5932605760739798,-1.6288575821261597,-1.1228485256922025,-1.5966790694952597
1150,-0.8505680631397889,0.8304631791401291,0.5345962275692117,-0.4132284738948302,1.2118090783200854,0.1139456127741656
1160,-0.8240412033786071,0.8545544496693289,0.5568228528342485,-1.2395227068658248,0.9593003317823823,0.3002160652312131
1170,-0.8035844011297416,0.8659464508576005,0.5743631938343873,-1.9816051498936331,-0.08591470812972424,-0.0349472780144926
1180,-0.8193995266659405,0.8482376473776015,0.5584886781179438,-2.8928758161017374,-2.2891580654777077,-1.8811849551004267
1190,-0.8234077280265746,0.8566104409075185,0.5565207732987495,0.3705325232194454,-0.7480179351747449,-0.49895818209089815
1200,-0.8086420829711406,0.8714160965605762,0.5731932995245362,1.6904896750563623,0.09910017774101065,0.2661243916846586
1210,-0.7988645596721209,0.8808203783507439,0.5908798733606998,-0.45966635327630456,-0.3165356529947922,-0.8748263625301245
1220,-0.7993851363204765,0.8749066658984175,0.5882096140227662,-1.0791233273375163,-1.5290308617617634,-1.8897856753293734
1230,-0.836867381281377,0.8331074514078657,0.5497679889841862,2.435362263766908,1.3001457905084726,1.4709012971816846
1240,-0.805300312471121,0.8653213056821724,0.5798325041865346,2.3095180238186357,1.0800525204778086,1.732762420809705
1250,-0.8212937354893212,0.8569992641522448,0.5616128307846912,0.6535653844764893,-0.29421711230041925,0.3928210971056816
1260,-0.812223339971127,0.8813814546857826,0.5836411736719844,0.5460236780178099,-0.2042315023319962,-0.5629868850509198
1270,-0.8050202746859468,0.8782761035699886,0.579345897852833,1.834331477955913,-0.8472263888086766,-0.17157717753493315
1280,-0.7949672192648866,0.8804460168127678,0.5845644689189164,0.8218680091721051,-2.6957533666401297,-1.8902443602765442
1290,-0.822944883810759,0.8523614489259121,0.5568569146675496,6.415726077548875,2.2992730078971246,3.7464952280430714
1300,-0.8092071013680355,0.8683290866098885,0.5715117324536476,2.6110826004026046,-0.6917348583040271,0.8848398344231245
1310,-0.8345930841098214,0.8422928629445,0.5451967033156006,0.9468091030344864,0.0019298576242045007,0.45285033239426886
1320,-0.8160258919220719,0.8633485591823017,0.5653234937039043,0.0698520343315352,-0.9609943336193171,-0.6296319180799674
1330,-0.8221604331780049,0.860300700455319,0.5616451170637882,-1.3042134788275348,-2.7540655487241867,-2.749242285255069
1340,-0.824222659628056,0.8590449067419071,0.5646237977390298,0.713279903201097,-0.08778248622462859,-0.6607131976765999
1350,-0.833970063055499,0.8471905637597145,0.5523929161757055,0.49424111241578583,0.3903087125279189,-0.3865912931023301
1360,-0.8409176439283766,0.8333199748103483,0.53756863030641,-1.3032933168173815,-0.48629944278124815,-1.5656860647809967
1370,-0.8168088092946385,0.8499361932647741,0.5574243406908157,-1.6956943395574622,0.09108466364075331,-1.5434195874475363
1380,-0.8055658740881385,0.8709312516378553,0.5785855522453729,-1.174797441220502,-0.4400097403733252,-1.3026981924571008
1390,-0.8376185019069768,0.8439315913219929,0.5536799595446454,5.418395786726765,4.408890244961917,5.6219168027483235
1400,-0.8030041659195815,0.8796549093863064,0.5838001847071657,0.2549767985021021,0.3086910618253126,0.6115249538472665
1410,-0.8236242042837573,0.8608398412885335,0.5623369297852647,-1.110360941566653,0.5907714281108672,-0.6810560306630166
1420,-0.8254623530686857,0.8586453509908751,0.5613762228902145,-1.8396037257548912,0.7589709166366791,-1.2990460599210216
1430,-0.8021172343058167,0.8782266822233261,0.5804992232865328,-4.097899496133778,-2.0481830566427894,-3.5284473537329943
1440,-0.797322012581855,0.88532414120491,0.5765948579441909,-1.3438048825219193,-1.5990133891832332,-1.4485542803640097
1450,-0.8259125923347904,0.8423619339419857,0.5559119843256713,2.0923670730903567,2.0353933205578194,1.5622740949264289
1460,-0.8254668089632733,0.8534080790453507,0.5671379818075367,-0.12141190589249606,0.45842960628946633,-0.4952247674569994
1470,-0.7926601669799253,0.8869640756438334,0.5987866714644957,0.10162905080281681,-1.7149243448541363,-1.1516857303985666
1480,-0.8606835825370813,0.8159581347624483,0.5273858954168678,3.3502950029037946,-1.0009561639736875,1.302348971092299
1490,-0.8119607484926817,0.87115538703898,0.5779740701665601,1.6286478442288197,-1.62429650146887,0.3918969939947461
1500,-0.8269362559187364,0.8584973339979979,0.5485259834904761,0.1386083619736432,0.7743851865473272,0.9023825660401268
1510,-0.8382442429120478,0.8396444542069381,0.5461168952336787,-0.07494541809241756,-0.376510309133282,0.29096425303264917
1520,-0.8489047484987217,0.8316869847779438,0.5413882957781991,2.639348379966971,1.8494810099976822,3.011698053836327
1530,-0.8289669925671013,0.8552388851573574,0.5552732165461634,-0.27141694355934487,-1.2002183556532455,-0.3693005373557015
1540,-0.8159606897948083,0.867463424312122,0.5632147870030161,0.2351231820922017,0.04359374046688283,-0.3110994467370988
1550,-0.809844451730413,0.8681485129728862,0.575201526786661,-2.7114313287861425,-1.5762175027276157,-3.0841313587971797
1560,-0.8145157894917896,0.8592204352604234,0.5692410372199176,0.4365674544471273,0.9476081720209448,0.28247354553688886
1570,-0.8213702845245338,0.8573387160802044,0.5596112796110034,-1.8415319104707624,-1.1117425801027938,-1.4454075023063888
1580,-0.7927061036963169,0.8830278954459434,0.5881643961600644,0.19922559399658557,0.5515591737608193,1.1641435349764604
1590,-0.8231299203819076,0.853653921341891,0.5597563786244019,-0.6029327549889679,-0.13163935313807973,0.5435175436349634
1600,-0.8012839779365736,0.8753174217389552,0.5825243884337721,-2.3629487125051245,-1.047437018967832,-1.1473062023961074
1610,-0.8421861441329058,0.8299755882170585,0.5385476536828812,-0.9937734986073379,1.1009921020646036,0.08477392724621358
1620,-0.7976461380733509,0.8844878871117829,0.5764321936481707,-0.1302359283474651,0.7142418778132439,-0.9075118091839687
1630,-0.8566896458320808,0.8273702770964203,0.5324397418964255,-0.5454407376239854,0.09837956572175466,-1.43123282993609
1640,-0.822971496918856,0.8562657772387269,0.5656645092145144,-1.0355806281071538,-1.2075459145219232,-1.6790965520046301
1650,-0.7986327451147316,0.874710929100482,0.5865514767612899,0.8338398604408359,0.641584226100172,0.44851836175546667
1660,-0.8192414580523192,0.8530977363116334,0.5648550723605179,0.1997075077523192,0.21932465665282336,0.07413827893291997
1670,-0.8147217686824956,0.860945731320425,0.5708981203670432,1.6546401250124816,1.350585994676682,1.7907998203975986
1680,-0.8017887762202142,0.867668192664417,0.585324942053853,1.582964502068684,1.2171931098679385,1.6922933183891917
1690,-0.8467638329069088,0.8270425456632532,0.5353818583179976,-1.664021871413484,-1.3900629943304297,-1.5419907159926691
1700,-0.81465060578419,0.8571421431825208,0.565971592363742,0.39296505665029,0.8057371083980935,0.7337167787681922
1710,-0.8270027702681862,0.845116737740186,0.555123124229972,1.9178161414850254,2.348235519349946,2.2981288210697026
1720,-0.8066967210107107,0.869349904653598,0.5775393947914097,0.017013046286179834,0.39292237752136916,0.23663837645527502
1730,-0.8250638579129449,0.8545375856459806,0.5595734308499942,1.4169625279799767,1.6579603953650135,1.4104073788723288
1740,-0.8406625065332238,0.835126998058821,0.5425648358321595,0.07805766100235106,0.31173633256509503,-0.13781731005049197
1750,-0.8126321679299767,0.8660212180072105,0.5755504533825728,-1.0063725252399602,-1.1261056126946218,-1.4935726661596875
1760,-0.8172295224908446,0.858459161021704,0.5671944965374348,-0.7066058969781455,-0.10703617550387268,0.005102044496477887
1770,-0.8157497694746231,0.8592381417922105,0.56667509252885,-1.7451627932738787,-0.8554268164760969,-0.42044742567192395
1780,-0.8380996822930302,0.8393255105497641,0.5478305154857379,-3.3408957940481563,-2.8261619696476092,-2.217518868674767
1790,-0.8313793549663839,0.8483929526274121,0.5596482567692325,1.0846815895820543,0.7200071947021711,1.523563472744528
1800,-0.8118673260334107,0.8659474105669666,0.5733507178539453,1.8468350382361596,-0.2131221795000332,0.7408348120650685
1810,-0.8242950846782549,0.84989210908351,0.5611155607276317,0.4109416628141471,-0.4480229974075769,-0.47511397052776827
1820,-0.8377930234905888,0.8396658293111293,0.548988913568875,2.8020156590804195,2.1258205985674006,1.722456861881917
1830,-0.828639726189053,0.8484208454794178,0.5582702533753703,1.406595493250865,0.8064105437390074,0.4825193605355511
1840,-0.8139131733128968,0.8580924239308247,0.569502206718918,1.1734254559483852,1.1598789477515306,1.0569438851206776
1850,-0.8343957386720268,0.8332773414241988,0.543298119242173,-0.7066817527394379,0.2751781230241481,0.22150001988752988
1860,-0.8336244652910202,0.8389671239443649,0.5450243456614247,-3.5014390439796284,-2.3616859925812372,-2.6835991160112265
1870,-0.8120846069228588,0.8599887628427151,0.5770428314216925,-1.3019496663294,-1.3132957981209672,-1.0697147269325344
1880,-0.8034896870177769,0.8713648877631645,0.5780234405435284,-0.4926810905430421,-0.8824540038143516,-0.5792759622892178
1890,-0.8371438410459177,0.8422673073880992,0.5460065951523264,0.07850663298705421,0.2401633861453769,0.06192494574499362
1900,-0.7852310938127967,0.8965777411505969,0.6042806737070423,-2.052338883645286,-1.12057101275356,-1.848482136637387
1910,-0.8391104745947963,0.8403727133308359,0.5495316367090259,-1.287172765300289,-0.11083611518910533,-0.8388170770528371
1920,-0.8305760727317606,0.8444435066954091,0.5550277119537476,-3.908999751029321,-2.955598993649704,-2.7338577868990117
1930,-0.8170114249476388,0.8630250135489602,0.5688768986377795,3.1148741493959022,3.277808710578918,4.089930145100792
1940,-0.7983828775890272,0.8778830408096018,0.5836319526299749,1.1916454846671942,1.9483886982585388,2.5410428664183162
1950,-0.8064843629200827,0.8668622888865611,0.5820819153663903,0.6153108477575829,1.7615149559550667,1.848699969164406
1960,-0.8015275762029971,0.8740586556237355,0.5913698056497383,-1.6791269981892984,-0.7644182980430011,-0.8919248124630818
1970,-0.8088642439668471,0.8723762630554787,0.5764223850250878,-0.5375217462202804,-0.3748605000573523,-0.17943319786496692
1980,-0.7973826065985374,0.8844102698402954,0.591705708833472,2.972367822463327,1.8248453670448783,2.4148820386708847
