time_ms,ax,ay,az,gx,gy,gz
0,-0.6609888684960724,0.5092212419089674,0.842689692319177,-1.0395203111128957,0.08417537436992201,-1.8470260712667308
10,-0.6467431060003827,0.5225780822939723,0.8545543395446009,2.438394828773628,1.939309372067897,1.5423663231391584
20,-0.6369440953959505,0.5334154960019425,0.8599711572040808,1.0519855528165436,-0.6343818795858838,0.4383565791460284
30,-0.6729359513305442,0.5019274437810158,0.8218899306727291,2.4125482363794486,1.5057129079457297,2.444185496667192
40,-0.669087069515767,0.497140738002993,0.8251429395661392,1.12673144627471,1.1478176383376915,0.5619212901883044
50,-0.6756595764280375,0.49784142377856094,0.8218178949005365,0.31044334775075355,-0.1735306644554634,-0.5001252035423693
60,-0.6423054815032735,0.5332243239842837,0.8604524676572888,0.618952279986174,-1.3151941137112455,-0.49849505323537424
70,-0.6505684080651676,0.5250257492595801,0.8485712700406052,2.1224265729547245,-0.03627786874535832,1.3468174310974916
80,-0.6694100787111651,0.508008191600064,0.8305343000230196,1.7271316531414223,0.6618097498756,1.662537649262998
90,-0.6642189190002817,0.5104257941309375,0.8347652710498973,1.2819729864081066,0.7677924045325497,1.5409373464422271
100,-0.6585036884227173,0.5083493213262987,0.8432787136235944,-2.025019480096836,-2.050033041794582,-1.5821305103072407
110,-0.6640169615506614,0.505845629418245,0.8394414949279791,3.3515017572368313,2.9320872252711148,3.6793791434875365
120,-0.6471537591343554,0.520734624615195,0.8536387799770779,0.1835438719239879,-1.550926347850865,0.25131432905521534
130,-0.6532181754757654,0.5233526966439629,0.8426733233918408,3.995240729329577,1.2848737432649022,3.5165578082120215
140,-0.6495135695197836,0.5316521168839946,0.8523340791165706,1.6503349286912827,0.003733672442381958,1.4858444823973767
150,-0.6606700601711722,0.5188001015567685,0.8476094271059595,2.558504069198863,1.924234252276577,1.897278103078666
160,-0.6608164331750389,0.5120638165464998,0.8420468533883914,1.0430683098306428,-0.9581346559474987,0.27903334982230243
170,-0.6655467173439786,0.5035179029215727,0.8315586334060615,5.06113143173402,1.576570321936873,3.434913014635911
180,-0.6527193706433672,0.5246165787444971,0.8478063945905429,2.090936077398111,-0.9183242675900392,0.8180225456409198
190,-0.6736305803114833,0.5094845982379339,0.8344918402460897,4.191069793264299,3.2630563222874653,3.414547432642437
200,-0.6299110187593416,0.5496322442561457,0.8790293079463434,7.314965488908887,1.3647614182042513,4.691843838010572
210,-0.6761527877390111,0.5169542572214879,0.8396784453040843,14.382424810782657,-2.9874045231044897,9.302656562467131
220,-0.6481808482587739,0.5822376649359114,0.8615542098090551,16.94617004223709,-5.105892200865799,14.132605231174537
230,-0.7223787986919349,0.6550361223907836,0.8109383343404625,3.7616776469336504,-5.672141934308688,15.590869627331902
240,-0.8423998483922812,0.8526311303415661,0.8424032558429889,-5.657142876948853,14.965295478607022,24.09602263928881
250,-1.0136516745444308,0.6861996638250233,1.3592549800675615,-11.904201515592986,-24.58193669923694,37.672518315803934
260,-0.6132755508372941,0.5290148762096651,0.6410393009144424,18.022171887707056,-15.247858989746273,34.12878242134609
270,-0.48006385747360303,0.6142131857032668,0.6888196513729493,12.645476817324406,12.575232391058323,27.40503567415422
280,-0.46973069795877975,0.7437225912293267,0.7788374260763417,1.712984488952102,29.341343296391546,36.93979554870459
290,-0.4648507628235939,0.8238934810565869,0.7374473554219035,-6.10510783308141,38.16603106921117,45.586264164406344
300,-0.4079241923140905,0.8330739237720594,0.7306971493738876,-7.580406397313623,57.25663032088844,64.4467979844979
310,-0.45434024786556104,0.6587552468713392,0.7846477796477216,-28.64845287225291,62.81141789338104,54.96301268538428
320,-0.652999245217169,0.43135026001980775,0.8428113358829186,-46.04750149283158,72.4147225965853,18.51227502661571
330,-0.6930415159571994,0.360579635672895,0.8967634869129848,-48.73392071888662,66.03377740872506,2.893197784922717
340,-0.789735491422406,0.2623245560705402,0.8187904809836446,-47.02886175754415,41.418598276848236,-12.659527424536874
350,-0.7291366571910463,0.350817627730147,0.7379142521439644,-20.79877378762972,13.205986456404553,-12.847347226997309
360,-0.6953309639047786,0.5706126785999464,0.7508449826036626,5.223258784396213,9.772331983858319,4.275839030818094
370,-0.7593286359301086,0.5622250025787703,0.7277268733493855,21.09772586622955,3.158263361709324,17.802910406062853
380,-0.7056121760746935,0.6022596588635485,0.7893423190401666,26.572580414615484,0.4748159509962484,17.933363239290735
390,-0.9770445881321943,0.6734386040515363,0.3842398030535057,10.787913898325426,-16.118970973612516,6.5854984063385835
400,-0.11489945107946345,-0.15359958779153007,1.864726756601204,-39.07065986604514,-29.35036000297862,-15.712613467467934
410,0.010692368581612419,0.41886098557175844,1.7574655246176842,-79.14546079681506,-69.33839745971302,-79.24831355853713
420,0.9678781159668898,0.29894227944618956,2.294564879347788,-83.73656885167036,-89.86630253955613,-52.06530836618998
430,-1.396549399704664,0.7367503109515947,1.5819669400943288,4.542541076274604,-81.26015864552713,-47.91870150148893
440,-0.2665970539392298,-0.2732825912068322,0.5453385150212803,-25.40088617136667,-69.72955758758883,-41.90599273996816
450,-0.45726846584883596,0.34067616536074274,0.9987873198978143,-6.128723710699416,-62.368415791155364,-12.863799045215812
460,-0.9177409931685208,1.1009163562157278,0.5486495480632595,-4.085381783711355,-61.17789375738234,3.8148821352413953
470,-0.5481975281035378,0.5263932478797833,1.0279717439693874,1.9255400723306955,-46.926647851750865,-4.492013421422468
480,-0.724453493088261,0.1870077126673732,0.8573798878282316,-20.656367457520243,-24.463826558831887,-27.42450407127668
490,-0.545628696272977,0.4312515938193395,0.8666418358377919,-18.216991808921637,-5.7731315919218815,-28.36437793554121
500,-0.6314217715393123,0.5949807966182992,0.7252455523048048,-17.250024039891446,-0.4600477755139707,-20.127741288345227
510,-0.5525054951735345,0.5005540014401746,0.9491618087733832,-12.546756285473622,2.920876564392838,-12.58337313745605
520,-0.59982166506486,0.3823218752635571,0.8976179320275214,14.459770122982807,4.894077731700378,-2.102869458569429
530,-0.6105489801116707,0.4716779958281908,0.8985087517986459,19.73448664088323,4.5798135825070405,-0.7629874803497411
540,-0.6584148509953748,0.5859912192584661,0.8645131919173028,-50.46592203393066,8.125875772792417,-5.260802882098234
550,-0.4552119170202418,0.46245961988736883,1.1443147391706843,-3.707663329691166,21.691803783091363,-17.797225443799423
560,-0.13877795355381223,0.09499934395263254,1.5904559972074839,3.84272122767129,33.91449306006604,-22.87415038341565
570,-0.739566703764849,0.37611774613341836,0.7943152670663185,70.77957932951335,47.95236690405134,-22.36653780694765
580,-0.7070546501224773,1.0869809412433216,0.9691668583930962,85.70398216101586,63.35213640935163,-14.66439042438947
590,-1.3587672068548826,0.46584224486892417,-0.5794799300608332,58.51914114743941,88.4698428302168,-26.732152026339506
600,-0.836948952767231,0.1216859514865855,1.0863904263696331,57.658870149399334,90.10142104641348,-16.983094485046827
610,-0.3579253874131157,0.759140101742783,1.9150763632509498,69.54333227388527,76.47762327160972,-12.257754617665075
620,-0.4875567111060686,0.5081276357074602,1.5692481434447028,60.94839656765929,57.40669884979597,-3.0534560666241544
630,-0.32315913373925853,0.5064581956556609,1.9067111936717502,83.52613905632582,55.24559148635641,-5.3099221858298655
640,-0.4843683774548956,-0.16915109792372338,1.5849764502675887,31.777319176080592,56.4585533762409,-2.2123966842644975
650,-0.21204669483965746,0.441356510099413,2.337694834427919,-0.8556212713388636,40.17228008033895,4.5398290650083535
660,-0.3295853827038531,0.8303947140245937,1.5759567153725111,13.091618826763748,15.591915578064537,8.572324711031888
670,-0.6475714312903947,0.7058550705561152,0.8329874381751086,4.422872462223479,-13.798901352916635,2.1433953596552957
680,-0.6902020089488503,0.5014847066120133,0.7361369670356036,-15.999676558507554,-2.882702673877918,10.544503480386009
690,-0.5250267499429903,0.7326828229771547,1.3663691092024484,8.84640560629585,14.18329534982384,3.254555866688524
700,-0.5529983547996771,0.6379344607098131,1.1073989698374493,-8.810391017979507,3.884212807593874,2.7579826535959535
710,-0.7247860165064427,0.6132891461405414,0.7521113443101726,-1.7565832351115473,4.7076304119909285,3.4372764608845507
720,-0.7361354684696384,0.6117903372397092,0.7361743251226815,-3.6226413531833477,5.8139168543050666,2.944234042533754
730,-0.7123935195153083,0.6350086906149278,0.7543945589272291,-7.674552836344249,3.3467832848824433,-0.1270989912822329
740,-0.7356358564709655,0.6100361794907084,0.7391463927521273,-6.155096053188448,4.357079956924648,2.620435145160958
750,-0.7636909709759587,0.578175063297487,0.7159304649801358,-3.6667984005269045,2.7462266072905686,4.031355689591749
760,-0.7246581164186736,0.6304546224862865,0.7530676540261471,-4.506098409079951,-5.850769782088741,3.268445078662938
770,-0.713678724386381,0.637185883234558,0.7602333900641449,-11.445301953431944,-16.42704208210771,3.3972700721195093
780,-0.6806414839070946,0.6225535209547124,0.8712760807230625,-17.82406886526352,-22.80450020714931,8.912757326479747
790,-0.8069228404567119,0.741448411522218,1.0682199146528886,-29.64399529617145,-39.47860847290314,13.814031099027359
800,-1.0093754465805833,0.7464633974726516,1.1840729798617569,-34.42074490567504,-71.54622314291086,27.134114954097583
810,-0.894244869421381,0.7255311755810597,0.9724828784560575,-31.57515967169835,-97.15551173208837,36.28328669035971
820,-0.5519754425023965,0.8141863552020312,0.754137898858659,-55.83918749703287,-62.420194809958865,46.643384239290384
830,-0.5212075134684125,0.6865715508089374,0.7420301388997016,-63.862623799358246,-42.81607910884404,49.52368063529984
840,-0.5640391001999994,0.6277769527101966,0.7308806604165512,-63.41221291007386,-32.66365644677802,38.896747381963536
850,-0.5635885708766217,0.5454405031969979,0.9310099589488053,-58.9040637724817,-21.313297433611652,30.280492070861165
860,-0.6700472174211026,0.6212609090905405,0.7944121512619972,-51.93014648834747,-15.366465065225487,23.508887629221725
870,-0.6207504213464455,0.5110393444525614,0.7196759081928443,-46.24079621466092,4.113399882145306,20.05902212262725
880,-0.5817873866241082,0.3462765056895269,0.6737621895745053,-36.876397753619095,57.06881004970195,3.143784178823008
890,-0.7560229844457823,0.42052856992839543,0.9716064530524988,-31.994834825597394,55.58801869316234,-6.526943379609726
900,-0.9787620469946491,0.5038236548143444,1.0200180476252616,-27.31534949085685,17.867222267388392,-11.408400123757094
910,-0.8635852342962398,0.5564372312234697,0.715503489941127,-8.179127898816354,-7.703760065276166,-5.713535516183506
920,-0.6480649343224989,0.592094506470519,0.865459957093033,3.2055597379889065,-3.2812409127420805,4.575012772531131
930,-0.6022658474223599,0.1261663636820281,0.7697314188266576,16.74461677364876,-6.521261619274293,-9.022316162058651
940,-0.5596544539832022,-0.41519326831060305,0.738157334506072,23.464641707392715,-11.451547425804883,-11.812184856677458
950,-1.116957952390333,0.7380161416617387,-0.07542724810681745,62.86033614602092,2.2959761651301704,-25.8508172042284
960,-0.6564048653407646,1.7187241328415401,0.6484011762497461,60.36225315637569,5.467116279951688,-54.358688933208754
970,-1.213948057568809,0.6353694969470707,0.42078498252300167,130.01286418510153,14.146871676463329,-78.37353499993489
980,-0.09063530608993976,0.7256614655686685,0.8691540417411602,99.54977997173715,5.755886404177897,-95.88921899273241
990,-0.9469433594998388,0.7252748787957053,1.656863576239473,87.36070182040436,8.952347727172437,-55.54669447734961
1000,-0.6186399693350875,0.8503423534806215,0.7685898130173735,76.86722763823538,-13.698503793644237,46.09539246970806
1010,-0.6525264051892573,0.7139275391950576,0.8402196381291019,9.814891173040149,1.384995199069043,1.0541971483634418
1020,-0.6901364860604314,0.6434457987530171,0.8240178264454021,-5.737331562137995,8.718988335529342,-23.881916756519757
1030,-0.6772237295458299,0.6195905113259353,0.8245442615336114,-26.41642370757566,12.688878242110347,-34.97417397427823
1040,-0.6733782963801086,0.570848368602613,0.8307838522949977,-14.022453544323128,6.657710362797491,-17.61478016266566
1050,-0.6856772259801377,0.5465918511059161,0.8201499757850882,18.3828323134357,-2.5418980552435366,13.038264001149695
1060,-0.6563494375121547,0.6195787487428849,0.8508814861382763,15.111850910751368,-6.360429628008433,11.597238177987535
1070,-0.6724168191308745,0.6257381621761513,0.8325570747671475,4.0142919465358835,-2.482136752807992,5.114062939978771
1080,-0.6623997776083835,0.6277686699974558,0.8443665483088844,-7.783235092642623,-0.15034953707293264,-5.413581714107889
1090,-0.661627417384767,0.6126626548429547,0.8482268231937354,-9.418864156722403,3.3670920291053896,-9.153812311860703
1100,-0.6931907474748449,0.5545049001984477,0.8069225244508169,-1.0903458813275637,2.935667564595936,-0.7468235630284912
1110,-0.6812424749416625,0.5690288762956149,0.8239853698990898,2.548554832910401,0.12252127134672275,2.551474561651918
1120,-0.6652685703348755,0.6026826746513051,0.8481518291167355,4.1011511119794415,-0.16835105066655703,4.535869944044793
1130,-0.6557881545563681,0.6231875105697705,0.8527804028033108,1.1758661088500206,2.659950284219317,4.415083984418612
1140,-0.6724732125268144,0.6057359737596981,0.8260666235486671,-6.702665619138248,-1.415539759518443,-2.4436902142074968
1150,-0.6482342764706042,0.6152202608223398,0.8573281961513052,-4.318857613730538,0.9942942286525798,-1.6969928349520098
1160,-0.6697153789249615,0.5860415887212308,0.8365375946965352,-5.659102697623435,-3.7147536760946567,-4.251066694452557
1170,-0.692688246053508,0.5608542559513805,0.8110203929321798,-2.569315512037308,0.37746237713090447,0.6243701354421198
1180,-0.6676166128806318,0.5855646413161252,0.8399068260835822,-5.419823980760567,-0.34544787459822146,-0.2655086249244414
1190,-0.6964905302397786,0.5516005216928005,0.8112347670942088,-3.0954890895443454,1.0377066737784346,1.197793525523249
1200,-0.6793616873092471,0.5730865006657925,0.8248606635920502,-3.090545736267573,-0.5012325332087566,-0.409658014209354
1210,-0.690193486215971,0.5654928999743596,0.8096035818201465,-2.966604295990239,1.8044128896546234,-0.5873707902179095
1220,-0.6861476204471736,0.5592361902554915,0.8158916460877449,-3.166656719017679,1.4511484609836138,-1.6759168182680255
1230,-0.6596620926770119,0.5814153865803218,0.8461130413208493,-0.6672773494271911,-1.6900585592758697,-1.055390111766894
1240,-0.6880123863359132,0.5552279849552785,0.820629432280007,-1.8706844696630673,-3.2209338451166776,-0.9708393561411297
1250,-0.6693008750659686,0.5828148247377306,0.8372077710407956,-1.0352499303268814,-0.18523719228653335,0.660059885340916
1260,-0.6932186342977743,0.5604236006848372,0.8104155901046788,-2.1902020821136685,2.8650327259636468,1.1607205477297247
1270,-0.679351676960324,0.5718662880755236,0.8188009426120847,-9.770519968749882,-0.9428832574817521,-6.023589715000192
1280,-0.6651499960598166,0.5812952908940445,0.8408914702260127,-9.977075362569717,-3.669167746862446,-8.559743904446076
1290,-0.6556136448666543,0.586616225728385,0.8520104833119492,-6.612787451023178,0.891797289781902,-4.620286963488295
1300,-0.6850516280700689,0.5460965505824203,0.8157816790423147,-7.79918241034936,-1.2481549632731697,-6.303965582731691
1310,-0.6674800365559633,0.5643281317996359,0.8342352529380241,-2.924355267619744,0.13223530763860514,-2.5448452487550375
1320,-0.6978085627508182,0.5417814408696942,0.8033645546342639,-0.3283756032807663,-1.6154303735099655,-0.34163888172653456
1330,-0.6664001945267649,0.5844844010513265,0.83897338254563,4.189464186729327,1.9283777393049355,4.69331478330389
1340,-0.6709361779896311,0.5771813621034521,0.8274391340700358,-2.8202082633701657,-2.6605611950932078,-1.4365991762282357
1350,-0.6929793062001902,0.5460870298074224,0.8040177791255672,-4.22992924192053,-1.1993671102379997,-1.5026608996942523
1360,-0.6605024326575044,0.575747914650098,0.8418785247728987,-3.7571806249698154,-1.0533944124152772,-1.9064672699131053
1370,-0.6700667255611678,0.5690147552113799,0.8372810517260149,-2.1511873847168133,-2.1103904381385226,-2.041286701241771
1380,-0.6971362755721008,0.5460069072887231,0.8024196785752785,0.13556065458750388,1.2926440717422523,1.3255944538864788
1390,-0.6586646313414006,0.5806925131841373,0.847865235619935,-2.2115381464768635,0.29287976080246847,-0.5281277528142473
1400,-0.66342104897408,0.5873726030409885,0.8416725348240518,-2.4929967320291393,1.0022500986655705,-0.14981242961760316
1410,-0.667573978003609,0.5705751381062075,0.8347476554949739,-0.1012809541987823,1.1883077587746738,0.5100898868310807
1420,-0.6599575120955096,0.5787732608230268,0.841089157749509,0.8626032059698039,-0.8026064006346181,-1.1540193820360471
1430,-0.6634130251724599,0.583077312188907,0.8433134902186662,-2.5083653282506333,-2.1524681058452333,-3.358022032047607
1440,-0.6787193776204834,0.5635533906174225,0.8270580749086728,-3.1084015938179586,-1.3809487999747116,-2.471426550034646
1450,-0.6784098593463979,0.5586241711941401,0.8245317507965796,-2.914363477066395,-0.2563668814791393,-1.8788813081736182
1460,-0.6831414433547843,0.5485545526887173,0.8180516741085206,-1.2562151894211555,-0.25444309171657886,-1.7185120629190642
1470,-0.691327996642128,0.5488482077101478,0.8130175084325824,0.8236990516675227,1.2311201983118452,-0.14182904995439727
1480,-0.6980826670906011,0.5388095358437144,0.8022410448256923,-0.45231639936091117,-0.41274132915281075,-1.2661752824243644
1490,-0.6928365827566344,0.5438949178003879,0.8060673844888432,0.5714089586761695,-1.0522798211613387,0.1965936137814963
1500,-0.665732502892393,0.5767525212565751,0.8413111458094508,1.268902431124213,0.34496753659079915,1.1867299681850494
1510,-0.6891949212253176,0.5626977722054104,0.8144850734838963,-3.482621039989434,-2.352500717937967,-3.728393347894749
1520,-0.6867911504486351,0.5621500970937079,0.8201711358584101,-3.6058562671131735,0.7354885477953121,-2.7176925643214576
1530,-0.6678986940138414,0.5663235291434895,0.8361233278953693,-6.572393646011671,-1.8662160613800938,-5.819254421646634
1540,-0.6896630826447946,0.5374445035275399,0.8108569075096463,-1.504275871707292,1.1286079659109118,-1.7253188647555708
1550,-0.6926780223234186,0.5372358310151608,0.8111110859048557,2.5982494421406,-0.37111485215811585,0.32569516970345125
1560,-0.6762004825773569,0.5537862072002732,0.8257778495699012,3.189028698163927,-1.0517903859361502,-0.3210305101437405
1570,-0.656180770733064,0.5818419212062237,0.8450449317565701,4.961605133279159,2.519897627834578,2.053120719191607
1580,-0.6730674567082103,0.5608489342364537,0.8261575913166119,2.025820233142082,0.9381633955820861,0.043539751486081246
1590,-0.6946848276222488,0.5398071136398845,0.8068004544064262,1.304870161220364,0.4972116308232868,0.34233096912093547
1600,-0.6833552108370643,0.5521037331597611,0.8140854992761678,1.7513967542538293,1.0017032467439073,1.305806807079567
1610,-0.683297258669618,0.5512497707550253,0.8181547443762675,0.8992785429891245,0.4292108602035546,0.8020506380285468
1620,-0.6719068893486638,0.5589691230666137,0.8297405140230972,1.4997304676985581,1.5216796661497523,1.2652336043752783
1630,-0.6680726005740029,0.5660165736523515,0.8367777847785419,-3.0755524288060454,-2.3958661810448807,-2.9463747665231135
1640,-0.6635120883318321,0.5701993115681672,0.8391591514235217,0.9207387968686054,1.703092838836592,1.2469906359174563
1650,-0.6608509233206784,0.5746891707240491,0.837207793450508,-3.8704341422132376,-1.8766046785999755,-2.975440289780622
1660,-0.6610481219662373,0.5756208403688344,0.8388002575581238,-4.623847225589068,-1.0303199909397531,-2.890029591486603
1670,-0.6618469781598455,0.5660590464316715,0.8425715719776379,-1.5819529327452673,-0.6718678935806056,-1.8017873739573615
1680,-0.679259742910332,0.549152564475485,0.8212280454139631,-2.490685971074371,-1.1864851095785927,-2.876827554830756
1690,-0.6607276571066657,0.5647356964882605,0.8449974086539689,0.039514218930324474,0.1823522383254959,-0.8305806599030725
1700,-0.6704064702113927,0.5578417374793329,0.8343583354991652,2.118298210678401,0.8005353729454079,0.47371439977737245
1710,-0.6652228208625627,0.567604119361184,0.8330681530611342,0.7995254503843104,-0.629976219527586,-0.14571406216239885
1720,-0.6483108892777196,0.5813100328506088,0.8520077535137486,0.077828689295309,0.6957347238683803,-0.997074366736267
1730,-0.6710047032433175,0.5534100124209261,0.8260083966971401,-0.8705686210031023,0.6433313636833004,-1.3860890490550601
1740,-0.6884508183983308,0.5321240881158614,0.8131186707841142,2.3892160969470355,2.001895226641187,1.326021082536005
1750,-0.6443025214934268,0.5840462453070058,0.8581303192581282,2.6535145947179473,0.8803598004975624,0.9539916158679567
1760,-0.7000819933633718,0.532490384658266,0.8006333830679194,1.2130044142976868,-0.1888971442972685,0.6690321883019474
1770,-0.6518496238011708,0.5821237711644456,0.8480911402089315,-0.31960113650384003,-0.6498418304803182,-0.28416879056365085
1780,-0.6969141645690567,0.5336685416473447,0.8016997152293442,-0.13904665853901177,2.04874013482499,0.5869942064173634
1790,-0.6874674654313246,0.5393722549761728,0.8050456553920708,-5.067319627487747,-1.4943449797592703,-4.064424948074773
1800,-0.6914359775329433,0.5324411146777535,0.8128222204089539,-1.2353967658658789,0.30128767175067206,-0.7529576363865532
1810,-0.6819084747457803,0.5415480623113216,0.8182724621283752,2.073274977191873,0.9075566210749076,1.675804001672652
1820,-0.6696470373026775,0.5553477051931014,0.831722019857101,0.7575345043456978,-0.8188271859162574,0.30860226398527413
1830,-0.6702569515390241,0.5723626746019664,0.8275728347156661,-3.527923952297994,-1.1909807394088578,-2.849758017547127
1840,-0.7097717948825946,0.5198283761748668,0.7979141077730311,-4.218463527687242,-0.6775984639414624,-3.734656700569337
1850,-0.6892178568802152,0.5336736574196621,0.8118749519920041,-0.8037376904293836,-0.08806323705973801,-1.2228037653337405
1860,-0.6570897403050084,0.5634538316609788,0.8489443109908477,0.9945663641297229,-1.426024317823065,-0.15238553194059878
1870,-0.6592866291013653,0.562186903446293,0.8472993101264339,3.180730390153922,-1.2592421358328698,1.7747396137445033
1880,-0.6656452757644475,0.5633100448996315,0.8367557499068258,6.276463254685273,3.5316164611736394,4.967435179597913
1890,-0.6704374376176224,0.5591386994562074,0.8336194228325923,1.4023743021929076,2.6296708948829277,1.8061910490916326
1900,-0.6877071600512203,0.5400328858330702,0.8177446907857095,2.714243581415851,0.8646516038474409,1.851870612013672
1910,-0.6619905649660766,0.5688303282483382,0.8387042309055498,6.285464359466854,2.40606196057774,4.599278475782024
1920,-0.6847533402465777,0.5463019586835836,0.814470131922827,1.0098680464801635,-2.124107458126328,-0.54541336068246
1930,-0.6783081982898517,0.5568842901647915,0.8231560094438706,0.3462953233636794,-0.051066439234065925,-0.866464758182087
1940,-0.704466445193441,0.5226431317902639,0.7973114102939429,-0.7708614462194012,0.9010473082555418,0.9037071643432835
1950,-0.6712214258353915,0.5572136238801499,0.8356200164931307,1.7240720922192936,1.9767261565661656,3.8310312728921745
1960,-0.6595910418205357,0.5722844808115698,0.8400578890567465,-0.4677983445984608,-1.659178826579236,1.686310615243685
1970,-0.6765312780920918,0.5518540353283415,0.8240150484111749,7.488939029969859,3.0936066686522437,8.097876993063943
1980,-0.6879513419750277,0.5517055067734072,0.8063000995251158,3.14126750097213,-2.318659506110042,2.634746737954068
1990,-0.6554785128524708,0.5843899502762202,0.8434232450251378,1.8051050293869935,-0.12154151452039852,0.9138112520084782
2000,-0.655817083263961,0.5695853188149994,0.8476614007159933,-5.646420693431322,-1.7128619618010417,-4.718460752753783
2010,-0.6724880412945918,0.5498395231806013,0.8307778261504448,1.6613739852657687,0.9551067714360557,1.993462685158193
2020,-0.6730537401065634,0.5560849782913186,0.8266212854645876,1.4454486307537602,-1.2959159939611244,2.082250618834811
2030,-0.6660011168704608,0.5639599797739719,0.8357849725526484,2.0021344895740247,-0.2398361445426807,2.5419749467384603
2040,-0.6628488892792259,0.5732807728074771,0.8387275572230386,1.727821285348038,0.4827651253405066,2.0187284336787235
2050,-0.6907908032103074,0.5490730967069227,0.8123826279853547,0.12601332911081292,0.9460083944397668,0.8760311168784432
2060,-0.6717507668092529,0.5651706487525527,0.8310573534090024,0.3069373810561985,0.9637016313613971,0.5065483839494186
2070,-0.6795647808964297,0.5542517037623814,0.8207052395882918,-2.354467235956466,-1.8710897990704296,-1.8365820817365324
2080,-0.6541943434743649,0.5758123832359262,0.848185488026581,-4.264215954110915,-3.880494135163416,-3.574835231961629
2090,-0.6515844796300383,0.5837217319457605,0.8552276945642446,-0.9555680020833244,-1.2244111402856581,-0.5186096014249812
2100,-0.6438520795682922,0.5853534477803403,0.8571814881378633,3.5715036646298994,2.5767727883654907,3.9106579906419423
2110,-0.7136950699337967,0.5218716595619644,0.7891023152944963,1.1594547713941699,2.446526814528428,0.9015276069388654
2120,-0.6903597956523876,0.5469966734514959,0.8192505874238425,2.3712535060701,2.812967240720111,1.5674134263148778
2130,-0.6702322075286393,0.5660442109857705,0.8356795436940628,-1.8800679439855492,-2.053744599259355,-3.012528094440867
2140,-0.6671998945952103,0.5653974749769246,0.8370602306191903,2.178125961524414,1.3515631360400504,1.6203327187680767
2150,-0.686429320630363,0.5476744876145835,0.8140360207961735,2.910632757396559,-0.3818661848127632,1.2302947519075769
2160,-0.6832059636924303,0.5502078724795996,0.8181423813332717,1.8177023143627629,-0.8965856560046642,-0.33274605006280833
2170,-0.6820118077884932,0.554123102601902,0.8217831264168752,-0.8692472685869681,-0.024231805495361858,-1.2349415160315054
2180,-0.6773328275007198,0.55862284805808,0.8190936012394863,-0.8061427683615641,0.7195194105276681,-0.30032598780023445
2190,-0.6761164202992186,0.5587893037265662,0.8200521547114561,-2.6047347633472113,-1.5452284367767524,-1.8074029284934594
2200,-0.6735728887931878,0.5568307035650413,0.8281661319904979,-3.087167675781762,-3.195513582299291,-2.0841463694176072
2210,-0.6407637806197806,0.5903999076832347,0.856720247764744,1.8748146945670654,0.6747759151519304,1.9760600709069611
2220,-0.6502339224546222,0.5823501598374577,0.8470565192741457,-0.5795313011178201,0.19352471121687997,-0.9405937903225613
2230,-0.6667728876646548,0.5690606936580118,0.8329242278146926,-1.335729403927137,0.7763763772106052,-0.35837445120508454
2240,-0.6591414662695367,0.5703764141343645,0.8397645778395019,1.9448839892528784,3.172556785805556,3.4739985140341414
2250,-0.6836307143207855,0.5416885067544058,0.8180727598399501,-0.35679305663473965,-0.4832804277853264,0.36753137512760703
2260,-0.6795159817991903,0.5555579902761362,0.824482581808594,0.2168994617061616,-0.010387754472024377,0.29758506589560624
2270,-0.6660876647836833,0.5652787829778941,0.8391573428274485,0.11013883266732694,-0.47497530239008157,-0.8224085423926066
2280,-0.6956341755049763,0.5439465214204501,0.8071536449816037,-0.620920448255514,0.6359756350127255,-1.2554989912215944
2290,-0.678016811886417,0.5610176612560341,0.8223359271650541,-0.4833637443883547,2.224275110795979,0.11601056104126051
2300,-0.6618636349647318,0.5749080884437258,0.8384364346624817,-1.1854162168297582,0.9077880485573547,-0.8670971626537923
2310,-0.6768921134121094,0.5574426532212716,0.8242375947331719,2.261894214250204,1.8442901576543884,1.511703935951805
2320,-0.6597651470158468,0.5740112759585843,0.8378741908180449,1.3638055129430797,-0.3024073582279343,0.10645402825568101
2330,-0.6743459566344921,0.5582714407066941,0.8203350762653434,0.33757169733677295,0.7705608181580692,0.015804678360429425
2340,-0.6812622772958445,0.5491689517131499,0.8166099505533999,0.687962195180815,1.1363158719555178,0.43810560497927314
2350,-0.6503938687887193,0.5876226252876221,0.8528830171236091,1.0193855556910871,-0.43386120907067716,-0.14426222984353487
2360,-0.6785825477540174,0.5557290443517903,0.8248774653661928,3.510249777151265,1.7811584563999658,2.092461959062393
2370,-0.6545546642060973,0.5865665104975363,0.8462344619754396,1.759038581664571,1.3497810118851843,1.0840627006656556
2380,-0.669990050106322,0.5651206493731484,0.8282095855330602,1.8628209827827535,2.2922610703502095,1.551655561333196
2390,-0.6750665495554996,0.555460745589851,0.8274157858744394,-0.35086646936748633,-0.048754476394122725,-0.23970589460266556
