time_ms,ax,ay,az,gx,gy,gz
0,-0.6067333909884883,0.5130602754123246,0.7731761429189796,-4.423156836479278,-3.1654912029267734,-3.8895356984324287
10,-0.6447609958101643,0.4731111421556914,0.7311481095213491,-1.5990959013168045,-1.2142533906347643,-1.818598086091092
20,-0.6204850942598837,0.5050058598098472,0.7594516219385065,-1.1846465929437724,-1.185613720159457,-0.7389525671846771
30,-0.633175236312258,0.4950050855426118,0.7489166791242314,0.5754566078244894,0.8891707624931428,1.2501468128032152
40,-0.6158212958941265,0.5136017353395463,0.7647477873077817,1.6845591688453776,2.8872497271410484,2.4868788960964636
50,-0.6290363160101305,0.5008137510823798,0.7484227651328799,0.43316393625626715,2.486131268419155,1.4453192903881735
60,-0.6542734803199879,0.46898366501337846,0.7211844661261612,-0.20294090727599778,1.7612452493897903,0.3485311110931557
70,-0.6550872863228051,0.4690223110088225,0.720430109589644,0.8610360607237355,1.390978438268668,0.38640302190530373
80,-0.6415963903031766,0.48215610562238187,0.7415837207671506,0.8824683331638267,0.45164898981418045,0.4385086338577862
90,-0.6322704638503115,0.49813265651315547,0.7432151943137686,-1.7717945950540421,-2.2259284057048365,-1.457538550674621
100,-0.6434726358898609,0.4919942354808121,0.7306391560498775,-0.02842915383019623,0.5293482053731142,0.6508900076146193
110,-0.6610332366698916,0.4717812682335747,0.717409965705205,-2.2188287409619507,-0.5423099088971028,-1.566026386842149
120,-0.6545155525125314,0.46932218226662714,0.7242687724695168,-2.9430020760529665,-0.9812105504146046,-2.4043307923650925
130,-0.6369232755382102,0.4810600108620315,0.738290646543453,-1.737731953533761,-0.3381940661086458,-1.6120672333723347
140,-0.62610160074476,0.491261591604597,0.7547653085669795,-4.690030024009027,-4.41256219070366,-4.617062222537377
150,-0.6646792442097188,0.45527098493020635,0.711493113690893,2.1149963616046334,1.3517647465113745,2.2712768126842673
160,-0.649123693392974,0.4734640568303351,0.7297164940423508,3.2606752674317407,2.6771064218501843,3.033229769043439
170,-0.6332235492104208,0.4913551127135503,0.7489340637949724,2.5401952652333604,2.147291870702564,1.6801144630943718
180,-0.640398913751064,0.48623890137086173,0.7413288585129151,5.195887980555815,4.641038574425496,3.678701654155285
190,-0.657084870805401,0.47154418911660934,0.7218096346737712,-0.4037200120491842,-0.6209545082354584,-1.9293692075172666
200,-0.6546255040697123,0.472012994265087,0.721665261448652,0.2487338358700737,2.1624240609249297,1.3018038040878213
210,-0.6330531294571131,0.49661395792970714,0.7482857200388858,1.2495740243784503,4.815615463869449,4.0226727946780585
220,-0.6066165411438708,0.5331399923772532,0.771044652766212,-0.07866918834504988,3.416527380772486,3.6886727309090848
230,-0.7098402567211158,0.5591338522526699,0.8456261387441552,1.9138593789637253,-3.231544844593599,17.87640962244097
240,-0.8148239763798437,0.5292971363389751,0.8752065577700049,5.809563211338765,-17.39271830655106,26.587833341731688
250,-0.8266533562390752,0.4659624017509476,0.795577430344862,8.995626830105547,-31.63352329077939,23.403502838395593
260,-0.7369357961943794,0.49287113223852574,0.692072559032312,7.31383181385749,-35.6676485019475,22.778905136518908
270,-0.6106554663144536,0.571384071014754,0.6465660684761022,1.945230462307677,-33.95812935696147,27.52770976525978
280,-0.5342415303919735,0.5648739163351557,0.6194628398932654,-4.4852556782973805,-23.9092655979782,30.215925079809413
290,-0.5493046972178844,0.5773422544766427,0.6283562308809502,-11.53249043022192,-15.10123482520908,29.3603630027922
300,-0.577918093772583,0.5818560771836508,0.7005024429330566,-19.75362836957166,-2.6972892298620694,28.653104599011197
310,-0.5852350655342888,0.5674802745459976,0.7124477686145242,-21.645490757044037,11.822814646677735,30.877473915446323
320,-0.5664639260615725,0.5440455643069784,0.6447507710691652,-23.241378562367764,17.66614458194406,26.979838541864755
330,-0.5138291008003155,0.5440573462551873,0.7174499392168557,-26.2439053847614,23.82824342316832,20.56166119381854
340,-0.5764955991619289,0.4350243364921407,0.6642035450695818,-16.236434255278258,35.333444671815954,20.010410443842066
350,-0.573721015655305,0.4368117417359569,0.6798416638984354,-20.663102817536068,38.62604913923352,15.121042758262869
360,-0.5276998166600526,0.5038449413690731,0.6948979151731267,-23.198907556562276,46.35335506744304,14.131300460441038
370,-0.6700695673261033,0.4209880541402594,0.6622681692936621,-8.111087088432699,27.894507051556577,2.561461931019522
380,-0.7443729044479919,0.38521483013857527,0.693484078361984,15.1988883408818,6.810823246256344,-2.592566581446694
390,-0.5883328413684796,0.5017328325749911,0.7748209009581651,20.829124483900667,7.788701533416338,7.997454499148029
400,-0.600459342154069,0.44635722611500106,0.8207852995527238,26.313029353353265,3.5332547991746956,12.811842083318757
410,-0.610850639850199,0.41753242529381274,0.7771129273302022,28.970773624148453,-3.1974744513663635,6.081269774845169
420,-0.5044922395204223,0.42007260944790953,0.9445242197270357,24.82904774746707,-8.537392630580834,3.908165301120105
430,-0.4979542658935945,0.45200675496673504,0.8654484252689824,22.249528903681508,-15.785654335164299,-4.36348512497957
440,-0.5482807995758584,0.4632246716385066,0.7829677297862552,10.907596289339962,-28.040693982951776,-27.661246864936924
450,-0.6329813885398902,0.41209365233430667,0.8113767134295389,-3.526456111543543,-43.223928860005785,-51.68417152715194
460,-0.7233112989044767,0.3952131556619645,0.8230367075042995,10.052504580332824,-41.84814897464564,-39.98696212437267
470,-0.7974582370107869,0.5625934968368308,0.6261380657761334,17.79510721770223,-40.986182783493106,-37.73256658231685
480,-0.7094822652890802,0.6905607085094909,0.5570984420053713,-3.547704939992657,-36.51073713890859,-29.98167022297525
490,-0.7287018979384515,0.4095111648418825,0.48430240274247993,-13.73100595088026,-32.274160058119946,-37.820802108406895
500,-0.6480759044227022,0.3441306438651346,0.5276172303072687,-21.18710527639469,-27.094281761873553,-38.801303970975866
510,-0.620651590207804,0.4672700086799973,0.5957101723631385,-16.248671217191465,-15.701905602296835,-23.268922407073084
520,-0.7154187342207746,0.5422608685464804,0.6205822583634598,-5.652841052548618,-6.903506657441173,-7.681414351925562
530,-0.6670509412176329,0.5381917411574566,0.714846803060408,1.9295662836265286,0.21730487170710983,-0.8545867578235379
540,-0.6118666156393016,0.526375833717729,0.7738501140481496,-0.23147400381307515,-1.1568171155325517,-0.20067371984727123
550,-0.630294652401796,0.518425013552972,0.7547004081627772,-13.883289199021561,-4.936021991686566,-4.061996946276517
560,-0.6606890074890777,0.4861560205968906,0.7222290340280808,-26.869152500168457,-6.118463465431365,-7.0043789629785245
570,-0.6661316618659031,0.46740678884807807,0.7172048290897233,-36.42107554752571,-6.1444868173550065,-11.418897099384418
580,-0.6721518468215671,0.5382482506184008,0.7251275120093025,-11.377715487067363,6.648964501687774,-1.1427249503804748
590,-0.6968601825747536,0.5929946015916338,0.7406620800688649,36.32166740829113,24.218511964247256,17.137912188965768
600,-0.6430365101457499,0.22831890939404967,0.8817188778167179,20.789314365003786,23.476707714510038,9.889194976325467
610,-0.4335846356248377,0.5027366836967497,1.5480564369588967,33.77339525631078,19.98076645653827,15.543972458571197
620,-0.6425939298723022,0.2919354249166586,0.8133659389584139,6.6543128389473285,28.21614611422744,10.278087362628181
630,-0.7644563000306749,0.2276896470369367,0.44619329670260194,-8.015666817995443,32.73635168657314,10.906407533771125
640,-0.6570278011883631,0.44095801897277315,0.6282180846627266,-4.227015715454854,34.60198981082358,8.790503173975694
650,-0.6037963946147534,0.5834273129416611,0.9371893877083785,14.500669404698357,35.27877956091009,13.037947616084377
660,-0.6793710766356036,0.5163317769459621,1.1498298785621688,24.089854578235208,18.994187546014466,20.38122287558893
670,-0.5810157382000923,0.5345095542835983,1.0616079693415927,22.511447454173307,16.86931820902998,11.285518279931882
680,-0.537141969354696,0.6574505798716621,1.1144818250880115,16.34612119189162,21.881034207845204,0.3230592728989825
690,-0.5714481051729594,0.6161867085172027,1.0467565947977413,11.48178736798883,15.590355714694958,0.10178274517629893
700,-0.6154505000426765,0.568937266170272,0.9212409307300047,1.830323360210933,9.65914487969413,-0.6860350613929178
710,-0.5826258582030499,0.546851562577946,0.8918008621295977,0.4111310720074888,9.418486007887998,4.681084421888477
720,-0.5401685156101125,0.5277125915873135,0.904952538221876,-0.8552604456225681,3.495953578039653,4.621511561646838
730,-0.6653897218647505,0.5028924173363721,0.7177379805408969,-0.6586402554112869,5.507322630603375,2.391753112884147
740,-0.6353106981954811,0.5016872658757308,0.7301091150287405,-3.144156948471512,3.1127168984515796,4.274994019868448
750,-0.6237607393858916,0.4993591221786,0.8105611306926029,1.5301270783313572,2.353133243216378,11.315655542852458
760,-0.6745443420079661,0.5377052956581311,0.7652140629214161,-1.723584874933635,-7.941005117960462,14.08318756060631
770,-0.7081837389705757,0.6122344135291448,0.7863922373701641,-2.8469893841352776,-16.68469740679235,16.70212613353784
780,-0.775777410443208,0.5776493406790969,0.7604838130935342,-7.098770115312301,-27.402621846959335,13.142119186588967
790,-0.6923291748899871,0.5595638916136123,0.7562692346216053,-6.144592139423737,-30.95351269088142,10.117043408903962
800,-0.5470753412598514,0.49059544413574563,0.713177054862293,2.4343379484644414,-26.30343015811948,2.388999394818872
810,-0.5759216013305262,0.5496103132363472,0.7390445212926325,4.637651696579326,-21.76830121446985,1.269436918224935
820,-0.6091416845207805,0.6225013324150969,0.7518274724700813,3.78304540511544,-17.516371666750484,6.205335801966816
830,-0.6135669226772764,0.6416246451890302,0.7373856901215633,-3.9903666035457306,-18.52637909707516,6.577959980821773
840,-0.6230764751219051,0.5942287697252275,0.6950766065233578,-8.457843835582432,-15.362616078721333,8.469946136738146
850,-0.5636697851444433,0.5971224816886532,0.7279298256911602,-10.81320715266003,-9.962167676182137,9.705465422565531
860,-0.5421398038717826,0.5819131691182713,0.7325341930673721,-16.613818840344212,-4.833847770757716,6.376225965284021
870,-0.6055921489009394,0.5381217886176308,0.6463919183339528,-26.69378724137755,12.386041494441896,0.011529066684666911
880,-0.581334155307514,0.5767422254468932,0.6803028342070812,-34.2414748197339,19.692857213311097,-6.1881284529335625
890,-1.0358906280948823,0.38108630422463907,1.1733787574783385,-35.78770151840012,-10.193094962914095,-17.105105757592305
900,-0.9053657182882902,0.2400055767428033,0.9927010132608501,-27.493666100945948,-10.082514997943523,-28.58098629725536
910,-0.6602171036185396,0.2641364132404328,0.6632437221231317,-20.93241805757832,-3.0749540270314117,-32.46348481872138
920,-0.6530637855817075,0.4094525442543613,0.6837215520786433,-10.865182344366689,-1.6504226336261003,-17.873908314963415
930,-0.631046239617748,0.42872800408769607,0.7189247892826179,-1.0291233878083919,-2.8861147094763577,-5.539688104683217
940,-0.6292613963523643,0.24389254474105826,0.7160311215892475,19.843241536868273,6.155705096108085,8.739472802362982
950,-0.5428130902685874,0.1818034169801645,0.6951580180656256,20.81511910686539,10.491612867111307,-26.91296232328063
960,-0.491643606010623,0.25050652590738315,0.7213671005250356,11.546687829378307,-1.8871710376290165,-29.47463080955832
970,-0.45718991976830753,0.44843696060150523,0.8184269099169188,19.116229433264685,-4.412526674496897,-22.743239120230918
980,-0.6581647981258978,0.5289740889557492,0.8092164094799273,24.354298903213895,2.7885857049027125,-12.935688038387338
990,-0.9186404694276479,0.41515779983680556,0.6452230653105626,2.5637252898687284,3.7996362894742792,-9.208476763334888
1000,-0.6177697041390781,0.2689413186038837,0.42769629974593665,-7.901365083612658,12.563014571341018,-14.523519193028186
1010,-0.6073793126011786,0.5164071733643764,0.7297043877691827,-6.134308632834903,2.3437774306516066,-14.147556773120339
1020,-0.641396359899071,0.494647020873757,0.7392936095813468,-17.201119062478025,-2.8963133949563997,-21.475928378525182
1030,-0.634354264508737,0.48133657700462573,0.7481574291963548,-17.199375093425072,-4.622990936008205,-19.867314594321478
1040,-0.6490476060024923,0.44410163537556285,0.7316607307442565,-12.622548650541594,-7.197015929741303,-14.364968215386913
1050,-0.6525243299897889,0.43036771515626154,0.7291432405794415,-3.411134941373278,-5.219875722876366,-3.461109430386292
1060,-0.615648217507033,0.4779377571268582,0.7689444077513152,0.21532539585732602,-6.0049408599327,2.431787313725314
1070,-0.6066199860929848,0.49556854894691205,0.7751592742308889,5.810425730194137,-1.9332624999921146,9.568079532282567
1080,-0.615708507746833,0.5082897108490413,0.761813323145664,-1.8753867025023985,-0.5268175389143959,-1.0323461405444427
1090,-0.6378616597037887,0.48649756339553024,0.7420921784120996,-1.1928443574802856,0.8953250707368331,-2.183048892934423
1100,-0.6410816471082151,0.47865559650825823,0.7367810867600877,-0.13189275491240882,0.33648613976077413,-2.177292004916086
1110,-0.6452141920852327,0.47040666483365395,0.7292919517549187,3.330429442171398,1.912780322276809,0.8104970271944321
1120,-0.6238650330978491,0.4949851923647612,0.7512926967268501,3.367390110723705,1.2862357273466243,1.5306439059100176
1130,-0.6358823305636286,0.496618007514136,0.7445289216154464,0.2841007212120534,-0.019047810290189118,0.7999279362450196
1140,-0.649011015685633,0.47351586360843684,0.734732364140033,-1.4767195523329026,-0.0369407586354176,-0.002463359312613378
1150,-0.6080962337411344,0.5144956394747957,0.7723178596958885,-1.6941488432819176,-1.49443346828424,-2.9925321105322147
1160,-0.6181535833814873,0.5029502488664834,0.7618087176870255,3.499666481590979,2.109209294013424,0.9473091600461131
1170,-0.6497917411120309,0.46942228482632,0.7323117066409874,2.170317217022839,0.48766655172956486,-0.44152731677019524
1180,-0.6178508035926752,0.5019241621436075,0.7655172374617899,1.400950288604288,0.08356252007028175,-0.7199834620981552
1190,-0.6615247948812482,0.4613726406913734,0.7197286004078741,3.611623974695643,2.6562703755309864,2.1868677052642886
1200,-0.6357433333517595,0.4883510058873494,0.7419682141417231,1.3107872337223143,1.4979920722228623,0.8747006741484005
1210,-0.66350172570495,0.4574707913019539,0.7198416764596349,-0.8368505368348522,0.02113252558376144,-0.31782579876633993
1220,-0.6224910798990645,0.49870038020374985,0.7611261326392949,-0.7187632222081732,0.5748963320872413,0.18152979328883168
1230,-0.6114514264543164,0.5075835300018973,0.7715925629638797,-2.28488134958784,-1.003040662426923,-1.4305988677736767
1240,-0.6366627733987785,0.47686452892158326,0.7427699364139128,-0.7244036306438851,0.29573422655238507,0.08425281219874084
1250,-0.6373876546492211,0.4737218794351512,0.7406785726729427,1.9388170911112481,2.284543539490789,2.226169035324462
1260,-0.6540321577152746,0.4628281224613591,0.7281501361481093,3.0451157951013705,2.0944031038374122,1.9715427740420244
1270,-0.657855831718479,0.4647203714246447,0.720193621188267,5.2449314998724486,2.7967274822700525,3.338188542503928
1280,-0.6219708384453142,0.5057278612049999,0.7497794459136214,2.390546409692656,0.7367591167857817,1.3386896979936758
1290,-0.6100306777284942,0.5158660721353145,0.7633958328677188,3.178636185595271,3.6501609839280786,2.6496565407749957
1300,-0.6245601887413721,0.49454480758058667,0.7529394417594275,2.8753458788807347,3.7773861295769144,2.420179140572218
1310,-0.6537676317888109,0.461361678709522,0.7255936398190957,0.44063073340962444,0.9249763455565253,-0.17756751815190586
1320,-0.6287107952326055,0.48674401345281043,0.7490565922499728,2.0684810387053165,2.1454755437425757,1.452393071942117
1330,-0.6505064510005188,0.46565575853987906,0.7244033169843391,3.294201213967713,3.0006815342848214,3.115077895852689
1340,-0.6274998757118537,0.49549037850580097,0.7464059825682552,1.8980055215716676,2.238298971532223,2.0898536676132435
1350,-0.6124730215446106,0.51256698585211,0.7684611987476396,1.355768025150645,1.4824875220029088,1.6784677403183186
1360,-0.6390054867650619,0.48582041595705044,0.7404057757311031,-3.2867247460133373,-1.982637134594016,-2.580543927989845
1370,-0.6083802387568347,0.5147921168947978,0.7683164520019088,-0.01716035163665275,2.1616849178722184,1.1245615275564573
1380,-0.6228890442303523,0.49864208058836146,0.7539945365116197,-2.210338343617215,0.5225382777485753,-0.19209191270692583
1390,-0.6342846495093712,0.4865416878840671,0.7438830479433075,-1.406755022059421,1.6037503214843467,1.3721322095421558
1400,-0.6242393937817541,0.4960018293547424,0.7509313245707896,-2.613263602531462,-0.26533693438814254,-0.8457116821285264
1410,-0.6126411213705899,0.5018986779435683,0.7630509570511548,-2.872861133321572,-0.39899563689069373,-1.6522643589975738
1420,-0.6263101603269049,0.4921680317830073,0.7509161235911469,0.029957206214144785,0.8185523875212182,0.19928151822459453
1430,-0.6280866120724741,0.49409855150105547,0.7473677426438392,0.17438509762356347,0.5315277119007342,0.012980157311231255
1440,-0.613551424758184,0.510371631986518,0.763953922710625,0.694870250742502,1.8329365124373789,1.199524444616149
1450,-0.6172463878798796,0.5076930609284649,0.7633024886864977,-0.20989249826317602,1.7512190637052114,0.9031855154568066
1460,-0.6406878231353261,0.4830968633920474,0.7362305341368962,0.6890991474625803,2.605103280084933,1.4439181102467296
1470,-0.6091853616833627,0.5032074691405524,0.7565074928345132,-0.23865792901746796,1.3099133211537686,0.09450159082115461
1480,-0.6130158630927259,0.49773322335091075,0.7596842583886334,1.6503113325999066,1.8533455007590445,1.0254165144977692
1490,-0.6396900513133676,0.48207526559261177,0.74152946293385,2.3659457516676055,1.9969950365947053,1.0376483361912008
1500,-0.640661596127349,0.48170983476979307,0.7384197909581919,1.384463607980834,2.5878597317102616,1.9491128178890642
1510,-0.6334234285163045,0.4860037386750033,0.7427392253447433,-3.872553306210739,-1.6893120501850842,-2.1553761592517047
1520,-0.642982241571501,0.4760869708321147,0.7355110348303283,-2.523067375281967,-0.7275344348223037,-1.3682311129070037
1530,-0.6230219456072219,0.49543392415949805,0.7578915112455937,-2.8340620380223003,-1.404023888466717,-2.0739070454067563
1540,-0.6327285777118149,0.47714105073497476,0.7375530833895853,-0.8174948416702346,-0.22834420311677878,-0.3843365364002768
1550,-0.6340399307468649,0.4785043225725503,0.7433237792857844,-0.428354124354104,-1.2193030159852918,-0.8867081243579548
1560,-0.6416234369989102,0.4783721022902489,0.7311870784453391,2.820334835203182,1.785444588685809,2.178492641897003
1570,-0.6384201338811033,0.4846329660554491,0.7419772536877605,1.170636787532304,1.5819882240075644,1.196506443008241
1580,-0.6423300987705428,0.4773176814056923,0.7406835643291639,0.6153384866796607,1.6563807667635528,0.8137291987913517
1590,-0.6123859873505836,0.5057253501218391,0.7625256061610304,0.5861971229453503,0.6161373304295643,0.25989467265148813
1600,-0.6339361146568836,0.49484430748819097,0.7452052540863161,-0.6614393976537084,-0.9507327091590239,-0.6890315981587306
1610,-0.6285766806860646,0.49134862703363497,0.7481081941824661,3.091542024792417,2.322976225859171,2.9146812472398915
1620,-0.6323118636025739,0.48577239217603824,0.7453745041389572,0.5750720091284494,0.14803066028335832,0.15954974055031013
1630,-0.6435933499121469,0.47880819320604834,0.7371560811694295,3.0837194455866515,2.244446373565238,1.8089333445146782
1640,-0.6443835910569826,0.47254788985748997,0.7336523178686324,-0.05888797810066193,-0.4346058510329727,-0.7356057023247738
1650,-0.6197682164426992,0.49383952789596747,0.7521790372729236,-0.2777792743355195,0.007136174260306216,0.2403227968541577
1660,-0.5897356434467387,0.5342890144017524,0.7819606124604872,1.7667407875954808,1.5798008476087957,2.327144177961394
1670,-0.657737880273558,0.4707979304503262,0.7264322116059416,2.04536332666067,0.7591370210842802,1.7748576679453938
1680,-0.6101684157636067,0.5178907921613378,0.7706754262486755,-0.531087048839469,-1.0395005312984824,-0.5956377278557362
1690,-0.6138890219163529,0.5106190806610359,0.7690744473055775,-0.9519498835480659,-1.5520500803727189,-1.90610240094233
1700,-0.627071141933487,0.49744523838444854,0.7517004007153625,-1.9805007322867416,-2.2855532196446955,-2.982318771947221
1710,-0.6144231578786508,0.5087228966060943,0.7612325923812698,2.6718370730070813,3.449858480071519,2.690649138351637
1720,-0.6332650727495942,0.4873169631438649,0.7441422671949346,-0.3111830023344755,1.2397148021795996,0.704621142554362
1730,-0.6345377773787951,0.4867486946250391,0.7457830766104383,-2.582208823465532,-1.6214733744068606,-1.6246730399760254
1740,-0.6352781181948488,0.48856508168891916,0.7428491650910707,-1.5288832326596444,-0.4086405081930883,-0.3394138242625587
