time_ms,ax,ay,az,gx,gy,gz
0,-0.8614051329075627,0.8457270604433704,0.6817906708401597,0.33227197449129103,0.3397382533140003,0.4398388088834614
10,-0.8610843338776705,0.8403641618843851,0.6676412116044453,-1.112470740071755,0.5602295435942664,-1.3025400741254403
20,-0.8602777674525804,0.8355921647590744,0.6807677963283366,-4.243196009891555,-2.6193443378929935,-4.586552421171108
30,-0.8708849967555836,0.8293526002349016,0.6714169743670694,-0.3067097506743659,0.46449017654454405,2.088816980720896
40,-0.8602141899119037,0.8353295081171084,0.6784988074135088,0.7803881870422242,1.5857169443442722,2.9963825267407467
50,-0.8296812029647633,0.872286465856884,0.7143527507653825,1.6917017218397885,2.042894776805705,2.8582841309352807
60,-0.859861066925265,0.8439683118499897,0.6762505784761614,-1.3749328759400625,-0.7124877854631624,-0.6736236551962584
70,-0.8689407950788955,0.8326097476286707,0.6675026619326809,3.011722078628706,2.1402617212362713,3.0496367556209893
80,-0.8834760797721988,0.8127788376472798,0.6465900281222327,2.720745347616778,1.0279026772019328,2.8285343430836702
90,-0.881803347379724,0.8223046896599919,0.6524712965462691,0.35864232286791964,0.23086359829446212,1.723487611976661
100,-0.84094347575522,0.8614210726844697,0.6940269572461814,-0.9698659814311243,0.7480179660501028,0.37338303862968625
110,-0.8741897790535285,0.8211112541108002,0.6689786796045234,1.6096943064524827,2.0156020709695888,1.9354571770458389
120,-0.8652875773008752,0.8382568732391722,0.6818837762252452,3.5287849845348003,2.1937326086943867,4.675138527931194
130,-0.9088849834439138,0.8007054747997823,0.6454241587851204,4.075037460392769,-1.2685074134161158,7.670412744391272
140,-1.00214734754777,0.7893252686384643,0.6750904381583255,19.580881812827624,-3.3309174687990484,17.92783465149178
150,-1.1555075250651416,0.8257064266539154,0.7029689757535893,28.246370604032847,-16.382767792174736,14.191349980718694
160,-1.1114695997366153,0.8853472908310351,0.7432617448769394,23.358808835108828,-24.33279575937509,5.327045079178869
170,-0.9714311476827725,0.9680724770448315,0.6666462468650888,20.824494314396922,-23.07482142382566,7.8327282748507985
180,-0.8139278069221574,0.9976722434915661,0.5305878181572607,24.449871393665685,-16.89858609534678,26.96958923216998
190,-0.6130798542749958,0.9098762865208606,0.5520084298066936,27.680870526314493,-1.7156084046852786,45.77035324631732
200,-0.5057593955052789,0.9417636456930693,0.6067119522630978,16.049414414931906,34.96697563144411,32.119834159694044
210,-0.5435708533978727,0.9761152633159226,0.7294966267603463,2.8515688604867164,59.541524269095504,16.584516125773423
220,-0.7270063862223406,0.9553631700664943,0.792256662897355,-19.75278247561129,60.44649783118312,-0.05004229689138162
230,-1.348360022750085,0.9074347105382877,1.0163882759251741,-36.256559592170944,36.22628292440892,-29.31645529699417
240,-1.332312892064581,0.8252932814697456,0.877964360421442,-0.5979767552139184,12.44483432036265,-14.932546989977844
250,-0.8682319848339011,0.7102507803672973,0.7600249582769528,17.623492250691033,0.6984180388099941,-6.134172563635989
260,-1.2601008358308892,0.7862632796213047,0.27447038294996184,32.30739445337234,-32.38358593879518,-8.240829390312552
270,-0.866281117453537,0.9241282102520904,1.1477372070829386,-2.5962897267878287,-62.39163270908906,-40.02241482970469
280,-0.8123137018625772,0.6445657906994688,0.8852509516503785,-28.741933356375487,-76.0068053546449,-85.79954198517979
290,-1.269709543871121,0.3221275478161807,0.6221820361092502,-37.229519603247596,-70.87452811690615,-92.70681305618791
300,-0.795575990717544,1.408733870220489,0.5350172787219702,21.990117204929305,-55.06994279935134,-41.611455392327834
310,-0.9518620533270071,0.9386775867130208,1.348697127924004,37.723009469598615,-34.935482883768614,-20.2005454454628
320,-1.0077755428197088,1.1231233185025717,0.6335009799452106,66.25020326117043,7.06880913788069,30.495231945426205
330,-0.9303210832690989,1.1039252646680908,0.09466945912871115,-19.42331102127865,3.5116478813335936,-10.863315080088544
340,-0.8129165549986899,0.9319021468347924,0.5497511281935689,-40.622357917959164,1.483193424753869,-20.163815961285266
350,-1.0137210726130437,0.6574836367746822,0.26607407900323077,-69.77617425181612,6.769194776486839,-51.251587515553375
360,-1.1871122073217408,0.6084436962235483,-0.024654490684181626,-31.769947851633606,34.68019933525267,-43.48900849232703
370,-1.2762159634377672,1.1112087810697477,1.2827078279748652,34.68161812691787,55.503854612271326,13.915068759555012
380,-0.6824171986434049,0.7639356037560984,1.2235503844400337,98.43679871625814,71.90080930565499,56.5394480424119
390,-0.7073050112073862,1.1602053119922506,0.5158262616382818,65.3328306073674,57.808052775499704,51.681128919021184
400,-0.712533971380114,1.1293225402345086,1.1055770031819838,48.20926112004378,41.54715740328578,45.82797285078689
410,-0.7926993709018513,0.906267948729126,0.6357038835448977,49.62351545388088,30.79740130784045,29.631483309782848
420,-0.7401498314101682,0.9345433206675723,0.30161450330240613,39.05436510745724,20.657836117594144,17.07612217300259
430,-0.7631579280446161,0.8857647506770014,1.0616249132138869,40.164542424289394,-8.161918424325936,15.395530406223298
440,-0.8667585821764688,1.051699097337913,0.6768848126711331,4.893792186505759,-28.979329184331213,-3.0348234400492804
450,-0.8113971822554418,1.2176840325558598,0.6161375465290657,-47.13242315705836,-38.485966565075756,-13.176843568742841
460,-0.862778020138043,1.3306626548892821,0.5676020191942684,-73.53024762000611,-39.593508976105056,5.6351841025601015
470,-0.9041225199884804,1.2553708208121837,0.6740016055165325,-70.28374194918932,-41.79278253307801,44.071071730821934
480,-0.8166379442980737,1.0872339911724722,0.6293754145382943,-75.89162862388581,-42.58263332722476,51.3719713170463
490,-0.6960985688049393,0.9716861430798208,0.5473227149789254,-77.17213176521508,-13.128054016269745,24.37471114613469
500,-0.7538330894723464,0.7830177911206542,0.5667988602329936,-82.30665419264498,23.06842993713782,-12.090012632537704
510,-1.0577542900570214,0.20405137894233827,0.571550808389047,-81.8148665118474,11.963021701271229,-51.554301651627114
520,-1.2254198634452667,0.020300619194706535,0.5577171746773177,-7.406288254228281,5.77405265990251,-40.43461227929893
530,-1.0106241617442995,0.07254719211447218,0.6463860018082502,52.73340141504061,3.1817570769256562,-9.337701944254121
540,-0.8799360774644818,0.5320328378072369,0.44385118018183684,60.25097489946616,1.0590441471826673,-11.396336769815118
550,-1.0090730152929335,1.7961762254083786,0.7733402832304314,82.40988171173069,4.327887189249877,2.7045625113629015
560,-1.006107191887583,1.679663880492152,1.21771240595282,45.80128809121255,1.801542663188159,10.11206824353069
570,-0.8771142518053312,1.3780071629273491,0.9147560029628801,2.4608204100989823,3.061825966165777,13.60909173487694
580,-0.8697934039999196,1.019491355197912,0.6441317463188281,2.6393661016737355,5.866653719320519,5.226820450912271
590,-0.9018437881810691,0.9079835268582137,0.657263361212121,8.319813119640374,4.477136461538377,-11.782095034619758
600,-0.88674111517762,0.859608739559355,0.6300065864186768,-6.238690222322827,-0.3021336721612051,-23.487610846182864
610,-0.8745486764562684,0.8021152844713979,0.639290073256805,-6.700357889287993,-7.342105501286161,1.8236700669105614
620,-0.8636827466933501,0.8206972742190577,0.6535673213560849,1.8444413373845396,-8.53964881742213,17.2710305430579
630,-0.8610517366770362,0.8633237678304841,0.6599723372060897,4.263283852629732,-2.0778794354014236,15.785857592972114
640,-0.8526409017252355,0.9008701025906439,0.6824162626536203,4.95649432269392,3.044672662490153,6.369751171675899
650,-0.8788933634157696,0.8836031834275293,0.6582919868970948,-0.26525170369959233,4.233974051983409,-4.986437493568478
660,-0.8927781089630629,0.8458387413443925,0.6247660655470797,-8.061598883763791,5.052795908845983,-12.41327430108305
670,-0.8418167098035206,0.8634515161464054,0.6847031528768031,-14.122174293785871,-3.926406907591572,-6.004590016540114
680,-0.8560117221807548,0.8289309469865268,0.6509226287525464,-7.981089339006054,-1.9188370725900308,1.9629938990989997
690,-0.8832345444382682,0.8144274245416331,0.6369895399190193,-4.441199850744621,-0.5221049985243826,3.5863068542648184
700,-0.8712725080349792,0.8314730829315232,0.6613894155970649,-4.048661541367119,2.1967556202762366,1.1810250844904904
710,-0.8459171482685367,0.8378093002951726,0.6502932066125903,-5.957119379689237,3.129221789661652,-4.289490970049819
720,-0.8746604536545282,0.844193005443236,0.6594107858138774,-3.204360977161076,6.536952248330767,-3.0353176303586356
730,-0.8683218985135033,0.851215678101227,0.6491315136832863,-2.82924592897813,1.725190167094989,2.6353666942625398
740,-0.891571362766215,0.8499552639892726,0.6248862332413808,-11.237714260981523,2.2540633612450254,0.5335797182149936
750,-0.8718599608006835,0.8421833163073859,0.6549881750004402,-16.072642646069593,0.3968968057347047,0.3174087053030213
760,-0.8578147773609107,0.8146281616673011,0.6549004814207365,-17.20410406431356,0.453778422902886,4.144314403294795
770,-0.8768114222517425,0.785960713884398,0.6108016582197423,-20.635128804349304,-2.0395737775190637,-1.7632150718660453
780,-0.8686072422124952,0.8254837329309161,0.6403101585922626,-14.441308288461649,2.3078376634782103,1.288593496489483
790,-0.8731761244568887,0.829198586669307,0.6484666015146363,-7.219309508499584,0.14067347119881202,-1.379982463612833
800,-0.8912113476793189,0.8121531154327761,0.6393334310685896,-4.641074854163453,-0.8517371330272352,1.2404845973753513
810,-0.8690398661568572,0.8013711279623282,0.6413391169245521,4.118971773570265,-2.9654351807199557,11.22251938714308
820,-0.8905637301510683,0.8277398327710411,0.6293218956269507,7.3532574387400995,-2.0061525469138877,14.15418367223838
830,-0.8779374282570099,0.8465919635216819,0.6446379482423845,3.605836247917275,-1.7734799415789837,9.392394860169937
840,-0.8269654527399111,0.8971027905500577,0.6859784656688679,4.918584418577722,-0.8007780330691097,4.372863145492571
850,-0.8446591071150659,0.8798505955380518,0.6670704708090982,3.7514670330912594,-0.13244731600497506,-0.7245260540823657
860,-0.8585383725922255,0.8600186235768307,0.6638721069212217,-0.5111608818250096,-2.2655998696237507,-2.8011204375588465
870,-0.8773845690812309,0.8385230693645044,0.6417629002124903,1.5239767696906896,-0.34721977035698304,1.1104997424258176
880,-0.8661116224360237,0.8470930851788727,0.6487889349653715,-2.7330014437771446,-2.173527798421554,-0.8518692583203398
890,-0.8599293907514508,0.8533061838227501,0.6649951219303036,-0.8824752357654457,-0.39083992489270236,0.6321015478646702
900,-0.8543537465396575,0.8649032769626103,0.6731017750772383,0.5308944149743879,-0.30685160930568456,1.6336143819851394
910,-0.8799746506143852,0.841796477295039,0.64146091724929,-0.049844115516614274,-2.1065210176438147,1.2302956547120378
920,-0.8581179616808151,0.8680388482478945,0.6621000430227116,0.9758668795380934,-1.6213740563937884,2.3001522682966744
930,-0.874304827584039,0.8401171182392283,0.644544615739452,-2.9371456175111876,-0.8652271479045202,0.8159332397600011
940,-0.845362501977245,0.8672501789439735,0.6825205233849674,-8.110084531862414,-3.2095680635559036,-3.625070193412541
950,-0.8727772328656727,0.8447216691448148,0.6476829765053763,-4.882487453887459,-1.2735336718820403,-2.8474109999359127
960,-0.8268971081950874,0.8853579804806728,0.6925839422920299,-0.9711070400259441,-1.267229654139751,-2.6310206203565407
970,-0.8786305276007598,0.8324324061363448,0.6474748463548069,1.7157102238130255,-0.13612810249264762,-0.414681170228798
980,-0.8614767603129775,0.8440495017594613,0.6564127653697436,3.890794679681824,0.7416121249691134,1.9068562827939262
990,-0.8804031589632579,0.8341070783258062,0.6410623417739071,5.185189703067467,-0.5482108726017979,2.7881106930106787
1000,-0.8489568336205316,0.870705212641043,0.6671770491454627,1.3072582011053384,-0.6987956281229182,1.014280079381437
1010,-0.8722284711435729,0.8548650191140044,0.6530609020717972,-4.822147864419881,-1.2971464949195743,-2.4572838683080813
1020,-0.8876220884848791,0.8293603951426575,0.6385616656845828,-4.642251948305622,-2.6015316529079295,-4.1011439179726
1030,-0.8684735795153142,0.8504261054321827,0.6618466730432442,-0.3840870240023167,-0.47258970599127387,-2.3764388447469815
1040,-0.8899407357567236,0.8237096029968453,0.637429757383689,1.0371596527238753,-0.3590461500759289,-1.1649455342507182
1050,-0.8601174197768061,0.8578193910510368,0.664586001904289,-3.0662056581664614,-2.4777973271753404,-2.768532942361752
1060,-0.8465979837582422,0.8753740422574675,0.6809547382914385,-4.829989571982219,-2.473899922440155,-2.1298921540057254
1070,-0.8687850462417612,0.8545543804462941,0.656141234608137,-4.021622306677988,-0.8586946911891004,-1.3387244091959847
1080,-0.8533227749685941,0.8572843738533391,0.6773041391802084,-0.9407867932558795,0.30651104278964625,-1.4523595213066152
1090,-0.8712208625533004,0.8365387394370678,0.6589194030629185,0.8921519214713766,-0.24252261258335078,0.00142598070753297
1100,-0.8947211500882928,0.8113935064852016,0.6328292168144083,3.23976549701314,-1.4951445646971646,1.7538608284540949
1110,-0.8881769956661718,0.8305201924218342,0.6372462788526053,2.970252007494816,-0.15944404338490473,2.6220888685185053
1120,-0.8590593142523815,0.8528093700431131,0.655898106303824,-0.7748482740515443,-0.04461021748534749,0.7873342592514632
1130,-0.8738091565996771,0.8362863817299908,0.6470409498062704,-5.1239321835887015,-1.860793912317778,-2.571459889862351
1140,-0.8572171730008398,0.8523627761128626,0.6639675829463324,-1.860175974611884,-1.248908897568147,-0.3349988892830643
1150,-0.8427274843647957,0.8629271566566313,0.6767184905752897,-1.2347310494646946,-1.068892659322782,-0.06423261339212627
1160,-0.8813315717898704,0.8376604134892618,0.6386116055471464,-1.5158696612660965,-0.7935493485329745,-1.1651323142133694
1170,-0.8531367205369357,0.8601603494518285,0.6720946469841298,-6.128364641066817,-2.1590399723750338,-5.724043667015122
1180,-0.8626750630720914,0.8480435257584759,0.6677965172454822,-3.7117968729169806,1.0803650119984618,-3.1704105434668794
1190,-0.8604062760334362,0.8428408854319389,0.6623234370330645,0.702660434186291,1.0123878984113057,0.2270438297724684
1200,-0.8363980029579027,0.8621920113699195,0.6789294939814119,5.701682693359496,1.3394285777018333,4.374811802927127
1210,-0.8415223181031832,0.8693714765273081,0.6806691412825788,2.3211628619105706,0.18700633159134664,1.902032451659954
1220,-0.9103122576247229,0.799180999376575,0.6159330061414392,-0.2938255669906604,-0.9980696965671082,-0.5339661829622185
1230,-0.8592773485274009,0.84166878340096,0.6663189378405721,2.536695553985423,0.6422228382409342,2.086893739482
1240,-0.8856245573609,0.8217710264876684,0.6386152995184227,4.555763521108467,1.9329679844917536,4.7627066657500965
1250,-0.8772271806019232,0.835942140300737,0.6505258245335294,-1.6359748967194876,-0.4071860100877684,-0.6845082367886146
1260,-0.845853258679353,0.8661954035591561,0.6766873207912983,-1.9710097738397954,0.4872308460145687,-1.6723719026030421
1270,-0.8335017693544756,0.873100079090703,0.6827921185483221,-1.0640678927980103,-0.608330834911493,-1.7654477076999398
1280,-0.8769306560186173,0.8318590994225675,0.6478844725193512,0.2005175625680139,-0.5142931766300454,-0.9229387657541331
1290,-0.8688910344988368,0.8461962574712221,0.6557845424144032,1.5828304291440567,1.2295678234714327,1.0901823141309712
1300,-0.8840902331416612,0.8268064666533177,0.6405801206904496,-2.210771592742706,-1.086919153462045,-1.5161951981431305
1310,-0.8580554924384136,0.8440329475911291,0.6663145523759079,-1.6828560799442802,-0.647861652088142,0.18538281761942982
1320,-0.8477044419912265,0.8630740218914604,0.6812514314928539,0.568903918668395,-0.21532172171042374,1.896103438611104
1330,-0.8648935479815131,0.8434380397138601,0.6568928395431238,0.48088459313289167,-0.18893688754524315,0.8231353998502821
1340,-0.8621409261111328,0.8484971171844508,0.662217665892109,1.8956938774496686,1.6649966202797215,1.1317754885689202
1350,-0.8416326678345685,0.8681559895093555,0.6853972317845937,0.1493193016868246,1.6293167301235476,-0.5032906997173878
1360,-0.8482569913541936,0.8538091026380706,0.675474772432269,-0.3343367282619056,0.7518547412168555,-0.9816458686997851
1370,-0.8522429894202773,0.8584382668730518,0.6695514767486125,1.134876504474523,-1.2970384309007228,1.7821879709576918
1380,-0.8528943453998673,0.8644942187357981,0.6767545310481625,0.19053253992801805,-0.29624647626044076,0.7264689315517143
1390,-0.8579406412542371,0.858151442209403,0.6752247990359519,0.47407171501077583,1.4018549835038816,0.3577987376900351
1400,-0.8577619817212232,0.8530181427268829,0.6664764572690937,-2.9155212371212302,-0.6378001440258433,-2.5440739547393414
1410,-0.8614256810976757,0.8474227491798746,0.6718922240130613,-2.200318795129656,0.6924457055071912,-1.4350821579789825
1420,-0.8564205013198875,0.8527572726969361,0.6684260197383514,-0.5910529426905851,1.2222071902415208,0.6219740642492807
1430,-0.8469242054175666,0.8686933465925132,0.6710153304921824,4.551485589105199,1.839744608333224,3.9058459094155067
1440,-0.8614246820335809,0.8552700641583746,0.6605416351358182,-3.7040868135041825,-4.059616422634957,-3.9850577132366736
1450,-0.8625707437102234,0.8555961002414431,0.6588712595643113,-4.042051564606114,-1.7905049128134096,-3.1676917435101295
1460,-0.8625200188799571,0.8452488465203092,0.6597204492842182,-5.112536180657331,-1.3219202633058642,-2.8669606033942623
1470,-0.8626729898265557,0.8440341102211674,0.6605781843410742,-1.9434854701989346,0.5076795945183712,0.49254772329938956
1480,-0.8724170743708861,0.8384495215338047,0.6540000048539326,-0.660247397724552,-1.1259987864956793,-0.0759408870979923
1490,-0.8749429856557238,0.8393772094920472,0.6524370268502035,-1.0467921872941128,-0.24125896166669547,-1.6692284800713266
1500,-0.8607757801894754,0.8485240283384925,0.6638073687441508,-0.7162573579579885,1.537323416848709,0.023214236225746365
1510,-0.8447412120077138,0.8670302943435373,0.6809301279816343,-2.387547805253768,0.047619972603680255,-0.7953059617712225
1520,-0.8639351490925571,0.8472006421191655,0.6615139352623415,-0.7426874431351087,1.931270199638916,1.0174259017828866
1530,-0.8686410307589779,0.8421075082902058,0.6568597136108347,0.8618461609323427,2.92204574064713,1.6561212326740202
1540,-0.8596024492377141,0.8505948077535977,0.6642799794444041,-0.5746458081881565,-0.5045955945191036,-0.5072146676014232
1550,-0.8665997354114997,0.8473246002859018,0.6600439940495448,-2.061696441243125,-2.0340027969995083,-1.373080973324563
1560,-0.8927655200807066,0.8230004558951958,0.6401997544274365,-0.6129122393691175,0.0659791646047513,0.06063897172355733
1570,-0.8772358327691263,0.8335016518357814,0.6542167146654383,-1.808768486522528,-0.9270828529150126,-1.6781345240748538
1580,-0.8763364329040917,0.8314306879333442,0.6546300971653167,-0.5009019204185441,-0.08122841297172734,-0.8806797456971008
1590,-0.8708040167241262,0.840304998613474,0.6591537618659736,1.3679419603548675,0.5191149629035504,1.283950053920172
1600,-0.8639521599197161,0.8491028927889341,0.6648303362956167,-1.4433516955613277,1.1504680933510203,-0.570165828908439
1610,-0.85444873236835,0.8575335943235056,0.6741192452243872,-2.890741018592087,0.8981542592333025,-3.071748224444682
1620,-0.8491628752626036,0.8537903036669647,0.6797943513035157,-4.488116104072487,-1.740165361541266,-5.372080940556433
1630,-0.8794348395865783,0.825621143974337,0.6496614885926382,-0.3716710649689204,0.09487749417382729,-1.046888088937438
1640,-0.865944478925282,0.8368354966530501,0.6574794845165457,0.8157604366415736,-0.5337849130219828,1.0105327158702087
1650,-0.8703741836334306,0.8327631055194359,0.6525349421669873,1.9372675841200997,-1.1286570447200635,2.4927852326334334
1660,-0.8585913740943617,0.8537049047337726,0.6734130745632142,-3.274308485092361,-3.1331593719262765,-4.925099341155466
1670,-0.8863688381900887,0.8271900658564258,0.6401013500790733,-2.135222593279809,2.04185370080711,-2.3240048715184045
1680,-0.8603032991131276,0.8479397976593291,0.6669525077490688,-3.203697735800934,0.606688438625085,-1.973552290274191
1690,-0.8792903901910449,0.8264314124803964,0.6466900790384353,-2.611369936911966,0.15496997663570855,0.020951417344174605
1700,-0.8876452255773606,0.815430050475838,0.6390750572167564,-1.8099847078817892,-1.6844343349934576,0.6724277355152797
1710,-0.8895548193058556,0.8179280449816743,0.6340933753731492,1.0663893424046982,0.6692413196726456,2.597321934446813
1720,-0.8449861075340913,0.8655086530379864,0.6880451032678487,1.7212057828496925,2.2479602858157284,0.7285477485190768
1730,-0.8434480531268528,0.8604363539792043,0.6840910486750571,2.1884912250603676,2.0147072061544113,2.544816807314995
1740,-0.8468809320696761,0.8738089322357252,0.6831047316309499,0.01628319019985036,-0.8167486351170012,1.3232392746810373
1750,-0.8691466509449842,0.8419249432430596,0.6580416616592439,-5.262564728942476,-4.663145190342219,-2.2428487308737437
1760,-0.8562412521438342,0.8603467041361444,0.6709319169915282,-2.3121197841163736,-2.3254488961392275,-0.27519850197619755
1770,-0.8610412493033878,0.8535933300469378,0.6642232261315781,-2.645075653172953,-1.7887370133913418,-1.9233104419943614
1780,-0.895132206665122,0.8126892168509339,0.6267990339415306,1.385624933717626,2.4748326013921065,1.102352363733885
1790,-0.8895156276672996,0.8147642976037396,0.6344966617806899,-0.07958720890803805,0.5176808359159681,1.2721745866764584
1800,-0.8652986475650132,0.8425280667589244,0.6588596433818362,2.0661633793341414,1.8665656289229307,4.12234311711367
1810,-0.8999693780374917,0.8103309628321614,0.6302455243603232,2.9452391219938625,2.0566642006875555,4.603534317777714
1820,-0.8523075762320708,0.8593472346694575,0.6770869242692785,0.6272296187666413,0.5897521622235085,1.0656605669225547
1830,-0.8705077126992599,0.8409373541381175,0.6579068324733093,-1.1142865392017804,-0.89177426833283,-1.7613320712182094
1840,-0.8767736096048768,0.8346813760910219,0.6474721774683433,-2.3163572986207615,-1.1353102799250394,-1.6415342436780027
1850,-0.8731639372127976,0.833336601768843,0.6502967302076121,-1.3413794088975504,-0.08508191346646277,0.5504614742662892
1860,-0.8994252447552707,0.8065914390420518,0.6280087087817013,-0.7986458687538607,-0.32527408043171135,0.5046766813425356
1870,-0.8494546201797842,0.8571761688617612,0.6753351954916748,0.9421781994148927,0.6619935265890454,0.8602080093639366
1880,-0.8482917773099546,0.8599495478847546,0.6775538896379579,-0.9597758281846045,-1.4488398789393384,-2.1049276823908474
1890,-0.8562422990606382,0.8562670455832972,0.6690179577889573,-0.7462861578215927,-1.4978531494638907,-1.0373559832677737
1900,-0.8754324332918836,0.8372873814725452,0.6502293538823432,-3.8845035776926204,-3.1073446243212834,-2.0047797074537175
1910,-0.8520880142725443,0.85501940411686,0.671202852618893,1.9001912525388533,3.5034907674198887,3.9014725445803724
1920,-0.8710571885322546,0.8383053864592244,0.6508257765659069,-0.15168683190941445,0.9292539563588437,0.33911985223147756
1930,-0.8604489054050056,0.8513030245379919,0.6682547447672421,1.0562065940238252,1.3964364425530345,-0.4511108600169964
1940,-0.8909538881570608,0.8148227398573797,0.637356629195769,0.4399385312145565,-1.1085455475751502,-2.2399783243592575
1950,-0.8638703437438031,0.8377230098377612,0.6638770090388985,1.0359161853314376,0.4342242654905402,1.5566238175228588
1960,-0.8809043393546139,0.82466438290673,0.6441072874784416,-1.2938510113760158,-1.208174230671187,0.614008578941978
1970,-0.8618468099192682,0.8480440595056994,0.6664984241155337,0.6353916255890038,1.305178746592709,1.7414656662276742
1980,-0.86901956771078,0.8422912323187882,0.6600133677698671,1.8985383254297452,1.9598071974749287,1.5338420059866493
1990,-0.8373558192221333,0.8797592622633724,0.6952629346788226,2.5218274733279387,2.1284819812197546,1.5664321170548796
2000,-0.8626863985518122,0.8604551176532784,0.6662627382924978,-0.29828223667329795,-0.264268654070596,-1.0414034218268853
2010,-0.8784544506639351,0.8341424112230572,0.6516470995513666,-0.40648601627469283,-1.2095371808125688,0.07499942727759634
2020,-0.8654984621770307,0.846079497549103,0.6620892502112765,0.31290495387608175,0.6252068294050486,0.5998904114589851
2030,-0.8581748021630697,0.8510741535352806,0.6679706613540339,2.2204646712826257,1.5502406091057195,1.0334675158141262
2040,-0.8373084487971526,0.8755408536159777,0.6887789807154293,0.37748225082119435,-0.19831152699882326,-1.4081783056134178
2050,-0.8639479925011059,0.8504966358482529,0.6597836401346852,-0.47391296979381137,-1.018050024658784,-1.4842537052639733
2060,-0.8690103541052401,0.843027505658724,0.6534339511130436,1.8776306419235702,1.5028081731918341,2.0052412174305707
2070,-0.877328124479624,0.8253856262925444,0.6523568009924073,1.389331186550324,1.3452520872442446,0.9456529913060407
