time_ms,ax,ay,az,gx,gy,gz
0,-0.7815406838947078,0.5802768555998432,0.6162765007572156,-0.8560244469725242,-0.02550834089410936,-0.582224362033774
10,-0.7985034137736694,0.5668024724414591,0.5901192372577245,0.7146575149905893,0.7177931088960421,0.7800558003590928
20,-0.7994484059191618,0.5616697189206624,0.5879572997237307,0.38357469618814916,0.30585647432899526,0.015668347137995364
30,-0.7933280009095317,0.5719609900400386,0.6036800763782565,-0.7618209144460053,-0.8493711902799459,-1.698183835511835
40,-0.7711071908261877,0.5915689190348745,0.6265170507905932,-3.3976602621843304,-2.5452639360588423,-3.7887694911278667
50,-0.8001421487367736,0.5553947321466871,0.5907494978442557,-1.9855107496868365,-0.513223333991447,-1.828495661854201
60,-0.7832461920686185,0.5693922253815856,0.6041040695083837,-2.3037759027320854,-1.180779299526729,-1.9281462276603094
70,-0.7820341483791912,0.5745862831331497,0.6082149412636687,0.9043428164634502,1.4561057647442024,1.5153916860603829
80,-0.7821213502174432,0.5819007086473188,0.6114603951223423,1.649334386306383,1.6178893250779163,1.2440985696315785
90,-0.775992929228207,0.5830538478828919,0.6082052802151575,0.41904478760374725,0.11899640326959526,-0.7141934616844695
100,-0.7807119672581145,0.5782242560628421,0.610057084462433,2.045403908117204,2.330785934103022,0.9429874990204039
110,-0.7577989002560198,0.5974777183197977,0.6270098738520642,-2.6221601994048047,-1.6345059564155768,-3.3209417537314834
120,-0.7938539981370287,0.5617609030073862,0.5970147897937136,-3.7012924249725696,-2.8979128568453714,-4.468492317938549
130,-0.7797272585038268,0.5736829258767446,0.6078919557595326,-0.8786501564638262,-0.8218476198334763,-1.5677148794969802
140,-0.781213977867342,0.5731264014769513,0.601235058716768,-1.2531852350233543,-1.778881303321123,-1.592356441897663
150,-0.7917057351893793,0.5661524231807389,0.5928179576550576,1.0783516269789213,0.49128762906943785,0.7010134736798751
160,-0.7864951979010518,0.5745026352063822,0.6055168498134927,0.12214357283215266,-0.13144225654394998,-1.0346465177052888
170,-0.8126424821670216,0.5561009912250522,0.5883728044898605,2.9581560045159443,3.2209606296247215,1.150083143687299
180,-0.7889931572021831,0.5788099773800041,0.6099875964063589,-0.7122252355743718,0.2684307129832464,-2.105727068984787
190,-0.78990015464567,0.5684561113610445,0.5990698539556641,0.4371367926023564,1.5038271305564326,-0.37084052571495163
200,-0.7835936078071722,0.5668273138779386,0.610372934572974,-0.5766166896351665,0.5237004904195353,-0.9258324894090562
210,-0.7848407193421322,0.5703543403897214,0.6100178847075941,3.955258917327451,2.8211271038155075,3.5239119772892
220,-0.7941988985962979,0.5666493047775581,0.5999195196908971,2.6203708531966634,0.07668631925743474,2.1803284884525476
230,-0.7970309527029641,0.561364372479833,0.5911262665685909,2.216787516078864,1.8684699357368708,3.880636059394276
240,-0.758950274210237,0.603670594475537,0.6276762057615507,-3.135898048143258,-0.6622766239504213,1.0971580401710537
250,-0.795762747167323,0.5864007224448767,0.5993603251537659,-2.499914961299589,1.6013685285884265,3.6724623411824373
260,-0.7748923675201671,0.6360590396773484,0.6249828326524391,-11.20871870135889,-2.851299512812753,-0.5439052340898424
270,-0.8233144012532997,0.662408064290533,0.5864845194192833,-13.355642577207151,-1.8293619685522051,3.4216066195082253
280,-0.8996193654852032,0.5569254207059344,0.634165254193841,-12.051943714415495,-16.050375996796394,6.059423055161332
290,-0.8186229144334595,0.6064710607915593,0.6068554343336587,-7.693130858493315,-13.066488640090336,11.080837759227094
300,-0.7917633145253228,0.5729117716196985,0.5835186805422973,-7.052540297212598,-11.649244940088462,15.195870543590003
310,-0.7298823239863642,0.5908497442332463,0.595995102590173,-6.3538546376674825,-9.829879170656021,17.53929522959034
320,-0.7257289422783603,0.6224734558659916,0.6044162430296507,-11.434627662195384,-11.864174519866957,13.990412326847723
330,-0.7630021957364808,0.6311750721690969,0.6096102795393538,-10.437896478343239,-7.625735837587172,16.773428394916117
340,-0.7669365341360064,0.6117145128919408,0.585342378685574,-11.574614051260172,-3.228366531317514,16.79906913568141
350,-0.6771524860877363,0.6406426965711539,0.57434857833008,-14.324511461086045,6.655185262946058,15.54671129583248
360,-0.6919149058132888,0.6109057110023011,0.5716830902952065,-17.33831957444393,13.43282914669503,15.361636520258848
370,-0.6883557301750581,0.5886052237963363,0.5085042632044287,-19.921854803636762,20.86905912950787,12.611371240745633
380,-0.7185820174500255,0.5774314887144975,0.5629105130457416,-19.095656314577287,28.750238426066627,12.941965331752519
390,-0.7321557504363945,0.5878304110159714,0.6273606419178717,-20.024132908062732,28.8883247387598,10.358649171281735
400,-0.775109161310517,0.5712110060377993,0.6132994627911713,-18.600353908011474,30.103029016852613,9.328864809179137
410,-0.7976398535384117,0.5567639872947051,0.6824646459157843,-17.281158911402635,22.357921622830542,0.5400497139542593
420,-0.8583594962961846,0.5243668438630441,0.6558438230596608,-3.722591481619843,11.730886596034662,-3.1980358340369017
430,-0.8336339704350578,0.5594389250624172,0.5888368686117986,3.7429850845198454,-1.5400437612006097,-7.101641457191632
440,-0.7982112459187,0.5341919608681784,0.5593526288676737,4.434014448965726,2.112103942168031,-2.6607705626763565
450,-0.7957881368143983,0.5882848474971375,0.5718597826694773,4.83609414186872,-1.4409685899050568,0.05150693954241081
460,-0.8237401677674312,0.5757926908400769,0.5568187778835713,9.825440950459285,1.1520762805528284,8.054685240337207
470,-0.7750227897832702,0.6301052123060966,0.602200905969125,11.143299691100198,1.2273252361789961,9.68294960416868
480,-0.7646349442549778,0.5975699209383161,0.6733889754504748,14.713990173089366,-2.7509303004118446,5.138645761877493
490,-0.7773200713995375,0.47147791354113167,0.775944432304724,11.864559916447593,-13.831538779863557,-2.5314458456969
500,-0.8879556168058712,0.5371779504001868,0.5939397868401144,20.08584408989684,-22.17753338156215,-8.915222037319928
510,-1.0982406734369015,0.5622311251540103,0.3683937971594617,42.53767040667461,-23.143843676396187,-6.741541629000464
520,-1.1812191282047388,0.5439118813694299,0.3545249150452163,61.221347990321675,-31.24349347615581,-5.442114817147583
530,-0.9680221152969047,0.636996184741225,0.4826561934859746,67.23807016464558,-41.314844819890936,-6.556114340318993
540,-0.600280857938239,0.5380141123714179,0.8315110780268047,34.69856778541308,-48.006004154956344,-22.344984504377653
550,-0.6165781712705691,0.6599683921629789,0.582766303893407,29.85629350774262,-31.94741938247035,-19.004337998962175
560,-0.9766408526268162,0.7707662018220135,0.3861823146662202,28.60253892947937,-21.702696748397802,-20.35006422750096
570,-0.7299525575739292,0.7189892946995803,0.7846715558430118,12.725165304512352,-14.968470399091846,-14.723770051065781
580,-0.8384934735786153,0.7309657346128158,0.5297452884196928,-2.1331520281974354,-7.542048817538209,-8.332451452718294
590,-0.8675995826462697,0.7243837578624109,0.4394726362374675,-7.21437376724218,-3.6230175484608376,-7.5955497821197175
600,-0.7992240045506996,0.6785389820549759,0.5688705246395738,-9.042607943360656,-3.749709122052585,-8.493172960305388
610,-0.82686284305957,0.6266634494911281,0.48194688321479645,-8.8991996045317,4.19096311925476,-6.204282470989739
620,-0.8950460980202434,0.6105430587134213,0.20845731771451587,-13.46318040537498,13.510084281191096,-10.963290851544023
630,-0.8446238418191192,0.6216247021252386,0.21844065526274686,-11.859543344397027,20.71136553963639,-7.268628154069314
640,-0.8130190931212677,0.6730189963778658,0.04430046291269331,-9.021004874915196,36.2134798244197,-5.098653404998634
650,-0.8445051939560982,0.6596205044680892,-0.18564640579507466,8.55971473592228,43.45199879835001,4.143733285508613
660,-0.8502512634126874,0.6302166557890625,0.42589016453504763,22.13502045562226,40.979569299735424,9.191626904417149
670,-0.8088103845378243,0.8544553443029584,0.513188536852064,16.08747368906097,44.72869104026804,3.5907109409116607
680,-0.7300686561468231,0.8494194543983239,0.4613085222974866,13.276448448984336,36.305909818344276,8.05201062502276
690,-0.7378032401608153,0.6921855463222722,0.6198649036541201,2.2095290276603317,18.97658915986738,2.570978000138199
700,-0.748287499385279,0.6068582614652951,0.9447911812185948,-7.336020371540282,8.977921243220113,-2.10222412475072
710,-0.6924835924807452,0.5926304806192569,1.0647433597535088,-7.826399672924447,3.2186658636758625,2.2022841035590286
720,-0.7431065824896937,0.5645348704721297,0.7470066836995033,-5.559647116200601,3.549245520074029,-0.3558958970851576
730,-0.7473940904201217,0.6003291397786392,0.6564460774638505,-1.7469165811556246,1.6571739078729482,1.8035163879111495
740,-0.7684758075073225,0.5947587392426169,0.6204752642456436,-4.461437973351895,0.6487451614286122,1.244098917494013
750,-0.9055160955948605,0.5903459402561945,0.636258051075227,-1.9567619455852467,1.6410984822326804,18.409485642994184
760,-0.9514724564992448,0.5673914813862725,0.6792779758989932,5.9433543937695275,-15.237708666070578,29.11908127458393
770,-0.8656407817465473,0.5540471123672405,0.5880803248117362,11.978945686070166,-29.635423398345296,26.322232097979015
780,-0.7268366451862284,0.588296908490054,0.5461128393002164,13.973839807764135,-28.161881431449103,23.87869600728161
790,-0.68266191406912,0.5918199738051698,0.5529870100947849,10.943379509171818,-21.95684696081247,21.518464284313772
800,-0.6895489922641368,0.6026467706822021,0.5821965384907225,10.059825629331492,-16.436465415378635,19.09347141954138
810,-0.6778012573032417,0.6713364188758166,0.6427389039336114,7.32859150076745,-10.885820744887235,15.0064296308689
820,-0.7265994305229947,0.6907865680121729,0.6224683409329406,0.3510402081320809,-5.754712648567844,6.413063898162657
830,-0.7156757771360303,0.6586361744087498,0.6471116118315646,-4.82362213005497,-6.463145026912963,3.3884614687180346
840,-0.7564965561163941,0.6008488058306969,0.6333533572586719,-6.53626060352148,-7.509507911388999,-0.4436952038364774
850,-0.8143609489826816,0.5518798230931893,0.5814755513124881,-2.8285715736341626,-5.912244798343056,-0.4390097539824912
860,-0.8019875469030211,0.5876887407608282,0.5460216989807529,-3.8815570415266336,-4.50717399177924,-1.2676234483403395
870,-0.7757697347594752,0.6236805714326759,0.5579502110595446,-10.4321112075626,-3.0786241493323314,-4.164730609093452
880,-0.8043270173502998,0.5967822572863226,0.5674812740836318,-13.081564651986499,-0.20162901879574102,-5.40584515319177
890,-0.7639382396246971,0.6315359227361214,0.646101758557703,-7.319226228987971,4.700724836088016,-2.2147449556233196
900,-0.7820807527275824,0.5826203745981493,0.6375990046432627,-3.840067395161287,5.646845660207713,-1.8308286660726074
910,-0.7633069512359775,0.5856420428351999,0.6582246510486679,-0.2740679715078629,3.6126448773718973,-4.837503712681651
920,-0.7844812395817272,0.5893388503970834,0.5913148698960609,0.01853396444304367,2.7520370357237,-7.5196558641257445
930,-0.7483008438307873,0.6555297435124411,0.5752963750892229,-5.941805670445383,5.428122384582686,-7.08049454989139
940,-0.7938891444574426,0.6395198498819966,0.6101774053485454,-12.863130908805635,8.834414078273639,-8.99859031362617
950,-0.7795835201520529,0.577711376144554,0.643089458814278,-2.130696791793528,3.222984338276091,-9.171273724301937
960,-0.8056364857425218,0.5108837011688709,0.5857269296136398,4.998840652869279,-0.6149141576901487,-5.839982176923172
970,-0.7879569840712565,0.538726021992225,0.595994167799937,6.142476441430706,0.4761075076150163,0.26272112497726297
980,-0.8022150627679501,0.486778992872833,0.5947064991311991,9.213026596286628,1.8489283866689246,4.9940934541531545
990,-0.8053521313822598,0.42717524441533716,0.5306859790594589,17.26051801555969,4.088755448935907,3.4763524344239647
1000,-0.7676444057016689,0.6118604641796077,0.41230224787202285,33.706092029913776,10.467143350042466,-6.985206291666543
1010,-0.6926114653372475,0.6221157832684006,0.6990582544184478,28.24932184309496,2.4492256090608815,-11.228433907577022
1020,-0.7973519871027203,0.9492813351429243,0.7738652592642329,19.624285439309872,0.20254146887529467,-5.920285548263484
1030,-0.8162610883973643,0.7586052285728786,0.6478338890812071,10.369776149072564,2.052933752169123,4.986561865922183
1040,-0.7978419031271541,0.6406239123609054,0.6002749407156132,3.6029169187859202,3.298239594738064,2.3844749179724314
1050,-0.7977206905254463,0.6135178988769009,0.5912554433435226,-2.2139297199176204,-0.06812104943759212,-6.729779242298667
1060,-0.8084434991404157,0.5936575187747394,0.5834758684676798,-1.6814359783834936,-0.3070912692144221,-7.882113543217144
1070,-0.7721492648250333,0.6109820419776819,0.6191123833949901,-4.017627278666184,-3.118696220869293,-8.11516230031209
1080,-0.7974341011393086,0.5878425291901938,0.5957440251066753,-4.001946592486297,-2.6195550880094953,-4.200905184577362
1090,-0.7786934892767412,0.6162478046786135,0.6215985932457971,-0.9981864040042856,-0.6919556902403067,1.1115957446564182
1100,-0.7916334166747119,0.6015068040654772,0.6018802364862997,-2.8024427760715978,-1.6816274124857948,-2.53142987031059
1110,-0.7594114365216379,0.6279427558148158,0.6311530077188156,-1.2092795010994242,0.13907771637856298,-1.7133307977984968
1120,-0.8075938413813026,0.5879058231093033,0.587730295329706,-4.456555347593309,-2.002802997767784,-4.2062270184352695
1130,-0.8111083134893801,0.5805345649372917,0.5880944668585331,-6.187394640967238,-2.9868148458290644,-6.057673845110881
1140,-0.7719941519958318,0.6114554447656091,0.6272890580740857,-3.7845816191235744,-0.8930552782284968,-4.048681600419981
1150,-0.7691473240572134,0.6127485489042449,0.6269696839991992,-2.114745628488199,-0.7268822428779238,-2.4100968899624426
1160,-0.8010999106697189,0.5838365309548331,0.5921969636779291,0.2907698908571442,0.33911329372043697,0.09020749230603331
1170,-0.7872557655129651,0.6000542417706584,0.6068969770509806,-1.7690566625401705,-1.2831795917780118,-1.8277544050362657
1180,-0.7976943895957143,0.5954321304793029,0.5988643515993481,-0.9397454766498949,1.1332443409759423,-0.12493318924878904
1190,-0.7839816120262223,0.6027164502896681,0.6079753819973858,-5.026076848984276,-2.7619049588269133,-4.380099200816723
1200,-0.8096888960147147,0.569419359952566,0.5866296876890211,-4.435960640917019,-2.0088996191867947,-3.570213623522446
1210,-0.7918304670942302,0.5823874194688631,0.6023291728678105,-3.944214342270503,-2.0721641982573957,-4.054098343400485
1220,-0.7584321484705411,0.6226920567456483,0.6359888936031274,0.2729451434131973,1.8027011376340267,1.0349750715434978
1230,-0.8088020230072609,0.5740983613057826,0.5896930027486222,-2.1221919127619024,-0.48507100143734116,-0.9803196721942349
1240,-0.7673929633604414,0.613094341432056,0.6298850988037337,-1.94463977714909,-0.472239662004877,-1.1008701808282781
1250,-0.7523979926600367,0.6264080530204488,0.6405039299854298,-2.972865887822186,-1.689855794192157,-2.208722204028617
1260,-0.7855188133780788,0.5931925143134571,0.6069219355272765,-2.7698733751505484,-1.180923234407233,-1.7019171136989972
1270,-0.764043749018233,0.6157941032854017,0.6278072099640994,-3.4197773957311752,-1.7763637032704258,-2.3670386541954453
1280,-0.7861204586361993,0.5898074077936176,0.6080976843488066,-1.9439559957063848,-0.7102658533752855,-1.5810174213961319
1290,-0.7915305465606626,0.5902950475669649,0.610151851750237,2.5235399172826,2.7754263217914614,1.7636083667595681
1300,-0.7952454022097148,0.5867218292655328,0.6051824306863439,-0.8891478836185049,-0.40935559466230037,-1.3475642105500456
1310,-0.8118820341256392,0.5645782963436955,0.584976814590253,0.6139408841352992,1.3088748655655078,0.799469294550604
1320,-0.7774695524635205,0.5954891428384614,0.6157228591923889,-0.02658508823529021,0.2156586242592724,0.03015473129936752
1330,-0.7782841696907584,0.5961018413451272,0.6150390942223051,0.9600113320866039,0.8463203397179835,1.1148580697907973
1340,-0.7952129054035516,0.5798227088036202,0.5989351063691262,-0.3848869523051482,-0.07432140931154552,0.27022919406230117
1350,-0.727590481479432,0.6489116465634445,0.6655904209409397,1.1792191563119983,2.6001965116296426,2.100878194263782
1360,-0.8068847328127708,0.5786801662897967,0.5865909377339139,-3.7484568207929723,-1.4766127056617593,-2.901777547849763
1370,-0.7789544204720602,0.5953790440404975,0.6083380568687786,-0.9128237039772742,0.26416513225986393,-0.7259797530150744
1380,-0.7696444908304116,0.607808157243759,0.6195079148049785,0.8944623016914865,2.198991713575511,1.2498055871736553
1390,-0.7845615185412218,0.5859711301636337,0.6056010991118859,-1.7435049540353522,0.1053319065088727,-1.0173845825474823
1400,-0.7966388774259262,0.5760642057305366,0.5958626073820507,-1.8204527120234548,-0.2039041337104915,-1.0695336869209489
1410,-0.7870712028663839,0.5872498404299582,0.6104296214595585,-2.039399286601838,-0.6211016117830825,-1.619773760514022
1420,-0.8007017693727785,0.5780015362169215,0.5963937606797575,1.4722089292364688,2.5036304069975643,1.449536268757345
1430,-0.776168650882062,0.6066333671547801,0.6190726321232958,-1.3456718840893716,-0.5535344636145161,-1.6140962329915345
1440,-0.7906439502319401,0.5903808038838229,0.6044469166512528,-2.109593675060934,-0.8673139111668358,-2.075171758840004
1450,-0.795125909060572,0.5816904992009146,0.5966436580804428,1.3629452114945306,3.2853971246503195,2.1050929749163023
1460,-0.8165047965285727,0.5615475492515937,0.5789569118136908,-2.8695645259434936,-1.3705930305101797,-2.356888836811179
1470,-0.7856884027589306,0.5923985285465593,0.6100964057168956,-0.028759603899835673,0.9265411591389373,0.6322690901902813
1480,-0.7662384573344763,0.6111626275451107,0.6348782066868907,2.4050483384860626,2.9522364411833677,2.553798696686516
1490,-0.782504998150761,0.5918044745731669,0.6107344060266137,1.7047646379625934,1.0480909259476208,0.967192643944325
1500,-0.7882821722890802,0.5870498853855917,0.5985768891934379,-1.6899760483294963,-2.1332006445200418,-2.3116567975134217
1510,-0.8108516099625862,0.5660868667659793,0.5788095571559835,-1.4756479154055788,-1.4519887326377958,-1.7230889641574574
1520,-0.8093362680115795,0.5671037663421437,0.5833211070890116,2.0315859106639134,2.329292995973975,1.8648485860547468
1530,-0.7925291449604794,0.5815184147169737,0.5972936270607295,0.1969413295414667,0.7965067545538678,0.07824461166030555
1540,-0.7951271087480166,0.5770030089743429,0.5957456252160124,1.5189979499508839,2.345731266317877,1.703840290111956
1550,-0.8224057775290772,0.5529232990093733,0.5823110224631676,-1.0302770240120558,-0.00316233281413833,-0.7682339095065349
1560,-0.7794617485553661,0.6017835649339714,0.6235813209450278,-0.6166334538759235,-0.06502753540085289,-0.48069201334584166
1570,-0.7541169749375046,0.6227655561419777,0.6430419243084976,-1.7019073765344748,-0.7201760492922277,-1.1002754810370794
1580,-0.76563656395672,0.6109947085536153,0.6315665254170055,1.4195607082742931,2.456462119647097,1.827853150673651
1590,-0.7714627311695628,0.6040159619240992,0.6243602636521018,-1.5377137810937982,-0.23441840554390558,-0.9703450160744966
1600,-0.7825061051120273,0.5881857362979486,0.6092562333261079,-0.1811701437007286,1.1780990784201715,0.6131717408856788
1610,-0.8168483193907939,0.5566133262905095,0.5761613211306881,-3.7587778688689206,-2.673536689184062,-2.9762924563767568
1620,-0.7740073923410974,0.6059094724999399,0.6246469740037406,-0.8653773252395586,0.10878671782219149,-0.49733308770812257
1630,-0.7729020841413315,0.6032897042828315,0.6256878373617621,-1.3047055567739134,-0.12983922863702002,-1.5473430324023036
1640,-0.7729535769568607,0.6012784282205044,0.6209943122625546,-1.9426119807249351,-1.1288587896942408,-2.170168998394204
1650,-0.8106562601246233,0.5633794955595172,0.5836357507988,-2.4468223067653305,-1.419767309291823,-2.196403781015644
