time_ms,ax,ay,az,gx,gy,gz
0,-0.5857437820717226,0.6909182088600381,0.7309573135374499,-0.18318953292686474,-0.3198034908315766,-0.5564127106510889
10,-0.6365153568609665,0.6444031953533991,0.6828735483851963,-1.2427475897553664,-0.05899834345347643,0.12293634694832078
20,-0.6093546990452499,0.6699679868439866,0.706228555185777,-0.49875051510980706,-1.301170259477174,-0.9798912987446252
30,-0.5966651058713576,0.6834188258030759,0.7110976558631968,2.0768902230175024,1.2958768433510766,1.1390859842520706
40,-0.5993312876487759,0.6807772700253194,0.7167736370732347,0.25472234916138586,-0.48892045292727443,-0.6869171320107377
50,-0.5672256988815597,0.7079522314674793,0.7444940483258267,1.2819944621237582,1.1367044861314355,0.4741905644239637
60,-0.6157238021113831,0.6569083141215876,0.6917067371614274,-0.3145431434254733,-0.29450511888238085,-0.7129682853037658
70,-0.6197891587088828,0.6635952552055593,0.6958353920355185,-0.9814957974027982,-0.6159564175460271,-1.9762044282048155
80,-0.598757065786927,0.6672883970798885,0.7088795179065431,0.21600154864950682,1.3159899269509272,-0.3861055796626556
90,-0.6039974908762314,0.6690761774535493,0.7094650779330539,-0.9391474497874823,-0.6954321286892571,-1.702215679514939
100,-0.5905499859192406,0.6791052581405191,0.722333466208266,0.0027653293140178503,0.21557206762536657,-0.2616210836814651
110,-0.611352336670687,0.6664542771999525,0.7037038470007391,0.01937458683955351,-0.26041063006536763,-0.3920218245384451
120,-0.6265558102435185,0.6525781038863242,0.6858287604517215,-2.276030175334875,-2.6216667202722115,-2.478774441929209
130,-0.5954483805814628,0.6998940647096759,0.7346497572671102,-8.666352519619812,-1.1942640958445099,-3.696658277535087
140,-0.6046189907269124,0.6533967311786462,0.7242820650302143,-23.44756881608474,-4.27616970531741,-11.845941229499513
150,-0.6257790644721751,0.7009830072638381,0.7035198352281278,-46.42203393647219,-3.386932647320948,-20.460799831804874
160,-0.665711920597175,0.7561801538174051,0.6702712437800399,-61.75044275923588,-3.1169242180514853,-23.966118017322206
170,-0.763406432859071,0.849471527864894,0.6837799990116022,-46.38254941918544,15.006351883546504,5.410720115054456
180,-0.6960550729672257,0.848911774974683,0.8386869315901269,-16.289120401991614,9.991151887423646,54.32287608478421
190,-0.4305378297126108,0.5200080809285158,0.5353228310708,2.3800853113536764,-12.796400815578426,74.52315665577309
200,-0.27125856027520573,0.6681190752273262,0.44521897597726506,5.471449373665874,14.783343716999626,72.63818776036865
210,-0.2628960375351986,0.7241646085717879,0.5342872657549181,4.495697956866156,42.906052356177085,68.84220989272362
220,-0.35772177697027496,0.6575086368976407,0.5848013597455203,9.799264355447294,68.29982811983747,63.07985446829374
230,-0.5594111453335654,0.6029225473753468,0.8337323932315968,0.8708905142313293,77.0111527408092,39.8755918184003
240,-0.7517423000352422,0.6695429551439046,0.9854192520197687,-21.530268092460194,47.98798357669294,17.646033034749323
250,-0.6420520522230488,0.6203265925646811,0.6297745113845747,23.450397752261235,-3.9935580367941004,27.748063048726667
260,-0.5907567298362331,0.4970569901196773,0.8357036893251659,20.454284476696042,-18.73421539231761,17.938246223743118
270,-0.5057852201096666,0.24163368924892734,1.260893360294668,21.354279691364155,-37.332381688342245,-25.49339884946946
280,-0.3324408130223231,-0.4828335838463195,1.5528779140661595,-7.8254659728118,-68.97466807513082,-92.09539858838707
290,-0.06403701711753446,-0.6712233293457789,1.2368793057555907,-44.68621158443343,-84.95425453464824,-142.06540955750273
300,-0.09826604984551152,0.1875036340362415,1.0957801211854887,-13.324254498439819,-36.69850102632382,-79.78693473433333
310,-0.5606042281471085,0.6608008534151217,0.7887773056938686,11.469648443039427,2.69891603856017,1.415863841835044
320,-0.5997211579602546,0.7094675960561846,0.6598869491655286,5.055613117440143,-6.9677328455366805,-5.188976523634063
330,-0.6705408681748258,0.6982083675301973,0.5971401310192848,5.46085069661021,-8.927347130006696,-11.512988133475169
340,-0.6426638309864258,0.6695398694111533,0.6274164147587031,1.778875459273945,-13.072701098782941,-20.92427468056108
350,-0.7797701770279809,0.6608848740832373,0.5069235585420335,-14.411098771198985,-2.178802004908066,-23.767608423963033
360,-0.6062626286769754,0.7027869361478689,0.806865466511063,-30.67082014644656,23.987847727447395,-13.212081237382225
370,-0.33595822383590324,0.6629288591864608,1.5861329168997875,10.00238786993774,32.34965754427165,-3.060852423078902
380,-0.39182988769341254,0.7059956849509331,1.5657161182280395,57.283371052747064,31.86557248383962,13.007120194194416
390,-0.3685788425728592,0.8104344673262891,1.3016674259610959,69.3531605214971,25.39925809560569,21.566479050009008
400,-0.42266824120661006,0.7672361711538532,1.0707728226933821,25.68260654856969,21.621825557551247,14.721521616783612
410,-0.5103767524580454,0.6422126833855069,0.9370406944169316,-5.825302866403835,18.33769713152628,10.842732448502707
420,-0.5295117118675479,0.6811852879285599,0.8768177399268239,8.034705748990998,9.619185251645336,16.91057253603141
430,-0.6790713918348615,0.5350466688675083,0.7840090746590115,11.377124268205971,0.7740538278989211,7.958441558647289
440,-0.7613963739455779,0.71175545537857,0.9299805634334206,18.14546023637076,-31.09943961275584,1.0167284601889977
450,-0.8099108186365908,0.9037830286343129,0.8087988445639926,32.939776531769525,-60.71135020159823,31.222624214740836
460,-0.6601811420967514,0.8885860038713818,0.5959927667440855,15.499392383108367,-65.2162383825239,56.662697481703646
470,-0.4436967695208835,0.8653299994675441,0.5322156428857909,-2.2903117190790043,-50.46895142671586,66.1596243278907
480,-0.306069493338534,0.7609785502621871,0.5153711419808654,-24.649539208727926,3.219105044632372,40.38257894779127
490,-0.28783433531171154,0.6757908078272741,0.48188560901526734,-49.01452582526245,46.00957430115427,5.238886416976397
500,-0.4091067581475403,0.5064736207251083,0.5762326370019731,-80.94492114320909,70.92560061944138,-21.542917978839654
510,-0.14401046686137567,0.5917368318269833,0.637899408589579,-2.1441177068937107,-34.87820964282808,-31.76152583993205
520,-0.46747295882524376,0.6469300046727507,0.5884807436361085,-5.994152477650782,-17.839274418580995,-37.618887009997906
530,-0.6128207476382832,0.5994400172175918,0.6150036306332758,-2.721885051595026,10.329285241992796,-17.38571756446201
540,-0.6563011859772138,1.3244675293466805,0.4063602683855262,50.780916976352195,3.1376332471762054,9.284255069126566
550,-0.2422906197036177,0.7658192212627544,1.044728288317263,55.13761375093599,-16.158230776910415,-55.79612789396873
560,-0.6371469142599056,1.56937296100924,0.4473588030380417,52.52489357203347,-3.6885420967896296,-5.962285205400921
570,-0.3182146138502872,1.9973066151625258,0.3530135568731112,93.66135506372653,23.31115905211575,28.957355367650774
580,-0.6034789307804949,0.3774304216821661,1.563264599409334,-1.307246320225814,-25.452909591657324,-104.40526133544888
590,-0.6243124495270758,1.0566242804806425,0.8355144231844005,-28.227100601764615,-5.5692451054061065,-46.007512065734524
600,-0.6109555673976359,0.7511833037416539,0.6984653576286605,-1.967489090629929,3.388169960616257,-2.622924273248656
610,-0.5847837630274334,0.6927651105626671,0.7258935398505255,3.3805409952969168,5.030301218167305,3.5748361820788213
620,-0.6280367174113551,0.6709205199035413,0.6890111642197169,4.237415863726261,4.218340260603708,6.367209189019085
630,-0.5982036183405884,0.7287783393676898,0.7201472806536605,-9.228992069237071,2.619493521586636,7.272952415528431
640,-0.5998441367110089,0.6900025538131365,0.6991244650985411,3.6180151628526,-4.361478534161206,2.267096247519673
650,-0.6019899204366188,0.6957262364330749,0.7083890072428423,-2.149193408949354,-3.1801447283057485,2.1118324909756856
660,-0.6026090089303653,0.6712726501263034,0.73658709716187,-0.03127845746252822,-1.3244174229755994,-1.1191735245720618
670,-0.6198349892544219,0.6574641451751689,0.7055690898498944,-0.5484130048852025,-0.7321631417570817,-0.6251984438875695
680,-0.6039685040668777,0.6838073671525489,0.7044872853205398,0.06075533298372626,-0.38722968709866146,1.9921580389926983
690,-0.6054100114027712,0.6731982094771795,0.7039632083875533,1.6276670970170977,-0.48296438573951683,3.0252831278413006
700,-0.607463396099467,0.6758884906697333,0.7005314096924334,5.848248612309052,0.9485591448227497,6.2392211745632755
710,-0.5940468440813356,0.70856194493903,0.7260180406687242,-1.0004397965574428,1.3853322722571701,4.823999286473583
720,-0.6175601432748065,0.6820361192579389,0.700276905766929,-0.44611250575599315,0.9753982626074824,1.246815212116064
730,-0.5898832895801881,0.7137221227836831,0.7295727464750941,1.1004625531135597,0.21162760517738866,0.03304974690448459
740,-0.5982702484057324,0.6899983066228973,0.7120668880709077,-0.5887663323354897,-2.719689073551071,-2.6765567566293624
750,-0.5927273325424498,0.7101404965494243,0.7155343002375782,-0.3432844425757756,-4.00644437310535,-3.9243809284237314
760,-0.6092429090624097,0.6828769210139205,0.7049075499563344,-2.781054927036668,-3.2435421197355288,-3.6250871644210036
770,-0.5826694829755916,0.6986034333632467,0.7235433406662539,-2.0534561216919487,-3.2748115128198942,-3.856472711283336
780,-0.5862814592465179,0.696977157948032,0.7225766606850859,1.605215981193238,-1.5974009145331436,-1.7109334261671731
790,-0.6272345573531388,0.6652407256140213,0.6876011945716421,0.6065804936272596,-1.694915859053646,-1.695407220872322
800,-0.6169524800009698,0.6693928339153818,0.6962935216136102,-1.2059341604760285,-0.6201024455539128,-1.6799329554834508
810,-0.572786450623523,0.7049970726763963,0.7392816740870813,-1.860775479990853,-2.431973089371699,-2.666324009522074
820,-0.5863824457398923,0.6932246009692722,0.7209031259717542,2.5443194365232467,1.421078726054327,2.3886303468353454
830,-0.564578447346299,0.7275778629742206,0.7451241559574557,-2.8849931768839885,-2.7602062893247727,-2.07039826103463
840,-0.6063528885038328,0.6802159180975414,0.7026611856333609,-1.6444127830491362,-1.1166748114102398,-0.44304665285558653
850,-0.5976824729679207,0.6917624344940977,0.7100629866740128,0.9772634823744422,-0.1947348981357269,-0.021862077676710626
860,-0.5975737222135344,0.6913300009900412,0.7172329703479055,-1.0136597032285555,-1.1365204364549897,-1.3031212477988792
870,-0.6230757105503081,0.6658872242300343,0.6930882416637585,0.1988049654198997,0.6018734501268379,0.8607466284505563
880,-0.6072018447056781,0.682347304836754,0.7064732458099691,1.2034876494595117,2.200683192214657,2.8272272706880788
890,-0.6009347241577526,0.6965210948372413,0.7106702232084685,0.48084782357651235,1.6312252866362935,2.486957946573424
900,-0.6064050405670505,0.6943258621216036,0.7094616815155377,-3.7490490419560887,-1.4123348861109317,-0.16505136260296704
910,-0.6095284631022619,0.6835611558054153,0.7071975693439806,-3.60388570288721,-0.04684060579253029,2.3938224800084944
920,-0.5724883278848969,0.7047218851003737,0.7293163265329055,2.9794268538726554,0.9432625194904039,5.554128372763263
930,-0.5849254664425346,0.6816309116876208,0.7082263413788769,10.402252546282046,-1.3685122301146344,4.59096511325142
940,-0.5935886806806223,0.7035218296046009,0.7137178599754651,1.6381496742295978,1.2177526085112587,5.81379749633343
950,-0.6014049785508333,0.69680346799054,0.7067943272775624,-3.9561950220909186,-3.3681463157615346,-0.8207104831394423
960,-0.5981687692549644,0.6976889029814412,0.7160285778965099,-0.3487688619529976,-0.4386988560060756,-0.5810192972741579
970,-0.6107924348082193,0.6859730774832262,0.7015974309097137,3.7169029948830863,3.2575912671527547,3.233665807789825
980,-0.5984587173971813,0.699425356312107,0.7122831597067047,1.7189219264544797,0.9765486461468194,2.0700913049196528
990,-0.5876087496587079,0.7153237034667412,0.721941413755534,-0.7255665740020638,-2.0774719656048157,0.06970083730664856
1000,-0.6191167831958192,0.6904168112285882,0.690883458031382,1.8362694438346647,-0.8073816622142863,1.090896297235493
1010,-0.6032686263445776,0.6999562599987746,0.7059773656169809,1.8508632095638915,-0.7103998089350926,-0.6385125542213083
1020,-0.6158127592669181,0.6842434526848036,0.6911741614231546,1.7276568235646552,0.27907894447487136,-0.5661409986795854
1030,-0.5992686138419807,0.7020120486660413,0.707910618330208,-0.7391004356700742,-1.0477102169986543,-0.6960252081967632
1040,-0.6195901766923335,0.6817969788355258,0.6881989774540063,-0.7783108290961209,0.04217994487829779,0.9758262929085129
1050,-0.5829885465005002,0.7191852404001908,0.7252192131805213,1.378902378156638,1.1729615704653746,1.2534894126416418
1060,-0.6046377246546963,0.6968519214764796,0.7044838140077523,2.558682390610518,1.9403276256098019,1.5702750971438055
1070,-0.6011742420979891,0.7024167465293912,0.7090735311075493,-0.8824881527947334,-0.3564122792766887,-0.31459633633763817
1080,-0.5968973497334322,0.7081857824753207,0.7132188755099134,0.6389073804408375,1.2608625116860843,1.242930520435999
1090,-0.6064625547864977,0.6981627162602819,0.6987353366732206,0.985294358658167,1.2122412330051422,1.0082395389515428
1100,-0.5944478866945483,0.7108975948862154,0.7142640587015847,2.0739577789405157,2.1336779318249532,2.140826291176705
1110,-0.6171835549262155,0.6879668480114381,0.6960937651183291,-2.905338671214565,-3.304027991652361,-3.357130575630215
1120,-0.6298720482390727,0.672787917933077,0.6781832210448122,1.0366381397892062,0.008618402075279974,-0.32660509243013314
1130,-0.6020398152740999,0.7020551481954372,0.7002380925481316,0.1564815644101587,-0.2849749232385774,-1.0608457563589089
1140,-0.5941780188813217,0.7077303727902782,0.7126300966371562,-2.9335237737058915,-2.1728210356737363,-2.527733434403479
1150,-0.5753361972284573,0.7284086520368058,0.7343901165908161,-0.03491943643672546,0.878267331959245,0.5283975985384971
1160,-0.5968268500062744,0.7097947816000477,0.7104261521495941,-2.7943568328631803,-2.5440340359975036,-2.9394123051795393
1170,-0.6018932699115561,0.6965495561845334,0.7023594450939086,1.597061278509433,1.8842373112919866,2.2578601895680404
1180,-0.575086709288973,0.7287590318037978,0.7304790244480353,-2.965088961543654,-1.0427166119268019,-0.7632583560385535
1190,-0.5884956243027274,0.7172674220180273,0.7223482054630912,-0.5073168227000326,-0.8489906864769373,-1.2891190238060788
1200,-0.6184947329452983,0.6840621657707995,0.6885022980967762,-1.991325664575216,-2.649046962126205,-2.9152955360986126
1210,-0.6062088581028934,0.6968066443250153,0.6963916888985124,0.5131360000384891,0.20938133761878724,0.43121645292094063
1220,-0.5909573885405643,0.7100815578903338,0.7193661550277755,2.179627469748641,2.3414620835401974,2.6012919591120243
1230,-0.6102737094470456,0.6974145252189634,0.702731690317474,1.0767121448490482,1.1771667095950589,0.5732628713485233
1240,-0.6116507629168364,0.6976450322698863,0.6985355659648045,-0.6545242172908848,-0.7581857204154234,-1.2305645207089786
1250,-0.5865583317934292,0.7192670659499847,0.7232473527960667,-1.438824122790829,-1.2812560256032466,-0.5586972119837132
1260,-0.6228122849059011,0.6835573936084216,0.6849408278148553,-0.8465935720527187,-0.0033037313186937145,0.562309917287731
1270,-0.6055633428016501,0.6977944606349006,0.6984177134431679,-4.078738175337261,-3.2950664153851252,-4.271960527088451
1280,-0.6042340963905972,0.6977765981407457,0.7073864865025823,4.201257055925625,2.848452689247237,1.6191706140600202
1290,-0.612402813021226,0.6928071449865688,0.6976969126085361,5.2741746355990005,3.5489087252178275,2.760154451153981
1300,-0.6222583927704705,0.6820131975987219,0.6899602377811529,2.847179217765163,2.2287297662843653,2.0747434837186605
1310,-0.5775824048485491,0.7266233340345554,0.7354082717715913,2.417214813703938,1.2269206194594995,0.7203750177839585
1320,-0.5863567946932176,0.71142885179072,0.7226349938492288,2.110141971342168,0.22014600695575348,-0.11472914609181328
1330,-0.636127344903922,0.6690604257914108,0.681332110312172,-4.541955655439197,-4.331211539162752,-4.611182314599692
1340,-0.5851981797562318,0.7168714896009403,0.7240516062821918,0.6939350056862224,1.3061721598497495,0.8267045539697911
1350,-0.5918649690483033,0.7101172510194975,0.7123816821271801,-0.12258453359247551,-0.130231680370206,0.3501038903072565
1360,-0.5955888469003158,0.7071954832726732,0.7109419962657744,-0.6122574619671586,-0.13863543949783436,0.5093966013735153
1370,-0.6116485985013308,0.6957727571987237,0.6943881127376086,0.8585660956751504,-1.726052179787694,-2.756146726406143
1380,-0.6104661552979918,0.6900118819183142,0.695464532159468,2.2544384601982252,0.8002984395569638,0.16381637885706268
1390,-0.6026292625809407,0.7004946019005375,0.7107134385197508,2.7717587266828687,2.3502874194276635,2.0778122356983255
1400,-0.6214518398599795,0.6798430864755982,0.6880039611647659,1.6718129046675236,3.8573787598192553,3.7703132735644993
