time_ms,ax,ay,az,gx,gy,gz
0,-0.5793953074870088,0.47608678411239114,0.7618606094690389,-0.593474671561989,1.9037994217541234,2.2937303675199194
10,-0.579652107761687,0.47880123388464185,0.7996542090833652,-2.3678175175554372,1.439320489978766,1.1399273987005625
20,-0.5786415167376183,0.4806554752408279,0.808321375694391,-3.7173861813919338,-1.4069130480479828,-0.18417339456302995
30,-0.576582273855292,0.4688209177184461,0.7908892472896939,0.015264112658641249,0.8850564101499965,2.4202672291778375
40,-0.5622227699153083,0.4950745364219509,0.7894447796834168,-1.6394004288007427,1.5614060345108138,1.5909950124826349
50,-0.5613808482987275,0.47387798561744104,0.7747532449182937,-2.215478233731871,1.6842668675910533,1.0728269448374126
60,-0.5700677538710507,0.4500022267999192,0.7702716401974777,-1.8257575653065272,2.431296995334589,-0.139967266896323
70,-0.6032327871124831,0.4455326254116089,0.7644668995859462,-0.9783110269961045,1.6284046830844563,-0.6988367207398672
80,-0.5865675873773607,0.46923810758186535,0.7818745959822945,0.057491399041469715,-0.4871214460277788,-1.6952099338020312
90,-0.5830647215325058,0.4725737717917728,0.7763134599505077,3.1759384191843423,1.2294397301965536,-0.14002071839425234
100,-0.5704951656598941,0.4829061166356808,0.7963195150171822,2.0952285339899888,0.32994115168648713,-1.9205499998371613
110,-0.5778292410621528,0.4790543473560051,0.7985190740086552,0.7839484819938893,-1.108423923043158,-3.1848537052061463
120,-0.594771731581917,0.47120183752037403,0.7856165615702516,3.539218686121902,-0.39170005163789157,-0.5467484049755534
130,-0.581739180613503,0.4840607528338459,0.7724665429139039,4.290059891776098,-0.26961542989379983,1.0985753027189806
140,-0.5933954859182091,0.46886654472240036,0.7459980183412407,3.2050226656719487,-0.04696210581228244,1.7700964655831113
150,-0.5486378396406022,0.5129226312675526,0.8396352650092573,2.9310630683769228,-3.037884048246811,1.9820787064752674
160,-0.5630476434689714,0.48294079541854595,0.8180870758186727,2.838039798773524,-3.932528897655385,0.10586442950479946
170,-0.6006911041539617,0.505645824991708,0.8721811066221196,1.3998988362839546,-8.575642090733943,-1.3782231869598793
180,-0.6800959050122429,0.480365328521015,0.8763827620059371,3.9493902322826564,-15.857430425222669,-3.9555027485315946
190,-0.6337251694972462,0.5018950772818156,0.785308028089308,1.192436706975529,-17.328656857912964,-9.050105095547313
200,-0.5635084291208836,0.5117152352975995,0.7107075071061679,-1.9547820434674597,-15.816503372585014,-15.359015687463106
210,-0.5097716827087271,0.4840996912035743,0.780277641701992,14.99093354932381,1.0953820856389898,3.212811143428826
220,-0.5010470552449774,0.5107384436862179,0.7205710652948519,23.131297220491184,7.751861386255536,15.307039222188926
230,-0.5664899807280952,0.5434899669586062,0.7976464685435131,25.910613613996908,12.370404883401267,19.493424860913578
240,-0.4801079902992753,0.5653031687817933,0.7046031747548145,10.706964657178561,17.38915745123226,14.646411662910769
250,-0.4814913434482004,0.5780907006732969,0.6834203820205588,-3.7000415441919774,25.21421775803109,9.023281746156036
260,-0.5643258352432886,0.5875589407878059,0.7961300084912595,-11.92434346123256,32.43693936544642,15.1871992594604
270,-0.5702293309171531,0.5773457893689473,0.8741069016078871,-21.59273787122207,26.59386095453695,8.174605007692659
280,-0.588471694605772,0.5102540415930513,0.9354789248359756,-30.591182875706917,25.587936680747298,5.164787224988745
290,-0.6072746951388591,0.4028810917829243,0.7760422439405757,-15.363679604366588,10.174556508137243,-10.662899546531348
300,-0.5731817118773991,0.4132987639865031,0.7830444184446775,7.5169614588007025,3.8414833507045385,-11.223290743984961
310,-0.5862328905875769,0.4607504340598127,0.7735478209237047,10.367363610065091,2.655456733563163,-4.710951871231315
320,-0.5119792401906615,0.3795673520211785,0.8930250752177903,16.03716448589129,-2.000560123822884,3.298158495541438
330,-0.59452630541932,0.4542114049278561,0.8120545737558226,14.895757670704548,-1.5388302331275898,0.4583769500963181
340,-0.6704715077036965,0.623475017538012,0.7639909075139606,-30.15473687750772,-25.04420030067968,-22.08108901434463
350,-0.9589004011573761,0.7028016827408402,1.048708887701592,0.7027343801641579,-29.086617834559593,-25.108813569721278
360,-0.2681367998526353,0.07276172881815433,0.8401792412235997,-2.801190254554818,-28.742044189809057,-44.27212988736025
370,-0.5057889610231173,0.5079265207234389,0.772251917236998,11.832517320940628,-27.599945051328373,-34.19094000253002
380,-0.7015884819067234,0.7934507323242753,0.6167649449818361,3.062731370328433,-8.079858069297144,-12.231361969727962
390,-0.6948801079547634,0.734502256589403,0.6438387741931233,-3.2940681358044532,-3.088902887922826,-17.15301123912448
400,-0.670243061506077,0.6443651477359466,0.6811713443811312,-2.2499869280576164,-3.789607383864011,-16.355413674104007
410,-0.6105890040671704,0.5462216781172726,0.7411531198138799,-10.919551397556791,-3.229081862557292,-13.99563944214486
420,-0.5833111336497022,0.45427103968687627,0.7764927015875297,-11.999781000931534,-2.951126416806998,-9.160357985665101
430,-0.571015318624579,0.4584281944664604,0.7875483586620559,-16.463576067626004,-4.45283896115996,-7.3478130176003305
440,-0.5827412299592747,0.48842114734195713,0.7669563744369048,-19.360928597025403,-0.37184469452879565,-5.5806016298935575
450,-0.551325127693377,0.4754191389898708,0.8566724662001386,-29.505260603915655,0.3894043652633076,-8.867257430871403
460,-0.675557983556772,0.4303250180827196,0.6410610620687545,-26.356473145528017,5.351250424340558,-8.078972616181979
470,-0.6484662752804534,0.4937699740171067,0.6504692002228143,-7.73258720243674,21.71908770747995,-1.6900125580528174
480,-0.704564952688321,0.4452680074353134,0.8225859831113329,-16.880200012563876,29.551546003450657,16.87260780608435
490,-0.5699093008528922,0.33477256725997284,0.9547050037785173,-4.928046819604673,25.150907950128314,9.707986702981897
500,-0.43473655180891335,0.3393654635989347,0.8509616165743542,-3.7962948981374085,25.4601960258326,10.8433536912165
510,-0.5514257810511853,0.33026856915701364,0.7793071115976328,-9.091043300829154,13.817593538385363,0.593739958543214
520,-0.8607930961393161,0.5315323683744416,0.22064947217531777,-8.187007375467163,21.602941918781234,7.09569908182778
530,-0.6356477274810284,0.4759631501395757,0.6061562515399765,-10.999442598569022,19.043199562596214,16.142272685059293
540,-0.5171360287764509,0.36956694552613567,0.754448439530503,3.4625256550210453,18.681727579841155,13.799122865714322
550,-0.5879443737894492,0.435713690975794,0.759110750952961,9.560946376869254,3.562290911073396,5.110376382415194
560,-0.6202583002939714,0.4214491977821817,0.7477358077739367,15.758113716613869,5.269374073743318,10.105887263758994
570,-0.6036159507089619,0.42129249971054267,0.7980532085161612,16.87563694012509,1.1849103065659123,14.260230279955671
580,-0.5530879122760214,0.4183568014472658,0.8781631219110365,15.526756624649893,-5.532079872964312,18.242418644160367
590,-0.6185255081555847,0.43025280961755635,0.9340903662258921,17.214156652014726,-23.083739197923386,15.551946708104621
600,-0.5806287239475647,0.5170640660997199,0.7963003139814367,26.63645406634606,-31.84347658614653,10.561831563848415
610,-0.5905958393212491,0.45314792747511257,0.8003383771097642,23.19328427859008,-32.84393751904096,2.651409270875891
620,-0.5597547053377824,0.4756771231613763,0.7554703784177582,21.5293411929916,-27.56823832645609,3.5220014397128
630,-0.4737443007939554,0.5539462106435779,0.7547489696332792,22.76526388217157,-17.44773255460226,1.3810278528613484
640,-0.44298829004894996,0.5732295151617994,0.6884251115796731,15.160647617372767,-5.483895142754415,1.6509054621356345
650,-0.5145681000460364,0.7047843127275214,0.6389836726906607,-5.11170837163368,1.0997849027183095,0.13943118111723773
660,-0.5930409960695099,0.4866938221168463,0.7945174579120751,-9.702970877282356,3.856285635202655,0.28473823323218184
670,-0.5697405980083641,0.48883071666956535,0.7753009212334447,-9.178950894051653,1.4541270504111399,-1.8478412320682769
680,-0.5363148147069662,0.5176332452207713,0.8109657949117139,-4.790740368509433,6.63466565730664,3.2240774069420164
690,-0.5385540175100226,0.5277234665135592,0.7732833768449632,-4.896487888088504,4.551642449314279,2.628860725877138
700,-0.5726494356336927,0.4869113738957878,0.7258708318649414,-4.2723823619293935,6.525740316177815,5.117700091200677
710,-0.6756088130192968,0.43696158479868186,0.8673371933365218,-15.245224069168346,10.576869507633814,-0.69672934696117
720,-0.7643417810344687,0.3854860501328072,0.9515518528562619,-23.27099676583677,6.064491303215888,-11.020423217344344
730,-0.619565518277263,0.4163375065199216,0.7189201846535389,-9.947452191818853,1.3522138858594825,-8.497475938554679
740,-0.57862744527395,0.42239244179242796,0.7741716954959468,-0.8724971960771246,-0.1349141653308431,-6.962525584280984
750,-0.5830781548137848,0.4148044837461324,0.7660180086454718,3.6604127499734602,-0.37042153937887856,-2.6297947120888487
760,-0.5738242688722947,0.3590210166378418,0.7488281243671328,8.381391399500282,0.7268778862447466,-2.5506665752829085
770,-0.4326246676394483,0.3150453168546133,0.6299113792696465,3.4839580509893118,1.6355803089660779,-13.420912898269027
780,-0.5326302167524396,0.6974058021809009,0.934465582824225,12.630646562932679,4.787484790454433,-2.415734666131594
790,-0.5602656986816849,0.5175165538099876,0.7827931221678536,-1.249462808614259,4.417125506662119,-10.828777312686167
800,-0.6077089607073738,0.5331019558751442,0.749880589575556,5.048910945381256,4.112423161184527,5.852709089094477
810,-0.5889197828552208,0.4913138825478922,0.7637784349032164,-5.4915284944730445,-0.19488576841258054,-7.154174820093406
820,-0.6141906778164794,0.44923326766978605,0.7561886895929665,-2.2091199897936336,1.5319106648819019,-6.630397283032281
830,-0.568912176853294,0.4937006955858372,0.7801971555679755,-2.129174837355859,-2.833042663271462,0.9784261049074066
840,-0.5695975099472548,0.4930520442838078,0.7860493776254297,-1.263219924841124,0.2712875591512798,0.511129729951402
850,-0.5803281869134642,0.4765564176377673,0.7767052094752656,-2.7049923749273597,-1.0539726369641502,-3.354513890479106
860,-0.6043338777434696,0.4466657546035492,0.7608907664533069,-1.80115324251706,-0.8115526717685178,-2.047240705187496
870,-0.5681763164006047,0.4816187853260615,0.7990246620691468,-3.522395113918903,-4.33363442328379,-1.9344256333054775
880,-0.6412874461662063,0.427220942495527,0.7856627083294592,9.447016192851512,-16.43606714451699,2.0384645886328148
890,-0.6197421297766275,0.4055491456165511,0.711881935042836,33.95419298701133,-33.578431242590774,7.0195100050463255
900,-0.4264438359303442,0.5235922645107063,0.6533279869198869,36.01818289766621,-22.800497382636863,11.862537657733023
910,-0.45535359269030673,0.5428921715592743,0.703015868461669,25.28430356096904,-12.551547289347655,11.981107583375273
920,-0.491732857471993,0.6023828582329326,0.8239305753701796,12.549656158301431,-9.079251458002133,7.136418859475452
930,-0.5555609110877143,0.5639077634118557,0.81008772495062,7.133716747815164,-6.854340002451227,4.861232127753559
940,-0.5486503813933716,0.5040993143095185,0.7747465040409638,3.3402117059475254,-0.12805620022687458,4.493764346035965
950,-0.5454508459314971,0.49047129664930433,0.7790665451937863,-0.06034596434142438,1.7819321053033101,2.734151845880837
960,-0.5701643680501999,0.4939641597029151,0.795150384868814,-1.1019171230854723,3.2650226405755807,2.1620393106428506
970,-0.565754013989332,0.5358631936060114,0.838704961986931,-3.76728913666474,0.3732210633138051,-0.5953471100220815
980,-0.5568221183918475,0.5271256653236278,0.8216624701209211,-0.4785857198600634,1.6562667121740418,0.9052701098402438
990,-0.5548630393753738,0.5260230984519079,0.8080781149843814,-2.958307488924632,0.21530377962736136,-0.5356327005515091
1000,-0.5111013411668031,0.5604578286848733,0.8419677388708845,0.32482075290626145,0.7959294062503798,1.0758120862430736
1010,-0.569000162219497,0.5135191186606097,0.8156925942542087,-0.8505017101286633,-0.3978056814944052,0.9035223861732242
1020,-0.5591046019703323,0.5177796759286286,0.8114100900029387,-0.8159524117012427,-0.6989995827710607,0.17234191871230153
1030,-0.5931312595596885,0.4758019584248161,0.7737443190858451,-0.8797144599201043,-0.772503024784123,-0.9210826119956237
1040,-0.5637888284318414,0.5022247109710501,0.800656064069744,1.190936795083217,2.0943421974784253,1.453181668661332
1050,-0.5797427478872446,0.4937417561462472,0.7962745473618378,1.8651287113644832,0.6394501848518592,1.5958574583139922
1060,-0.564028122820034,0.5211960903775975,0.8014365372224614,4.888354793345638,1.1130931906645307,2.9757455637398214
1070,-0.5387890405805192,0.5498230844745601,0.8224994964303156,0.48416516744646043,-2.3066257509156625,-0.977630439414964
1080,-0.5915114536760513,0.4872921794969219,0.7763476365886113,-0.2111270023279066,-2.1374420927799025,-0.8319042150716499
1090,-0.5574797986327903,0.5141010930452425,0.7981139807525502,-0.027144645662749323,-0.8700461936996811,-0.004001440058650996
1100,-0.5235524819129287,0.5449051497207045,0.8269178126023473,0.5865355552343986,0.5091797222453062,1.3768363651119087
1110,-0.5539836281862441,0.525638042487283,0.8123056330113481,2.142232996793243,-1.6137855656576718,0.463595803485496
1120,-0.5309102964919891,0.5435467324430734,0.834557976185649,0.9089949077454031,-2.8666556835321475,-0.5763778321132723
1130,-0.5612145810136989,0.5121520906530409,0.8035986056017458,1.557736530925252,-0.5693772788859883,0.5128407648741768
1140,-0.5527393711556128,0.5426071609635092,0.7980298561461278,3.980536471443923,2.4112757408027274,3.3753219249473507
1150,-0.5414794883778505,0.5396669108952555,0.8134038033183364,1.2467422014523986,3.8749899948146664,3.298680247701551
1160,-0.5541853938839245,0.5269017918505958,0.816867240062355,-3.7121789867106347,-1.1415170959209533,-2.1935851316461936
1170,-0.5727978792565261,0.49505409424633057,0.8035171242069847,0.9306745454650125,0.009395002279816461,0.9734752943678419
1180,-0.5511126479131234,0.5205193282233997,0.8128550252754677,0.013823095350213865,-0.7354691518398964,0.5342814206406831
1190,-0.5649749671356308,0.5091279278583617,0.7849864327845234,-1.9290496229082899,-0.21191928655135736,-0.646964953407946
1200,-0.5646595016379065,0.5249641568052155,0.8068809405615446,1.8766435343790329,3.694221656714856,3.136414823686884
1210,-0.5752053325125079,0.5149740028339425,0.8060257625858422,-1.2024882927008331,-0.04476758370561096,0.2676906332020835
1220,-0.5724021167703985,0.508459036323559,0.8018667301289719,-0.35467362135998914,1.3823415520050708,0.8276672308350149
1230,-0.5541985668940177,0.5267381069838525,0.8244484955833915,-2.3366294343033878,-0.5270429114065617,-1.52996174832163
1240,-0.5505907340208589,0.5152466697434969,0.8146025312642415,-0.9597864023123422,0.507934115757742,-0.23167124269352948
1250,-0.5661790067271069,0.5049803433774113,0.8021557294740076,-1.9586198780800133,-0.24187544885782286,-1.5727456973447054
1260,-0.5845571831176503,0.5130921512224367,0.7944797330715898,-1.0097405439167586,-0.6260498815762428,-0.990362022998589
1270,-0.518097442552591,0.5658635409294633,0.8376044496696055,-0.46206713850231323,0.6693958510560402,0.32395482812274556
1280,-0.5713213417167466,0.501467283411785,0.7886852113403586,2.1000121682191804,3.193520980487439,2.4950888560007503
1290,-0.5699887801370719,0.4866486622453462,0.7928901773198627,-0.09208881595052176,1.7074039924610545,1.1878517327093037
1300,-0.5687267015585704,0.5193464456840196,0.7971995331625704,-2.633706964500666,-0.5107367667131795,-0.824045814654427
1310,-0.5452011307036968,0.5534877525686327,0.8214977401390007,-2.1736086681775544,-0.1423021691921591,-0.4813900893079667
