time_ms,ax,ay,az,gx,gy,gz
0,-0.5780393868027585,0.8876883051407904,0.8696006719701033,-1.0080229352924,0.464937024346578,-0.5912983551988349
10,-0.5985179034204312,0.8605029653761432,0.8508540533338084,-6.208081190510665,-3.5033596925584733,-5.374158532842069
20,-0.5705358364829768,0.8831303673911709,0.8773867393396564,-7.653310262090752,-2.8711423157552476,-5.440685698132256
30,-0.5695901897265723,0.876654447855235,0.8765893970274089,-3.3841398954000668,-2.0147989199866485,-2.5799572829427446
40,-0.5779640648460387,0.8750609536079085,0.8639428087300236,1.219393832909664,-1.0256316580748601,0.37056522303671846
50,-0.601403634257989,0.8550055170918189,0.8471136411630177,1.3714664064343087,0.7147073975629019,1.1216790633888465
60,-0.5974033578304527,0.8580423340128887,0.8592593989704701,0.3444163801290696,-0.07962209891630934,-0.5527022507999289
70,-0.5969211375426428,0.8536520822555009,0.8425285671794287,-1.4117806300426872,-1.3976822428841515,-1.2947559814005696
80,-0.6136540275933104,0.8381789617084081,0.8326468435283547,-3.6594642540416578,-2.013125355528401,-2.118971425153408
90,-0.5799506677510231,0.8605149029043768,0.8542529581964081,5.194682269319742,1.1128920450913475,2.35266818121658
100,-0.601571622302652,0.8529770103833747,0.8359829722110673,3.31248769328936,0.43705551928378367,1.5921132446247008
110,-0.5631570086169418,0.9022016374630532,0.8869806184146332,2.9101784179664505,3.462459163829525,3.550646731548228
120,-0.5791040367800986,0.8740035470228087,0.862201253160497,-2.658191529954921,-0.1651145125601087,-0.6340643828038139
130,-0.5745905157892656,0.8685943362050792,0.8726431691140798,2.646111412869126,3.8787224994614946,3.3117980085776857
140,-0.6151376775101782,0.8516818885612566,0.8776169777562439,18.39028828333891,-0.6397689262290467,4.515656381883386
150,-0.7156722856526141,0.8553587600729748,0.9247246689336746,35.29752581918598,-2.462503035820283,8.968453025004608
160,-0.8142181470226656,0.9007259149995418,0.9649976586612571,41.330966873115365,-14.54994275391904,11.401719355721252
170,-0.8357171038315849,0.9942758749928136,0.9498126368900085,40.72176565704136,-30.290848522449885,9.464277221972255
180,-0.7508864575243891,0.7655269433637975,0.8080292524188357,51.05146501111032,-29.80239686862713,13.275627556761213
190,-0.2019243833452043,0.8062645668152109,0.6409353020934976,8.514832696129227,14.94452644920712,-2.6736001864896215
200,-0.20262416082078957,0.9634878067106128,0.6938617793801201,-8.484709984123121,36.019261420804575,-11.620844041340122
210,-0.27107612619897675,0.9488667867372758,0.7736129570646836,-13.839198954196863,50.81146844098202,-5.814181990038865
220,-0.5197062778803873,0.9504724254463002,0.982993288464789,-28.0681676978926,53.314240991356066,-4.522224328182686
230,-0.7694700893276396,0.965501867028577,1.2234498415088797,-33.52217095429989,28.432013934245568,-9.887525506011096
240,-0.7197991383056201,0.9423165847350085,0.8525267252686908,-2.430484817130264,-26.989869325682466,-16.373993644067554
250,-0.6339218820862302,0.7747292159180357,0.8774315908279933,-11.175197142913953,-61.2893378519534,-30.45396123680993
260,-0.4778561830807781,0.8973820448509527,1.1865158503499331,-8.948660974911476,-67.13353464666264,-35.56709462340021
270,-0.7251608155695375,0.8954089182775508,0.6834753339915911,-62.96375124060145,-65.46423237513746,-38.32916932785146
280,-0.4850273195729434,1.0115137440405955,1.0431400148701895,-79.43692951969393,-44.8339605324965,-23.03828576706993
290,-0.5758388285306215,0.9587576991672696,0.8141316327563513,-45.91635518123986,-20.13553562711071,-3.9262113006722545
300,-0.6404587474528542,0.8644346395892502,0.8028580213614188,6.947888306230354,4.133260652329515,1.1510066716441356
310,-0.6965139560199913,0.7277165776629149,0.7458267479485645,17.5238444773269,9.112055768561511,-15.191302866318368
320,-0.7855754065974782,0.8523181374983217,0.6803903522542906,46.14085610184293,22.618093784615162,-13.062333298682967
330,-0.8200949609640756,0.39398456120206377,0.03607693176432658,115.2986730746392,50.22801954770882,-5.278224558307169
340,-0.627644382494783,0.9582495187835306,0.8303897183738853,160.83890806992213,64.99599146695097,15.377181186882513
350,-0.49492308265778234,1.0581999090918535,1.0934128024453553,78.67237641798016,36.11730041329732,18.777314431863267
360,-0.49992136492218053,0.9688020917380367,0.9051602971022559,53.93040534935905,27.814228526598658,0.8760979730501192
370,-0.72856870721654,0.853107099328132,0.3591201465088582,31.757216989204874,26.43521346786138,-3.4985838045068034
380,-0.6239616380793621,0.8726596482247033,0.845038658706961,20.783949441916302,7.662756718860273,-0.24816092356960895
390,-0.5994793260754309,0.8974703008807834,0.8592265018885769,31.64488441785911,3.27780584318352,2.7882254110321183
400,-0.7183939961282398,1.046962482520402,0.9229831981232158,22.23072224560227,-35.15400469715438,15.35592206745588
410,-0.6608734660669443,1.2128383008224646,0.9179963202012039,-26.8531310151154,-36.96719093066467,16.520214439159535
420,-0.5667410907567074,1.2019094704346953,0.7736241630085376,-58.7433074009111,-41.37797422545391,28.61277353694349
430,-0.3565565094125421,1.0993284185589456,0.638101616884942,-55.41923325342111,-25.03368964924784,35.99266753978236
440,-0.27087805547961297,1.0567794005911424,0.5493342658250816,-56.938444141483885,-0.8039483524160331,29.717389923824623
450,-0.8452517649042679,0.7946203171610717,1.0080938417691345,-20.51454663652701,9.102477065331264,-22.966282349187956
460,-0.6757385662877096,0.5553226445269591,1.057303753346553,8.485844187829851,0.5381213737331296,-21.09060799490911
470,-0.45882765235802003,0.743026835380555,0.933327660123698,45.6306481046622,0.6722169091321689,-9.552551019221372
480,-0.7339811626617332,0.596734020797657,0.6286283382688163,26.08886376526199,-0.9099793636798492,-9.893014063064731
490,-0.6297958602661518,0.6531925700041248,0.9481639900679217,25.536652922564365,-4.390145521683245,-9.119288328125018
500,-0.6325472495653921,0.6793504556157848,0.796401656508387,12.899538048733591,-3.156831884232538,-9.871602157885635
510,-0.6164646768412393,1.128897606054988,0.8420341610677761,2.5077998892408204,-1.3914667916238246,-6.954539123128153
520,-0.6076527705594799,0.936370153756303,0.8298817442549723,-8.73447070300565,-1.7122230371698515,-15.55470783276382
530,-0.5840192241913333,0.9153999328679415,0.8307342687243652,-14.178128462718892,-2.250498861695162,-17.51062439693856
540,-0.599496340242526,0.8685764198150737,0.8209339154060642,-15.169963781982393,-1.9351371580506453,-12.284046754927903
550,-0.597588704737572,0.8838659783183525,0.8431299709405594,-8.615417439076992,-0.0846292692874071,-2.9873996038427375
560,-0.6047040889899089,0.8957654441862418,0.8434549488601346,-4.937522189649732,1.078067673143824,1.4717091412945664
570,-0.5651684052513428,0.9273796527444464,0.8632414518401591,-12.93248812765385,-1.8698448948194277,-3.9428541616670083
580,-0.5945608316044506,0.897996241719205,0.8373310123038499,-16.623975965859835,-1.6297917266404696,-5.370996867653186
590,-0.5864570374240965,0.8765965183284199,0.8447787695756315,-23.79602575557321,-3.7587558202855877,-9.309941137696033
600,-0.6080122646603688,0.8716915590421176,0.8308496993301783,-16.655983004653727,-0.011922401990732245,-2.2127176101336192
610,-0.5899319528796441,0.9047787923008418,0.8482175103829499,6.8937033591981285,1.654574156012961,14.353313521194734
620,-0.5753454066641238,0.9255000078853309,0.8640356727512983,0.6299652436324884,1.8164196974693154,10.693340945147721
630,-0.5759787305452359,0.9127367827613317,0.8588981415697396,-7.721024579840696,0.2526318961516007,2.734282559205039
640,-0.5875167173941076,0.8853884134424193,0.838327047630039,-11.21181079850658,-1.2189714695279665,-3.090273354758654
650,-0.5740090953617594,0.8922782153516666,0.8561252759049139,-7.869297660233733,0.49875523420259427,0.41629718505431534
660,-0.6061967280866903,0.8762707931891486,0.8317775105754673,4.367808874539937,1.054476390169075,11.330203395957586
670,-0.5727919824652826,0.9135358200996849,0.8513087089514767,5.261267920139581,1.4408295376068185,8.526644802334658
680,-0.6158738945999094,0.8866817044609442,0.8313263258481186,1.7413307224309342,-0.19638282867354362,4.912515327466316
690,-0.6098144177735152,0.8927360288085221,0.8251031773072222,4.418665168547034,1.9298896883232237,6.906338107010566
700,-0.586163616611087,0.9169212823019364,0.8438816379612638,1.6006965707710472,-0.09940595193709062,4.407067490524746
710,-0.6005780599636209,0.900761688507158,0.8306194921133249,3.8426689741723417,0.04143678922334658,2.821060221987701
720,-0.6261321781685726,0.8840326879005126,0.8060488108450171,3.333364165570764,-0.2514466360793295,0.12095907138875228
730,-0.5868637794404714,0.9212743741685535,0.8477786744749329,-0.31698434202375214,-2.786115705332831,-3.006829257511167
740,-0.5824850134888618,0.9265170731398619,0.8481440502252345,-1.014213649768446,-0.773203224519611,-1.380823301212769
750,-0.6087315661789653,0.8899315885366954,0.8128742123814657,-3.8109227920125512,-0.5289068257304177,-1.9764746092464571
760,-0.5855332043236094,0.9199420951213729,0.8474385590523383,-1.1623688169077342,2.011200709045743,0.48498922377503956
770,-0.5878209296966467,0.9187880958202775,0.8435545336238867,3.2774191951707943,4.056435057005977,4.678450794329827
780,-0.5951801460408889,0.9115581991759026,0.8346469389494209,-0.7129326265928029,-0.9163293553361029,2.3770935892486995
790,-0.5810896446732389,0.9300312422553974,0.8500118375977346,-3.6278544852065138,-0.39015892305042676,2.5960429062888144
800,-0.622643012685592,0.8944734500566007,0.8209958946616743,-5.774782336806723,-2.39902714168674,-0.0006215745017861263
810,-0.566026302390102,0.9318833045470456,0.8581206856436184,-3.334057173870429,-1.986088945002105,-1.1719649921675268
820,-0.5895754194901976,0.895139292075959,0.823398518080743,-3.5799037967161325,-1.278134658940992,-4.002693235753803
830,-0.6194611983312845,0.8762493213033951,0.8122132594180876,-2.2419218730987454,-1.5738294550152416,-4.992525786714909
840,-0.6015903195710692,0.8894038971698619,0.828295287134946,-3.010657802329386,-3.3792680855295307,-6.14214634585873
850,-0.5787928177164645,0.9212287756839939,0.8681943672208017,0.9874832066212527,-1.6554054612927456,-2.7965615424770656
860,-0.5698230147570426,0.9159354672065708,0.8522550990975333,1.6270574232947248,-0.8348331856272502,-0.7254702859370067
870,-0.5819278229207892,0.922428349235156,0.8553174632132332,3.624218581697014,4.268772327989696,4.932423884056194
880,-0.590562560265475,0.909695499912854,0.8334238228227289,1.546440167395461,1.7014833138581067,1.5597289279695437
890,-0.6107562667286182,0.8886104487608043,0.8169538749313606,-4.715691591516111,-2.54271362733917,-3.5891610866547152
900,-0.6023786158743994,0.8936505621866622,0.8335196685661311,-0.6927026441137106,-0.2886240161721827,-1.2063726067395804
910,-0.6233593503647766,0.8668618172880143,0.8017026675867014,-1.9079843641740244,-3.453226992806807,-3.720674757955819
920,-0.5881467063381943,0.910885719516048,0.8438866830952035,3.430412713335227,0.20024051965146872,1.367623114647119
930,-0.5635516345346271,0.9362251746952023,0.8553365222571996,-5.680899732969509,-2.732783164203467,-2.7054619165019393
940,-0.5939720797373808,0.8971496712882868,0.8390460855348851,-0.22890020940564837,-0.3717225476700099,-1.7753034691429543
950,-0.5846232668767781,0.9040143560898464,0.8411273774658277,-0.1653826363999149,-0.8993012530383676,-2.2587118305824516
960,-0.6016853441332963,0.894675639692604,0.8325207758214382,1.233411330299648,0.40929024889049903,-0.3236589270399718
970,-0.6033482051121125,0.8978901771212963,0.8292053744792924,1.7355611903757142,0.8281499155584556,1.6257656827772382
980,-0.5707667621164437,0.9273912589406862,0.8604427521661581,-1.56380738136233,-1.391872329043488,-0.8501727005150248
990,-0.5681036408579329,0.9335213572064334,0.8644407613927514,-1.6088564167372772,0.1543876640361781,-0.8270910064268204
1000,-0.5830217051965214,0.9143515857828037,0.8518391022644172,-1.7792805372369462,-0.46575952153192257,-2.1243082701747484
1010,-0.5781037376514123,0.9131551189807038,0.8619081155781357,-0.20100295826779424,-1.1239777139629716,-0.7235267592717403
1020,-0.5779886849064126,0.9122860122574701,0.8509190598631908,3.612249991929347,0.1690167587082346,3.4401466776365233
1030,-0.6060251594550441,0.8936899786628355,0.8289782789833579,2.7516477487637614,-1.7228929304860183,3.0965368423199884
1040,-0.5780288003476043,0.925430962255126,0.85564452734531,4.7763398671272554,0.8711014419002869,3.8268970137115295
1050,-0.5769681692721885,0.9292798467992498,0.8567130015575083,-0.2826865465168247,-2.1850888858415134,-1.414883169225641
1060,-0.5689550024062204,0.925687293186172,0.8506359283613355,-1.9278608631100287,-1.6706259758515323,-2.4411469497038616
1070,-0.5953767768318343,0.9054489097743323,0.8374989188113905,0.8514751390305192,0.6545877011957669,-0.551275426327286
1080,-0.5875463837704719,0.9100863898868518,0.8469782837816857,0.19127628968254506,-2.0357923708099337,-1.1708869576067
1090,-0.577778336428976,0.9233666556576666,0.847494829131345,2.46901490621502,0.36522228430836046,0.4648747497691996
1100,-0.5682165202306142,0.9364413205740977,0.8589963525761015,1.0309213967962754,1.4358595260420688,1.1158483576460425
1110,-0.5795515677290849,0.9247642113884148,0.8565561022395489,-2.077354179669559,-0.3698158199109264,-0.6962908738429815
1120,-0.6023116496388513,0.8944620471770407,0.8309253832559276,-0.13773370750404634,0.4945955771781363,0.178289768184554
1130,-0.5931436606102497,0.9108517064168612,0.8352180833028976,1.7998654362833548,1.787606606670455,-1.5155090235936781
1140,-0.5829481047925829,0.9196513856205804,0.8531982849452299,-2.019092411054184,-0.4013317706690239,-3.874707781034661
1150,-0.597979859751511,0.9014520347980137,0.8408899557824245,-1.598192377265487,-0.8958369869208718,-3.6438091008847415
1160,-0.5824799738832166,0.91477210570899,0.8459327840657308,1.9788573062867116,1.4854541586833008,1.2793306707788172
1170,-0.5900095089642126,0.9107607403069996,0.8381031127687161,-0.5792560739150526,-0.6069848647080132,0.759030540258525
1180,-0.608480675536591,0.8874297571242924,0.8177019093673529,3.332304766328841,2.2600944657746047,1.547113119578146
1190,-0.5987508732141414,0.9029444807470307,0.8296200366956763,-0.7636293058061794,-0.8674205410977598,-2.319858455147462
1200,-0.588178982697044,0.9093608823270125,0.8415634393598981,-3.9718953721926065,-2.5549236703708873,-3.4550455611504747
1210,-0.6193454789652895,0.8743814893663799,0.8066712988575566,-1.4736507396806657,-0.5358238712412652,0.028369917248896093
1220,-0.5614791772365397,0.9340839299724863,0.8658313275240888,-0.23827790717771613,0.7651973943616934,2.071816217639935
1230,-0.6198518302049757,0.8843212641128562,0.8163522237868391,0.12708885475375292,-0.06591325797776787,0.1418730110031709
1240,-0.5946760345254982,0.9006982071988793,0.8335259584348953,0.47092629211068726,0.2846922350791762,-1.4938893032726397
1250,-0.5870644522831264,0.9141069557610281,0.8421553826942649,2.6755535871443237,2.5085574544310782,0.17729080923006846
1260,-0.6061782571221176,0.9000134132929777,0.8199706725245319,-5.4425184372029385,-3.370144805387816,-5.326057320755083
1270,-0.5919843059485869,0.9113534567824617,0.8355143712603043,-4.305099453793858,-2.484827340718467,-3.480671945323726
1280,-0.573932340641173,0.9271669014675912,0.8596879787513814,-0.3589386156788421,0.11144472850264436,-0.3391531157151758
1290,-0.5867285067083842,0.9161918106013643,0.8507204170216583,-2.509721810531185,-2.6376958283804854,-3.8486401742172553
1300,-0.6071264032313862,0.8942882198522464,0.829275616941933,-1.6236891254269974,-0.20427035721591336,-1.5730080475531771
1310,-0.5844536682289334,0.9096224806751212,0.8464326702013983,-3.290193236782372,-1.592668927871358,-1.8209562546674023
1320,-0.6065460813714726,0.8892494380861474,0.8189086416337443,-2.62776142057205,-1.5184310625055573,-0.9555756840459102
1330,-0.5524197767658569,0.9455204008572472,0.8857835498264839,-2.5391955862020485,-1.1719259739711096,0.07802425428625126
1340,-0.5986849349270198,0.9006895473155476,0.8262287605227553,-2.0708513091399654,-0.9185174811956542,-1.9863754636162858
1350,-0.5781939463668345,0.9146364778541719,0.8516691169097818,-2.950376094853425,0.037942316732977655,-2.066868720874107
1360,-0.588235986330091,0.900435530079909,0.8472351197923551,-5.214846545217595,-2.425148966954933,-4.43326474336381
1370,-0.5634546110529046,0.9249111892258489,0.873245541103226,-3.3544643808518027,-1.4202497085782375,-2.0081875066423853
1380,-0.5962777416518938,0.8981907585256745,0.8413960692915073,-3.5328875007868903,-3.5619859639234734,-2.0897577765690656
1390,-0.635902814761509,0.8647349772854049,0.7978593637951946,-2.3070072632658247,-1.622335221459977,-0.9819277675751783
