time_ms,ax,ay,az,gx,gy,gz
0,-0.683261411818799,0.4307971774289201,0.5182884217644341,2.4002654019258105,2.265676591422054,2.177848974776354
10,-0.695969278002361,0.42038633403728853,0.5064181301071771,0.05816365216741737,1.621559982307483,0.9057647175628118
20,-0.694461010558363,0.41695340815252535,0.503909830507051,-1.493815500136419,1.1775072418377441,0.060835029794060747
30,-0.6965742526965205,0.41646754186368284,0.503916051202325,-0.553352122483185,0.19098262755516354,-0.35833098843876926
40,-0.7116292375696288,0.4012300928328715,0.48694961218645605,-1.3894638492190503,-1.6312238444554867,-1.7944175806854523
50,-0.6821985542546459,0.43174039222711585,0.517860162421427,-3.8700894317026258,-2.5396486812498438,-3.778500410071321
60,-0.668588349791452,0.44040597932986214,0.5342298188957062,-2.47895894420922,-0.09776822127069429,-3.087148875187456
70,-0.6795347177641897,0.42664456182722876,0.5200569670570733,-4.100745259545341,-2.3373525913864635,-4.90698796061562
80,-0.6879446873098888,0.4211889975979398,0.5125765846270375,-1.257217608000528,-2.004760526286256,-1.1071196895744964
90,-0.6659534459754304,0.45240217486419093,0.5370085153405358,2.5141575920047368,2.359791371630844,2.480174898762319
100,-0.7116464892690784,0.4020855850836155,0.4929316997324719,-4.527363560855024,-1.7381533478746638,-5.276088693836535
110,-0.6811940946877583,0.43060357089613926,0.5238287100936873,-0.22643800545154147,1.2779471387525603,-1.6123970553476692
120,-0.6738265009610616,0.4345871419729128,0.5290255189510591,1.2706473119704154,2.018906614652136,0.39904396590534463
130,-0.6816733115960123,0.428151582743416,0.5211754114810119,0.9228100857531717,1.803270794097585,1.0898434585635428
140,-0.6709537943413734,0.44105342324227664,0.5328900115711749,2.425902595477493,2.1071380115440124,1.8829733898186638
150,-0.6517690402132088,0.45874111212101015,0.5486858063493555,0.4379041070392918,0.87210397059049,-0.15292514787987066
160,-0.6546391155758212,0.45674853608469035,0.5486748661472777,2.771808244074278,2.101965602315084,1.872598125000934
170,-0.683483453842583,0.4242645525553188,0.5212183580096923,1.5226289315982648,-0.2467834276393961,1.161441028350847
180,-0.700576067546564,0.439740295512886,0.5272185506135195,-7.143179552482107,-0.4597568298741954,4.510418559238547
190,-0.8240868338728007,0.5316619528278184,0.46152195155613474,-15.366329031065863,-0.45857273670943166,10.609168352514276
200,-0.8242002513598347,0.4299559341906523,0.6400788111482875,-0.9352650245100299,-22.981034535015198,25.94651910164692
210,-0.6044766687042199,0.4735357369541715,0.3818534779120318,2.1221190606590463,-13.457845141675177,30.888571667056052
220,-0.5931445725347684,0.5125088552007404,0.4392226763812549,-7.041595036660181,4.531756762153973,28.65848801003367
230,-0.5796199456590161,0.5386886219121846,0.5081269955335848,-20.613917408462772,24.297156990174106,18.577798870724163
240,-0.5728677583056846,0.5205980998901675,0.5171412802093143,-28.992721690649663,31.310980206429896,12.244076803179777
250,-0.7058988319623534,0.4042935995847641,0.526420725053869,-32.26427806842002,36.11845053208861,11.836601731534564
260,-0.7865463552390917,0.3745862133134547,0.5926892399806931,-31.461189073699828,19.94254517806208,2.2066160129458643
270,-0.7453059593539996,0.38089112084594307,0.5407265135913785,-13.094078554853223,6.707658294626686,6.514018923806123
280,-0.7053828868395406,0.41958195196957004,0.48252029023349263,6.727569173045982,2.4983726737778635,9.927146975963968
290,-0.6926511396923128,0.45649744534778736,0.48927148033391726,11.214666116224585,1.2610136182671758,8.383821587967775
300,-0.6965010599892878,0.4543988362413007,0.515965908347286,19.32917768176376,4.520539074842284,13.029886207840292
310,-0.7150301803162222,0.4648508923283921,0.4545128264017263,15.56559579026577,-0.22971921610452162,8.820727630856869
320,-0.6074089194298289,0.36567762859275543,0.4691731199510835,0.5991080328464008,-18.48937649640023,-11.217883147426253
330,-0.49196372774684044,0.263050105366738,0.755643205924586,56.45397894681006,-60.01720195562201,-38.649674921597125
340,-0.5609965279709995,0.34398320788859044,0.6816761927589432,28.402963667298412,-62.40937406023861,-51.40351740305361
350,-0.6418307048317569,0.5870989425219882,0.2869534162948979,28.349176998734418,-48.04116669877107,-24.820641017940222
360,-0.7351203569165219,0.22091427591334747,0.1963112177184164,27.14570796303247,-39.78004532159098,-28.506335062896486
370,-0.7253047086419313,0.40861788306788094,0.19670360035660553,16.954358893455794,-30.75228267463171,-22.579295408786038
380,-0.6782494061365794,0.45593549607871275,0.5097356556204075,-1.8063634033737799,-5.1236523644728305,-4.391447718073356
390,-0.6599884293342471,0.4630429546500144,0.5682720858951247,-10.700446926628432,-3.1241323194623005,-2.2464170590724177
400,-0.6863918290655178,0.426382663630799,0.5226388072115487,-15.47019447272972,-4.247092432452059,-7.307518002967589
410,-0.6967390623925641,0.4757177432370249,0.4254905328636212,-11.641633338479426,6.357376883308098,-11.201857632888188
420,-0.7071029733871435,0.44559419024718455,0.4892407296727896,-8.538250475216582,17.737656928870592,-12.261304936652696
430,-0.670979004899467,0.4074470292492484,0.54889257297697,5.757144642869942,51.19900383728759,-0.5438124895113587
440,-0.6966518492696282,0.2269097790321813,0.7315023712879974,-14.700713815100483,41.16241266698708,7.810468812612978
450,-0.5750345879576696,0.42124453748107404,0.941030173416476,-11.072124001875485,35.17867666659552,6.8109229790044274
460,-0.6370693890888693,0.4583392793021502,0.619635051702002,-7.469782270448595,38.22426418403974,0.810269607397239
470,-0.6671335995924598,0.420968219135755,0.08866687702309797,0.6376138770238144,39.20546642943465,5.377608005016343
480,-0.6184092754896655,0.4533275897760264,0.6032228387190333,1.8968759287230121,20.468543253295618,4.756363177650929
490,-0.6770099467815203,0.4282087523430793,0.5556800398146026,-0.7789892862865533,0.6592202483373252,6.978231508889249
500,-0.6889639823644269,0.4450164437239147,0.5303918741866557,0.712236505092202,2.6559601243623074,11.828871074786942
510,-0.7073801377938378,0.4128694363930992,0.5990969127341103,-2.8460764867827715,-5.184032555031266,13.253488211088696
520,-0.7986477187053616,0.38233497164712943,0.6639767900113719,11.803287434761598,-32.702030216839226,15.132762473326512
530,-0.5936261433942926,0.541186621379711,0.3656900291673315,7.1294685792980035,-27.578417805134844,14.724954535672106
540,-0.6064803708618581,0.5437861028053039,0.4971595481570328,-3.7550982769991244,-6.814657424337453,9.527597799865811
550,-0.6234785942229742,0.5444636620056262,0.5435262743965846,-7.3069452363195655,0.02737933282408278,2.9427842146445897
560,-0.6285561093494896,0.538788605603601,0.5330898677953412,-14.253274376351436,2.1500114129860743,-0.5312998716048056
570,-0.6068487026586539,0.5267086920466701,0.5262642567487253,-24.18232435412964,7.420850296589941,-2.3725472271345383
580,-0.6914722190668225,0.41723005187830753,0.4423880821938933,3.3569188748828305,-22.06784845358542,-38.591708774503466
590,-0.705213561169005,0.2829821603196126,0.500758036893136,0.6319503218043607,8.757207503117296,-22.483574616572497
600,-0.6751475048806346,0.3676309403874564,0.5004473799351998,7.38507376878731,2.8002666291693576,-1.4438681436104805
610,-0.707470536282442,0.17892525672069245,0.49867541961681505,11.876981801362769,-1.817792751891714,5.24280846392045
620,-0.7437751994532482,0.41074540787226765,0.595278517881275,-2.68883022483568,-4.510124014998558,-7.427930831379214
630,-0.7343226544850134,0.4913226922628423,0.5179288995061407,-13.03671959381527,-2.0511129871560567,-1.0630110728076867
640,-0.6880153812046551,0.5680624250677205,0.5444075830579456,-5.837225000752328,1.664149228837276,-7.656609832517197
650,-0.6804691180303042,0.4594797182939697,0.533827678795793,-1.2412648953127219,4.359686957575207,-11.253832489746173
660,-0.6923808604310777,0.37842177301712,0.5119373063194362,-0.007678342122193149,0.6707403359992963,-7.829113050142109
670,-0.6580914906260925,0.46750173768516856,0.5467490136589639,4.241073230814414,1.103548022452099,4.268950086923152
680,-0.664137011686446,0.46306847985243255,0.5509191923760869,-4.112054341404257,-0.15602667480902432,-6.589139684652957
690,-0.6827705331466515,0.4320844509108168,0.5254689017327304,-4.23981198726444,0.25789463574572213,-8.145806053122675
700,-0.6646327741304457,0.4380934662966278,0.5442583609151225,0.8268871737995247,1.929340166166274,-2.272514178787619
710,-0.7035116541586773,0.4001467075241695,0.5015223451616659,2.862341113710213,1.5612353752706798,1.3101529989370775
720,-0.6818588065206812,0.42742442064111563,0.5248806075479292,2.511687619720322,0.8966426973960567,2.8317316608811955
730,-0.6900036210472621,0.4278864586984716,0.5134490710843465,-4.708315325833514,-2.2020374007510224,-5.002529000767023
740,-0.69813491742104,0.4082447871133744,0.5033190834559664,-5.453452999668803,-3.4707921349836477,-6.539461518158586
750,-0.6968698870265471,0.40686401988290044,0.5031271900597412,0.6184605891186733,0.8111462374114342,0.09660526314756737
760,-0.6654743300732496,0.444043187652052,0.5389227503223731,5.3861353952365665,3.8995995157039,4.95030955385622
770,-0.6858736125889126,0.4300976381713187,0.5198710334261271,4.185715648046918,1.4168297195175243,2.911282213600909
780,-0.6826298408258689,0.43304742971243015,0.5212511938071543,-2.842907703484573,-0.7021969270540804,-2.746149610327846
790,-0.6682717748468548,0.44210328236627444,0.5328248840207921,-0.5827729621021025,1.9305870036950115,-0.8837394516434061
800,-0.6667453321701494,0.4405309000384175,0.5357254328321092,-4.21707173065565,-1.8644021201035195,-3.209973579432083
810,-0.6465534539277464,0.46825017382591616,0.5580639329669552,1.5149594883771376,3.161957415704258,2.2975177134152234
820,-0.6959093377477438,0.4191728067521083,0.5016699316839652,1.2773279337890129,1.6698668318251912,-0.14416516495421405
830,-0.7035620138680535,0.4025115270706625,0.49742562272416485,2.6772008743153095,3.219187666364732,2.1416991545416946
840,-0.6550990468318136,0.4515178836648877,0.5431940889668729,2.5557296461444663,1.510185940018922,2.461201824059006
850,-0.7068188952417283,0.4033256774922061,0.4929431653329738,0.23630229029752386,-0.11511117849693575,0.18518528329426115
860,-0.6808032567707643,0.43668590336676055,0.5204192974836643,-0.807604877736889,-0.518204849271777,-0.7563237337588433
870,-0.6632015195088297,0.4587733525850355,0.5446126495779126,2.1331893300692926,1.912320586015269,1.6333722327295221
880,-0.6682725573446395,0.43535667734437083,0.5336545422669026,-0.8319886252681985,0.9813825823362272,-1.2024730739253786
890,-0.6813356644139437,0.42937098132180884,0.5259603834722735,-1.1330534383534758,0.31745767124417723,-1.6750255043649427
900,-0.6807336071210353,0.4298811694593133,0.5262360809184127,-0.9897873817797725,0.4927177589711942,-1.6824753796667253
910,-0.6791111249010067,0.4230466695128873,0.5206801866025943,0.8190683618262514,-0.08276532319472929,-0.9056680931496836
920,-0.6826377987193121,0.42501547838328657,0.5149793257857435,0.858741402880904,-0.5742434160450075,-0.07377715191580103
930,-0.6948256206845439,0.42098069937128124,0.5162192787880777,-2.3591914957036106,-1.2507243035537567,-2.9067456637535343
940,-0.6890470251002934,0.4187442199269872,0.5134457675798794,2.1005895386655284,3.9828647207653938,1.749285288694132
950,-0.6615406512596878,0.444081359244456,0.5422750917183385,2.9787713352570684,3.4904273268364228,2.6955329463431954
960,-0.6704754403912472,0.44318967492415207,0.5370041645594156,2.4061233538126716,1.5267743947749244,1.8057788936003738
970,-0.7021478274579022,0.407912875807161,0.5005335784361552,2.418193493218829,1.7670335510578106,1.8865586236787504
980,-0.6528765610364781,0.45496222450140644,0.5507099464391242,-3.1965745485721575,-1.7409864645736421,-2.883237849194053
990,-0.6667303351054074,0.4415317574755637,0.5351085832389864,1.3012678324895481,1.985700615611603,1.441408691292287
1000,-0.6879772437336947,0.42137873480201654,0.5162300157151473,0.09745247239718935,0.3559569351449977,0.07610219803459928
1010,-0.6703417566792466,0.44221941720284935,0.5279714787631911,0.13717951916305593,0.38541114783879005,0.04314733699745288
1020,-0.6952453909794029,0.4170352305904258,0.5043133635529701,1.1659150631522737,2.8298520231267275,0.9687278150271201
1030,-0.6890642282801789,0.4128148755807972,0.5076487720214818,3.9155502091388734,3.5224089206491556,3.0667443094022864
1040,-0.693684067843371,0.413517332566504,0.5113453951343816,2.8848087901700983,2.044380955968932,1.6761908617634143
1050,-0.6684697778842739,0.44008221924642615,0.536476585092389,2.3847943467612707,1.6480440776282013,0.5079145538122506
1060,-0.7046488210374257,0.4028176520566443,0.5003884109792894,7.218245946949093,6.073431943529197,5.452219832630129
1070,-0.6508099921660068,0.4589156508035718,0.5554858546511805,3.232142335758657,0.7780856489894271,1.806748295895003
1080,-0.6992475457867625,0.4385159310863664,0.5343156953295544,3.0739216764584927,-0.8193110461072148,7.1594201361910415
1090,-0.8222619912070566,0.5472449767866723,0.5874443730678806,-9.115814054841003,-7.970487618605961,11.927927675332262
1100,-1.0049054524820888,0.5192658600366606,0.6362910426529347,-3.5419149391195344,-41.499551898095696,29.38463009621848
1110,-0.6907514783351879,0.4563331996736004,0.48524796134962583,4.218843472443025,-56.654002904341,49.450617327336644
1120,-0.43489926268650814,0.410338048181353,0.3588254648587653,3.2896067239089044,-31.332875560371978,42.79408491339766
1130,-0.5841763541454709,0.5729622817508544,0.5482484775675378,-18.7860097548597,13.155526553955387,17.994065681450515
1140,-0.5668299731762875,0.4986832385320964,0.5665017819098577,-23.254213445058735,21.731471548111237,9.829404263512378
1150,-0.6407715549515636,0.41253227866938164,0.541694487845421,-23.423832790133034,26.28909758090308,5.5301202987146585
1160,-0.7392205304549393,0.3733745462462453,0.5462316201541457,-19.268187419899277,21.614360264588154,0.670570447693234
1170,-0.7375696422617521,0.37639115612082363,0.5799090815959939,-9.508383858403592,10.186797038946988,-0.1451874184023011
1180,-0.6818637447074057,0.44839941434395103,0.4999273393546087,6.891617302308566,0.040582545729759056,5.008389233368
1190,-0.6962998272970632,0.4661362498867866,0.510217011447244,2.9553132379523905,-0.5892925375036835,0.7048145452105132
1200,-0.690733379925206,0.4786220850641596,0.5125009357233002,3.579819266211531,2.949632112337127,0.34350802437059746
1210,-0.6489110507758128,0.5072944815749351,0.53943043823002,-0.03833137446118262,2.7939632485747294,-4.772895778903134
1220,-0.6906084391929739,0.46948969877017527,0.5091104904706674,-3.0926095532456315,4.208280090168756,-4.432754786463622
1230,-0.6829911378207449,0.45241499249146827,0.5197424159515994,1.68447993374912,3.6187038625829975,-0.9230911575176752
1240,-0.6961485590363728,0.45411509461618316,0.5145952025591668,-0.1436681207263919,-1.167392269539119,-4.546408475204575
1250,-0.6835360747541998,0.46865532145884514,0.49892890273354407,5.014282651664763,5.340365827151773,1.2210726992546084
1260,-0.6650729023607064,0.5004214148119367,0.5173003668162258,-4.343629804748225,3.001766692714019,-3.9077442099079263
1270,-0.6914736520567226,0.4724207785345245,0.5036495831649326,-3.783594715940607,6.685523486534048,-1.4540234486112886
1280,-0.7062269637287023,0.44538332160888855,0.5151169742584374,0.16501747508273146,1.5401327950630896,-0.6533055534214958
1290,-0.6893005233020891,0.45411014036442926,0.49438082224003616,0.11616728825760814,0.5533491418417598,0.5778109438487606
1300,-0.6706530945305686,0.46662403404033304,0.5071901121395451,-2.250543595840213,1.3053511731786651,-1.109851306092031
1310,-0.7246999138748985,0.45495146456089164,0.5143999997790263,0.48956963706003775,4.435805520586955,2.022227556326659
1320,-0.6932408204673497,0.4860376943709222,0.5222416719911244,0.028642549773893133,2.929542870954779,1.1289774382042088
1330,-0.6983475565342886,0.4522411118601596,0.5067272668768698,-1.8752301997649732,3.548318396613276,1.9256695693751416
1340,-0.6631778653669691,0.4786834126546804,0.5401586160834723,-0.1138581158475458,4.240887981390172,3.2278284444891185
1350,-0.670762369982287,0.48513787875621794,0.5360694238463556,-1.7184814924497855,0.2718153352378394,0.468546087799363
1360,-0.6575454093067491,0.4965492572700442,0.5331119082578794,-1.509730347915223,1.7028568102070785,0.9722873297140234
1370,-0.6794694155061805,0.4783786699841737,0.5232225741635423,-3.4705800707868852,1.786337305233591,0.07931083324567206
1380,-0.6821281588956906,0.4708780131081142,0.5111032903713787,-8.509866029772159,0.5805715073750837,-2.8971030354617415
1390,-0.6782406044280875,0.48019428413352805,0.5154589627512587,-2.8323776240889287,6.491860290173734,2.649998567668554
1400,-0.6996402199952734,0.4445698454938166,0.4724470074549666,-1.1942312315163472,9.958366159697665,4.540312329490762
1410,-0.6688399756740248,0.48207589267971307,0.49635259765927153,-2.7107968845717543,11.802842895045803,2.4030633397433183
1420,-0.6905687059484313,0.4640107114674608,0.515085095716223,-1.5032086135631904,9.156213288992568,1.4669156472836087
1430,-0.6847088978053926,0.45120100631590754,0.5414528227523165,4.398552668793866,-0.8534183547568159,-1.9256997992259153
1440,-0.716483914763599,0.42494427107171645,0.48750593022606936,9.275563756184754,-1.006488820341857,-3.2106483716887153
1450,-0.6976517135079974,0.4531549514310538,0.5142484669222992,9.939857322269999,-0.04080805034694679,-5.962093928467693
1460,-0.6981607025490234,0.4462450930740142,0.514592625331241,9.891921625190024,-3.663774732984327,-9.329463361442073
1470,-0.668713560409595,0.435300793734094,0.4899794069139556,22.50013846196195,-12.915709105929086,-8.74257253131859
1480,-0.7505984588758051,0.46536348671757055,0.26951050667703197,22.8846361212808,-41.150510364283605,-14.949601778202245
1490,-0.6828371517802228,0.3793851456679239,0.42121596115859317,33.40738287266495,-36.626628575289566,-14.620720987595252
1500,-0.5055194618057536,0.6414484266276255,0.775060008141037,41.853302254070655,-43.178888372053784,3.714170542088439
1510,-0.2790070022968569,0.42025805495382523,0.7089168098733283,3.910938585951046,-38.607419680773404,-14.154230708366336
1520,-0.7425303600640862,0.47760583791082467,0.49380827252807125,10.449805273113656,-29.843181574965442,-18.615588612436003
1530,-0.6901834277300408,0.4766114061332014,0.539829851760565,-2.9635424476690897,-3.2885105827565386,-16.38496291526768
1540,-0.6785573334967074,0.44791834604104364,0.5415490776369194,-1.7682993349872715,-3.347371356620281,-5.732008950521388
1550,-0.6934386937321422,0.3916525952755065,0.5586651218699602,3.425765155867329,-6.297538802823446,-0.04951699020213712
1560,-0.6821033140218352,0.4732754110381193,0.5276379933086529,3.801443653083194,1.5887426946327121,6.171387515758677
1570,-0.6656099128388899,0.4597435509024923,0.556381035831062,-8.607771477996852,-0.27668017457398575,-6.09728478781479
1580,-0.6726486265332295,0.46062132155948504,0.5747356919180531,-4.49566853600032,7.109378998812704,-7.330878213690284
1590,-0.6636352773694613,0.4115930938397687,0.660667137547624,-0.17316896960701061,17.512177456012118,-5.524130161207652
1600,-0.6727776072388341,0.4103756802314041,0.5934207272774071,-14.325699450794293,19.026299527658722,-4.292569446818291
1610,-0.6699801619795326,0.5304887595546572,0.6956712040065959,4.562494470820959,38.19569454086516,-4.307171575225775
1620,-0.6307263798526818,0.47928206630810083,0.6724312102543226,-15.731812130328581,26.70332193617229,-5.632085300242903
1630,-0.6126756788674942,0.34958088443677326,0.3824417850296219,-20.361044185569565,31.836265590522828,-5.331137934559806
1640,-0.6351433109905824,0.4843291664703621,0.48333485777454743,-2.13406609798042,34.24443410805702,10.927028842855563
1650,-0.6808019838689542,0.42558865971084214,0.5542856052190576,-3.2394427232874885,15.21092929480372,6.654433953407713
1660,-0.6797847973244526,0.4182686545254824,0.5337227091282175,2.7719916207886284,9.079089087939312,8.004347000724204
1670,-0.6584123895327743,0.4510353577679474,0.5528471427616601,2.3972422269763816,6.87643148915514,12.738025524510846
1680,-0.6629283699761365,0.4121556370741631,0.6078490529739082,-0.08598899890117351,-1.3057687906400728,17.838536512580465
1690,-0.8160631680551557,0.3668425729860045,0.6588641966078521,26.744642135934445,-26.591314616292717,24.78799638799166
1700,-0.7462696387127555,0.5143878341933813,0.5140097555025476,34.4185541996512,-49.28915944330677,26.008228791494698
1710,-0.5929625110137333,0.5071048698787397,0.40330374061289653,23.76677552678884,-35.187920831609624,21.484034708733546
1720,-0.6067242659094962,0.5207378227362586,0.43457911454023507,-10.585025210200445,-5.421143882864229,3.3077767849895756
1730,-0.634965724912215,0.47074162351049514,0.4638602335841324,-31.525951961602093,21.61040740973089,-9.461214918771715
1740,-0.7012493153659713,0.3458712639803668,0.5256311176872477,-43.33819983032426,25.185704200506827,-22.835558260709096
1750,-0.6944440451975422,0.3324236567570505,0.23263550052395557,-7.5833279297774,-7.216580914618143,-45.283540181214505
1760,-0.6943653489495092,0.33605244400247186,0.49535162570271474,2.4936430592637793,3.9629031311739267,-8.433969018211924
1770,-0.6385718055223656,0.28367820864481824,0.4697953006868766,-4.578909119478868,-2.944794617566161,-10.722063194158252
1780,-0.681219798541149,0.40297730272271826,0.4802304404599186,-2.9757612766785027,-0.42843160150427795,-2.868443122066732
1790,-0.7296008601593249,0.6372626978608856,0.5454920541265551,1.9773877127434394,1.3152619506809102,-12.873500931348334
1800,-0.676782639250757,0.4778479724885304,0.5500811152178978,-0.6973170907079893,0.7942289169722141,-0.5302771088345526
1810,-0.6839765690369103,0.42351512451524503,0.5201145212624599,-4.834654295962606,-1.051136360323183,-8.61778892069147
1820,-0.6779425550154025,0.4366380144982642,0.522129831857343,-0.09901189204135541,2.933123312899083,0.7344542562214305
1830,-0.665258268549474,0.4585710181415942,0.5384464400284863,-6.4232573072421415,-1.7820017153796548,-4.177992469547363
1840,-0.6593960113517634,0.4576636616238492,0.5432206065598437,-3.241869560686976,2.543731997714899,-3.7702411551804196
1850,-0.6900823562516537,0.4183485408949132,0.5125772778174529,-1.3340059117896539,1.4998592720795458,-3.739614244189088
1860,-0.7101132869741853,0.39614962599059106,0.4926398675637292,-1.0343298024069276,-0.7228251792876641,-1.7878635176252577
1870,-0.6925145832564479,0.42057285630301905,0.5101472627524573,-1.148034081180379,-0.7310181469185204,-0.3262986495106989
1880,-0.7152185730475197,0.3953735144565413,0.4825658849151919,0.5056116023305457,1.7677145238587668,0.3121363775410786
1890,-0.7208957404699302,0.3933150115761104,0.48270640113730756,-0.7033862864918569,1.0093351242429929,-0.9943185055538867
1900,-0.6893834992249968,0.42319769497892984,0.5148784851468526,-4.250824954120222,-3.3749163447391535,-5.288940291446894
1910,-0.7037710064016554,0.4074845043774093,0.49521281070414724,0.9153406127302784,1.641904215823209,0.6865549495798174
1920,-0.6826839997311144,0.4258198399486557,0.5158272121460253,-1.1157620364148964,-0.33337965022264726,-1.2166348463757508
1930,-0.6835036360120912,0.4296191775955147,0.5169824782411024,-3.1221728802279185,-2.0308818174352936,-3.9516132857220585
1940,-0.675751899703281,0.4331023483389266,0.5218746820944881,2.061020047779544,2.9740646152872223,0.6972196876496917
1950,-0.6739475036809784,0.43656591419357055,0.5249745131037346,0.5784913649536824,0.9846312234976536,-0.40124616349175946
1960,-0.6714650034265057,0.437917660724959,0.5275373729279924,-0.7052320637069331,0.6123075033737171,-0.9545391471895417
1970,-0.6764365003938263,0.43392758074941157,0.5265771421908495,-0.15082948733630253,0.6893989267967284,-0.28222752470279144
1980,-0.6661952422246981,0.4439968312325453,0.5375461341563541,-0.8002639655536724,-1.6679210975912284,-1.7980775198330494
1990,-0.6843476100565825,0.4295478913880636,0.5215320716440682,2.3925073269595747,1.0065457885746363,0.1614735962033364
2000,-0.6777467700323037,0.43530574355384566,0.524024044019913,3.177419623572151,2.6808149670944132,1.3821786170834023
2010,-0.7181538615017367,0.3893704438533618,0.4800336403181004,-1.4238424124104807,-0.014231191118253328,-2.273895026172052
2020,-0.7045590862283151,0.4011782042998322,0.4932327735351426,-2.692048122745838,-1.527007222675591,-3.160908945665481
2030,-0.7025050075341802,0.39900102929346526,0.49105409371178194,2.4926070068811894,2.1739557841089807,1.7287528085617496
2040,-0.6817483995580014,0.4221195356422261,0.516924047431223,-2.025990640060569,-2.039924695736817,-2.311130465740597
2050,-0.6730759272342319,0.43667207984886125,0.5301008489171377,-1.4041614443120949,-1.2396638411635847,-1.916731213251007
2060,-0.6865631340297809,0.4287281286552854,0.5222072234413506,-2.2851189540338694,-1.7876115824261405,-3.0328739068719983
2070,-0.6866419751616736,0.4235963125425446,0.5166166574019547,2.665869025151259,2.656945527370138,2.767576359913676
2080,-0.6769850830325821,0.4325680770413545,0.5269562983957298,1.0990942701292794,0.6431334010708547,1.7412829157503131
2090,-0.6642976215662224,0.4466881355390964,0.5383293073927773,-2.662986396209411,-1.892197543935542,-1.5259261210641695
2100,-0.6992524667536877,0.40849150163578013,0.500631030696184,-0.1718280068588951,1.6282413265025426,0.4032458839721331
2110,-0.66246190073544,0.44248564510856336,0.5407757385880086,-1.8991600805384494,-0.16089636407820498,-1.80293111916929
2120,-0.6760720620782521,0.43015968767655427,0.5275046752987049,1.433353225662308,1.292442793496669,1.5517070922535963
2130,-0.6925283174038092,0.41882928349459975,0.5115176661142815,-0.5250377525810996,-0.5910947263229436,-0.7138192280628006
2140,-0.6741119126275229,0.4336965560156586,0.5311446168927954,-1.6715513430823101,-1.5075996316644198,-1.2006568018627943
2150,-0.6815331413490718,0.42771903366453157,0.5197759145247756,-0.21993309061781263,0.2983301619256298,-0.27829912046288036
2160,-0.6981117242704076,0.40805355420047135,0.500201562651376,1.8993877601335987,3.129611966178702,1.8929804069992713
2170,-0.6952003798085826,0.4128891914230738,0.5127648538922898,-0.5484953581869584,0.7463189038605094,-0.09262746252348197
2180,-0.6976292265870039,0.4059882468384505,0.5052662583692599,-1.639130765399662,-1.289149246490693,-2.0210678884605637
