time_ms,ax,ay,az,gx,gy,gz
0,-0.8878472820230335,0.35597984193992765,0.5171022945307538,-0.13241851172170294,-0.7938528656241863,0.29094828098783654
10,-0.8636241047779266,0.3919827119274552,0.5535083646322732,-0.7838093747315795,-2.040360294062308,-0.273079329268088
20,-0.905336014967202,0.3634492013514354,0.5115473986095146,1.8426616833337055,1.150239415832013,2.6674286157669895
30,-0.8592254201643587,0.4018097593875359,0.5578583318953961,-1.0445264603399507,-0.2974395004949133,-1.8665687293939746
40,-0.9005717242335688,0.35346873613638347,0.5152998932624236,-1.6112872642484515,-0.49907538431906684,-3.8091758938885967
50,-0.8851836241735693,0.3675444774611311,0.5283147960614452,-0.2891054371284947,0.483691532295492,-2.6546314805192286
60,-0.8724316459983756,0.3770859791537911,0.5358422770879426,2.804397366268417,2.498845992541456,0.7046479121665401
70,-0.8888945070203813,0.3596490849753816,0.5189723613106622,2.3235281989085474,0.1528575982490053,0.2207314355643768
80,-0.8928586070932226,0.36260471448467735,0.5214309972983013,4.691352776245747,1.4993732220530818,2.4853395212142253
90,-0.8967928940516208,0.36244896800356285,0.5141798155600409,3.261843262568217,1.845090861766407,1.6799668854766914
100,-0.8874483715164678,0.374848777612553,0.5209009201506698,-3.371396144353593,-2.3266048465942943,-2.375721040180647
110,-0.8717153874283388,0.3819597405274884,0.528523128507214,-2.2451857927090684,-2.5453891847278785,-1.0687856428376188
120,-0.8893215525269453,0.373203680648278,0.5275282867896364,-2.8225344853896575,-3.931086542172759,-2.3229750277745245
130,-0.883758215947923,0.37210883964647323,0.5256315718118347,-1.2696843767168284,-1.3228091176488856,-1.0585703902608332
140,-0.8878122389236224,0.36447561944966245,0.5247492746415409,-0.7280790772054115,-0.8105711811380265,-0.5028769422982324
150,-0.8939094946488145,0.3580711627031764,0.5165830469974356,0.6524604054516242,0.159054520853951,0.44829020984551665
160,-0.9110924907426344,0.3486420169009122,0.5028717970048053,2.255424120784898,1.1573136717632893,2.152228493241009
170,-0.8878371127306317,0.3765643804818708,0.5292306865973009,3.3354566574502913,2.130841826997327,3.062398495366735
180,-0.8765668743830111,0.384445565682527,0.5358823174540832,1.260498689664067,0.16436395215666902,-0.06472421976451115
190,-0.878396678214535,0.3811194660385581,0.5310844308578643,1.586556806983477,0.5107028111459926,-0.3279471242696866
200,-0.8916290415568718,0.36914876320459056,0.5214290966519527,1.3595035376835076,1.34068190018438,0.285184122326606
210,-0.8736895314558615,0.38056108273926714,0.5374504050309964,-0.05985272375130267,0.23824680404132553,-0.5269771853538446
220,-0.8856339539157602,0.3752553686257673,0.5298974020971804,0.16172057788715588,-0.76120099798978,-0.1771615962945799
230,-0.9146228045036706,0.343829672428689,0.5059963228113786,-1.0551939312287943,-1.9367490540071086,-1.7607992800685917
240,-0.8576259850500726,0.3967889868532256,0.5563275794223344,-0.7700128228558533,-1.2418687098419208,-1.8045007429129787
250,-0.8731443358490126,0.3844034623648338,0.5410323024284611,0.8707040354846255,1.8402025051547266,0.5557084571743726
260,-0.9023073590023007,0.36025189065060026,0.512290502302707,-2.1743339904596795,-1.3945837500144078,-2.2221361199262786
270,-0.8810270678446179,0.385138704526634,0.5383529597618786,0.779047728494962,0.7192217591046166,0.424345690894255
280,-0.8856059189915335,0.38141404712651444,0.5363914792418543,-0.23339379250301576,-1.1496626660651794,-1.2561470423325622
290,-0.8926914633198517,0.36874969845193917,0.5240609991076288,0.3384753389846007,-0.9612933229912646,-1.2538060939578388
300,-0.874490399526255,0.3796612585835278,0.5372957999864557,1.02920140695179,0.532066980274789,-0.2612995000550148
310,-0.8664704516282874,0.39086745808166007,0.5475780113347144,0.7338830939899823,1.4826641628068011,0.6842805536831811
320,-0.8855025252070192,0.36883321924385765,0.5258109085399868,0.6020409248857932,1.5769674015739903,1.3402921862015846
330,-0.8862067162388968,0.37188036425625187,0.5255270565646885,-0.22168219503397862,0.7118494283850564,1.233293318599927
340,-0.901561124974054,0.3470980485482779,0.5129618551789078,-1.088422318417634,-0.9908797099709186,1.5112612086243735
350,-0.9060832224317222,0.3548605566229663,0.5185941677293024,4.511789131973323,1.110156709133709,8.991589033986529
360,-0.9232955115194637,0.4751349665363642,0.541446072242734,-17.250977873853575,-3.488755213818493,5.287300582295329
370,-0.9877165499463576,0.7346969240617717,0.2783044943170278,-18.6686435242042,13.313272825097865,10.261820007211982
380,-1.297800744119586,0.6041624314806974,0.6249253164138616,-33.89467794342191,12.144233413101926,22.24026816929844
390,-1.3056429385936992,0.3792103449426174,0.7600579631173878,-33.63018469267634,-29.18916441835328,30.553263442099407
400,-0.8250653218252061,0.4182477908089403,0.4191487335876379,-14.032744337593948,-55.06645756586933,34.25158950988933
410,-0.5740427354266647,0.40615763193116966,0.2945907204360718,-13.883127168957795,-34.1311600199492,34.06157409067088
420,-0.5828622791882652,0.46769368753991375,0.33469092587727856,-2.6131170912921773,-6.285849297382239,42.44606266666234
430,-0.6719993176997806,0.5363766434767846,0.478027644691085,-25.979756395124088,48.178508053131225,47.624426030950815
440,-0.6984643612577957,0.4782179160853788,0.5884852377517072,-37.751999139293716,57.999882105130446,36.57706464854562
450,-0.8135526575832164,0.3449864603179605,0.5908278418229307,-48.23591006864663,61.98706833817915,20.293795979797714
460,-2.0467785727003305,-0.7623413420627113,1.900512693414047,-97.05692969041777,35.39743506109579,-49.00444541955501
470,-1.3253645554077151,0.009593456526137193,1.0666560836790353,-39.75621338120642,16.694869147360365,-32.13632410796121
480,-0.9362570764854606,0.3062816309675702,0.50415418756937,-2.6614788130001044,13.572464755060698,-13.132086966371629
490,-0.8194295741823294,0.23513559360639674,0.6617045794307349,-8.467084358996328,-4.600719391351662,-14.142650802057524
500,-0.698751498010123,0.3411850916875355,1.104057108967469,-18.50354160341373,-25.288823568035767,-16.975340435456026
510,-0.8624759787772827,0.3428527336691558,1.153430350076806,-8.6976642252799,-36.82738800577442,-24.80755160102592
520,-0.8545597864564217,-0.029746736389652195,0.7743796875011704,-8.261861528013103,-53.816815373763646,-49.982294686805
530,-0.34903356567017535,-0.3148715259302652,0.6085223839752802,-32.865120312317295,-61.435342902962766,-59.042823352399495
540,-1.6629880845216984,0.4040994211328735,0.06044894696636722,-4.227725820078209,-68.00522679975259,-54.5198827453414
550,-1.4534692876525188,-0.17064267961487758,0.5703783943948451,25.28115819327203,-48.66658944134681,-76.820390239432
560,-0.9910721052136694,0.8386242860889154,0.7217924222283538,27.035846796529857,-38.37484390697898,-3.6807131731897162
570,-1.0839701330298284,0.9952555653301642,0.6398160557643213,36.07348435494171,-32.65917004070674,-3.7316177263012777
580,-1.33324024946265,0.829569737431722,0.799903796806318,34.667448579984594,-25.630665232483892,-7.714957211420853
590,-1.0251337351935446,0.48388405486808567,0.6578912470828018,20.343077000275002,-18.29793458944907,6.61540766000534
600,-0.8617023651231166,0.47428085726973795,0.49540239177509154,18.276472121754495,-10.84765357613664,14.282789595644674
610,-1.0025240061874912,0.47270865479951135,0.3613401300586292,22.015238490299275,-8.641293112016951,9.629007154849628
620,-0.9512758078448903,0.4347831703196154,0.4362248984555009,11.156752966108327,-7.3235148290084595,-0.6300017310465029
630,-0.9227668180117435,0.38767938348267084,0.5095532910683739,-13.804011519549533,-1.2211338137377548,-17.488840609453213
640,-0.8956661825015793,0.4302163862728894,0.5482981279293142,-24.61202687337124,15.369351602797208,-26.386055674557205
650,-0.9576591667205241,0.3825700612129098,0.6234313075881609,-20.56752210390857,43.366143654178835,-24.161450775691844
660,-0.9779573860416052,0.6242265176930476,-0.003526283842758004,18.788575971567088,52.70356191599357,-9.432284982067642
670,-0.8793121549680158,0.140629851414856,0.2122877132919397,-16.945241227280345,57.04454244901617,-13.859109404540323
680,-0.9231386775814789,0.3455867463602957,0.927807995766506,26.158213509065895,63.77100785583212,7.805400238272027
690,-0.9821973235145752,0.3036770076146908,1.5980639541540682,37.16571195804513,71.94364534089488,8.257994011807188
700,-0.9651382256318283,0.3194496736410165,1.106352481941274,41.43077225342053,70.51880128398975,14.33554997939002
710,-0.8663006280805494,0.3401873454735989,0.6264638396481212,19.987710627260906,56.06153265389664,6.658700669242717
720,-0.8497812154056875,0.36225206134136134,0.6765402370933701,-4.090224939930932,55.83722264043661,-2.4576950714554697
730,-0.788914708658737,0.15050452090021404,0.8877297360468922,-11.939029814390704,55.85063073611918,-4.839580380661777
740,-0.6544466992746489,-0.040644435276044326,0.5439541250843655,11.183790806983192,44.53798588402792,5.882917717104395
750,-0.6443531968201659,0.7799839070485283,-0.24019724856705768,52.455434908447224,40.24237753061556,25.76124217242293
760,-0.9086911965452812,0.35172635931435875,0.45721534278017073,-0.8036720744635807,2.229815610189497,7.668362853791883
770,-0.9145975045724846,0.3498750515745097,0.4463157736580994,-2.170535643595536,5.566823031426523,10.748545729778597
780,-0.9118346541385997,0.3914784875177398,0.4403365962836254,-7.228079502465388,5.91842228884378,9.169385692523822
790,-0.8896128265194917,0.41925947769384203,0.4524065254074758,-8.392942089622561,7.115078930796624,7.845531334825494
800,-0.9219521359447027,0.37684487715735443,0.4058029839118969,-8.775960729307412,4.453769119879704,4.754761278397712
810,-0.8929738302726064,0.41098401718136957,0.4392806688346561,-10.42898051513216,-1.6110943857697282,-0.40938962658485023
820,-0.9229194559337658,0.3656923143277253,0.4232635492391634,-3.2399456731253364,-0.14125952240672812,4.634521621617205
830,-0.9075433380518516,0.3279904799101945,0.5669015263767995,-7.716538558106571,-1.6098243940717623,4.478989529301746
840,-0.9601837697294612,0.30803492655975534,0.5427961681132529,-23.63606404101418,-20.430612556456573,-6.07380228916063
850,-1.0367046908626267,0.4497444842575732,0.3918875532479499,-30.142001239010757,-46.07645312423843,-10.420425795528278
860,-1.050857124828222,0.6598161524988909,0.7273469353274872,-26.201319769427926,-45.98042275242787,4.482110055059872
870,-1.1705395765963402,0.5088307327981169,0.5869751778645216,-42.349571220874644,-65.59500007165019,0.922403079244893
880,-0.9831269424604197,0.5534335925686062,0.40211562296617803,-39.073601391271865,-61.13327083184277,3.7319963601642185
890,-0.6920847827350415,0.47561024163358645,0.37969522311734444,-56.687319646955665,-29.656966759161712,-7.373173826169987
900,-0.6944570107040777,0.48694284587221515,0.4142419323222734,-53.317140703428535,-10.799548716459457,4.19490871501612
910,-0.7479224257766857,0.4076715341644758,0.33965160513057113,-49.32027157708575,-0.2234418450129037,14.95854097634308
920,-0.7153465855604882,0.37938607999006996,0.3386897756776648,-50.11474607525123,16.245302702123904,19.794238380910844
930,-1.4622538376668077,-0.01432102932495146,-0.10740814532766466,-83.04988036149027,0.05441363951561212,-19.987748868940773
940,-1.5467876708689066,0.025517059457852098,-0.06866416861719518,-62.64560014576197,-11.147934070390884,-33.135029514465906
950,-0.9261790605078531,0.36360243144250104,0.4048054496183889,4.247931674524111,0.4828725099820993,0.8694702673239219
960,-0.9072112780757278,0.2809404979956936,0.4576356069735333,23.94259147433956,-1.1624618002919758,16.504967898770285
970,-0.8597555015487667,0.22943444553218803,0.48650879548222936,29.596346146467763,-7.508339605563774,18.45656187934129
980,-0.8170612719999701,-0.04494583646252732,0.4032032885490665,30.918355900194644,-7.366757901016863,17.57892080740459
990,-0.8041387174750061,-0.08165373075966924,0.4598194593274644,46.41445493887568,-19.17724935263321,26.705571073102128
1000,-0.9091451407338554,0.00193849385862023,0.8004989102800346,37.45971906216481,-21.34381515869415,-24.479913838893037
1010,-0.949972549811599,0.6507329752356308,0.35439185045145827,23.99362571482295,-11.816322569070408,-13.183099955099934
1020,-0.6343140372122253,-0.005840673297813025,0.09826295513963537,-2.4548026974427555,-10.116635931413093,-4.250564891447988
1030,-1.3345997923026254,1.0328799448801502,0.8991802462579788,51.75179143791779,-12.177793803292037,-8.835275465554476
1040,-1.346186198160184,1.1493516752697055,0.9421564265404353,35.93451069425361,-3.5844727999833585,5.035817389217885
1050,-0.9338486329645999,0.4897555134317273,0.5381687487049424,-0.056855357166112806,2.392625960217921,10.546202278648503
1060,-0.8957392408776601,0.37842907236481615,0.5082432419315785,9.076035247387258,4.461333284177696,0.2375282549433464
1070,-0.9098597800908658,0.4005878796569625,0.5015676111848868,3.3034923384061647,6.554412285801053,-5.717325316679339
1080,-0.8875594955090881,0.3701052059684693,0.509295580257675,-1.03673425890104,2.0070296228506677,-10.187101037353903
1090,-0.8907578979849475,0.34472735284158024,0.5020348999215707,4.040679252709817,-1.8659828352260828,1.9214339717546933
1100,-0.9024960031165624,0.3407988818083248,0.490358176832205,4.528379575441262,-0.02836421016752899,6.044033455349911
1110,-0.8601283985838271,0.4017477129332849,0.5357501076016871,-5.067316919740433,-2.531213894519513,-0.4063577853787247
1120,-0.9087008838188709,0.33808449290499787,0.4930249615390476,-6.604044694582541,1.0702235853293978,-2.0646934586804977
1130,-0.9049850379320216,0.33490815701159704,0.4976775819150208,-4.682979387289377,2.1844815825369954,-2.511916169162123
1140,-0.8800313940058774,0.3623266502997264,0.5209803210904949,-4.173916642455103,2.1157630520033646,-3.847908160835907
1150,-0.8631964562033535,0.37193281820299956,0.5347533929348297,2.350978424103277,3.114645304958019,1.449777625617617
1160,-0.8788103175303638,0.35267527928812237,0.5163848155248403,3.668956326203357,-0.22315722818566497,2.5197641889731215
1170,-0.9100197896139729,0.32807162426412934,0.4816100454726934,3.879308815301165,1.0470155577959224,3.950953039546979
1180,-0.8553953312846615,0.38422614117268866,0.5320578306161927,0.5469701080585502,-0.4580818966621151,1.7239052168368958
1190,-0.9045012237993524,0.3313786005568535,0.48487056114213045,0.20543007511247557,-0.9634724488496392,0.2518439412512834
1200,-0.8791404157614724,0.3572504966550597,0.5170522211802965,0.89266061990578,-0.4089985669126939,0.6713809375690861
1210,-0.8944585409405704,0.34807931934601577,0.4951054119763626,-5.356518942964118,-5.438380582794519,-5.09686831911477
1220,-0.8795462195250208,0.355413764035452,0.5038107102309267,1.969629439353064,-1.9197724333298303,0.756767988568722
1230,-0.8850323316491175,0.36610037803251677,0.5175596368686405,3.4192074251924978,-1.3803039368268484,2.692709336253084
1240,-0.8888881598592691,0.36079710493706346,0.5131178619702419,-0.5056389607778545,-1.4904428184356031,1.1626912131844047
1250,-0.8979768388675095,0.34708717650644283,0.49375742005991863,-2.5141645740670726,-0.6717920329538848,0.16166484044925689
1260,-0.8892653051772829,0.3505048451454638,0.5011478102748129,-4.606236096902876,-1.5496142921062506,-2.534662609456186
1270,-0.892405222259679,0.340824456642768,0.49931496754090926,-4.244199699818921,-1.9406791965697872,-4.069899785357892
1280,-0.8837973196253095,0.3489029992503648,0.5064657939377213,-2.2351507903016756,-2.615970022364001,-3.5691550137308132
1290,-0.8849419053704966,0.3540214240076046,0.5064863437553034,-0.019152997389433768,-1.9447810168232602,-1.1098613892367024
1300,-0.8785041605082803,0.35986616412727546,0.5129266331261375,-2.6568058466544096,-1.8909810729357819,-3.3515113993201195
1310,-0.9104007971261083,0.3239831418765107,0.4773409100052698,-3.800684146191675,-0.3797702528809412,-4.077566320491556
1320,-0.8839966924206978,0.34333855950878545,0.5116782533518711,-3.0457431978643505,1.676878262576822,-2.775563583689078
1330,-0.9086623100160516,0.31767929349886154,0.4830888103906344,-3.1770677700911003,-0.31773200087958564,-2.483759535160554
1340,-0.8818532065838175,0.34660565470715593,0.5128989760146784,-2.3857890309517673,-1.5243590784167584,-1.5600691563486535
1350,-0.8520253287534294,0.38159352155774784,0.540981785876375,-3.6955207483214245,-0.8778460427970024,-2.049681938951454
1360,-0.886819782493378,0.3423686945997887,0.5026680500525083,-3.91419419545472,1.4275565890438002,-2.3447562003187024
1370,-0.872433368994128,0.35390876695979995,0.5183587207713516,-7.864635349381589,-1.0531317290433715,-6.343633394368293
1380,-0.9063397110735142,0.3117192329955482,0.4810984233606072,-4.0318353951979935,0.9872807124439616,-2.107994283740318
1390,-0.8666836483913049,0.347472302273153,0.5191200710057039,-4.278260496437587,-4.116234978566769,-2.683031045329721
1400,-0.8884497792942518,0.3381149284859935,0.5065284346777641,-0.376723447116345,-4.442308540315107,-0.005863243093815473
1410,-0.8966233020799987,0.3331684395798239,0.49878650294653765,2.9476463512641864,-0.27793411834084414,2.6722830717399635
1420,-0.9013125741401908,0.33530854745424243,0.49501448372452106,-5.70965054170206,-0.1283613558433534,-7.643925297972961
1430,-0.8791882597147662,0.357878823864951,0.5221141320609122,-3.9059689706537295,1.0321536227619768,-4.750588858427632
1440,-0.9044088355260307,0.32281381057407205,0.48906127167551117,-2.928861977888058,-1.2350145330458862,-2.572561551964408
1450,-0.8811945485623436,0.3442624911947305,0.5071605578308455,1.406877705752943,0.031032105162218215,2.507734177776402
1460,-0.8746818767837257,0.34303907143926804,0.5039099298836799,2.9794561815745135,-0.0214580656728125,3.9949216110982304
1470,-0.9100182908631331,0.32288965728201885,0.4734112233800427,1.0520126907623621,-0.9093173465998515,1.748776729370273
1480,-0.8954072722894532,0.3444182061859194,0.4972362094081161,-1.0202427879286926,0.1325623792852625,-1.7902192633590852
1490,-0.8878061617361495,0.34385818772684335,0.5067934909823179,-4.702362108078631,-0.4153328265841569,-6.142618006546247
1500,-0.8749172763060866,0.34672195342975465,0.5131888651007159,-7.1120870388027075,-0.7508548239018003,-8.192018827841716
1510,-0.8801391876536732,0.3323723658680587,0.4996136156403321,-5.530844949009767,1.6902704967670201,-6.837159009116061
1520,-0.88712198516534,0.3154698559668177,0.4912051186318444,-5.147278828664047,0.09814900219611378,-6.336272752568471
1530,-0.8714010869365952,0.3231828550961524,0.5123382290946545,2.035827879753313,0.6135078430338861,0.7093818434050563
1540,-0.8631219506953434,0.3611906581587809,0.5347103720344625,3.9066932406787416,-1.4021682931412782,4.040547935305061
1550,-0.9171825857265944,0.312637901036706,0.4742574110847472,-1.5285898720493962,0.4735655631836124,-0.7787475222471318
1560,-0.8790756003509665,0.34330599909070086,0.5078993597777286,1.2371366526565595,2.623017897896989,0.4788404956450887
1570,-0.8597010672677833,0.36091556139248965,0.5269102764463306,-2.0228778148985977,-0.35261545016826046,-2.881379376781946
1580,-0.8842360720762903,0.3357944929141946,0.4985311685974219,-2.8240216800979567,-1.497713131052804,-2.749417648269883
1590,-0.8731534212700474,0.3416447900560722,0.5025039595205631,-2.0881805635672652,-2.487779975651019,-1.4027116975351828
1600,-0.8721947283716107,0.3437932533805122,0.5080815490477725,1.4754750722038636,-1.6767359740288936,1.756167782503213
1610,-0.8859228580232908,0.3340635367016647,0.5038868213929727,3.2853603874195056,0.613764503990729,2.2135403826557436
1620,-0.8891495799629769,0.3265752480058742,0.498696906257209,0.8582869016261985,1.8182391127642452,-1.3347769309548454
1630,-0.923759757709131,0.29374256442106894,0.46394719379439586,0.3712498499802783,-0.053762216934287954,-1.0476859149577824
1640,-0.8735023507517604,0.35448282003828047,0.5195791328248353,1.0716488589456454,0.8571346559504415,1.2641715214168359
1650,-0.8884992152160297,0.3410881804167059,0.5008539072689784,-0.32327526297939935,-0.015658252006762075,1.1258147686367068
1660,-0.8797236284019571,0.3363351796758179,0.5084220932884775,0.6308839452980732,-0.5027968304239945,0.7284540070080174
1670,-0.8669232483497917,0.3514663851751258,0.512869432624608,1.370916809702039,-0.0871328453073217,0.4671819305177521
1680,-0.8802726937647091,0.3426700936160296,0.5135534293608687,0.8609741822575567,-1.2628024171925185,-0.4322371171164887
1690,-0.8818954408932127,0.34427848987060977,0.5157890526904454,1.9881904518256872,-0.8404315530979175,1.221206725497256
1700,-0.8814787877119972,0.3470873526998596,0.5065248712708146,2.5360157012147875,0.5180841697950163,2.464795166310884
1710,-0.8788874513038525,0.3443435545077569,0.5003211831049361,0.5453091368177532,0.7201948365649962,0.7581651227375138
1720,-0.9012557034115191,0.31464869745029683,0.48083258394715983,-2.921593111040237,-1.265773198127054,-3.2651797269472063
1730,-0.8718758796317961,0.34403460372569217,0.5147510615660935,1.1094048892062736,2.25124346606815,-0.3694884204263438
1740,-0.8639901541737415,0.35123959709677266,0.5140915783326635,2.2371645997367873,2.11212227813758,0.749186089719399
1750,-0.8962117735133264,0.324574010788836,0.4920274835268023,0.32269101588549254,-0.6855973460207332,0.9691850478942536
1760,-0.8759542211189725,0.34320595548573574,0.5041116389283212,-2.238121147105038,-1.8243589172142542,-1.7326932575856753
1770,-0.8738010891095119,0.34279187533947025,0.5098614456470556,1.7691136813029695,1.2582455749780206,1.5291052062798418
1780,-0.8978258899991273,0.32265785068972797,0.4988812078836115,1.4119747848025397,-1.317035306206503,0.333403236560143
1790,-0.8884045033596447,0.3308320454630454,0.49887908540873876,2.8393565460676298,1.7446384318839816,1.8293815212200841
1800,-0.8999273646010278,0.3136273238697341,0.48125112167214457,3.2566313325073386,2.856584792876761,2.3989050061896595
1810,-0.8516367279654803,0.36609940670688706,0.5282042572995295,2.9631905621608325,2.6413234434405495,2.5037956106953563
1820,-0.891562924380213,0.33003201265169696,0.4905268087076369,-1.8652910296705683,-2.267979531989197,-2.318425129629489
1830,-0.8847147718498484,0.33183761479238477,0.501271441434567,3.9174394194069473,2.9953027259803937,3.1987849431137683
1840,-0.8898509073514509,0.3269637587959053,0.4996588095808175,4.588322261437371,3.3215331128609606,4.226249013417726
1850,-0.8877037489566112,0.34179328237518425,0.5067403750192395,3.075229816375281,2.591986841117738,3.4099993568395925
1860,-0.8906312068067922,0.3349692434384268,0.49754892352227437,0.8751843000477099,1.9852216238996527,1.7618175904181168
1870,-0.8872081595785809,0.32921902751593657,0.4866975441279933,-2.986416049751413,-1.7013345988218025,-3.9190925552361278
1880,-0.8648728711909633,0.35956087172566714,0.5325947859372718,2.9589992871971367,0.12138829472187906,-0.29948639311948866
1890,-0.8869360213982865,0.33959243197511685,0.5080202007831013,5.000955119481901,1.9560062697430063,3.29618345330249
1900,-0.9058058095482295,0.3208431603074501,0.4864547075981677,0.32751549820838166,-1.8550851810939015,0.3327156142873977
1910,-0.8838556685222402,0.34101791868181547,0.49778338147712536,0.1275056208605243,-1.070366183068879,0.5292699951270143
1920,-0.8952410066402201,0.32647234283829973,0.48774882866861213,-0.0219981719145233,0.2557139950480075,0.011450725831278707
1930,-0.896966436632627,0.3241913006122558,0.4907764188311596,0.706862068298934,1.3375164008358449,0.11443563367270237
1940,-0.8726084565406967,0.35039480815155133,0.5147199254504544,2.8745303308917505,2.7494101032542795,2.0796662447460585
1950,-0.9132709431696893,0.30998866820023685,0.4753088314561184,0.0072933003776851635,-0.48966310528764373,-0.3745402268596243
1960,-0.8943314760930429,0.327860728529458,0.49248099092964487,-0.16790674188246602,-0.9737138701264203,-0.25686820369275376
1970,-0.9051790881291615,0.31660196211244185,0.4796343147724966,0.3369700183196542,0.6164446972275066,1.6111058056280418
1980,-0.8602103720440365,0.36680030373180067,0.5334983073009292,-0.8419117819137221,-1.2391171588834962,1.087123849114138
