time_ms,ax,ay,az,gx,gy,gz
0,-0.7744465776482699,0.37469330559960523,0.29671728158190386,1.0335599191075433,1.1995104402572996,-0.46182311674464893
10,-0.7729624964875369,0.37115337297326545,0.2901944286760256,-0.7797450154933735,0.0015050073071120147,-3.4067511326263746
20,-0.759617952604901,0.3798327658643524,0.3051383971022988,-2.2052830444170195,-0.6561103836693393,-3.8965591596256077
30,-0.7614977466004246,0.378109285487747,0.30360000385344504,-0.8755739165159733,-0.4859127811596974,-1.8508378623728756
40,-0.7633217762445003,0.3829759343114088,0.3031457945877808,0.9366282172763333,0.7758508634240009,-0.4802259491197485
50,-0.7534840454556931,0.3865925251761222,0.31300210061406936,-1.6036634362731739,-1.5638120068737202,-3.089953842514271
60,-0.7498533643854314,0.3854948434817103,0.31572429355192777,2.3440048900681107,2.0201217574354184,1.56241463463915
70,-0.744540647504392,0.3962923849571056,0.31876953464423985,-1.8885686779056625,-2.7061888825327087,-0.2692192687725288
80,-0.7439209362208742,0.39012630218563316,0.316631769741146,0.030891582642972093,-1.8893204021166776,0.8901986592094524
90,-0.7594987610764021,0.37852952290769193,0.30483276964316675,1.6304791102854619,-0.5782916796219051,-4.252669171609569
100,-0.7478587595421223,0.3900422294589868,0.3204984972999817,-0.13820957628879757,-1.8478231822759978,-5.762020155613424
110,-0.7508406373704378,0.3830432516040064,0.31673041559879694,-0.8694681130903253,-1.9221018239552816,-3.986917280289088
120,-0.775982661788629,0.3574813142996928,0.2947600238343228,-4.4923280476847145,-4.641165847832346,-4.366661667454526
130,-0.7534964750235793,0.37849965744479636,0.3115142066233422,-1.8560267127265773,-3.8067632263379263,0.9508437410682997
140,-0.7485744488898436,0.398924497236942,0.3097221358986652,14.946458771671047,-9.31985460373953,18.19925724235447
150,-0.7825422859718654,0.3839082792072128,0.33021829120763513,11.059540546165305,-10.033485773827826,12.32684547068552
160,-0.91897393786067,0.34384918109561996,0.3681105520289406,4.413110759578429,-21.77538653325215,-5.429951078090312
170,-0.9172252183448841,0.3169974172429782,0.37507954405685323,14.248062400759753,-47.9292015535795,-20.46447659322959
180,-0.7454761129602757,0.24196290651625219,0.38715517281041095,23.554338314477896,-53.85112186540849,-11.436434522003347
190,-0.5836543447047714,0.39508506702656276,0.3137135647278142,22.33395004549166,-21.914799648264843,-32.32961756003737
200,-0.55657420739531,0.44288973797325737,0.28755013598396917,25.731966431087038,4.612652412789285,-20.17078671675007
210,-0.5642500503085621,0.5043499010121844,0.3653157547572581,29.761604534610626,28.401820153500825,3.6447075055198357
220,-0.7514276182602859,0.4261495601169606,0.3710098314466163,18.83921626805241,33.84225954648695,-1.8398053305326671
230,-0.8836163063718755,0.48357467028994433,0.47000853801766923,8.19295228250679,24.900230470880643,-14.126277692091112
240,-0.8421891490652745,0.47902868754769967,0.3587216539593169,-4.05316427218976,9.989969646279675,-17.701116676904192
250,-0.7828428809730046,0.36892193943768115,0.25281435561091226,-12.508468106932781,9.299601443255838,-12.381501171368713
260,-0.7904997648864526,0.37445405731361253,0.24329547426745654,-29.32695444151845,9.527870534130743,-10.352222852231746
270,-0.7984360905380882,0.4492008339239851,0.3332739256167499,-34.20575618817763,31.974996843655454,5.010820049606677
280,-0.7865147725147557,0.4349291058433843,-0.011405726102666141,-17.574208612501543,61.74063539726695,24.684359578981244
290,-0.6736935529426205,0.7364771921844433,-0.5240695028610296,33.77036935623097,80.25957658636052,43.79242144373522
300,-0.7789137964895652,0.36873367812631175,0.40336566392105727,29.58759072831568,65.44877787240566,0.9794863692721987
310,-0.7168323209241666,0.14655688525900215,0.5800093180467061,-31.32679400613853,34.34108390537638,-13.067883738031341
320,-0.7649982335570075,0.13364944036997659,0.994881617882801,-28.710705369892356,28.94684345859223,-15.56737443553341
330,-0.6934149317727022,0.2974491028265115,0.7236181445943823,2.7930994620637977,37.55836191487236,11.311472849704485
340,-0.7001011410827082,0.2299125462142901,0.3948029745306369,4.827542693849327,14.656288411585106,2.6614125120744228
350,-0.7549469866726045,0.3183939079842028,0.27345925347127326,28.902655641464786,0.19967583890310836,41.56025516067361
360,-0.758518046486522,0.29198125345859655,0.392776941103166,34.66155400993906,-8.539077685429572,47.76472756599878
370,-0.7808255425135336,0.15962502986422356,0.7377710209035246,18.77425627882235,-78.7488488048829,-1.986851557214338
380,-0.7765965125194789,0.2853109161551768,0.27441286554389505,0.8694675704920865,-97.46792183868416,-22.508812381031433
390,-0.9982548164646137,0.5444380071133486,-0.19905772016871953,7.466309173438961,-92.9627526238862,-8.548133696869783
400,-1.1661771678934272,0.6271163632378921,-0.12117048895599392,21.44116938978812,-49.8106495900696,-12.175046416312846
410,-0.6766998159561712,0.3967851151633972,0.1309077473627829,40.17246479326468,-44.273849030887895,-14.788331731698204
420,-0.13486616716873595,0.3889324627871746,0.2526718500458311,-43.39074217152693,-24.12144113446026,-23.30621038496909
430,-0.884521060628405,0.4054846165076907,0.1954453960751152,15.505459410776613,-17.449343540810883,2.703856009677266
440,-0.9862251823797443,0.5997551984582421,0.2543836420271108,30.94585962916164,-13.377772644988582,5.5492214215760765
450,-0.8393134768378931,0.5739249789840155,0.23464776837328755,0.8725733948401297,-0.17280043817572466,-11.255785522944675
460,-0.7716920428697516,0.4062711645242054,0.23550519494881736,-19.20364353295394,14.375156920687568,-19.083699233751865
470,-0.7449582171687763,0.44421128075103505,0.30289135478110873,-3.2576402838054506,32.817954446506015,-10.30762599703823
480,-0.769313579960978,0.2708708495956461,0.20023867123303618,-16.949496673579286,29.993582543447534,-8.776209277298477
490,-0.6647765488256648,0.729360628594123,-0.14166291010867338,19.616076353682796,83.04729940324036,32.93361805279896
500,-0.662787759697539,-0.04622991704628619,0.3049681076405684,18.529900576333254,63.494873588780145,7.286032508990551
510,-0.7205324638117344,0.25525890691144626,0.5152533753107515,2.8304568618558075,70.60518549368257,-4.3937443606155515
520,-0.5948563654839596,0.3678109141345917,0.009667146815507692,36.075519564550476,79.13127782931154,8.215310253980457
530,-0.6313805045505109,0.36760399774304886,-0.09047917077292339,57.82111140322086,73.76645216705704,24.42676144930676
540,-0.5616253773839079,0.47446432017910234,-0.3741785883892532,89.75898078406411,62.320984085777695,52.82668611117147
550,-0.8127271457093508,0.2226000567271848,0.32509784974765155,-10.219757910354964,31.45730029867349,7.846311887606651
560,-0.8091399109377007,0.36307790796862,0.39484751439074195,-4.951008480752949,3.2712804805183775,0.34397904080191277
570,-0.8018838242990151,0.5000998513619899,0.31473370254086785,-3.2607064817754283,16.900570864953202,10.021402695339255
580,-0.763858248851539,0.3779368931200953,0.280367833460078,-0.529160990590258,-3.3783993912056127,-0.7219203274281175
590,-0.7605835393635626,0.3852273152369827,0.2350083870737184,3.5163001864967054,1.1785550708943906,-1.2432508737082977
600,-0.7658227276874005,0.3772040294671331,0.21518458496303208,9.899377873462043,6.1452014230693806,1.3974364442305451
610,-0.7645791579839473,0.3848290475723888,0.2799991485909783,11.33337631316136,-9.246441695309699,10.37993659099438
620,-0.7514998297063504,0.3819231877193643,0.8568505437020373,-18.746216593124036,-62.9691633638808,-16.180537580224026
630,-0.920987644014979,0.5926577871510699,0.14404781429405697,-56.0318784440996,-67.18532658387426,-41.33715266490783
640,-1.0603150073759475,0.5565542141745389,0.3997127605082589,-62.07394321540061,-83.68668052045221,13.11756087136389
650,-0.9001371299801256,0.44570632968835494,0.28365125984104794,-57.65514108274985,-100.33386672511261,7.555823800493574
660,-0.6744037086908969,0.3961189313010173,0.23678483387660532,-47.0958165644251,-67.35861391026543,16.331940262357058
670,-0.49693161394276375,0.37349117642341084,0.1372236105118597,-45.869659894724,-8.99135433845279,12.655369171463676
680,-0.5011762326562254,0.3734160348993796,0.15580733953096162,-42.35289999481725,38.68180518603747,2.6060282012201044
690,-0.7445454245372409,0.36340396098785077,0.2865533026413955,-42.04358736443494,61.64828551807629,-21.51047628819845
700,-1.0521425686339474,0.5207691970263032,-0.19703730373675432,-11.932188130249363,3.3043599281417846,-32.70147355902019
710,-0.7616346316578091,0.29338194688859515,0.25419435095266174,5.860714522666131,15.878406244764106,-16.465960401362654
720,-0.7043948426541515,0.1869164948315798,0.31599939723603937,21.72859134589823,-5.552259469911186,30.65182201951672
730,-0.6412985128265434,-0.11527346693646982,0.19583223927520937,21.555296962249816,-6.072858661335161,4.407907561696338
740,-0.4360438227181698,-0.37547151487456903,0.11630269517828791,-27.802124252347433,-4.739272607813586,-18.696793070387375
750,-0.6608392048041243,0.22531733629291006,0.32949745894748905,-53.89067523304749,-0.5424258249745999,-24.36276258665406
760,-0.8560153618673325,0.6412671312078148,-0.2235508457915734,0.9111757962969318,25.684535953929746,-45.269520060580874
770,-0.7928187737427798,0.3993677461681187,0.23360511117540114,30.520860741032593,-2.8074174526397107,27.452829557567593
780,-0.7877444124672937,0.37868951259827693,0.2542465423848055,-3.75547835205727,5.770669522896219,-1.3153695283988118
790,-0.7120744878037698,0.4461981533908572,0.312938191056194,-5.165133365343554,7.363665246798474,-12.483369986924965
800,-0.768504497770414,0.3359150546392743,0.25803521808094937,-11.430196430803022,-0.6367268996383797,-16.95479166625225
810,-0.7577956770404308,0.353127977054335,0.2781103480949417,-5.653664171420412,-4.895714444516712,-3.703445628448618
820,-0.7628639533937904,0.3624100600451147,0.285035770918297,-10.134313318759816,-5.0997973407651065,-0.21991496461431992
830,-0.7560664254758654,0.36512678853487485,0.2887481920202084,-13.284089822146454,-5.951816927289468,-3.222399462622943
840,-0.7501458358259698,0.3808301532019099,0.2934288712643465,-6.834396813808096,-2.1426993046308564,-0.11407116306239917
850,-0.7687543892633203,0.33491667332688135,0.26840851454535775,-5.536601550627939,-3.0790447526436195,-2.8695824447661904
860,-0.7584756701656044,0.3564936894049044,0.28402751583148467,0.1514407701784004,-0.11429548444264581,3.682368850471075
870,-0.7576061496366313,0.35935168679184387,0.28284882047733295,-3.515418527957167,1.140175012562966,4.651177198879067
880,-0.767850754264651,0.35341852223821907,0.2719220149940549,-9.419782545352842,2.7867926957877196,6.189806684318154
890,-0.7639421824096827,0.351178600586,0.274650312339521,-10.539062394943153,0.45643635943129623,6.461639916197275
900,-0.7653664864832528,0.3529340620072569,0.2780410047887962,-7.472337569995462,-3.771845516817387,7.863847044495113
910,-0.7597439036280247,0.36763316683048947,0.2792538201374974,-3.82218427049774,-0.43745484339461493,7.934180380789418
920,-0.7692406144555435,0.35860379402197584,0.26697301116420186,-4.499332781865196,0.6538000546192442,1.376351664577587
930,-0.7752729568150756,0.34554030620359716,0.26459307613776756,-1.3983027382119708,1.2330844065079876,0.5195303372469394
940,-0.7463001811724421,0.3760332227356849,0.29158795110766744,-1.8058542798067745,-1.8920344025377613,1.8327940814243933
950,-0.7624086223012647,0.3657600515059262,0.2761435496651996,1.813572941937531,-0.19904881589586032,5.6553822605941955
960,-0.7701976693004565,0.35002436658575753,0.26282022752358813,4.019803529940376,-1.4299689373746665,5.815132581548756
970,-0.7661433380957654,0.3692118716964964,0.2770309720691371,0.18700661864488777,0.037081505353169675,2.799847535195328
980,-0.7660248269179738,0.36234467743162374,0.27647607404193236,-3.7258653527494485,-1.3587885225620027,-7.704001537721612
990,-0.7720429418606208,0.35243188177911144,0.26494032234252335,-1.7119721771956624,-0.4586572155716774,-6.241857006822025
1000,-0.7563233166807743,0.3646749881646848,0.281228307695555,0.8085455461115574,0.27478780671764547,-3.2163540909868997
1010,-0.751125903601551,0.36580609689143123,0.28583305696019845,4.9870671825468,1.2635845168283835,3.463803659388342
1020,-0.7351996564420523,0.3910110463404961,0.30471960951973925,1.6481592307746826,-2.4723688326446562,1.8019604404425764
1030,-0.7549770833884186,0.36949986591896455,0.2831977205710472,-4.413254251788807,-2.348627509027591,-4.458812611483818
1040,-0.7507707310121352,0.36287061524390696,0.2893915375991338,-0.6811190467246077,-0.5755287811457842,-1.7175249910791255
1050,-0.7517172061983602,0.3656443596807332,0.28842201558304237,4.181223413657209,-0.1836419171915351,2.909684518961657
1060,-0.7608217156675069,0.36206087519986985,0.2838133869602297,2.670847896197186,-2.103442922594882,1.1756226073161582
1070,-0.7559748516469821,0.37143676816680576,0.2819791125033715,4.598997787732255,-0.0017216918122547886,2.861245739131879
1080,-0.7540962951932121,0.36581633062333896,0.28768463597232646,-2.1981257602685558,-1.765355363473155,-0.28935293748401447
1090,-0.7801008407020366,0.3431925750400394,0.26170272194391686,-0.8484831334200459,1.7675319700363978,4.750431266352442
1100,-0.754270509342275,0.3732919709617568,0.28509579281385183,-2.1849401977021072,0.7424061459474383,2.952933872898179
1110,-0.7832684939637194,0.34890537529080634,0.2554730785926986,-3.450734936500006,0.7695000724688065,-1.8621132729259422
1120,-0.7822273251766562,0.3484842687510009,0.25961534781807394,-3.929685712962587,-0.17713846217927895,-7.048402202175893
1130,-0.7800122507503076,0.3447102358148795,0.25943081209563346,-3.3613907111117607,1.0582798550898436,-7.707723566196143
1140,-0.7482376134659774,0.364255837309786,0.2926703388755721,0.6274621724208194,-0.5992735918226827,3.557207561537058
1150,-0.7407932382342308,0.3795530508456982,0.29925637257579496,4.8609854266848975,1.3392101814156372,8.455649710910802
1160,-0.7289556675029943,0.3993603242757801,0.3134372733976935,0.442146193024349,-0.6209094335684434,1.8760433960553287
1170,-0.7512163292620715,0.374702083740015,0.29317982418908284,3.5566037893022253,2.4325445079509382,1.4570540434921613
1180,-0.8159477605893986,0.3091165977732494,0.22750729450650917,4.319241397318116,4.263572934106929,0.7838383609679918
1190,-0.7807490167737329,0.3389686544786502,0.258091586346901,-4.291339497148329,-3.4070114711804322,-5.021287080214496
1200,-0.7515707223489629,0.36428547147145535,0.28507841552108193,-2.664746607398176,-3.2391533744029712,-1.6584704468866045
1210,-0.7413378781972821,0.3802160750596232,0.30215051464317283,-3.5781625532480903,-4.45554766709531,-2.093380342657182
1220,-0.737170267457395,0.3829749413166639,0.29988498400456215,-1.6181411431625963,-2.1040960856630844,0.1432914646321397
1230,-0.7645820472346139,0.35687563679616097,0.27723173143790575,1.3130348212936727,2.085403615377096,3.598255009098909
1240,-0.7551084143758295,0.36451402430834046,0.28248154923017366,-0.07484979035077488,0.992422304700629,1.1898681709294985
1250,-0.7753721688037847,0.3457021139748653,0.2573989232638105,-2.0006668471474867,0.11409403273308394,-0.757850126278909
1260,-0.7331739197671314,0.3923072005088117,0.30773602350735435,-2.1935830364280533,-0.3131328586760499,-0.3800870500096467
1270,-0.7627154721952272,0.3607726324310283,0.2800699147919052,-1.3396866179181655,1.107150788328629,0.3740889128652807
1280,-0.7688705014347675,0.3565768038255202,0.2736348609029229,-5.09072981197428,-2.1519576743145743,-4.4445188302612
1290,-0.7443090425729642,0.3749916806841929,0.2936388583065606,-0.6488056452032278,1.0914749184123154,-1.29881214199115
1300,-0.7618342799816434,0.3526232325053343,0.27744865806897867,-1.399189970235883,-0.09673652202863264,-0.8069390012512642
1310,-0.7323465744147812,0.3839151934466069,0.3053347430960904,1.8156208666149283,2.3833360302147666,4.6527771783503695
1320,-0.7629503642380459,0.35974708883270123,0.2784637515179093,-1.896287457187848,1.0632585937020516,3.599661718768991
1330,-0.7417928039615713,0.37783829651907747,0.2951460403613675,-1.444060266271382,0.4989161011581904,2.5366622134734627
1340,-0.7470756370886869,0.3776124644705802,0.2947834790032396,-1.4939843546741076,0.6733170630473647,0.5027277404966817
1350,-0.7570148518741212,0.3570565976836329,0.2817131210939167,-1.952055268983132,0.634738343221628,-3.7781168620356205
1360,-0.7675425802917186,0.3434101820519478,0.2647445560050697,2.3177565363186328,2.3932934760667877,1.7097250148280096
1370,-0.7663780505408652,0.3482729314356957,0.26763478615568576,-0.29288732577195853,-1.3804889006998895,0.5523247104780127
1380,-0.7753523431754,0.3430154351404081,0.2645774721195393,1.7919012356958535,0.7871466880417144,3.191438766174338
1390,-0.7747598084172419,0.3438666526592036,0.2616337155913502,-0.5809466111305106,-2.9657084420048294,0.5813821795993475
1400,-0.7837585025427699,0.33876051523160533,0.253087835617578,1.1912017357875868,2.138303807433798,-0.3548300522081864
1410,-0.7585285644867805,0.35989379967534285,0.2754928942342164,-2.988266291128647,-2.344979459021306,-6.077530829675287
1420,-0.7588246229832273,0.36025881934508674,0.27473968246519515,-1.2759539950925922,0.8677875201321927,-4.867513780433118
1430,-0.7461470882355612,0.37252742987352117,0.29260426142093043,-2.9555882244154965,2.042858987699868,-5.401529905215208
1440,-0.7453223638632733,0.36894317147445466,0.290777611027205,-2.7821777008922464,2.2857544230481723,-3.5610654691004235
1450,-0.7505622038078248,0.3666333166660012,0.2858725431908725,0.21955523969029472,0.7691770694351894,-0.5185889950369678
1460,-0.7581979914498164,0.35997475730909373,0.27688009639775546,2.884006293170312,1.3338786383279826,0.5059139206627402
1470,-0.7729119481274177,0.34218468895979404,0.262899229662159,1.281241070961704,-0.3508795472297729,-2.597758329712005
1480,-0.7794785024802043,0.3330714909628135,0.2579178039314308,-0.5654640570040526,-1.553175633967679,-4.5127426379128215
1490,-0.7346424886886371,0.37946083295879124,0.29898239463783605,0.052082258014729876,0.7835220109757142,-2.8867466262738364
1500,-0.7341133426326546,0.37676104211658185,0.29903946923689506,-0.7588133580004865,-0.16145790573849872,-3.3270613645807523
1510,-0.7475868156735553,0.36576469697912517,0.2896954132557511,-1.5945192949414937,-0.07193365384871947,-3.414452918782133
1520,-0.7707284056758901,0.34118016343674057,0.2639422890257115,-3.141395903758914,-0.6599480573045602,-5.847410892230234
1530,-0.7551292226524208,0.352965408130332,0.2796206494300575,-0.03162449122481803,3.47069507329421,-3.8649011011334062
1540,-0.7413742615217562,0.3627206418385967,0.2849999692028396,-3.8122771771735655,0.008101971756666382,-7.737627459377098
1550,-0.7477412243291716,0.3595803393226245,0.2939447881358364,-1.9743376053892083,0.173674177766586,-4.772702298996809
1560,-0.7377973146922541,0.3658546817413284,0.292948280238598,0.7052916745562741,0.5919111530761587,1.829852626009928
1570,-0.7362914967601331,0.3692680172662975,0.29557994282121575,4.1581754155387705,5.38017098039674,5.90573839432628
1580,-0.7602002192687736,0.35065495189108115,0.2706908794267936,-3.241316202162412,1.0616299749448965,-0.46267979387541025
1590,-0.7679531177032448,0.33818158263985537,0.26153942026891924,2.0992037487408197,3.2608388552689442,2.7495488458211192
1600,-0.7554053318978803,0.3545495518649908,0.27913398757305913,-1.2672779603595767,0.49164217904305074,-2.591757791414163
1610,-0.7509748631550754,0.349098828543638,0.28236785666293085,-2.177609027857249,-1.9590551020728353,-5.817879169495791
1620,-0.7317311797069078,0.37217383244223057,0.30883442376318215,0.7517041186608738,1.6701652682827315,-3.574023197190131
1630,-0.7946289313861278,0.3060239664410079,0.2387679571023787,-0.932029896727931,1.2138890286298514,-4.474015932040892
1640,-0.760829462656076,0.336516846415073,0.27156095745321174,-2.22249024896516,0.8938328620971492,-3.9155049435610536
1650,-0.7697660329734611,0.32598235786026614,0.2633217430882477,-2.6203043821763004,0.7219300085230174,-1.9129876419390275
1660,-0.7512721598779574,0.3460257529529801,0.28034982682492854,-2.9259802541851254,0.3303566235111554,0.992639259162903
1670,-0.7418355400227157,0.3606315516755755,0.29929896137705425,-1.866999096102326,-1.45637284769805,3.2740293233390525
1680,-0.7730686536131417,0.3219610178112682,0.2571059614784977,0.7015499180457025,-0.01623066746873536,6.884703499777474
1690,-0.787602128653294,0.31810299277696397,0.25368469377370795,-0.09275780920767795,-4.806503073714299,4.032573643739359
1700,-0.7586169554531649,0.3459940925064042,0.27273137152212773,1.6813177569257485,1.1374462276469053,3.602654689279359
1710,-0.772041813748863,0.327731508522195,0.2566671584894387,0.6361573129349792,1.9139307412755926,-0.21468288276793235
1720,-0.7497392331439352,0.34840368955824974,0.2768695507787959,-1.7909705420976805,-0.24840448617917765,-2.9040741670813732
1730,-0.740388060161589,0.35892670370037105,0.2885478669140903,-3.0265119847799276,0.15484026554119623,-1.5405357939310886
1740,-0.7516292663942841,0.34487621242115757,0.2803066763321254,-1.7296172550317124,1.18951860588331,2.2411748992682936
1750,-0.7534775030479639,0.3425855618386976,0.2757438127153665,-2.068803267133313,-0.4626612531486891,3.351393237700613
1760,-0.7597163710344216,0.34076370559246966,0.2668478310856161,0.5696703540120835,1.4219471706437397,5.47414140195404
1770,-0.7341601107461182,0.3653469590254062,0.2914968453036506,-1.206847668591407,-0.48848004193565187,-0.19871498119244668
1780,-0.7603546810902111,0.3458325292320304,0.273304868614129,0.41504598513027413,0.4220115729930298,1.561622506065528
1790,-0.764946448677288,0.34106123242246106,0.26486057624359655,0.7638681574043695,-1.4775951813988502,2.186116386525263
1800,-0.7458592204685545,0.360895081205275,0.27936887491631684,0.7803963815161907,-1.1840853407669525,2.561617980659581
1810,-0.7441519959555045,0.36555759971269913,0.2894915769201469,1.243367751113535,1.2098058268581218,4.019325527601799
1820,-0.7898242788491179,0.32003512733454353,0.2423574594335087,0.3664278925535318,3.378533314558264,-0.3470346590153133
1830,-0.7218957106945635,0.38216486119513393,0.3013016906881135,-1.0329119591585445,0.751763510719453,-2.6724996938417784
1840,-0.735876898679649,0.3702026013055978,0.29613899066942645,-2.270820129041642,-1.4409932338188876,-4.778718459772687
1850,-0.7400059711204154,0.36497060889103017,0.28449615879288964,-0.6060102991310359,-0.23157856857517858,-3.234081596738025
1860,-0.7496709801059879,0.35263590612224693,0.2776327209967031,-1.9736054994828423,0.6077209598400226,-2.929753210232612
1870,-0.7490322698308826,0.35341224061981197,0.28171685293545623,-0.025971849946656356,1.5977308086585982,1.8263758470640625
1880,-0.7550362804569959,0.35057893551780844,0.27855682698112816,0.6068609912990157,0.9923732207637304,3.549337117881416
1890,-0.7615610325988948,0.33963118133339953,0.2658327944891375,1.2102898553807344,0.8554161810565712,3.76246872184602
1900,-0.7587746755307838,0.3466462108744128,0.2716806587890883,4.598125035734714,2.5761212260501973,5.4999719248590075
1910,-0.7534286707227335,0.35255507974615086,0.27492726577672233,2.254030535524074,1.0060912417929724,2.8153762895351355
1920,-0.7493457561560011,0.35606633935993426,0.2775269436748376,1.1206595693852193,0.42892564215390017,2.1809230801727493
1930,-0.7435496638025844,0.36920895117024416,0.2838001854291003,-0.4441468440633559,0.8788193469668101,1.0505972697324872
1940,-0.7780402791588839,0.33583642846055894,0.24845073796990602,-2.8753813959629735,-0.3720193905014456,-2.273823987895915
1950,-0.7730387525631615,0.33554675247455146,0.24967764649485194,-2.732039378661103,-0.25278553072772936,-3.2373000257017246
1960,-0.7526178050789707,0.35357828715623524,0.27519191369598334,-3.3488125940835767,0.02501618469257523,-3.3462744448646875
1970,-0.7661355939969432,0.3419932019599114,0.2652328108092083,-2.946516798773648,-0.34789788282388245,-1.6843837057435167
1980,-0.7363381450562507,0.37118519414255696,0.28299739654179323,3.322950091668427,-0.408620211147525,6.838910566897045
1990,-0.7300256019614253,0.3850483946535178,0.29477103993382986,3.196832829170296,1.583919191711667,6.679670275972945
2000,-0.7669768567782126,0.3421019888254212,0.2606250316966802,-3.6998589421897363,-3.96255689017539,-1.3440837301550679
2010,-0.7635312097007914,0.34486305425614483,0.2667754833875106,-0.41106497452011875,-3.3247788755882115,-1.323201130016791
2020,-0.7711724140479527,0.34533150623238873,0.26262992270404567,2.8385107075870586,-0.9248382532283124,-0.7449902651363223
2030,-0.7865206588229543,0.30694829451390976,0.23185333054407836,-0.3824603969033471,-1.680922235773568,-7.192733172332231
2040,-0.7582728215354892,0.33967722138306466,0.2665998693640698,-1.3825023205678313,-3.8927287169574316,-6.445422916640636
2050,-0.7496929535702267,0.3520668757377565,0.2796069693377597,2.938156790335204,-2.3403323793578044,0.6695212242717539
2060,-0.7655333786187343,0.3408834508288027,0.26373926592117686,8.027727335420483,1.3053443694690632,6.52523576286621
2070,-0.7533333040118652,0.3591169458132767,0.2752747326496862,3.0422151787692413,-2.13822096304054,-0.5003289628155992
2080,-0.7220312314749728,0.3811268290626005,0.3044474175144745,0.5541152114355872,-3.4773984755522456,-4.718484338849613
2090,-0.7693080996612203,0.33377469465549714,0.25855481877740316,2.10632765511987,-0.2637663073492596,-1.6712549514316333
2100,-0.761800564448289,0.3370784065459333,0.265711480435266,1.3022860887945205,-0.25292524542128847,0.44939919028049624
2110,-0.7586562642667677,0.3492157630573939,0.27272362945561246,0.662744770501238,-1.3718263689378025,1.50036703170764
2120,-0.7519402954343902,0.3527435030123322,0.27649188088385895,0.5521221238960967,-3.6031438579256427,0.20116108797695098
2130,-0.7510999565023346,0.3524604595903489,0.2742943411016388,1.4761554626409485,-3.696714159154292,-0.30185160625382057
2140,-0.7467712900877239,0.35431431654988454,0.2783463921896084,3.655984893257261,-2.5589956515128733,3.1613265087288953
2150,-0.7450415677193205,0.3596228854529375,0.28717825219219967,5.670391755158898,-2.6854951259373667,5.120592095616795
2160,-0.7506092270140772,0.355566610788831,0.28587515684897624,4.785699802889527,-4.717946129137987,4.403327066534687
2170,-0.7511090699831955,0.35481905360076926,0.28229570702161405,5.207487062006788,-1.6128887911919794,5.157532789102686
2180,-0.7373884178431918,0.3743239294672166,0.3066174293923031,2.927702889344895,-1.6684145456385744,2.546979666738165
2190,-0.7653714290004674,0.346334877832306,0.27344501519880693,2.33103482253064,-0.17462621824626834,2.138275969735137
2200,-0.7343651930377068,0.37997204793431066,0.3053872900665651,3.6648414741321407,0.09109694508370891,3.0125510824811887
2210,-0.7681156838970014,0.3471038532034263,0.27303776614836983,0.3756467412536124,-2.472449851929257,-1.5705720150770515
2220,-0.7344618262174774,0.37606589769828114,0.3059744572842493,-1.2719969530096757,-2.797127258015615,-4.048748643527208
2230,-0.78369374856509,0.3237900128812147,0.25873853470789576,-0.4404470797068254,-1.0417696449604443,-2.4510978770156027
2240,-0.7416614677146449,0.3641432423542494,0.2978318453932561,-0.2766714157687795,0.5951136378999107,0.5575109843976541
2250,-0.7255086389030297,0.3813905750522669,0.31490126784176675,1.5428982623148113,0.6549418568067134,3.6894626052068324
2260,-0.7529908933806881,0.35834058913852285,0.29470172211225865,1.2311329639202515,0.40376816265480076,2.9102123367598356
2270,-0.761504426569551,0.3495860568790225,0.2811102850897577,-0.9949950052785367,-1.6513085309305735,-1.3319122697006964
2280,-0.763123868410212,0.3504353833591556,0.2772260612136501,1.4714428047473644,2.007985456544317,-0.11027712048900229
2290,-0.7510356885484724,0.3561138469315301,0.28626707483099795,-1.8046313726993768,-1.7844039964190028,-3.373639610087339
2300,-0.7641758087429208,0.3384403941512839,0.27254822076964375,-1.363699298811425,-2.82005441566142,-1.1119498421272416
2310,-0.7611802265753933,0.3418075597737989,0.27397659649981465,-0.2800672372874966,-2.2783605708071244,1.1497133085307878
2320,-0.727476094722408,0.38301881231646395,0.3125666467442066,0.5697334558948721,-0.5017475796386042,0.783883447882883
2330,-0.77310057107379,0.34101282949677647,0.2690326494063732,-2.259950797612725,-0.9649928696056532,-3.8569962137620597
2340,-0.7303295353172442,0.3728250494104991,0.30593490152667235,-1.9827210505374884,-0.08190530179982736,-3.6901538500415096
2350,-0.7604307108293898,0.33906525764453727,0.26999474215812647,-0.9039530563595979,-1.2794606238822313,-0.03997297890011764
2360,-0.7552180722143025,0.34895040763022567,0.28061331317883026,-3.2036489627140847,-2.926194338361843,-2.3508737874590504
2370,-0.7412341478489552,0.3624553593317864,0.29053450228341104,-3.1659382867720005,-2.265934993438692,-3.432874119448611
2380,-0.7604721676455447,0.3456573364216291,0.2774904527944312,-3.7667236050764923,-1.8540460095529465,-4.684192254699443
2390,-0.7347135039580122,0.3722870470731951,0.3110363765847413,-0.5215635612470675,1.633418715259913,-2.7762541816160633
2400,-0.7388010245642282,0.3595960006495084,0.3017799864350524,1.628772315637905,1.4909294015925552,1.1440256534237476
2410,-0.7527255426881896,0.34802473365224124,0.2893423097746977,2.07459208420961,0.296807203224684,2.338414699543563
2420,-0.7460644288120802,0.35727523250668014,0.29571375704068525,3.4407275643503406,1.530203944972728,3.8572493471075333
2430,-0.7636221101275141,0.3395361599125519,0.2785175418085008,-0.37614917811403525,-0.09268011505916024,0.1622871442854727
2440,-0.7817803297837213,0.3195977792984716,0.25882629788567385,-1.6183707949518122,-1.4292350693294813,-2.0262767655286753
2450,-0.7654719429336283,0.33369432453963466,0.2743473447751731,0.6012906625747146,0.29368899428367445,0.9558832710212787
2460,-0.7299045603781389,0.3717202471655352,0.3123501084395584,3.3336606022594775,1.313852476736441,3.5225756534695756
2470,-0.7554916698056419,0.34997453902897235,0.2851651547160795,3.4710514974535647,1.613759888454108,3.5210465205955037
2480,-0.790034558866955,0.31617443402637213,0.25202365057562526,1.27385884138683,0.9086157237933181,0.0030133320555976173
2490,-0.7368689348459737,0.3642680339353905,0.30149137979875873,-2.562290163979896,-1.8318909260304257,-4.660563605242312
2500,-0.7431325995352114,0.3560478472108085,0.2931517052310919,3.3635812806666823,2.5478622146422207,2.2051154319560573
2510,-0.7471367107559316,0.3555614495597627,0.2913179874631453,0.23600643380192787,-1.721828836730668,-0.7364907691182063
2520,-0.735892200482794,0.3695011034743484,0.301051644739179,1.8120164988993253,0.9118646550622467,-0.6257958761263978
2530,-0.7525976211812684,0.34902683082197083,0.28724901598123,-2.64299238404383,-0.3448215265256539,-4.749315496956374
