time_ms,ax,ay,az,gx,gy,gz
0,-0.6198899664458498,0.5327758017070954,0.8033906612300782,-1.5987552550893365,-0.02703741220736,-0.8169213541352031
10,-0.6480287548119684,0.5088766064305289,0.7751600432065191,-1.2484128011482238,-0.8991253958690697,-1.3580404777083812
20,-0.636522565979938,0.5146923412970327,0.781113714260938,1.1869448978749089,1.167420060893881,0.6134531875452337
30,-0.6239538075117677,0.5330094383528423,0.7968701997558513,1.0721902363132454,0.2684094104902125,0.27559340049770675
40,-0.6305887305902766,0.5268756697862956,0.787004261741217,-0.14713352038361377,-0.15753773801596488,0.41247299576713264
50,-0.651906987770124,0.49384705100046455,0.7587086065660366,2.4888649973246117,2.8958074030473924,3.5268456023643973
60,-0.647404432096809,0.5087922756284496,0.7761675722360812,-2.8914725419921776,-1.7136435460593622,-1.9241874815307771
70,-0.6348421496615568,0.5121369709697626,0.7844568152073764,2.646382756076962,1.9813374602356488,2.1403484965782797
80,-0.6365732985428487,0.5158609370288956,0.7826522570238427,3.401422307463795,2.4852338811894916,3.431840241635859
90,-0.6583368302468854,0.5027761934856639,0.763412061293567,-1.096519286439257,-1.6855924121961166,-0.6864909608932386
100,-0.63967518786846,0.5151649359122762,0.7800192831310436,-0.10543900541936851,-0.09151448229982517,-0.4496036973567987
110,-0.6602971503051622,0.4991015921625912,0.755179769355393,-2.1421896196475716,-1.3160768405531151,-3.0176372185560973
120,-0.6563357682167628,0.4880068781987211,0.7620911858749849,5.456350570755583,0.42218137275019996,3.4114704926167274
130,-0.6487493523908086,0.510571118128686,0.7802666875093816,6.336135161297339,2.8054888215161613,6.081581999453429
140,-0.6760338240622674,0.50199509325443,0.76850321441155,-0.9462733176084019,2.322935684793954,5.2913012324372435
150,-0.6342518905337939,0.5361338471285336,0.8682597632613517,-21.60619649711072,-3.8804779973231076,2.086747239036222
160,-0.7749960499748718,0.6710610118853156,0.6527468762078557,-53.99927548394979,-13.001560144139166,1.4532084114150432
170,-0.517301338165396,0.5323455574933696,0.5602527641390003,-2.5764728446135683,-48.20608811245643,31.29587336347218
180,-0.4541593769268129,0.6565535887989903,0.5072338619571429,-4.881910527986568,-21.337096949308567,38.96254617219116
190,-0.5860653410626164,0.7306773053354872,0.6717936105695779,-19.228257269737096,-8.533509344136164,43.44274517441468
200,-0.63834609231319,0.7134608065828845,0.699191822094001,-31.918936575334417,-1.0110113383584889,50.33040755654717
210,-0.5958726232847625,0.6174901494778422,0.6867485648969721,-30.84523598838627,15.905608040090073,60.26632034760888
220,-0.46457283854185805,0.549195775538522,0.7509358462508485,-61.69346083742895,59.733890514727506,39.23425925963976
230,-0.5526935910739414,0.5063156187233415,0.7612251804359683,-64.75203272839761,72.91188589720508,34.94582721531264
240,-1.338409410402069,-0.2829308582428126,1.8925410157564921,-80.00146248408514,31.721580866734097,-3.2847188297555956
250,-0.7537633300424286,0.2485076289025645,0.6245803942911385,-25.25334095311837,6.525304498442653,-5.656389478780467
260,-0.5999292001004287,0.21928612799867292,0.6931719044353083,-0.6307291439088498,4.923650467191855,10.145799162585826
270,-0.7646973308672323,0.45827289568755536,0.6515371824296848,34.95331433566002,-20.28526789207654,-16.078264133188963
280,-0.504648682112575,0.45603048358489134,1.329215824005443,65.79261996349305,-36.93715634376882,-67.54604878490508
290,-0.741868228353266,-0.29318554955649206,0.8780184450577122,40.02024440378442,-50.63864074803364,-86.27942321704481
300,-1.391467949956587,0.5844769953309703,0.8640961399048148,66.39928751626081,-50.13385262420915,-88.38879319710377
310,-1.1992320763036775,0.5780198384509139,0.7846467264906353,10.05349938034973,-43.208660353249336,-82.99327209264287
320,-0.9298665933516763,0.9076892002750527,0.5325628758758871,-8.216420638822541,-27.38239110903439,-36.41097560137271
330,-1.1811198623872945,0.9042694004555492,0.34789288037795596,-12.817149488415088,1.0629474727698152,-16.440972473441732
340,-0.8801909193898855,0.8122204338455934,0.7446842475266675,-3.2554024980892122,7.973220222111001,-7.25393136234508
350,-0.699871083600823,0.5544937748802945,0.7340158694090797,-10.746111272443923,3.908537693411877,-3.6238567216365802
360,-0.7064403801217306,0.5384011730363263,0.7094637412329271,-19.552876381417597,-5.0815292847375755,-13.15928122265374
370,-0.7014140586351166,0.3653838656219329,0.6908435520149478,-21.773660849052707,11.206725081200902,-14.097968386398316
380,-0.8787338410713831,0.18194399827595792,0.044173314931430195,26.22410416061508,55.96519413000794,-0.7047539111566374
390,-0.828718591581138,0.5987110658122791,0.8009086955460293,19.641723881798708,54.00638502921562,23.885051316393465
400,-0.4685528528173512,0.41031236757641515,0.7085123414748452,55.5050892929567,62.76759594741475,33.54915854499196
410,-0.6241038031743601,0.8732196718399913,0.37000589257323524,23.41581558872686,50.924927494011136,27.781032756772625
420,-0.571922789822404,0.6730868147706026,0.8329772104686457,10.185057444882684,19.829871648398765,26.2630445367629
430,-0.6031713410490469,0.4488966168390663,1.006085914104913,7.448273226798588,15.013889302174377,15.899670583603783
440,-0.3854567680606874,0.29456732115210066,1.3150723222833118,-1.845209247255218,0.45572437286834067,3.9090709920483415
450,-0.5472932360835046,0.38599266255247505,0.9238131248805259,5.2159190998217575,-0.13893930323775916,4.687272723759087
460,-0.5424323741773784,0.42957227655969765,0.9149127828592725,8.265144137725672,3.5596295131853415,6.564565811145617
470,-0.6920370270727237,0.45774951441628914,0.7350487094263114,7.820430335112796,9.31881535670915,12.925667757024586
480,-0.6506492067061287,0.47774758352868696,0.8752176648631061,-8.93227730206712,1.7726625917487535,18.822211610533618
490,-0.6725706145487157,0.4524098491442737,0.9416720938918878,-15.525499771100144,-18.998768369672632,20.958343882954566
500,-0.8149895302138861,0.5143519943827323,1.0527443947577078,4.738781371127491,-52.79653016513802,11.637821898482706
510,-0.7992067971929656,0.6212116819969564,1.0126901723904407,15.225814199620043,-83.56131465896256,0.5013370231043779
520,-0.5504198778622436,0.6593908710739338,0.7750574753274813,18.27043054432789,-78.61698162759606,2.1091504712169997
530,-0.47317475020348787,0.6642917259078677,0.6857324719905519,-33.952326215954436,-27.38238876781022,1.363142635091195
540,-0.5169202677621781,0.5163037508298599,0.6339223712284195,-37.48943089553946,-5.78070426098361,0.013349478110137758
550,-0.5769299656862028,0.5215375486823095,0.569267155269051,-44.47954721472606,8.85277468140932,-6.747568504080354
560,-0.559822299905898,0.5578318726357159,0.5372387994339507,-55.827370925231634,30.51173686521068,-9.923794645378496
570,-0.5684604272999632,0.5030318529034818,0.48915197866148136,-53.552101403952406,57.97979483231413,-1.9530192713955434
580,-0.6134990019266515,0.2487259338858426,0.7583870160133754,41.23630914620582,6.050484977043333,12.37171201375596
590,-0.48574031669446216,-0.1647551212675415,0.2572992147651263,22.689297546764536,13.094902710385167,-12.771789046199066
600,-0.35732344343258293,0.1991951784707477,0.4653325228629825,19.351056377198404,4.9782843925994,-11.21107600719861
610,-0.7522778882898017,0.26027952892822076,0.681917164082889,60.851699174807926,5.476727573970617,-11.120470352631914
620,-0.8438326196919582,0.765802276232346,0.43332451727176796,42.35718575511454,8.787752238597106,-15.816961745222116
630,-0.6081607657613007,0.6334840252313578,0.8365151433882122,1.1336391922474558,-0.9130138823794122,-6.819556773524715
640,-0.6131510574015887,0.5413276098376363,0.8125260640464165,-11.417614826088847,0.7845368089336918,-20.604526923963373
650,-0.6233452325632168,0.4798224336287964,0.8019873459734432,-15.33734984902263,-0.15953687264311633,-17.92138376498841
660,-0.6360329345322605,0.4445483960280664,0.7896973958462168,-8.849907956788023,-1.2141278345506858,-8.06459003226443
670,-0.6512067805582145,0.43442616625822184,0.7769103884954479,2.785569971589733,-1.6657806296076996,3.5310446276747958
680,-0.6420776397056698,0.4981950514885302,0.787919260332477,5.430969985117788,-0.6652507423033007,1.0724101907414063
690,-0.6386422626261328,0.4999275479384152,0.7901343506259335,-3.3449788980206128,-2.5293347137133178,-6.73006528230484
700,-0.606356967872433,0.5159695196829657,0.8242512879910249,-2.670343276604677,-2.170170968249714,-5.745000589542505
710,-0.6362015527839526,0.47699114884402855,0.7893839196706298,-0.08312324483762212,0.9031479753609022,-0.4900785735248844
720,-0.6230552370527238,0.4937140738312274,0.8046876986178626,-1.4924897403953625,-1.8350972752229897,-1.1890534357596243
730,-0.6498464832276779,0.4810937246886576,0.7758828552461556,-1.4967457301876044,-3.779425056572184,-1.9844261643881693
740,-0.643379289593926,0.49376314475982647,0.7930620224500289,-0.5725884183134473,-1.605400358259299,-2.7616388747814264
750,-0.6068239478182255,0.5215484603880483,0.8207631948748271,-1.2772065288486916,1.0684114560770324,-3.588286715796876
760,-0.6302924147791518,0.4917347909599865,0.792580587660055,-1.4556844529532502,1.588160293522602,-2.8567917818229582
770,-0.6172690865512265,0.49737565886678603,0.8101228480025758,-2.5356239846509436,-2.1697366679624768,-3.6199724357840397
780,-0.6451388339025437,0.47951708489911615,0.7815853912908404,-2.086912148624296,-2.2987228964444735,-2.256498041022099
790,-0.6443784699803758,0.4883833262425044,0.7833087364318911,2.5857274048827668,3.0483186808366156,0.8495612214223212
800,-0.6525896910889097,0.4788009792738588,0.7782490004412091,1.6505283769681522,1.5198296553446775,-2.040694511122555
810,-0.6314586667259791,0.49013248619716127,0.8035364668774788,-0.482728183331136,-1.1017113106526921,-3.414966754641537
820,-0.6394955063612581,0.48173377906116027,0.7923569851217541,1.9972277422610407,1.6173066382146697,0.8473893936139567
830,-0.6349654486818384,0.4882533258177732,0.7950470637034877,1.3630321962776704,0.8337014105756013,1.1106407490567738
840,-0.6355374369198764,0.497882391319538,0.7924573651545812,-0.573724240438065,0.29730882000825676,-1.3440846934109516
850,-0.6427541867668102,0.48994174154619324,0.7832658316471258,-0.9628158837711407,0.47497254719997334,-2.988235863350215
860,-0.6343642319817224,0.49072949715167985,0.7939943882633205,-4.078416613639376,-2.030472230740589,-4.706084259882827
870,-0.6287678298372509,0.49417866317733866,0.8010067900075809,1.4906547548421523,2.773050745093019,2.2562995427637094
880,-0.6278418637095742,0.4962930913818868,0.7962196918811935,-0.8564865554526022,-0.4724387844609191,0.07312812599570062
890,-0.6328381064199289,0.49128907173062236,0.7912135715696997,2.143147763219255,2.081148964174311,2.358240695003579
900,-0.6286763432547228,0.49834858731841425,0.8002121289042666,0.8344809372062577,0.39128680588000514,0.00816838831533806
910,-0.6221936188924819,0.5051885505196365,0.8059910992926289,0.7172416492752558,-0.5890699488559127,-1.0717157725705433
920,-0.6133985774494433,0.5147303676567475,0.8163993862100016,2.632446826100993,1.6848633367472394,0.7254316429113647
930,-0.6083467586680246,0.5065162174208083,0.8138677851316013,-1.7270166738732518,0.5417198977267562,-0.3983485083171584
940,-0.6320884697642134,0.4888185929077987,0.7929589024662855,-2.0302706017651326,-1.4610795739202582,-1.1273466566037673
950,-0.6584354693975806,0.47407596836408317,0.7673244644152614,2.447899264053271,2.137750517985085,1.1035177144584305
960,-0.6454864549298847,0.4848734033727417,0.7803045163700126,-0.9876325687167187,-1.4544331056241737,-3.221670370923077
970,-0.6098013544306485,0.5133954715348906,0.814278949093599,0.3638069332591318,-0.32225328254820307,-0.697142812153534
980,-0.5963262184314265,0.5249829363254787,0.8333658786343932,-2.276358885486336,-2.252071557456015,-1.8089251741400654
990,-0.6310876101889475,0.49310512454826083,0.7972277401373818,-0.31892010676233307,-0.30823626458542064,-0.5354893111782951
1000,-0.6472958106641448,0.48440837539434173,0.7833700665689212,3.1358339048170953,2.9670549807878395,1.8992792139585852
1010,-0.6367004788929761,0.49175423259238205,0.7930145829122173,0.16266459908368647,0.7199691946413074,-0.3652897620072899
1020,-0.6250932422925207,0.49639807506990574,0.8013636074696601,-3.361721036487727,-2.909345043247366,-2.9463152468749914
1030,-0.6160176410578695,0.5087754661996349,0.8197419188670584,0.859216430330359,0.6956953847896299,1.7431787590159442
1040,-0.6193606322820618,0.5059071291256664,0.8054599132908293,4.710828009021899,4.140577581832927,3.407981189289439
1050,-0.6291618180720007,0.5015811488422729,0.7971507950216282,-2.162135769522014,-1.356669250119765,-2.2801580170187052
1060,-0.6172268187904646,0.5083124511734483,0.8083826363528118,1.3634107469498922,2.108259009814398,1.0065993746548
1070,-0.64204305617451,0.4828594022016214,0.7819236088441734,-1.0869812552717024,0.0174722500792482,-0.8932933570384827
1080,-0.6497349845918224,0.4743106016711125,0.7765282451567437,-2.3996363702678147,-1.732991541034808,-1.8689623100432655
1090,-0.6408416136944134,0.48510177580195746,0.7865283107530638,1.2832933017030683,1.084795340208934,0.5740334739474782
