time_ms,ax,ay,az,gx,gy,gz
0,-0.7221481927014558,0.4835875932358528,0.6282499723969504,0.05311734982631017,-0.37936066413953684,0.30223193783704416
10,-0.721816125677746,0.4935931638105535,0.6247463151166519,1.5457070924035887,1.0562957439764318,1.4293364231467927
20,-0.6992054753625446,0.5114132141821149,0.6488635690265689,1.783980142509031,1.4015167868141432,0.5470417717837143
30,-0.7352143791151992,0.4734748096098963,0.6173025147442445,-2.9219192196299746,-2.113945661242035,-3.3540985170282793
40,-0.7055256544053972,0.5054789397905195,0.6472621903521992,0.011486112649777835,1.1571650385000503,0.19536473525625564
50,-0.7183079058955609,0.4899657128995167,0.6312779628319768,-0.723836836741125,-0.22356236808980334,-0.32044264055083915
60,-0.7235181290420543,0.48689384339493513,0.6261217629680371,0.9761989544850073,0.7276456182279291,1.5036658426988088
70,-0.7360961655569894,0.490202778042637,0.6123808695557406,-2.5211856593530793,-2.5985757237344598,-3.0603932135266554
80,-0.6933757856802115,0.5257636842748221,0.6602180979427038,-3.2195108273658493,-1.6044122767611033,-3.955501954569304
90,-0.7193121011251711,0.49132380393138747,0.635502069592229,-1.9547150284486254,0.5483956627542129,-2.255134377536811
100,-0.6903110960453054,0.5178994552933764,0.6689731035736421,-1.6625425219149639,0.36882367390391035,-1.010243679806393
110,-0.7322803441012928,0.4759606257932354,0.6235980232066854,-1.307697858554332,-0.759787084380589,-0.5456593952102609
120,-0.7203398604410052,0.4914925997311866,0.6311736739395531,0.03509467912993891,-0.4398936449183223,0.44121740485261696
130,-0.7184851829777475,0.4979328014294089,0.6360327286575077,-2.584408608928128,-1.702576924672698,-2.78770089504913
140,-0.7279495456390981,0.4864261908825865,0.6229711924153755,-0.5844943382635259,0.27182458661015696,-1.0814991784289472
150,-0.7162390666521363,0.4904188366509518,0.6361660955658357,-1.7846357759647635,-0.12520639453498433,-1.728837136105145
160,-0.7302837681016847,0.47435298931480585,0.6243390613459031,-0.013242018219920937,0.7069795278945585,-0.836487436933771
170,-0.6957787754436703,0.5101881565776208,0.6513983629462345,-2.0452817901249363,-2.1990834522032334,-3.272546471830346
180,-0.7620468384362586,0.4464525673453237,0.5858888512037558,-2.8179965460108694,-3.218066019564459,-2.5313234616564055
190,-0.6773957074215423,0.5338184039720644,0.6667196235165423,-0.9651204322994432,-1.4251941099602337,-0.9776179615384242
200,-0.7160980107315683,0.4961178839357832,0.6357658060136882,-1.3310006306282283,-2.0341404532456453,-1.8642022035817831
210,-0.7317226436566622,0.48592443093625953,0.6237733192734866,-2.368550984457842,-1.4026096668044408,-3.1638944307757035
220,-0.7174112732943497,0.4904680700155829,0.6363992597823698,0.746539685809372,2.4634077999689667,0.09474164593772993
230,-0.71247918465566,0.4871359878786386,0.6318203955613028,-0.28240852194981636,1.1859241860578993,-0.806359991655809
240,-0.7290374514194377,0.4747629994855382,0.6226350240560067,-2.076883088787639,-1.0373298469909877,-2.303541300950932
250,-0.7324533518626332,0.48503606625702117,0.6119042148750425,4.472665999810433,3.5019779783060554,4.092666357250841
260,-0.7418491479443964,0.4779594719601432,0.6101804237248852,-2.813312857810269,-2.5514229862360858,-3.7273751059763907
270,-0.7338286823479545,0.4774922709262717,0.6218776725304492,-1.0775953006797292,-0.4619080779863376,-1.6613236757567131
280,-0.7012495801190226,0.505894671536522,0.6583851800264181,-0.6772629103646981,0.24033568913733605,-0.19547226883084323
290,-0.7290643334745524,0.4808593371559047,0.6297578521382252,-3.6745898371428654,2.7005511992777618,2.6553371798356853
300,-0.7253671816812373,0.5054996979000166,0.6450849637141298,-8.134423236896003,1.7279824157202905,2.4150950477162207
310,-1.135159209466821,0.5344655670875136,1.025183430568461,-25.716240579471506,-15.67338317754581,22.970126454995114
320,-0.9080204560932454,0.6273707107785322,0.5817773818429327,-16.81280435655834,-39.76778891436402,29.796464227954676
330,-0.7228471024269715,0.6187483509065049,0.48123960739260907,-20.133355694914506,-35.2854065959218,41.244963993796894
340,-0.5727203670499676,0.4742542824793461,0.39999265031338166,-20.95363629702746,-18.408163233722608,37.531511584431506
350,-0.5709582835850675,0.49572334858927813,0.4526016516139996,-15.773693175637794,3.1715572759559265,32.23015844662999
360,-0.6916871025224868,0.5583445477854635,0.5279489332232217,2.988500039484822,11.803096792991797,29.851428093331144
370,-0.6819243868508884,0.5826419333567918,0.7297017916188393,-32.801402878101285,41.124952899844395,47.048672603324725
380,-0.6305294369019467,0.5291278330545216,0.6886627930217774,-41.44690745711873,35.36235040816866,33.88149178935849
390,-0.6623639457359277,0.4797756499914752,0.5841784776877809,-45.81611201456988,37.6582765788657,20.20108180829729
400,-0.6708822595857094,0.5569359150782158,0.6829740921354499,-44.80533200973727,35.08067082157048,15.638923621615051
410,-0.6844301167265512,0.48093290085096807,0.6224320760357462,-33.82845288630747,38.24547924776522,19.45597123660343
420,-0.6718908546887529,0.4943872975865321,0.6330968612176932,-27.948527989024313,40.12297849191345,18.171561908751546
430,-0.814091661558189,0.4513164378987321,0.6228541373125664,-35.38899047690721,32.919697381083196,5.351637191097052
440,-0.9383467107689397,0.3427971025691152,0.7651288130804234,-19.768739011733047,18.06823807165241,0.07915315297992942
450,-0.794841114819138,0.44534175048466107,0.5029511435482388,-0.551649565198054,6.749470580302765,-6.303437439490257
460,-0.7238368955554628,0.3662089608481161,0.6764548879441696,-5.0303495065949315,6.324067108600755,0.7737186589306704
470,-0.750437564594517,0.4946511655312563,0.5504527244220313,10.062684445720564,2.924522465224002,1.7222208455933323
480,-0.7512279725400316,0.5122096536618453,0.562964356616052,20.767881149513137,4.974976331178988,13.207687431461574
490,-0.6465258876152573,0.28647796580714396,0.9479772506986405,23.19323588430228,-20.78407549441952,1.2471728456128683
500,-0.9767096969889213,0.6289623372657855,0.43028118954513994,64.91755900725697,-23.958653046985376,6.274253147898113
510,-0.7517076732350197,0.7799318938824673,0.3894857566854322,46.805768067922635,-54.56753871228652,-23.352469614716057
520,-0.7658767834974821,0.2577124902442371,0.7378662268408314,20.545712234996362,-60.75018210406768,-56.62375412897347
530,-0.22611085306780765,-0.3858647903544058,0.5157818427028921,-13.903386013876704,-77.35322043079783,-77.52677365379508
540,-0.9097828799545877,-0.23614426354941143,0.3559930962694766,53.98867628292393,-70.99090450130264,-66.96325974479096
550,-1.8003373721690736,0.7124572723814137,0.06631191456079646,19.469232112069065,-40.10295894800369,-59.098197910232685
560,-0.9605364020622653,1.5522407191017518,0.7615996899128198,-0.4594913501213629,-44.14600916987681,-22.22663673795448
570,-0.8541535939581918,0.41987085960626624,0.3165085432953187,-25.873492368230536,-20.03560258122237,-42.94471524606929
580,-0.21881645149128157,0.08163752345152642,0.553046664703598,-124.3933030751957,-20.84505313508274,-56.005130093121466
590,-1.05318721474766,0.313054667971445,0.4113686698226135,-3.566651900010968,-5.346340753888121,-49.14718172080644
600,-0.48310113557114587,0.40025625043382745,0.6149384436898855,24.379770857056727,-9.650297088125374,-3.5703751815916664
610,-0.632647879282285,0.37574664249662393,0.7377137392017086,2.3950287905590217,-1.3564408290026262,-15.366612266510742
620,-0.567057625829083,0.446466932559152,0.7597965262285992,-10.192784130245837,-7.132440667120758,-22.105198876321946
630,-0.7759398756993064,0.5392335563642852,0.47280999647998245,-13.585056548052538,-4.806660592145594,-18.07299488661022
640,-0.7560597340839016,0.5005663035692824,0.596074964586477,3.531406549468832,0.05065073413898635,-4.473947368664012
650,-0.7003306408253296,0.455386379751387,0.6637815873474181,-5.469178470734295,-3.447013791859116,-2.9231304427875733
660,-0.7041080293825716,0.4559872017326696,0.6517746482983914,-10.356466804912007,-7.424608604521719,-6.277104210030057
670,-0.7950431885492576,0.40090868628293386,0.43486958351298527,5.965094185794,19.159362368553033,-10.554985847518715
680,-0.8387835295704335,0.36082116830440225,0.5115492811242038,34.961564589310505,29.55135182239918,14.003610624827026
690,-0.8189410623747476,0.45042230008036427,0.5146492504000998,34.90260856793886,30.652382830411085,17.22055418517623
700,-0.7680164386784671,0.5267861360709922,0.33877297430237335,31.46733391213562,47.340552785662254,24.699193533327342
710,-0.6240004928080811,0.6340314763331466,-0.19029727047375294,36.104582542995914,61.68360189597954,51.3078466435134
720,-0.7977167454989218,0.50219715199354,0.8603709936705848,18.635704315979712,45.87592456446345,38.50906439209897
730,-0.666182628089428,0.5012562364886389,0.50951542394031,-1.2176585806633216,36.34504018266468,9.252581661803907
740,-0.6499622463292263,0.8915680517793577,0.6127245936140843,15.182359746269066,35.341262350354796,13.985319882555325
750,-0.6854768882003893,0.47073852940372884,0.7919032339842954,11.438570980133626,36.669163184906225,-0.9911918732150065
760,-0.7606510816009112,0.27014554986599243,0.8653833844459039,-20.334960883035134,34.53960797975888,6.268611935886877
770,-0.46863470807382074,0.32374136761931394,1.1523420730643859,1.2153312317616014,37.77717435471945,10.729705074551884
780,-0.7195382755346871,0.5313912143292491,1.4821217593396525,27.15001241875637,36.10384344823395,24.987147116370757
790,-0.7246310082370097,0.4759301357590106,0.6933970372142099,5.020801461864723,12.818250899038773,5.388711599230425
800,-0.7454624125435119,0.5170850026946757,0.5895456458854474,1.3266645096930767,2.0374190559423417,-6.472639567574403
810,-0.7555769444809032,0.5224973576975628,0.5991220187074252,-1.8857269301086834,7.969794122756429,-3.9632692662623117
820,-0.7176682653554617,0.5454201696931591,0.7319294850776823,-12.265955740791012,-2.722551831851149,-2.9555854599774727
830,-0.734408994786248,0.5438889123843428,0.6831465377532979,-11.953807395874199,-11.657311063692843,11.861027672011037
840,-0.7397059833292781,0.6812295161047995,0.5460322623904906,-15.974347698348078,-16.135423305661337,29.262311587577077
850,-0.7782888456265044,0.596418711731068,0.629246719782465,-3.6358678308112244,-44.806778140097556,8.444405150320938
860,-0.7119253497449816,0.577295251836469,0.6356777173998026,-6.672917586165565,-50.7937069666201,8.46871429444577
870,-0.655469142074105,0.5356757748569045,0.5611071712984085,-7.976063083821,-48.717922219775325,5.040622748606043
880,-0.6117683096286426,0.5690779418215903,0.5428101747045815,-7.27731756868801,-35.454781679697554,6.604523003821715
890,-0.6397665374830016,0.48504705125441977,0.5473741652707033,-9.534386890665006,-23.245091028770045,2.9911791459942725
900,-0.6806406324476667,0.4872523497400342,0.5771942615668262,-16.504947433764276,-18.846655823440862,-3.0296847304563905
910,-0.731502984997543,0.4895245913863998,0.6194475808026721,-17.554213351806222,-9.642666382441906,-3.4908896139526546
920,-0.7143916252582023,0.5139106182340665,0.6253074218990934,-12.244877882844985,-7.200121252192786,-1.4876900657038412
930,-0.6660686775730684,0.6305844970439203,0.6292857859536152,-14.157844763423578,-6.795496950889685,-0.5892460403628041
940,-0.6722055513338124,0.5877246264912321,0.5821652456872035,-12.715642653173006,-1.139804702028355,5.891056229336903
950,-0.6405509318832875,0.4864552774538789,0.5079115858608199,-16.9307420507362,5.058174160756779,-0.08327645435487321
960,-0.7290288079981256,0.39771507276032014,0.5589271049512589,-33.77385871838786,12.913795301860574,-19.2617095466643
970,-0.7130695871539239,0.516533713073745,0.6095027507889218,2.0698080992921066,2.8145557144218882,-4.3125629399525085
980,-0.7179308988944296,0.43326018971011215,0.6366515349288829,-0.5638863705514408,-3.1936948479406997,-4.469203832276834
990,-0.7174472633380997,0.4429686054354037,0.6442780667934069,1.6525872754950885,-4.259110535335516,-1.9300825689435306
1000,-0.7232133951411013,0.39544368123370915,0.6238846899440529,16.189518420860527,0.6334384265471544,9.752422851857233
1010,-0.7353027754955841,-0.11653543767886865,0.45949700107077257,11.485843079302185,10.274388527353846,-12.100579684449121
1020,-0.5378142626277984,0.1264835191344403,0.5735169980829987,16.488226428336258,8.321664035944481,-43.7649393708905
1030,-0.5238768214544721,0.09477294676784888,0.5390013735067216,20.187697775160977,5.082749850921452,-20.912521778552435
1040,-0.5472183627534725,0.3853785118286463,0.5061701553207665,9.592753111053252,0.40709405739826465,-13.145059014584564
1050,-0.991261558609654,1.262315173082075,1.2418530472299156,52.83396284950095,1.2798153887465125,1.154852442568663
1060,-0.7117083666553501,0.7175799482064581,0.6588877013676502,13.002169810266151,2.203846435008111,12.088334803167442
1070,-0.6550411836041934,0.4019624306245756,0.6096094072434278,-1.7122684479678292,4.603442398000913,-18.037930339817088
1080,-0.7162001567672751,0.7635576080350571,0.6527109687528553,-3.9316802544019565,3.059458830371825,-6.885509697245363
1090,-0.7147309042517033,0.4863905994941809,0.6373970495625668,2.113174809145296,1.4192611586899069,-1.4201216579779525
1100,-0.7135317400129318,0.4975409923392839,0.6450991043300336,1.2703516129460894,-0.6635380722745801,-1.3768607230530638
1110,-0.7167529727161125,0.4923037285784747,0.6358975540542253,1.6297478574829416,0.04279866963471026,-0.9267518184377086
1120,-0.7342654172291961,0.47714849384830366,0.6181937682713295,-0.799828495600848,0.02660280203552251,-2.4642278023824855
1130,-0.711279923089107,0.4948277178195676,0.6446777756854168,-3.118842609279071,-0.9125158347074898,-3.68391711423915
1140,-0.7072613898321717,0.4992325419413074,0.6466031665271017,-1.6476733146096278,-0.2228358221293737,-1.785078544765848
1150,-0.7054573675123341,0.5039789853850757,0.64865227523751,-3.487474229898412,-2.4060369566084807,-2.3273193158932735
1160,-0.7065816990454136,0.49450494911272425,0.6524855729579349,-2.9002072271032886,-1.5071948706388842,-2.819565818057785
1170,-0.7367547543327024,0.46202678325678914,0.6194417733268429,-0.11137176878317803,0.7572044937820179,-1.1741342311338936
1180,-0.7211298223973366,0.48767224510292556,0.6367427488573142,1.4432551258674216,1.773524505073202,-0.28807658548873893
1190,-0.7134200144595508,0.4878106043695543,0.643560650795891,1.301558971979383,0.898960200611573,-0.23888897722467234
1200,-0.7245869936588665,0.48247910755711365,0.6248140694662033,-1.8388495215250937,-3.539295135048045,-2.8253203993711664
1210,-0.710017852968535,0.49482927719581865,0.6439865938071815,-0.06413783877050161,0.1323034013382709,-0.04369892183681334
1220,-0.7219390934356572,0.4711693436697013,0.6323297685708678,-1.8169744884246446,-1.8071091379387776,-2.858900471828579
1230,-0.7166143077613961,0.4846003935991557,0.6395216609482516,-0.3379518195930744,-0.4960564163987576,-1.291911838007303
1240,-0.7032050746236068,0.495397962183979,0.6511752408625949,-0.48758504719732976,-1.8038570872542505,-1.870702440838146
1250,-0.7217632635226194,0.48594039251715393,0.6316392788304838,2.545775349651501,1.8160073159311882,2.262068761649609
1260,-0.7111726418764739,0.4933648010936706,0.6432591244630966,0.5269663186760651,0.6939760742316401,2.1900387443484446
1270,-0.6943432428516035,0.5177379401509603,0.6656159351509537,-2.268962695457086,-1.1140954880847087,-3.7161503719307243
1280,-0.722587535125017,0.47747379919113486,0.6345839150766471,-0.6306924003252452,0.43939554464834407,-3.225906998850404
1290,-0.710595060158464,0.4840670787573249,0.6498261318502632,0.0018004216783031879,-0.4876073639251506,-2.407790392291133
1300,-0.7108574551455041,0.4788788939110019,0.6455557219678454,4.71251316104027,2.766773362719222,3.889465824279063
1310,-0.7069609022550314,0.49151215728185343,0.6440070452528569,3.1682775526813716,1.107028112041427,4.402602025280062
1320,-0.7116508412790095,0.4981579452996946,0.6529412699581406,0.5368267289080835,-0.6214118859658356,2.4499410607188823
1330,-0.7233284012640984,0.48304441260958514,0.6314345967617276,-1.8901292143165285,-0.07730899248110912,-3.381733542319806
1340,-0.7099760183589516,0.4905135620437469,0.6403388520347494,2.009593661984816,1.6293101754651524,-1.4094251365807562
1350,-0.7015395976420388,0.4940686553584494,0.6506423794547849,2.068619433824444,0.5370574078869133,-0.6945660094184121
1360,-0.7127752804687824,0.4878088013705945,0.6373263473856843,1.4966709907895759,0.13074723202887892,1.3500934053767435
1370,-0.7070002665081516,0.496832507820566,0.6492218474971808,2.5497420954709025,1.3402945171631393,3.9292022433438327
1380,-0.7368896603596631,0.4693487628689258,0.6157546089051253,1.5871313784563403,-0.162619796214672,3.4617308705837533
1390,-0.7020830052028281,0.500641881234166,0.6540529635068196,0.7125960889432617,-0.21000221674592617,-0.3433253832937092
1400,-0.7281802197526405,0.4835017340812397,0.6291507278674998,-0.13915556264779166,-0.5530041651217809,-1.4489089837532398
1410,-0.7195268253133172,0.4863179529121828,0.637157302698185,0.472838534771054,-0.14390504415022576,-1.4674980512868052
1420,-0.7067086618763422,0.4968557678766937,0.6532439804588708,2.8459727796021617,2.209682702057693,1.522737461190346
1430,-0.6983885940884045,0.5042352846807385,0.6493298897742158,-0.27845800415108835,0.1988072576525678,-0.19097760596031949
1440,-0.7174872913778431,0.4910509677161602,0.641388917517488,-1.8636357289848842,-0.8980721130404898,-0.8713303252515094
1450,-0.6924941121610129,0.5110908466596334,0.6582287489563048,-0.532222514884104,-1.375549909951736,-0.6513398792296966
1460,-0.7340124134428947,0.47315259680549226,0.624003455142769,-1.6795538463559954,-1.5445500641142913,-1.7244742302409761
1470,-0.7296784646810675,0.47767793415214443,0.620095060239918,0.34188954462506493,-0.230712399653711,-0.7279232470711731
