time_ms,ax,ay,az,gx,gy,gz
0,-0.7434746318965497,0.443777327359985,0.37268164988821756,-0.8340706671211087,0.9136335677975841,-1.5335262194356951
10,-0.7690657568443184,0.4138897824381008,0.35006310993540823,-1.8954014806067563,-0.22255981211722287,-2.1382895774928996
20,-0.7559498676895315,0.42364048400839494,0.3643819889206912,-2.9975593746483318,-2.097479465478154,-2.893758984015914
30,-0.7803042994437779,0.39849043908274473,0.34163420223936175,-2.5167450672842384,-1.6436645643065315,-1.4015116090147774
40,-0.8070433499043261,0.37821894896326685,0.31731601520011765,0.2783709632344451,1.6670524048769573,1.1769190574634942
50,-0.760445982748811,0.42366101059175654,0.3636054146280085,-0.08644850267214377,2.895524380075094,-0.3756254597753328
60,-0.7947737327542505,0.3847910352279859,0.3251529290042538,-2.0791063194714896,0.5532354973282991,-3.264094009590043
70,-0.7848911998049336,0.3938903566306809,0.335883813953863,-0.41719214003438054,0.5758172709377193,-1.0308252956561317
80,-0.786081324246811,0.3913388138251727,0.3312471347089886,0.45613167076701855,0.11789682836126364,1.6604595899941668
90,-0.790414006280016,0.4000341353755706,0.3316237460290162,0.44078659957734856,-2.669298337464917,0.7899489175670245
100,-0.7765777422276446,0.41312515428821356,0.3447423462637593,-1.1590029679941154,-1.3314394093007007,-3.70567445093138
110,-0.7517534027294628,0.42993005302757614,0.3692561912153569,-4.369665483291192,-1.0665714552631915,-7.874072976033015
120,-0.786926128553158,0.38601766284020356,0.3346888859907693,-2.659668208221681,1.433310609487601,-4.933699329229737
130,-0.7671816317229245,0.40667889720147565,0.3589186979105221,-2.4555302565193013,-0.2350817074540016,-2.169666208485453
140,-0.7989418025402145,0.3836629930598463,0.33277265307105613,7.9486953604776724,-2.5650029080813104,8.649825287030097
150,-0.7834232528584102,0.42153662342198467,0.3515925172257875,9.612136977463411,-1.719610239388809,9.859688727681483
160,-0.7904812628437505,0.3901605409632336,0.3361999061850223,6.2551884909820865,-1.4073116583568053,6.638848534167758
170,-0.7978885460190855,0.37554446760638505,0.3316295978213466,9.367829280122931,0.6333175452048166,10.106609196742445
180,-0.8286822972691524,0.30385163881292515,0.31863341677933016,10.287570546991928,0.08201118562384595,5.34358928850718
190,-0.7060398200642312,0.37424670400040866,0.31621488931872155,33.20193000794198,-13.458938708770832,2.7938170463676775
200,-0.6402578241025877,0.40922980985202584,0.28603975651367164,41.474188400855994,-11.801955606700862,8.884092324541475
210,-0.6605960201955562,0.46199005088196393,0.3570029630607463,33.60369489622099,-2.4407135077708517,2.6150303927992575
220,-0.706173403023869,0.42166494265632,0.38900370745717544,25.338760631342076,9.119173013615528,4.303448142598594
230,-0.7467313076507349,0.4635739624586362,0.38358415994441913,22.335654431627432,11.995367324089843,0.13178806102876006
240,-0.7678334006931586,0.4949990213931666,0.38990766103880703,8.400987007817797,10.682869779036434,-1.6673016017722544
250,-0.7713631792366302,0.47797977591560475,0.3945706056665483,-12.629228556920044,11.446654671169107,-6.2551560764918035
260,-1.2520689104621148,0.30611473400111533,0.6077806525079081,-25.623124764423437,10.395788543204464,-21.70141868069695
270,-0.958935992053301,0.3378982452187497,0.47571604392726013,-9.746677122026055,-3.499309236671434,-8.591424499877105
280,-0.777408831371258,0.3740431114631081,0.3520680161738372,-3.2618913877480122,1.4135587493726867,-5.651082400753777
290,-0.7958810348424274,0.3974723806242342,0.3074632952433649,-5.280508436362396,-0.3065356240462893,2.194346841171113
300,-0.8061869158863464,0.46628598252517395,0.2944082345950532,-24.15567799334432,17.284003855497414,-17.62800067910282
310,-0.7998881127385465,0.5166109503148014,0.1388835205475594,-4.0579130215617045,40.84924580254483,-9.12957884395209
320,-0.669126652659626,0.4041984311795579,-0.07057492921031056,10.774432647806831,54.838602490719595,0.4408134516162187
330,-0.7237708657706141,0.2992926975638278,0.4537456781611804,26.535254125396158,46.688905350276066,12.861445416534389
340,-0.7816914768144818,0.4050817779666407,0.4404736047874873,12.821615553089902,34.39070041342769,7.228763493623567
350,-0.7732586944638355,0.29174378645032684,0.4026561938539651,1.5864755023244013,18.917665025842727,5.732042105147968
360,-0.7716804446988159,0.3386386044155325,0.4750629531433921,-8.602962161308323,6.065635354582637,1.3190336955965623
370,-0.7759407895925936,0.3946020719562801,0.32166323606567937,-0.9644354676557805,-0.3591608754027239,6.832894146215022
380,-0.7746286320752067,0.405617839445786,0.31312537258055884,10.65948890067696,-0.4165661053730334,16.753560018036932
390,-0.8081689427860032,0.37934591710254806,0.30216064125496467,15.460226701019971,-0.8167266020397845,19.119425407653523
400,-0.7976791135273209,0.4255493778287402,0.47165677615596213,21.94488983425486,-28.787394271330715,23.033519870617752
410,-0.8261850028474295,0.4931116814408042,0.21228756138008661,33.183512408785795,-60.76982347182686,10.967599948137117
420,-0.9004337015896363,0.6699280915746685,0.23484795785771925,42.44783923313768,-34.51449329518998,26.03170711599395
430,-0.8643381895238822,0.37379249354884314,0.053651182899180624,44.38841532923281,-42.41601813145968,-0.04803744425098766
440,-0.8043767187646649,0.5683866300207333,0.1934517776341045,29.82505642046859,-27.730777742712046,-5.172119501428702
450,-0.9821752035256889,0.46974571284868205,0.1168616716216323,19.025650952063494,-15.575000038044909,-4.395877624002147
460,-0.8401289519288047,0.40018019722585624,0.227037441069976,1.767116632257687,-1.7799272292387596,-1.0281334084416553
470,-0.7862319519381787,0.47586659941753834,0.3423043689028026,2.0840613678586735,0.3081278470889508,-2.4528599695378643
480,-0.7758228525678953,0.470987366187469,0.35685072091741404,1.4616402913064048,0.6430830266298386,2.1263402461327106
490,-0.7462797995635687,0.46724714155494546,0.39057615862180667,-12.42082874850046,-2.8245999825675203,-5.295809436392837
500,-0.7809197010599557,0.4528169463026613,0.3567954750194205,-32.593102843028845,-2.5529743933714446,-20.713585512607782
510,-0.8313345529718832,0.2658873754938969,0.7091745691335455,-19.892829748306113,58.63602004655598,-15.511674781920943
520,-0.8174826633563579,0.3632624566030356,0.32486115788785724,-31.509373708008354,48.524626581121304,-9.534722071719035
530,-0.7593423768543898,0.28414221067444134,0.5217769658872672,-7.150424057699919,54.3171431997672,-9.059212160443682
540,-0.7242393242933698,0.2668395941928126,0.22547989916470124,5.781638468123123,56.479448938594025,-1.7148537543355469
550,-0.7631632396011654,0.44464710155453807,-0.20086078624162168,20.19565735342207,39.91088327477153,1.070212550090429
560,-0.7638474948102449,0.32980051601187427,0.40509235782319675,1.2447434241314468,27.146847897516597,9.556000410108991
570,-0.6887748033369598,0.17205794493287518,0.4445933535438086,1.370043516637251,7.980660207535689,4.909495298089089
580,-0.7528163123115849,0.4324856172514092,0.21583766670440646,16.94110943262234,32.826883430373066,8.785980825095164
590,-0.791869696734094,0.3916532342673855,0.3817240094245611,-5.545675566299359,7.632283925494287,-6.319465855211717
600,-0.7682370008283088,0.40607357118178544,0.3123920616411283,-5.209429199602765,-0.452442312107763,-7.355064922567321
610,-0.7712762043783487,0.4101926608469512,0.29161073220798944,0.13970326238907926,-2.9305692250886253,0.4668017527838755
620,-0.7837516762659124,0.40702379953965895,0.27389269434822,4.846197931033428,-0.327797804811248,6.334059019719644
630,-0.7867071311057977,0.41859891167864155,0.2744038756632733,-1.3877689456102824,-4.065280735142652,0.2862272449698
640,-0.7962266549554771,0.4113852172724721,0.2723265578333274,-6.361994968399145,-7.260950967137722,-5.072186401023042
650,-0.8095707735340355,0.38514284550578637,0.2624004782390219,-3.969728790211583,-5.975935626426187,-5.489650265155536
660,-0.7710772494483537,0.4674606497326676,0.32717090055115966,-1.1298605961951673,-6.56871825536155,4.49244766635864
670,-0.8330675604582682,0.5135655055005771,0.3580279400053282,3.3571610807002927,-27.73177962360213,29.462517536469427
680,-0.8090849642506738,0.3887227476051902,0.3002025282709686,2.4489381234781225,-38.10568337152463,23.091465380543458
690,-0.7452394601650281,0.4609066875806154,0.27111864985857964,0.3698846464490708,-34.64566628956241,15.006812002842528
700,-0.7418288743101278,0.5181844494694038,0.318922570214446,-3.9088017371942034,-21.4827787679493,19.82591091127496
710,-0.7605547429261837,0.5213533731629247,0.35327375895528806,-20.020636884200293,-27.48706591205246,14.731873466927485
720,-0.7580478249935099,0.4125912470684756,0.30114766189929926,-8.80459544066102,1.8925288057640999,0.26556713758384726
730,-0.7375558252174333,0.41735654510500253,0.26779967316930975,-11.618218166576801,7.252040249685267,-4.043535499864854
740,-0.7321124406639674,0.42932380162368033,0.2757975433811955,-15.188096643752019,19.576389370405664,-5.755137784765766
750,-0.7273140766702004,0.4592588096705136,0.21424023441136295,-26.489153753765912,7.228415653665759,-15.609253421533055
760,-0.7508461694494253,0.4553167012820419,0.2438070598168589,-26.893209810843604,-2.5469417806395342,-19.77974491427157
770,-0.7777092989625755,0.41344668000048485,0.3127728493354783,-16.19610788141942,-1.6403366084477509,-10.317155446598024
780,-0.7886233680852631,0.3725530473652005,0.3009040215305928,-6.39279111639542,-1.0838728300951732,2.0418847561041207
790,-0.77302275241901,0.3729770615479222,0.32194790933922146,6.196930478340789,-2.7816603515229192,17.100497589538367
800,-0.8009571942608528,0.3936573361833488,0.34661745172001396,19.502294326967654,-3.3739506492204665,24.76659557084117
810,-0.9238294821837141,0.9672403745529816,0.4288466682169277,16.205828743444638,-4.606355249846451,28.033655958859878
820,-0.7818311333150412,0.9169633733771823,0.6130788283214234,23.536191216037796,18.7059920881895,-9.42894815729076
830,-0.7468256192561741,1.0246804588386282,0.6374349460403347,52.835597937555185,16.929815003252088,10.03114451201397
840,-0.7939896569818787,0.624621758481994,0.34306473273049864,9.889601429771327,5.027634047152137,13.139793988215116
850,-0.7933125016318603,0.45240772643351057,0.30147018725758556,-4.9651535619906735,4.3752447463759045,-10.909175935295359
860,-0.7990233879690253,0.4160455948832089,0.28901880311025374,-10.576906811004466,2.6400745458497794,-21.728796104064703
870,-0.7816864864396833,0.39130727659961584,0.30114918100437715,-9.695240437404156,-2.2179529988554716,-13.869925972361663
880,-0.7881839119453291,0.40924233427771756,0.30345622403351413,-4.336175145362547,0.5050797347433715,3.3654994310877253
890,-0.8114978976651842,0.396017033558994,0.2845490144035194,-4.483434391384659,0.8983001352521544,0.7582885298947057
900,-0.8040376433233518,0.3942862053681978,0.2856610874901734,-5.470566776687806,1.957067213447039,-4.637361592011043
910,-0.7890976502353408,0.40330001679451133,0.29629541523764397,-4.340817953056693,0.6596430854199299,-7.347202120083037
920,-0.7937977874132831,0.3950617758359769,0.29682326222669064,-6.923037203763308,1.467365112837694,-9.017820675176067
930,-0.7573478414257916,0.424820949408418,0.32631758476536143,-3.876501188822392,-0.2026126654955842,-0.7825054675860394
940,-0.7680337426512606,0.4177494570764386,0.31878363956792616,1.1652009198069793,1.9547574416459526,3.399628516719476
950,-0.7918881430236138,0.39920666962562984,0.2946926408847359,0.6540657359698032,0.23468647874339554,1.6165602118524014
960,-0.7905022320539826,0.40578149170046174,0.2943784888776445,2.8893902478585294,2.201836671105408,3.119921163469897
970,-0.7604135933166412,0.43632159273027704,0.3251919634435689,-2.5998624931419583,-1.1460395161608758,-2.6903790345561696
980,-0.7921131362673572,0.3938899812513236,0.29331304113389334,-5.864952724903064,1.101325782722403,-4.965080936219978
990,-0.7753060352962107,0.4176510928254122,0.31670213903057165,-7.601217495221224,0.5305545839071502,-4.5934500489968855
1000,-0.7678912195266955,0.416117239598667,0.3139889529908626,-2.9560386274295127,1.3289479915914046,1.7254572830502268
1010,-0.7871948748675479,0.3938701715584555,0.2918082275999649,-2.9521715602048477,-1.2419855401538766,2.1031474645843042
1020,-0.7761292160106373,0.4073548782636917,0.3067194683068781,-4.327796209764584,0.28447517099220954,0.6083403951629386
1030,-0.7860954721699855,0.3993691027380835,0.30008438172806906,-2.2963298998636446,1.9007282030638197,4.0746023005575385
1040,-0.7725054876480487,0.4144404641869373,0.3084590746278139,-0.22559148718644104,-0.10209492394270989,6.232263479930734
1050,-0.7672005497318988,0.4264647639272301,0.3192501299584969,-2.980547633541127,-0.6550356763181938,1.9986759202663238
1060,-0.7885836951020331,0.402804056530131,0.29462806047085127,-4.083963757705174,0.4520676731660168,-0.6663830967036298
1070,-0.7878818612213992,0.3991732638331223,0.29286766491006194,-4.175614900330341,0.8511885936592385,-0.3827863115306443
1080,-0.7724504008696521,0.4125352944234686,0.3092332933771006,-0.8408312626915113,2.050576872693663,5.199908276511341
1090,-0.7829771176219513,0.4061835262323954,0.30025663544821507,-1.1942248067048369,0.285428612667584,1.7132439487651794
1100,-0.7942052535990595,0.4052607154045827,0.2929796305233731,-0.6662155126018644,-1.2603298734293844,-0.23266349929985064
1110,-0.7739685351569766,0.4279808662431813,0.31092253430351907,1.1452940256011606,-1.6538355195844023,0.38181024314229295
1120,-0.7830766667731914,0.4125310158785066,0.3018334730695748,-2.2759477097361316,-3.5816730258106095,-1.3671796702628058
1130,-0.7772876307847527,0.41075470490395516,0.31069096437080185,-1.2128134699441455,-2.0802287168468925,1.773151300498865
1140,-0.7725500333726629,0.41259615310854714,0.3137430412412441,-3.0092033101138576,-1.1108652637982983,5.670261438870769
1150,-0.7775953617453191,0.4161726541784325,0.30871988293575253,-4.785771425532316,-1.998359117215357,5.8734390377431165
1160,-0.7772273980627779,0.4070766946892156,0.30504669583249094,1.0475423200795129,-2.751926487826162,10.139681246932497
1170,-0.79207727475385,0.40835353132573415,0.2944830916782947,2.8209741920673577,-5.9990000752064825,9.582765725994793
1180,-0.7773159182984652,0.4325958854453354,0.3132655928381045,3.5505899698850216,-4.694502428229445,6.792780896749934
1190,-0.7974646554998992,0.4087149352289827,0.29081096847107935,-1.0204801833953643,-0.2101929411146879,-3.4668337197071644
1200,-0.7878209361640245,0.4045142106131985,0.3011537403331666,-8.796375565711768,-2.083598489042623,-12.28108071811751
1210,-0.7850041315010449,0.39726105216032614,0.30716119765807515,-5.230221122457144,-1.1533194727192433,-6.231821590982157
1220,-0.7986397438585713,0.3914588732013646,0.2955770341429868,-1.8018113076641182,-1.0605838689647624,0.34843386684954086
1230,-0.7804744510170142,0.4078873331458917,0.31122594723188,-0.28909193593915794,-1.1377352072707767,3.634533772774175
1240,-0.810588669144263,0.3853361976572552,0.2817325197846344,-3.5652564304334287,-1.2960987918711604,2.286444540203175
1250,-0.7930875526441948,0.39626047206763626,0.29418978662921813,-10.758912939407216,-1.6881900163688526,-2.9237481997445762
1260,-0.7960288800147111,0.38100048300142475,0.2924354093638687,-6.664605909577515,-1.8485469701628565,3.2138010235118273
1270,-0.7698574522265133,0.40686510361381023,0.3273019287052623,-1.3022821025200975,-2.4707328832899123,12.056751369463123
1280,-0.7922287326438402,0.4019646707088946,0.30518792665993055,1.8394975045785162,-3.5324827500752067,16.109837901121182
1290,-0.7968523351389936,0.415092545569165,0.304212902053249,1.8160432087558378,-0.5286200220729338,14.790107813121697
1300,-0.7815951999277373,0.42950241398135597,0.31334286050363863,-12.748031336260976,-4.305775990615603,-3.8791230941396577
1310,-0.7691249200282214,0.42630155139620135,0.3222986285773278,-9.695682453245462,-3.254543058346367,-2.7064736714193427
1320,-0.7934112268282038,0.4049350443252409,0.3045829333610543,-1.5852640417161983,-3.6539544841761584,2.7088314614756017
1330,-0.7662394787948101,0.4414355014022224,0.3322057108978586,-1.0187245260093312,-5.671136589596386,0.25362906395001694
1340,-0.7802428281681524,0.43003489382029325,0.3155975085870537,4.542503693492648,0.16024275417574252,1.3074661910495635
1350,-0.7900016750417678,0.4111909324365124,0.311091443880399,0.07194298110213948,0.44116482131603485,-4.166220811892462
1360,-0.8069228326022124,0.3904962406616346,0.294706708227113,-0.26754780488073204,1.0693615304925015,-2.3193894751855435
1370,-0.790924909528888,0.4051499676692589,0.3082896817695867,0.1779307173939308,-0.2322024660015564,-0.5134096380351906
1380,-0.7981841374955781,0.39636956792172123,0.3003293097885701,-0.6670484290134546,-2.1492450943817953,-0.29216556049189424
1390,-0.7772775526650163,0.4209677800637296,0.32221338062429444,2.8608074856071437,-0.37689427589299773,3.115474209301359
1400,-0.7750702438009978,0.42360334767371605,0.3257246140285267,3.987020136242018,0.7510197105579592,2.6208182415920374
1410,-0.7668306253035252,0.42744269711619415,0.33406206807164107,0.20205498706857655,-2.088708087072221,-2.2147880760527343
1420,-0.749034625855377,0.4455152273847258,0.3511726845148869,0.032271188554957364,-2.581527642473504,-1.6711681677630557
1430,-0.7628185586072942,0.43339419651721495,0.33747156340911894,0.47656691528282535,-2.290747159617948,-0.3103678737440634
1440,-0.7558816669987933,0.4395244111527162,0.3402753744267537,4.612598125861117,1.1888735910955948,4.776814480588852
1450,-0.7821458787480436,0.41784062543035083,0.3148300817189789,4.984699970619964,2.408822316934326,4.861576801452432
1460,-0.7628554816405063,0.43634435014299133,0.3370632246688054,-0.26590559137920056,-1.6436439398480074,-0.9006138142229219
1470,-0.7952221028425973,0.40469274275371814,0.30671609096891955,-0.11563153980488552,-0.8660107545560813,-0.38648031859187004
1480,-0.7657421493182827,0.43650446528536896,0.33667577071115734,1.004863512480545,0.15346565859526762,0.8586762683796437
1490,-0.7732259179111415,0.4252558278787604,0.33023987380030556,2.9750150752663185,1.5812949694250107,2.957491247026016
1500,-0.7792029879030397,0.416479725277418,0.320404432635108,0.24249723600017487,-1.9086290164895243,0.32122724151807885
1510,-0.7700410850899799,0.4262778244993174,0.3291335141672304,2.6521177075270694,0.34420825860126714,1.5968317282598141
1520,-0.760420341598224,0.43627332811093794,0.3453550084431967,-1.1758317889976913,-1.102912354039721,-1.1289460634473876
1530,-0.7883562318578603,0.40763460889335856,0.31460771559987327,-1.4418797742880445,-1.0484037570325984,-0.9842794339405214
1540,-0.7601425449777368,0.4390169740739979,0.34571055769492853,-2.1988453512431287,-1.8868405155935757,-0.7264735792398949
1550,-0.7657119735485985,0.43456612101970055,0.3371654770509256,0.8065136583208212,1.199940634860681,2.4004042627139435
1560,-0.7904305467937454,0.4061444324381546,0.31634338070882384,1.0217488435121964,0.8786191510762842,1.456478512374321
1570,-0.7676879763119837,0.42713251981499833,0.3328897490288599,0.9461611571286632,-2.0689138984258753,1.0252269159691934
1580,-0.776656534437912,0.4232275303688787,0.32696015047156124,4.0151825662880345,1.2365925570725955,3.935246295904107
1590,-0.779191519474798,0.42136306097435006,0.33058651469677003,-1.0289795052221438,-2.471552438501868,-1.3602903986158816
1600,-0.8015816581319797,0.4014669142599405,0.3028018295874846,0.020822114446971657,-0.2818109615650848,-0.6582630988232167
1610,-0.7707226660422251,0.4282566834179952,0.332135344578426,0.252708914083785,0.5789186499388969,-0.10529177506599396
1620,-0.773753247759268,0.41697794161363305,0.3249156085296879,-1.3816275693216098,-1.7669162041729325,-0.5275238580052111
1630,-0.7616222229536304,0.4329524306263926,0.3427275085155986,2.5099581438078835,1.195208759951061,2.3675959974045435
1640,-0.7499938592945992,0.44639491218278193,0.3521339788082961,0.6313726209464436,-0.7097899160897246,-0.9798215138338938
1650,-0.8057936873036642,0.39735674052413716,0.3007567234541292,-1.617506855726953,-2.29831902364729,-4.835871102215233
1660,-0.7656394319045924,0.431143882425069,0.34265349565273395,1.7823401201479112,1.978928123790308,-0.6724988442882842
1670,-0.7936524801941715,0.40294370540734614,0.3136031007704378,0.6324638064966867,-0.11665576046714535,0.6086393824780307
1680,-0.7957445447677666,0.40296549163174405,0.31179006352884386,-0.19604561940290344,-0.23184670244569022,-0.3676020667394189
1690,-0.780726802701856,0.41750701504911614,0.3232093067330997,-3.0189734991670925,-1.297962472295188,-3.5017535319660835
1700,-0.7711611863975509,0.42983388078059476,0.3375862812220892,-3.0506369643276248,-0.926251778771292,-3.900358468941073
1710,-0.7760545799500552,0.4188855703660698,0.32398544836654936,-2.8820591764548014,-1.4018403995015614,-3.2781563101022555
1720,-0.7837923013882947,0.4133890930317606,0.31920603692931326,0.4876887065573249,0.17137117482356296,1.193075339631198
