time_ms,ax,ay,az,gx,gy,gz
0,-0.7230157050581727,0.8731646805666301,0.7168440090802498,-2.946939666310402,-1.3173697632855994,-1.928929188960562
10,-0.7263072189056833,0.879221236319581,0.7219798856510058,0.8261606808984868,0.7942419011080766,1.2881961979313226
20,-0.7249502588876737,0.8769230620353659,0.7296234847867888,0.21276949337190454,-0.5928674068382664,-0.818935414279406
30,-0.6911939457030307,0.9094945305173541,0.7564303554690689,-0.33941106721958686,0.28332237872334554,-0.8836780941963098
40,-0.7140864240384847,0.8803779468405156,0.7382560520350101,2.817988572799103,3.01887763547151,2.176637266251531
50,-0.7025743062450561,0.8949415831942686,0.7513336875090671,0.5493480865550112,0.9772579506272845,0.5035506891145181
60,-0.7216959207362468,0.8722316909954526,0.724412752179143,0.8974139554333724,1.5966144214985862,1.4640160843692405
70,-0.7211964356625123,0.8709887147281428,0.7252823874792089,2.832589315624611,1.8473124304080253,2.610014267901281
80,-0.726192232265254,0.87774576785861,0.7295045158201965,4.573409470518112,2.618719476351755,3.5407995939103447
90,-0.7337507268635556,0.8710995589917215,0.7177463341008226,1.67766977015807,0.7860356101129963,1.2105852114159352
100,-0.7082388779835741,0.8912505046072268,0.7426980348923569,0.6085085191353157,2.7962440728775877,1.6890242980640235
110,-0.7235260713496582,0.878538738974901,0.7306012357178129,-0.7692073288750461,1.8521558408172656,0.2261227613148835
120,-0.7859640632944006,0.8794587980638511,0.721993012864503,5.012253597440633,-1.302501482913375,4.443866476278732
130,-0.8259912049409052,0.962480463239515,0.7692187973109892,9.178032961186565,-6.701874154084782,8.88614203669248
140,-0.8404578366056272,0.9608536932600592,0.7977587774322182,11.132291637459783,-10.964929091975513,9.139284298498382
150,-0.8923877055430198,0.9319408094644531,0.8777664605777925,4.571736744960384,-16.775357096872558,-0.7313190838576453
160,-0.8857460626735301,1.0151745022013408,0.741011993903342,-16.14208891903927,-27.595619003033864,-0.2048506821512504
170,-0.7563462221356634,1.0045239441234701,0.7314419263863033,-15.327411177647607,-29.89925021304629,10.992848794322278
180,-0.6890183642652825,0.9125154752175404,0.7004208286039981,9.765096205002365,-26.214795282172606,36.671007446279425
190,-0.6109083433893303,0.9621469094447023,0.66869758646979,12.926343363989938,-19.391107667428468,31.51787863427117
200,-0.549438287811009,1.0298301725466843,0.5616601987392765,6.197659823639092,-6.525524381291248,26.821802499966562
210,-0.45358825069472175,1.1371031073312956,0.625723769747293,-18.85849384336148,6.685712989542453,22.79523729491915
220,-0.5043240378833832,1.103751113706661,0.6453013672661392,-33.28646516679134,16.69386277012641,27.06519397322783
230,-0.5837530545202293,0.9719658246782726,0.681204537985354,-33.68593450406373,22.651745565134906,29.44459881712664
240,-0.6969167304635553,0.9249978880173998,0.7525461826365245,-32.20650001775184,29.48385643466903,22.87217714676192
250,-0.7309004425359099,0.9564656195506395,0.7395365125322831,-34.14677044878816,31.158110182836225,19.84496334310719
260,-0.6792593071112941,0.9678896919742862,0.7846944817087615,-35.43715099621889,33.003224014135554,19.690739566341563
270,-0.6845474738943165,0.9191793763056408,0.7865517040910288,-34.05547060525484,33.643775781570746,21.267778920110512
280,-0.6511104921122355,0.8608152753512525,0.7838768928911319,-31.7953360930411,32.491477032253535,20.800817326256606
290,-0.6361748415250881,0.7596214433948886,0.7967407940618438,-42.21845840988981,35.42627644007475,-7.039694722887211
300,-0.7439890092437448,0.7737038516072818,0.8604194208961303,-46.27004690838909,31.848973902253416,-23.574676925972966
310,-0.974915103951108,0.6154734937022667,0.9083630458469031,-39.58710289459871,20.130822735564376,-30.810971068899104
320,-0.8498984927945623,0.845608366275625,0.8632993144060334,-6.769555360806713,10.739626261784892,-10.488275727998131
330,-0.6968003762003658,0.8294737968717001,0.6787654715573473,-2.6841060426597236,4.0285017536362835,2.835980991435912
340,-0.7100131612095228,0.5115044521973796,0.9275828605924831,-12.682981868507369,-3.9814628886722723,-9.482760135901955
350,-0.46253414662943726,0.8914804216076313,0.631180290718015,-5.584382566690374,-13.325762432148721,-14.140375875822999
360,-0.8020032075546119,0.7638824989947995,1.0382298066311106,18.033921782421753,-12.182189541459827,-14.220301797456191
370,-0.9055934870404019,0.9414844035533853,1.0552873792413404,42.55570130202182,-7.42491652667349,-0.9904618736549338
380,-0.6844831934300158,0.8453304863522504,1.2392573037472832,43.33878065179359,-16.608656005798252,-11.229547384953742
390,-0.5507080617941726,0.8547603898371036,0.9775537362298446,12.724172830806754,-8.121107988708978,-15.439409079303386
400,-0.7987908763114903,1.022469248609405,0.5690965890952515,-1.1286535458326021,-4.129302627329308,-11.538854711714889
410,-0.8377053045523588,0.9271455433396256,0.5015773919315971,2.219496027848617,-4.891645652900198,-15.859385690447235
420,-0.8341058361998603,0.8497985119009399,0.688907425105563,7.178945262764881,-2.330881393948142,-14.736760864378109
430,-0.6981507826791955,0.8836338674554842,0.7339989640651753,-12.332983989639876,-3.655347912388681,-14.591168634649442
440,-0.8056264297938543,0.9409702881527833,0.33616125130698876,4.353137238819249,-0.8058904572971959,-4.7871115406580875
450,-0.7778014886929148,1.1172286397185993,-0.005073470791812704,12.64570798293356,-3.261490709860731,-4.244286424856774
460,-0.6090641606733701,1.051614986305156,0.5018141279561611,-14.506473604485333,-2.196922774136808,-7.199802520522137
470,-0.7232428551018897,0.9050256872943307,0.6846606276069935,6.480810792800344,-2.717137310703941,-5.198189753484251
480,-0.839006679875955,1.0738382851093875,0.26725173918411077,-13.596162350208012,1.5207297452722095,-2.3067647509962153
490,-0.8868856671006056,1.029957402280888,0.2916973169679614,9.803552603430852,8.35815727445097,4.865255772513104
500,-0.795162685058941,0.9704707805536181,0.9000036470809394,-3.824825867835618,-3.900790917018883,-4.649034884482312
510,-0.7587794907438938,0.9599238969177832,0.7094809496831055,0.248179346236779,1.0200014100684884,5.941972196969725
520,-0.8169280562836267,0.7864817430535826,0.4901410283106827,0.40615009854264306,-0.5917322408996762,-1.3189816010069026
530,-0.7675402909385389,0.8853408852033031,0.6662689255407851,10.492598544294234,-0.9428042232598075,-3.644427711948245
540,-0.8463536750017044,0.776528248768919,0.48189025254126394,0.6566451192098821,3.9377885764002527,-9.63645329987958
550,-0.7926031862142291,0.6606543846026856,0.5715861408923875,13.713443923589946,6.257468128283707,-15.897590573297826
560,-0.7849743181317531,0.7748088621905697,1.0140954691495692,21.775473208114345,3.4425797759615193,-18.29968036138084
570,-0.7324619458544905,0.7650049023553579,0.5602247872656005,-11.66268677434364,3.2205929642838402,-18.09536743239327
580,-0.5842950243447367,0.9099763083369464,0.40640345975553627,-2.8531350623453835,-0.8261939994255894,-12.002578839786624
590,-0.5998554111500214,0.9411219726409779,0.6653246676931232,18.470501996249727,9.689330982425513,-11.600189720597456
600,-0.7056352047616535,0.9438831484586881,0.5550624624692931,26.954062247871512,13.675247829572353,-12.249132802542121
610,-0.7219744801275879,1.1399447667651976,0.8781857106984279,37.987179347146245,8.617159134189418,-2.826468196071841
620,-0.5301643359545185,0.6443630091488333,-0.30071949628475503,23.39837124036165,8.086592834548581,-4.016831159148163
630,-0.34611531539394597,0.5635595412267962,-0.2814389591707016,3.5476027546620905,10.518930971842249,-20.485356561293226
640,-0.6349000862073297,1.0635298414226202,0.9414623326982119,32.05874026568608,5.966233922455027,3.518315440556128
650,-0.6808058855373957,0.8418698092508089,1.0145846446085347,9.751989501320942,2.6616509835436113,-8.349321928809346
660,-0.615609569964561,1.2008007752822907,1.039189932339448,19.157655413412193,-0.4772076577608726,14.407171578829868
670,-0.5855036740445179,0.9784995946004931,0.8773696499331449,30.807870538655724,2.7893292212132104,0.5551859036526968
680,-0.6995129102045198,1.1591123626897983,0.7974518000655505,8.986828282794832,-10.713867313322993,7.750940930765203
690,-0.6963497791842328,1.1586632067558253,1.0438677468818331,28.084957836796313,-20.763219414683416,6.642061704537704
700,-0.6735911102987454,1.2629157004915563,0.910642287329008,14.124283630985417,-28.649683379537336,20.140253778673333
710,-0.6611155917960464,1.2747513465695313,0.7828728529165695,6.037820914307204,-27.969930000976753,42.0507640487847
720,-0.6499431482576438,1.1245717887064222,0.7558371260959661,-5.638488796597279,-31.045371413969786,43.82485809589948
730,-0.6281197414855391,1.0454842719681272,0.7380474929132536,-14.876803869112285,-20.499488812478912,37.005149663281195
740,-0.6611672897148761,1.0493295304461427,0.7526697911251549,-34.45851288545803,-16.95262305968489,21.0530502354809
750,-0.6916992770491937,0.9847803759092848,0.7113158753002368,-39.55533726132345,-13.257836322353912,19.686604912272138
760,-0.6339647532689365,0.9595555671418627,0.6668184971119167,-31.26444901414899,-9.911940343269803,23.50270667180366
770,-0.6122309612898141,0.9253725854076044,0.592134427287336,-28.291591951104465,-5.687049873057126,20.56560671410672
780,-0.5813623802241471,0.8935099585171409,0.5848627147968352,-29.855547691543627,4.012517201540331,14.749584710806177
790,-0.6374451751896903,0.8667643308255302,0.5715528025035881,-30.881945862316524,12.672677240353408,6.545483775337788
800,-0.7106019925111219,0.8345704181090079,0.5790902386254545,-40.23672126196874,20.84350210350897,-7.148637812596481
810,-0.7406367147547698,0.7696369663656957,0.591656230074304,-48.86657762766181,23.973327094842325,-16.84701308144087
820,-0.753994296162576,0.6432031974301577,0.6131824413869903,-47.89017154800108,27.233211040966232,-27.692702575761107
830,-0.8286519986324365,0.6430127607049891,0.7572202727245007,-40.60789033559366,26.408215957559158,-34.1015935502887
840,-0.8932053821668975,0.7322328809514218,0.7462731374459424,-26.048420962179556,15.515163073153346,-26.26485317090372
850,-0.8818876720728794,0.7495810968640807,0.7118573795771932,-14.38175799052519,7.0880924901035955,-13.658475533474139
860,-0.7285266029075299,0.5020898888421839,0.8577129682760448,-0.15987495345685865,-2.9241811360765775,-18.44229055843144
870,-0.8112682806719286,0.06970920450576124,0.6378522096429243,-11.559778625108606,-3.3480051531813997,-49.348545231017624
880,-0.7942736885452593,0.66115802664413,0.4552603118257553,49.55649860416036,-8.495213938966057,-44.02123490359835
890,-0.7465201818177026,1.2634260174379828,0.8951125564965515,104.6649257855693,-5.786203839346554,-22.019724699469418
900,-0.7455352434537812,1.2996656703453602,0.8108046309690579,101.98327392526762,-8.165408667113416,-23.8334121778867
910,-0.6399687538641565,1.463265792025579,0.8659947650863784,101.72353293360165,-5.230118809737245,-16.995311367714468
920,-0.6585716896535058,1.6383252576041432,1.0848822793329969,88.9484472110355,-6.411817740001963,-7.383238078107974
930,-0.6394208720004239,1.2977652097734174,0.9332282633002265,47.68258512891443,-6.327556080604106,-5.135229656218848
940,-0.6036564648034637,1.4745035732579859,0.9707810196498651,51.544915569237915,-1.1670445290712907,14.079995695816793
950,-0.6724414960230004,1.36347239871882,0.7162597230744794,32.483458662499594,1.772312596836307,18.262574609952278
960,-0.7206288093442208,1.1854005665330727,0.6724564496656051,8.497370127967766,0.08608123940900336,8.811215692935843
970,-0.724988048641777,0.9118810080538613,0.7064741475011286,-5.312166823571127,2.216474409781967,-12.251976618625427
980,-0.7219210704585324,0.8495526473425133,0.7000159736415896,-10.240992928343282,-4.164992856300895,-16.303222937546142
990,-0.7693740726145302,0.8031083134778813,0.6742311739006034,-3.1213507344407274,-4.071021365282878,-6.547720348740345
1000,-0.7651564985664672,0.8361843728464068,0.679270995063544,2.9776212997448295,-0.6575670930842277,5.020211339181136
1010,-0.7107719675727481,0.8882351900323561,0.7336459668054647,-0.06493240871194389,-3.2419452163358384,5.633306922130961
1020,-0.7582695833303775,0.841381463022785,0.6882981360212493,3.7652595334726873,-0.44739575819170674,7.558879103757386
1030,-0.7379067256965344,0.8851781555818713,0.7014952057764376,6.846173473689603,-0.16810606834986647,0.7656348599523444
1040,-0.7023854443182443,0.9155495565757602,0.7357462322707488,2.2405826217990663,-0.21180615295694005,-2.1446132291203703
1050,-0.695243199858418,0.9143621385705578,0.7399902002870135,-3.9794493276563347,-5.245048281932096,-7.753234525987601
1060,-0.7303649926957548,0.8764167380243925,0.7082089215369793,-1.190749752370742,-1.2280529282615835,-3.533419866743018
1070,-0.7083058123107648,0.8899593615598939,0.7330108996803075,-2.3109831505464133,-2.0035355256355007,-2.9293974959141984
1080,-0.7325692322200229,0.8711510304282413,0.7093805471502708,2.690897770478257,-0.17684724054807377,1.5884379545581562
1090,-0.734544448447257,0.8783000741536213,0.7051677020904601,5.428789685696412,0.371913244926549,2.6163856832430925
1100,-0.7423078790229987,0.8688013752614178,0.6951802692969353,4.0088704897657195,-0.31979561337652485,-0.33114487533655945
1110,-0.6980672944829001,0.9098264374843227,0.7333758992055412,4.820428634162862,-0.577449103341332,-1.7895906051543746
1120,-0.7369424924145489,0.8723360212781273,0.7045202579434641,0.21652399409341694,-1.9679512291672996,-3.960992640768418
1130,-0.7451429680187422,0.8611394693566813,0.6983954468421616,-1.3770497877725936,-2.341308489780725,-2.9043438505811228
1140,-0.7156763138756767,0.891498906954131,0.729389594062717,4.974360236233112,1.522207712251203,5.176493132619801
1150,-0.7223245714488207,0.8721870728883249,0.7053228952403712,6.979033609357773,0.1205643160588451,4.35959282711557
1160,-0.7155390271757608,0.8864724903975061,0.7087456766842587,5.891820460370205,2.469707924953894,5.65619658911738
1170,-0.7330531827668781,0.8870333863733804,0.7106704344563503,3.0187781413547046,1.801159119410142,3.5102598116050525
1180,-0.7184034644868813,0.8993161502421524,0.7181264208960025,2.4721519588874785,1.8442220348463452,1.3723629928753236
1190,-0.733362778982057,0.888234331155646,0.7010204817858547,-0.3233967461578432,-0.10889354176429485,-2.658205515983835
1200,-0.7079368653026237,0.8883846722345559,0.7266635788712268,-0.019177084833789104,-1.6269142271755033,-3.1479733731816513
1210,-0.7420952024380033,0.8487455526790163,0.691923356528526,3.4084799366901177,-0.4805452773310501,1.1287456243881033
1220,-0.7149133210057618,0.8642252183574871,0.7163015962832284,6.1256824627362825,-0.7492560836059173,4.114834307587888
1230,-0.6917554654668736,0.9109294459482288,0.7434365838711039,6.598120619318902,0.43133742717574575,6.1337313971070415
1240,-0.7285629267916903,0.8942316176300874,0.7158285071512354,7.48200145472641,1.7897110479758556,7.143979066171587
1250,-0.7319842793090756,0.8916257401104225,0.7073110793482134,-0.08303290017325429,-0.3947208694225412,0.19353930361362415
1260,-0.7168658229128569,0.9012778226450052,0.7174515376362643,-5.7300071762422125,-0.1662371503022837,-3.9437459402843555
1270,-0.7439451877850004,0.8670478002341924,0.7023149535819583,-8.453703796191496,-3.217582889359567,-7.117146469319566
1280,-0.7387474982799566,0.8636526902644157,0.7078951970085996,1.9915594278532716,3.1852225241871794,2.021138269508213
1290,-0.7032855977388354,0.8993445333617966,0.7361920143600187,3.2777533103850356,1.221629620055433,2.283887489267239
1300,-0.7308843485983606,0.8819716074495354,0.7075895240539941,1.865731008693889,0.5496998295571895,2.168364518445417
1310,-0.7128130382570118,0.9087104030099773,0.7198958312646703,-0.9383472946485965,-2.1252326207202534,0.26099598824318315
1320,-0.7404428618641612,0.8874665080891389,0.7015692857398341,-0.8376691019503412,-0.25135966472914795,-0.2649711893043739
1330,-0.7486413401103472,0.8743658847285026,0.6863706012779389,-1.0416628880120435,0.44255585550278614,-1.3891179334737167
1340,-0.7282851235374881,0.889478959324413,0.7074331258022819,-4.655326360013507,-1.0028794888426915,-4.650185981637611
1350,-0.7431409614200165,0.8696986396450846,0.7004158375385815,0.06384998292963395,2.346061286146554,-0.6517784742662394
1360,-0.7414759262794988,0.8694861738774261,0.7000774696746844,-2.2602396595622762,-1.7641165589838257,-2.386770097526069
1370,-0.7509558154783087,0.8642297001342637,0.6936694210151607,0.8875295609814616,0.7802613118096465,3.390937368282223
1380,-0.7379604436049334,0.8852899730492063,0.707707131025618,0.25186540252471923,0.8656773107898096,2.8855481631065114
1390,-0.750645909743017,0.868220620414903,0.691037491237016,-2.196026394146105,0.3824294970070305,0.7723931790612161
1400,-0.7236198199995865,0.8962953474633705,0.7193177302608265,-2.6453662956009447,-0.6742215743298657,-1.1087092195853199
1410,-0.7141769253970174,0.9008078032408621,0.7261618949157069,-3.89349353026498,-2.8045398273302045,-4.7101932121707275
1420,-0.7382993450802419,0.8675542884153069,0.6953471956796179,-1.1893632068331568,0.26869102151112184,-1.5609134082566372
1430,-0.7464169275664922,0.8611243821505113,0.693809740485168,-2.0864002877467596,-0.24683579486344115,-0.32522061633096766
1440,-0.7519617226635978,0.8556433751689155,0.6924918768913313,-0.39859365946806996,0.6219958573865814,1.979179422091761
1450,-0.7408243078055597,0.869115174108464,0.6990640036062589,0.2941976646003484,0.43233546574758197,3.029516075024979
1460,-0.7240676123167867,0.8909492343387676,0.7152316511933032,0.9868221263416863,1.4562357617914963,3.0210893437730393
1470,-0.7212901588959914,0.8927679155728456,0.715955230910919,2.6345938517008474,1.845962159015627,2.8706996699449876
1480,-0.7124014879824379,0.8900658487646644,0.7147520821740083,-0.9651065756505034,-0.9029155585352835,-1.6752271588496543
1490,-0.7202739457496603,0.8976343053525658,0.7245018843908747,-2.5754257401999734,-0.12607270749459995,-1.3171034638093104
1500,-0.741022006075157,0.8752484926799743,0.7013991280871341,-0.03931491615999122,0.3677317492674296,0.5387938054631245
1510,-0.7256717714746818,0.8860634317037243,0.710218587250087,1.8727834922733022,1.7228270768994287,2.8118815185119064
1520,-0.7279000409264237,0.8840321250947649,0.7084899070854512,-1.3994146553180566,0.6647343451808244,0.7375356891773468
1530,-0.7314961676365203,0.8810514151050012,0.7153271841781197,0.0320393870117045,1.156427872790826,0.9427208880030845
1540,-0.7261269334275317,0.8852430455373135,0.7203403633055578,5.352841179708292,3.349567368165256,4.152796201117974
1550,-0.7481980090156375,0.8667642951084015,0.6928828897404247,5.622089915253099,2.1892909473958033,3.924204109083015
1560,-0.7239014831568478,0.894761689892443,0.7100988846484497,3.3229139240786223,-1.038349499809088,1.2418597554880733
1570,-0.7089551718691387,0.9083933614900943,0.7252957580308771,-1.8296693687847894,-5.894822410935508,-4.288793951536099
1580,-0.7379735491923103,0.8800052241289091,0.7025198221571742,3.026348238528094,-1.6406207810571996,0.14196955701188685
1590,-0.7057453752104083,0.9118765391737415,0.7291819747457321,-2.2523539799839547,-1.9933982777353398,-1.3040725652974192
1600,-0.7171459015788175,0.9043711042712071,0.7231605927833892,-3.741636316883552,0.1908519955731831,-0.6455484665810217
1610,-0.7255106973873549,0.8899017742693787,0.7131258838310218,-2.6252254616656736,-0.015704867948605705,-0.5615068101855032
1620,-0.7196544980015434,0.8940508772250251,0.7164757902801253,-3.5357389961533396,-3.253985646397009,-3.3808471818755037
1630,-0.6727505473546543,0.9381184875424418,0.7569429347273956,0.24924573271198264,-0.5614722212749778,-0.9581050568160561
1640,-0.7297381403770347,0.8854397993362059,0.7100502142708283,-0.8678811291318225,-2.143242581438675,-2.514306168159047
1650,-0.7491770154925318,0.862341166643252,0.6877481582002143,2.671621613047769,3.82533126329096,4.201405765987981
1660,-0.7467868929511934,0.8710581204600711,0.6984816617118388,-2.266683538355058,-0.5222197208055851,0.043830691307908315
1670,-0.717249150349359,0.8971331061840478,0.7235624559054216,-2.3144362617866845,-0.5640806868067133,-0.268123925205813
1680,-0.7101012905061156,0.9045634362510304,0.7301044403109,-0.8326949160211878,-0.04392634270458827,0.5971263947661315
1690,-0.7461943532093049,0.8735575821797243,0.698088205459955,-1.7093587945651019,-2.187183030478532,-2.1463742794676355
1700,-0.7323227770657539,0.8840072576290795,0.7026127918363058,-1.4331602319262349,-2.248992762991656,-2.0391470007688133
1710,-0.7278900523397831,0.8794786504931676,0.7033377814280837,-0.7938598122342585,0.02908002525235831,0.9513414007268588
1720,-0.7484371999531441,0.8734518427966894,0.6931351546374735,-1.241756761148899,-0.10157947443105439,0.7299924328221277
1730,-0.7221757830486261,0.8960224942422624,0.7138539760416311,-0.6441018352362742,-0.22863791968217803,0.20503457977267492
1740,-0.7234529466147241,0.895840787126076,0.7140955994954444,1.7189780262295633,1.8295063807192806,1.296217259409254
1750,-0.7018984044640137,0.9146103852872169,0.7337362957549436,-1.362809162771493,-0.7953814932298128,-2.4209180215312984
1760,-0.7139420167682492,0.8975036239875771,0.7215090197776886,-3.3618890792348797,-2.915093734750193,-3.7547933129435176
1770,-0.7142178702516547,0.8974550068173681,0.722297522703552,-0.6504869711633685,0.14748421997683042,0.06272784368998802
1780,-0.7295811656852775,0.8843777886452645,0.7043717451757695,-0.770415973871261,1.0042550537989976,0.4159747629475792
1790,-0.7466972133639164,0.8626078715277272,0.6904756778672562,-3.1861743019354662,-0.7652845175174352,-1.7943781175189297
1800,-0.7488114515236763,0.8601495735008161,0.6931763016856751,-4.732969621340132,-2.9703990819101564,-4.132763016085158
1810,-0.7191475714410036,0.8908170049314637,0.7219078198289895,-1.9849462257610662,-1.914249844029167,-2.187248035476087
1820,-0.7164219349476998,0.9016754813658455,0.724951349011794,1.7261377604385744,1.2667010874013298,0.6140496539208533
1830,-0.7139960384232338,0.8943979635546498,0.7222094962803973,-0.39789346177897056,-0.3373726360697381,-1.2513462371499324
1840,-0.7357724319113454,0.868921338707578,0.6959756848710037,-2.742648696243999,-0.6596533565053417,-1.4291096480858139
1850,-0.7142599408136036,0.8970256312634124,0.7184933343812661,-0.28868938385175635,2.6155444306810818,1.707526312985116
1860,-0.726508932770075,0.8906746429606494,0.7210542348676998,-3.793067812552602,-1.8169534273355057,-2.5322170672319366
1870,-0.7823013133578564,0.8283251739784092,0.6583721281500768,-4.0448586105118425,-4.281551727786975,-4.68436683225516
1880,-0.7253235482108547,0.8817290051667831,0.7062340299649593,1.6719109887797,-0.6254892970798777,-0.1918221172579725
1890,-0.7346411626558778,0.872378448422868,0.7035415016380606,2.499122131351366,1.9094671200135727,1.6553749199423258
1900,-0.7501991349474029,0.8588415493907928,0.6897571755845238,1.943758603691302,2.5408004642122775,2.220290683358631
1910,-0.7056981841914457,0.9013854655112195,0.7302868628192821,1.7979787236648335,1.747105764313967,1.9477603048505312
1920,-0.7270358131840688,0.884489265427324,0.7124335882521358,0.8954946094398153,0.18549663179199952,0.6422664379372449
1930,-0.7278474581901833,0.8786704079721266,0.7143678743850362,0.8241174566498988,0.7147343940445873,0.12965072206482398
1940,-0.7274606417023454,0.8763920604990437,0.7107404851885282,2.4541891662624122,1.8850209679995615,1.250184690886394
1950,-0.7122509835761414,0.8913391165887309,0.7221556409107015,-1.160343947736172,-1.6074780991145285,-1.8239482180221958
1960,-0.7191731243885156,0.8901542852181199,0.7171291445142024,-1.7775238391013763,-0.937004617658389,-1.0372976465066466
1970,-0.7211922857691051,0.8868901843309007,0.7149720034265072,-0.21203973381829622,0.6385531249845364,1.0241997103648888
1980,-0.7366095044716399,0.866914232243469,0.7053924516640582,-2.625994202717647,-1.1665187099904184,-0.6687547002718237
1990,-0.7271458663843885,0.8816217211452514,0.7194169829327535,1.0542783655387071,2.270655232788406,1.448050307461471
