time_ms,ax,ay,az,gx,gy,gz
0,-0.4465068193865937,0.44278540374743663,0.7447901435465242,2.877290225755133,3.7736109966270392,2.402611873326275
10,-0.445752285552882,0.4381871625852226,0.7391911015555571,-1.5860224165916639,-1.583175052116467,-2.115866139747799
20,-0.4426698731211702,0.44302300238099,0.7460442031722736,-1.3053990815120229,-0.8501477842437442,-1.0966093562819703
30,-0.45518555197355703,0.4377076273940583,0.7365397811812473,-0.4286940023190667,0.21391983689907856,-0.27486718247645114
40,-0.46107884044394776,0.42880253619608605,0.722797151012905,-0.6867604092298623,-0.9630978999022647,-0.6631874240830079
50,-0.4464209811861156,0.4420326294969231,0.7397527424452871,0.9369927785748979,0.3584169210475793,-0.14714469568813182
60,-0.4232799820617792,0.468402522188914,0.7689917264172699,-0.17142577996587383,-1.085071875323574,-1.131245011748193
70,-0.4374888879069763,0.454992877557734,0.7529462141886658,2.232201822118468,2.417802990922558,2.1526795741371774
80,-0.4173483888719023,0.47318601062983645,0.7685784827437763,-1.805057880368072,-0.9503343717296657,-1.3173095277525328
90,-0.4732615640496227,0.41434260232913156,0.7140004026818478,-0.7463790088754382,-0.47203775940701054,-0.550739173620685
100,-0.4790345473759996,0.41187578197377755,0.7052303907057171,-0.8699527064747431,-0.34775962938563726,-0.6711701981050748
110,-0.46308462026718666,0.42984934727877316,0.7217730420318204,-3.6252164166909244,-2.6480486721764223,-3.2059635034233818
120,-0.4524664971221392,0.4358150094723472,0.7330836164870894,-1.9300578346287554,-0.6081757847308095,-1.163595247078981
130,-0.43989839046255547,0.4462247859987453,0.7460875719673918,-0.5289908518727837,0.18513248682553746,-0.16499754345951373
140,-0.42726787432095314,0.46130858708722206,0.7613851060814395,-1.141888171380604,-1.153335347830268,-1.318647307388922
150,-0.43883511679860204,0.45160357679585483,0.7515616864825603,-0.68533355942032,-0.7475192021873276,-0.7378895227329167
160,-0.4369076230333651,0.45326357770407516,0.7500723081090325,2.028017282350274,1.7872529247372304,1.0281606863204835
170,-0.44242842843003055,0.4450166562521943,0.7451827683188125,-2.270091975322722,-3.472161971695244,-3.7936233108602604
180,-0.42742432012520554,0.4585966260044235,0.7643745013486454,4.029495622943867,1.3751269607224386,2.737430807013593
190,-0.436312273503416,0.45111645654235194,0.7552460824899295,4.124195599480491,1.6809326425961473,4.3987059498646675
200,-0.45172560903866105,0.4484423090110667,0.7536605928597213,-1.913831508410246,2.3527214538385803,5.943595878685688
210,-0.4486405957478451,0.4703925006562478,0.7621457962736875,-16.315505769832555,1.1776546195877413,7.2715306888624625
220,-0.5279706436079508,0.5348655639895732,0.7777180753160964,3.7990509826358942,-35.98035829013764,24.345488440936315
230,-0.428055056697003,0.537619553934449,0.6601116098995318,13.966763869675797,-50.93973536044728,36.3213326320664
240,-0.28533971495249505,0.5661647241255421,0.5900951522998509,8.339329769107458,-37.26218158612004,37.063923452815466
250,-0.2983555226203899,0.6007241514908436,0.6213689981245959,-6.368942775727371,-20.819312080733052,35.65671195553564
260,-0.36209802639071964,0.6234351038051877,0.7121413883857316,-24.61084980548746,-14.426641269778282,31.395449386215287
270,-0.4401663278553913,0.6554050831905714,0.7378779609996153,-32.49180613895915,-6.653208664858725,36.3915052789896
280,-0.3541484303671197,0.5786315650191872,0.7033954082800086,-52.82723504425071,6.756853957177886,49.7045193793479
290,-0.281109298979357,0.49100412333629173,0.6492595924071503,-64.27322339875309,22.57604048865614,59.21808008346795
300,-0.28094875849835105,0.43594076344226007,0.6439847262054036,-61.55484759225149,31.360591506881505,55.572634635242665
310,-0.3428232314541657,0.3219741089727379,0.5992325134403086,-57.26932340047112,41.870902788173474,49.0452675017517
320,-0.32476438263543284,0.31752758799850056,0.6403300092279277,-57.33852233892821,52.590221549587376,39.56313857559051
330,-0.39109446685922084,0.20694286743544105,0.6887417052465493,-56.91869871445844,56.27941488457121,23.60565288005658
340,-0.3858988124387753,0.2441734998742216,0.785090006897601,1.5490198738857228,29.8346892921426,17.14002671323224
350,-0.38232832845055453,0.2968953692037043,0.8064809467641245,64.96956933904558,-2.172381066376957,16.798695411561372
360,-0.3798422671426102,0.3695594108522128,0.8352352236524768,70.72130134404871,-6.0383305734794686,11.658038353703752
370,-0.35030205020978716,0.3756096746500712,0.8645916305691432,41.714022280336295,-15.002428432259117,-16.99097549491964
380,-0.35339193563021426,0.3662787569752518,0.630347709239568,19.35102123023609,-19.75654049202899,-47.32178313939752
390,-0.45062048307788993,0.3153022216223267,0.46175101868281954,26.032733273456778,-34.408152982529906,-69.24801244517784
400,-0.5041594605785733,0.31491962627762227,0.6728400438357427,27.330834058302127,-40.06402667349949,-77.5936819575154
410,-0.41296475315486736,0.638286487693048,0.7421219616102073,-1.3597793682082906,-36.183135836378966,-75.02534393428645
420,-0.5156734125281267,0.5712573661003142,0.7801367805212117,-15.673511260038913,-28.075855514608207,-62.29848150355221
430,-0.7531561482756284,0.5720662389003112,0.4749276468454092,-1.9336858335876812,-15.156921517507449,-49.661452840298985
440,-0.5092536350529454,0.3890764973861992,0.5256053915720318,8.243061569268306,-8.789988105745234,-40.47014334274551
450,-0.5884311482376601,0.3257890811714295,0.5251010706600971,-6.118820056171314,-7.990152751954004,-34.85962740173165
460,-0.7043949577517551,0.3118541648714252,0.397077301065445,-8.84665485889426,1.4271967740245481,-34.20051044698309
470,-0.5113652164196404,0.4071602590130272,0.6889652168149243,-2.64840120091368,7.897819051591179,-3.4426333852528064
480,-0.4322086164395049,0.4222942132531804,0.745956278641578,-8.009565899688303,2.4132527677362123,-5.8932459434627384
490,-0.44955767256017115,0.3980341606311636,0.7538189508836433,-25.656373860431607,-5.132568076929999,-14.944057021087312
500,-0.49505853956307755,0.3633818115220975,0.7062962866511223,-31.966781246306955,6.001450450796246,-20.614976708163482
510,-0.7849428767405602,0.3849638484646137,0.3244679297300048,-17.904168248278644,26.8891542759956,-18.873855194669762
520,-0.6326366871516469,0.43478667610437305,0.5405524827167238,37.414585376632424,39.64918715818242,-8.140359188969303
530,-0.5384264954796975,0.49268953260717013,0.22633645291143403,49.08712384203578,58.30719967146641,29.119730492922553
540,-0.4600099570282891,0.3353526060137863,0.6990093113399304,32.84881997005626,37.9397123901575,39.100918557961066
550,-0.5508042838609877,0.42396581538379774,0.7566886382390183,37.54942517837726,41.49866048887037,23.499640369243643
560,-0.5589802200550401,0.7193727519064808,0.12656900659367779,34.550392066575405,24.232189817196502,7.698290900121617
570,-0.5643635485035315,0.6872180954372068,0.3961002217548019,8.218771935552983,13.627423474601546,2.940058625011769
580,-0.45515596144697434,0.733832499621891,0.5278531681394286,13.941929522244152,12.101487119415138,5.4364120161084895
590,-0.40016257238000813,0.4512894831654822,0.797703558262601,23.782070359137734,-0.479474505877562,10.4189703100234
600,-0.3797312154578227,0.4526411111406932,0.819855557782646,16.98830531680397,2.61448974771706,8.382513285256616
610,-0.4381529009906981,0.46833061233260503,0.7570686433802567,8.273595356998582,8.559327927235463,9.591963595195782
620,-0.4526104363730939,0.4487303412499948,0.7462439224310591,9.352139071002739,18.697974890863463,16.989850359211253
630,-0.4008846430606955,0.4745854018189787,0.7831963345021815,-8.5453391982205,2.7658114051517053,20.59259530263352
640,-0.31260687536982346,0.5044013253056315,0.8802932518852274,-22.855021169940766,-12.382668448304885,21.074027100628616
650,-0.4718588750880851,0.5622545597872058,0.7000295544196412,0.11678551862169506,-45.820732216817696,23.314863254563946
660,-0.3831558647612442,0.4894830736829962,0.7181605997158488,-5.388821727323705,-47.083943540229235,17.93104089660741
670,-0.34554216433680074,0.5017579737333573,0.6719879631349092,-11.973989447316349,-45.035954215322086,10.393974385305848
680,-0.2668561991587214,0.5834139025095256,0.7204448582216041,-18.580475280341343,-35.22626528275392,7.923412891141836
690,-0.33546625741651886,0.5395091594415242,0.730183224525917,-24.734390052615158,-28.11402068738283,6.722086332267022
700,-0.3505103246215945,0.5172996958306623,0.718435692249478,-22.39453657744566,-23.24575074195428,7.470860483613716
710,-0.3679437885127604,0.5701269489248268,0.5886990975352101,-48.656536820472816,20.45010771465922,13.672955827699502
720,-0.3849650843807263,0.4723292618416983,0.4796141436365037,-54.92780847316042,41.35857353651948,15.039010067034736
730,0.14285970366318343,0.17231905106010761,0.6021704529089223,-31.37842770105291,-37.774152496598475,-52.21958361549164
740,-0.4507702341093957,0.16073677584204193,0.715730200553923,-5.0499270303159856,-0.053856469824106745,-35.19619798776084
750,-0.4424746420845391,0.27212997839646946,0.7008556710144634,3.73785682463738,3.174819272974075,-12.071981136164926
760,-0.4372219193405712,0.29991812929773976,0.7118997333854025,39.68527726056393,1.0038757444908095,12.499419847711005
770,-0.37989290892420835,-0.0438039869966495,0.9318724990687384,32.950984254132884,9.725380164870435,-23.123847312039157
780,-0.35108816494872,0.6327353608600471,0.16400895044140243,33.08319414044991,11.177529196784754,-32.17449046516738
790,-0.3088491194478276,0.6972661148382998,0.3590060105472414,35.31644037555283,18.586847889904313,-26.39984392615772
800,-0.2034463889909952,0.21379135387865383,0.6253605378287695,4.922214950349924,18.95934424444253,-24.46890620350875
810,-0.3331966549761231,0.7375726975552253,0.922122580291344,42.27960628970395,6.36401319781192,1.5434684167487145
820,-0.41127810923655267,0.7294562413918618,0.8293728245518462,20.01700692621111,2.306965785527527,2.066144275657172
830,-0.43099545693834546,0.49050019877174333,0.7680896557138166,-2.4260437168169497,3.3746929404425443,-6.34615819319824
840,-0.44113477623270353,0.4132104846774808,0.7473124014867175,-1.1056573132620091,2.038848177625784,-1.4701089103633356
850,-0.43678126413004237,0.4284768264723676,0.748402131550831,4.821119784928937,-0.46033934507953356,4.746489526558673
860,-0.4702185450215668,0.41296538613170297,0.7151026927317417,6.3078106258651685,-1.6875406333084615,6.5872518729556795
870,-0.44011806358954747,0.4537362024666277,0.7462167256767018,8.3148654623873,1.3931259584174471,7.885279861013895
880,-0.4388769326871075,0.4602632248858747,0.7489244901951377,4.162586474696277,1.4824668836813588,3.615223900921057
890,-0.4158903559732098,0.4703051593369325,0.7703749363000383,-3.763393916630643,-1.5622112693611767,-2.953365884931941
900,-0.45732699155567835,0.42363273213690017,0.7311730594682394,-2.8703862020117246,-0.7254821599791043,-1.7900401287840804
910,-0.45686037035818644,0.4236326120668499,0.7320751039191292,0.032366359241212006,-0.7551699989311265,-0.04994197229551489
920,-0.4341580938479475,0.449428339377763,0.7520414084344514,0.8713149639030648,-2.4229079803064244,-0.835029076374763
930,-0.42466862952658013,0.4634517654964373,0.7642110690845357,3.9697378999108293,-0.5170380728236842,0.48596774854134467
940,-0.4267707655596876,0.46773235614705067,0.7619979748578284,3.41968462215437,-0.10416411302921245,0.30782099715285316
950,-0.45652241861071396,0.4329147614039317,0.7315560504538386,-1.4007655614294294,-1.4414507840137643,-1.2195385148196407
960,-0.4429176121288201,0.43713512176583763,0.7444898079461159,-3.3358194696147585,-2.891297310387347,-2.386443926799653
970,-0.4293433675808446,0.448371097066359,0.7574141531858493,0.49806456701095936,-1.9310026546655767,-0.7443480397627507
980,-0.4432136195061028,0.44198340643629125,0.7452425340096193,5.21625047022747,1.6399630611563774,3.0112789740154167
990,-0.4602793856408138,0.42392981159464815,0.7173965076599459,3.486468453401913,1.2545138982498893,2.0634875593196336
1000,-0.432649536165755,0.4547302223278648,0.7427730644444719,1.6527122852750376,1.9772774557606199,1.8411010514464956
1010,-0.43429723204710713,0.4536617423347288,0.7443912591906493,-3.6138980265591307,-2.1328789299265147,-2.9152963436298585
1020,-0.43410392531214076,0.44226408508546033,0.7360393171767413,-2.649228867737981,-2.486899768607853,-2.4816346226441315
1030,-0.41928807017560404,0.45710779954846054,0.7513679028191257,-1.121720505349728,-2.3569014203664627,-0.7762779091314947
1040,-0.45208544502732273,0.43652273040182904,0.7329910530495096,0.6404102012556433,-0.8179767537567326,1.4715695221052187
1050,-0.42223272682474366,0.47221355591079067,0.771998721034905,-0.13975594231553534,-1.201320015295757,0.4719253152888523
1060,-0.4456692892110005,0.4428345867266687,0.744843162077845,1.7378948948301642,1.3266026897202234,1.76453235251783
1070,-0.4291293336768417,0.4593801715721833,0.7605402733759078,-2.0384271450067386,-1.7575329465898188,-2.088610118327503
1080,-0.41594352070039203,0.4698442813434184,0.7701392049655262,1.4175700565307394,1.7444938547550375,1.363178764769133
1090,-0.42765839430520497,0.4595406726495788,0.7551241718944962,1.6808074700128877,2.0495588353485,2.175688375156323
1100,-0.4520812564340095,0.43742253275442494,0.7316264055054312,-0.5565017105519021,0.26637423173499297,0.39814753154377425
1110,-0.44758726887361266,0.44049079373680916,0.7402844007288384,-0.8019135065051378,0.11062949296903479,0.3859670372021846
1120,-0.43223785188413627,0.4539676771064452,0.7625799644628855,0.29844403260015384,0.14156042055692492,0.8144111449997986
1130,-0.45120305655200293,0.4368658135131584,0.7400270426947124,-0.8982267618042872,-1.1376864316389947,-0.651021732926121
1140,-0.4419151826143588,0.4538893248430322,0.745766307464229,-2.246693099432414,-0.43943239505854503,-1.1123871754570596
1150,-0.42707242243967,0.4672054418019092,0.7611011032666988,-5.02913844814958,-2.7099844171605927,-3.930748468200286
1160,-0.44309912125538414,0.4440853667417425,0.7444753172709692,2.503489553556223,3.7499604317475237,2.5818242622324665
1170,-0.4422856846309438,0.44064139347387965,0.74532315027805,0.8712884777977025,0.9173051941564498,0.5748610242595735
1180,-0.4060423733164666,0.4728930260100745,0.7783963240662772,3.0757102320968763,2.6992157976845124,2.914413196576379
1190,-0.4553561236281065,0.43080812300213617,0.7293884480481007,0.9983680797378187,0.5660040097600281,1.127549152959423
1200,-0.4535134082540193,0.4371296433879754,0.7325715181860933,-0.9501884108632552,-0.061224100049499575,-0.44826621202018224
1210,-0.421552646640927,0.4663043839632597,0.7628379294736444,0.08991403414721717,0.5189439887201359,-0.6308388014299664
1220,-0.4401339212313711,0.45281790725380316,0.7503412103046596,0.2611059704556642,1.1512182094536354,-0.21238839720538527
1230,-0.43609300264665474,0.4504267241731898,0.7471194508704185,-5.1857691761589875,-3.496436897822421,-4.36635875383168
1240,-0.44029195409475574,0.44376512143630686,0.7495948552316329,1.9120981262810421,2.556089240434229,2.527686690914032
1250,-0.44369029154896145,0.4460787096551136,0.7390082538714403,1.3582527667956712,1.6052240673476057,2.070904988174787
1260,-0.43930553249890275,0.451308672135219,0.7472064918228378,-1.7372665627254193,-0.2751961084143487,-1.067438859791701
1270,-0.4346582593027552,0.45711320415483686,0.7527068720856235,-2.094533568007723,0.30597799380256874,-1.0373742403874568
1280,-0.4161418584460201,0.47201755882830926,0.7619768917431338,-2.233453315645993,0.5313434380278104,-0.6047105831530974
1290,-0.44987312654157696,0.4362357952763463,0.7417603538390243,0.6812703170852333,1.4952370252410467,1.2722388000268314
1300,-0.45966764537423577,0.4278370141825895,0.7262495893444186,0.5496858158315645,-0.45848201448113485,0.12481611841852891
1310,-0.4413556599266454,0.445609224691241,0.7438581837462845,0.7315210936183923,-0.960489043053337,0.4022029180877408
1320,-0.43468695513728894,0.44999117739869354,0.7551345351888666,-1.5791451477799057,0.6925074516062687,-0.8274800263580326
1330,-0.4272006192082759,0.4610056145272325,0.7638198937808052,-4.803930407458556,-1.2985221297076952,-2.951051871276875
1340,-0.45990092532005383,0.42100255956500937,0.7337895878666927,-1.9852384518586221,-0.04980970472735302,-0.9507406944057456
