time_ms,ax,ay,az,gx,gy,gz
0,-0.5955817613117785,0.8453891253604596,0.7929141553606426,-4.170427605974845,-3.1620189203012306,-2.4138931948865032
10,-0.6108397396689693,0.8201622087803855,0.7794333999730977,0.8410544317249299,0.368451493617497,2.0839385969240776
20,-0.6320229116705094,0.8032495837671964,0.7490149932472985,2.8470584793171625,1.0296204512430835,2.6809218323032034
30,-0.614754656592172,0.8255934283529203,0.771269030127674,-0.8017007816078069,-0.6765233334025331,-1.1514866809082127
40,-0.6287261088811288,0.8105172951915913,0.7571325079762286,-4.3631774279612605,-2.2105857883755875,-4.008707422364879
50,-0.6150236772001044,0.8203110651256493,0.7713678478782774,-2.2136981788274204,-0.24774203881176626,-0.5920807596784712
60,-0.6272395447798379,0.8062477144999115,0.7636335894666364,0.3948128645430956,0.5552601613394308,1.715622859671731
70,-0.6236615407238968,0.8125992247827212,0.7629123662881524,1.505503110298506,0.20331045183980467,2.3004284666890404
80,-0.6260193045949499,0.814766867301472,0.7619802924424371,1.8286346823714128,2.3037251005680646,3.593907835502322
90,-0.6231020541098398,0.821993532334518,0.7633409649922528,-0.4596012787945307,3.3175668933991593,2.692535627705394
100,-0.6121934318183412,0.8323580603697984,0.778780019513812,-0.5847951663631172,1.6543435247741667,1.9729287377890645
110,-0.591236419829014,0.8502766999791151,0.80480594766537,-2.648861025822959,0.6141624072647417,1.7336270661825333
120,-0.6241185192568557,0.8151443207233956,0.7687872159734169,-4.72579892244252,-1.5441392375860876,-0.48343031672787995
130,-0.6327301473833069,0.8054659188917734,0.7638771893872551,-3.4440226313980444,-2.3872283455373506,-2.0487717155340985
140,-0.6476702427762357,0.7896726069980262,0.7588408707898546,4.436090421765684,0.2915395198941385,0.48512038136918
150,-0.7433637815435417,0.9675998714109281,0.7158987352692568,5.9188611275471015,-2.655053482741334,0.8194033335091815
160,-0.9469928215016918,1.1435663383784351,0.8398548989785783,7.275535827072711,-20.59327076708952,8.113553735767901
170,-0.9712763626353418,1.0962120168526455,0.9492433966803373,2.474679925504221,-41.017931256886584,24.340916635678354
180,-0.8265282366180909,1.1369425290108206,0.8027283412645085,-18.132062385632228,-48.57527956885492,45.768334100242974
190,-0.5464060742516438,1.1506417016187516,0.7543471066086727,-30.417848529991986,-48.96273913425122,66.72479848471335
200,-0.31563639399265625,1.008608431910128,0.6782111093886966,-29.917919548281724,-36.91507604919065,79.0814483403652
210,-0.20205722234746032,0.9985314330120124,0.6293639317076188,-64.25780504140845,9.552068672648042,63.85408541887186
220,-0.2520442351897593,0.9552243940096309,0.6350138028287092,-81.04713837320297,49.09408528626716,59.75499083048132
230,-0.31081812402273656,0.8128733971400245,0.6427201251130029,-73.1726768941884,66.35346279555571,58.19766299259939
240,-0.4193529949533562,0.6588752072554259,0.5930317759657076,-71.41654174117684,75.50741934299353,39.557227621891
250,-0.5248485929650517,0.5349246500552878,0.6621467809840483,-60.498060016576986,89.9623172161185,25.94355797768216
260,-0.9862632917445697,0.21209895223184563,0.9307228716142949,-60.08300454462661,70.1253804386366,-7.642632249379217
270,-0.5045194928228134,0.4645060177915137,1.0685478948792708,-4.338845970594426,-3.7812971331883363,-12.485174034257144
280,-0.30256834963736107,0.38424419730348935,0.9082333373637508,21.14607983973605,-22.710483072892885,-35.87101882664603
290,-0.540212243187957,0.35355728819511856,0.776934266798458,22.97802120247705,-35.00436533704664,-53.25575585694877
300,-0.524809986173998,0.9562455071341849,0.9478661941458677,41.28003817775341,-44.11820015278019,-56.38678111611762
310,-0.9245361248514732,0.6583846807787828,0.31994628619347454,24.198150662950347,-44.2075379228532,-84.55648649097361
320,-0.8412490953092331,0.782207697045364,0.8986884931754001,163.58351231989892,-53.898146994169785,-76.18922763897798
330,-0.6789227263020684,0.6920420019693142,0.19892410864724688,-6.392378545469624,-15.810992394703218,-43.2275921264777
340,-0.8695519260093314,0.6790658823876421,0.17653070934395956,-27.048992626088072,-17.193541564373756,-45.769354964693946
350,-0.5249694270938491,0.3513019148546091,1.5582237898938083,-9.793397413741367,-5.805583223460841,-48.853779641383625
360,-0.5876156693036666,1.0699598753858452,0.7725492698067883,-8.146868892037272,2.063840668390748,-16.715530659064044
370,-0.7896646299704267,1.1278903487685914,0.5401671482857453,-20.83600937419368,8.99599335971345,1.8759994975694771
380,-0.8777271167292963,0.7038356718946995,0.5444846249359045,-48.982292721129525,14.40955117053509,-12.593946080814105
390,-1.0519824786262202,0.4609780107919614,0.6369187133307326,16.345833203010457,64.3014334232017,10.607433645733352
400,-0.8184409220050021,0.6267813765319478,0.13260151439623802,30.62111281616594,55.596706224223766,12.876100012447738
410,-0.44861605865958065,0.6178407684816166,2.308401860554867,98.74215239372971,52.18312557712725,32.69018656530779
420,-0.47887379984196393,0.3193110007892205,1.857451395176336,97.99294680726936,50.738655340734574,23.30103213818941
430,-0.4960759428662815,0.9964408511456724,0.47729629033103327,76.34842217015013,31.561410464501645,6.704877372681562
440,-0.3832295599596318,1.1322684456795002,1.2750822279714156,61.07382384305614,14.582803220379397,2.3897751767827953
450,-0.4174301365606716,0.8699507485692765,1.2550444636665714,45.69432769400418,-5.504297223386454,1.2038264754998702
460,-0.5949695902497265,0.8336007305450734,0.9225356158166537,47.8607315524161,-2.470160504883499,1.2484327697157118
470,-0.6680590649193294,0.9957979124337012,0.9530631763268219,22.645758433481785,-16.02965757373122,-2.3347628639651736
480,-0.7450658482157321,1.234256000805028,0.8227922435355012,-36.862743453755975,-41.55688208765873,-0.4624591700929104
490,-0.8065357708968283,1.2058786728147393,0.8399862412730613,-52.888047523318235,-48.00582364909051,26.572230078738286
500,-0.6420524063451095,0.9524579670276412,0.8046263641466419,-52.35109236844185,-61.712371562977054,29.99124288000777
510,-0.39336632353583534,0.8008247229075431,0.626186783075247,-63.61686453531073,-58.46084444093799,9.104254410783946
520,-0.35151325838478564,0.9555593946603564,0.5123339352504456,-82.64828307446908,-35.449838875090464,2.6507183446852016
530,-0.2602175883535215,1.0544706692935062,0.49507627446907987,-75.20837821226972,-9.03912760528981,19.017294368721366
540,-0.23885131814627827,0.9033533767861769,0.48140337061147487,-74.83259813857532,17.615568581011903,30.104313305166272
550,-0.36011334676406054,0.7151953105693218,0.421837876368431,-91.99289440632143,41.411708156603666,17.73360736612296
560,-0.7374846858624433,0.418797322595851,0.6715327604011175,9.690115228582684,20.442758509564072,11.905765191950529
570,-0.6575786702135931,0.0323916395376975,0.715524817349114,83.87107884597677,12.501266233790936,14.727767753377595
580,-0.52827574937691,-0.40011984527266514,0.8086352996870387,83.47969304289292,10.564742277192067,-24.266369332715662
590,-0.7788327617643355,-0.16913911871500822,0.6139048147107615,98.61549251641054,5.410965173133392,-58.05816409866614
600,-0.5880840983070981,1.1089539365372392,0.893264640380255,138.05944794265176,8.652841606811139,-42.01414644620066
610,-0.9191947870091327,1.2481022341676506,0.91418871254663,114.444914282741,2.809460214815994,-29.06932544243253
620,-0.5548904996690324,1.6304824047226292,1.0982204982958308,28.617706736217386,1.494907914269477,22.76479064292691
630,-0.5095019271858952,1.046390968297323,0.854661318784444,-2.3210922327602113,-5.858975889993022,21.595104844603668
640,-0.6514495380686515,0.854824247267747,0.8087045148081882,-1.3618924831686812,0.8063801589979769,-0.8850345909511097
650,-0.6363021995470088,0.8067932275160917,0.7879112767225067,-11.423594842257321,0.5040955275099668,-16.046110221453475
660,-0.636720563084749,0.7701758867501005,0.7373868725612432,-9.215990814449142,-1.8995279661688524,-19.77290940271847
670,-0.6333126089204002,0.7714792128191327,0.7673929995441191,-10.51601172260722,-2.029997715163698,-15.283876727593006
680,-0.6191337448464538,0.7678677998355516,0.7825126151013637,2.9648561835478704,-2.375266055967837,4.476518584153306
690,-0.620116459430114,0.7725230381697599,0.7837313866890064,10.476481530844067,1.009402648096637,9.290671526579226
700,-0.6174708011282808,0.7905528172509401,0.7752455598610377,5.406564679557391,-0.7298985901697836,4.992351658682346
710,-0.6244079077399294,0.7894756277885902,0.7728358124197439,4.987385910307851,0.708541300041644,2.31190124458751
720,-0.6013416902319453,0.8211956878742919,0.7985131375959466,1.5530861984743296,1.6375806590004856,-2.4630703324619914
730,-0.6170127770697712,0.7968516301803554,0.7868237658981189,-2.4260693075930773,1.8183135529786243,-6.260763571773954
740,-0.6133811649107136,0.7775324703170184,0.7808770203176626,-0.6865855376062724,-1.594963886968198,-5.272487888995755
750,-0.6109112983312571,0.7839573852899901,0.790335769358875,2.986657585176695,0.5454822320567393,0.8956147571713897
760,-0.5978551197826699,0.804989518176747,0.804062708528202,1.4313977434732554,-1.887306505751698,0.7595550310344028
770,-0.6099691881302153,0.8016844399334045,0.7922959838488446,2.822726762985609,0.21918536369160857,2.6503388989430268
780,-0.636587848224037,0.7781548289699184,0.7617492828697138,-0.6862807066190203,0.6290893483647424,2.2757600408138092
790,-0.6349469076058832,0.7829748587908102,0.765858498357216,-4.938053486368268,1.7037653398036774,-0.44429440765382533
800,-0.6307511661036058,0.7886006419713184,0.7712146327857989,-6.048589872951168,1.9080315769343215,-6.348666781246555
810,-0.6289525044079599,0.7732103352906838,0.7703448240204664,-4.693272098944732,3.696308847039518,-5.7153932672641545
820,-0.6153452433197314,0.7829279882450897,0.7867443471613332,-5.32963815147605,0.8141604330625983,-7.018216284959626
830,-0.6378935864207527,0.7594099690618076,0.7668264275372834,-2.8930477392852345,1.321259289760461,-3.8635074658500743
840,-0.6400831513894323,0.7566252688351421,0.7630555550139819,-4.534559017608134,0.4322543069838714,-2.3819639782061808
850,-0.6496661600583903,0.7491907838890407,0.749885634567153,-0.922989553006488,0.17183768570040064,0.702213918016873
860,-0.6100107501277323,0.7917346106982512,0.7919449515492766,6.995524241353072,1.3915275478618652,4.12117514913652
870,-0.619195219362446,0.7859445244012289,0.7808433040606827,13.427598628507674,4.476288668410595,6.748180798657316
880,-0.5948529349473192,0.8192944442527447,0.804605923924903,9.165453402085452,2.0304420065751163,3.0109803478983634
890,-0.6328936914037869,0.785310326277019,0.7685076912760533,-1.1319700653171485,-2.371815857418624,-2.4624538213774025
900,-0.6353623086149552,0.7691974867063054,0.7698120614194452,-3.1367118312968256,-2.607950733131284,-2.5350240876764376
910,-0.6109644864021561,0.7886780686091945,0.7905369358862858,3.0283813326753686,1.617777478504625,2.1473376806539495
920,-0.57936941847843,0.826673475941321,0.823528580167665,4.224944350036389,1.4636705856101309,2.4767675452139306
930,-0.639180250407642,0.7615169341756808,0.7603131571605636,5.873285640974755,2.3799548362200933,3.4424084548853005
940,-0.6094624980962307,0.793861950806927,0.7857126460719333,3.794768690134808,-0.30885169344007357,0.18975002573136424
950,-0.6176057289125911,0.7984850827817437,0.7856994787699904,4.624376096565591,2.0182630235045282,1.6040046950671454
960,-0.6143811638808313,0.8016699773227194,0.7936758652315571,0.38585939651921053,0.6147469619725311,0.16867720523332533
970,-0.5963993933945014,0.8156091938705214,0.8087872250751356,2.2199774920138724,-1.796378791590378,2.769949190821025
980,-0.6029997398630708,0.800687779196103,0.790103358121606,4.8895058990318825,-0.9471382869231919,5.357992670359636
990,-0.6053479939825175,0.8128133221633168,0.7950391857949197,1.264580609033738,-0.7207265153761346,3.5325165877412807
1000,-0.6444859930789599,0.7839855132052097,0.7588153696118054,3.484941243012754,3.2880852038042394,2.7261801134746584
1010,-0.5836018020896425,0.8277590204775049,0.8218414200558533,-6.655337584234001,-1.3530934300376982,-7.0747625385340935
1020,-0.6150440929508494,0.8023906849618574,0.7877360039002879,-4.329909348762097,1.7397030753764477,-5.643021088545325
1030,-0.6225068254804464,0.7874900369861483,0.778376187406664,2.1813172131497347,-0.3687059407011533,-0.6370116237409115
1040,-0.5999346918157865,0.8153030599808893,0.7950079089940639,1.3636950001158745,1.3756062288985544,-0.8987036248553899
1050,-0.6337713335200997,0.7767307575519444,0.7621987924083551,-4.929820528983473,-0.7419517813830354,-5.07050730629575
1060,-0.6289481068644371,0.7803229367595648,0.7767677162267307,-3.8926949958177466,1.7970678466340866,-1.8457390766820807
1070,-0.5907626946763667,0.8063134353894621,0.8092631647103491,-1.717699284495407,-0.36896983616004797,-0.6953050845977051
1080,-0.6039913938668543,0.7948891925371249,0.7912329125426308,2.2830478204932994,0.30890460754304927,2.649574616255551
1090,-0.6089152991977198,0.810370797498961,0.7870850209184465,-0.07987340906304241,-0.760403160296693,-1.4999440389421783
1100,-0.6170494475801241,0.7955725704129846,0.7799646270923176,-2.8460440421890203,-2.8613594373986526,-5.571112620843182
1110,-0.6141485514667346,0.7877418133361351,0.7809755019662917,3.0446694724341663,1.54346095844253,-0.4654230588509951
1120,-0.622120855620825,0.778996956554849,0.768562485110063,4.0892630270980845,-0.25594550355892987,-0.004190622766199553
1130,-0.6145276296035176,0.7872427854347059,0.7741747085584375,5.326061962699543,0.5922265624512677,2.9092874332237106
1140,-0.630098340290434,0.781084484956536,0.7619244365442995,-0.06314947146014127,-2.3704813708901042,0.054080300292014716
1150,-0.5892174162657599,0.8270376080099213,0.8088035772994883,-1.1275496265069542,-1.8173551195913884,0.10620418142823085
1160,-0.6251585112718296,0.7868446521947876,0.7691681757071915,-0.48449323642532627,-1.3800112441989947,0.28840596407303887
1170,-0.6310234801488505,0.7840816608124807,0.7657183766242174,1.5437164516106692,0.027142318618565642,0.34760836717269583
1180,-0.6171285784292686,0.8012810937391593,0.7805457100006089,3.596553895217747,3.2139576803906884,1.5930713482500118
1190,-0.6348383219929147,0.7800488395241826,0.762894602292571,0.31133054164725127,1.315735447785571,-1.2043287855478568
1200,-0.6212313185661436,0.7812844769456285,0.7708371692428845,4.805284774982884,3.5239551751654568,4.165588508626979
1210,-0.6238436933163222,0.7816790609144805,0.7694767864563105,3.2303275883591636,-0.8246713103569367,2.6792759611847474
1220,-0.6199509543169508,0.8019666663114132,0.7779547843726361,2.2179188199897437,-0.8937464538253647,1.0175182090685346
1230,-0.5879731507557607,0.8402498751702877,0.8109654879617519,1.1620829453289203,2.748277898081289,2.3817528236511047
1240,-0.632795718757276,0.7882247607361705,0.7663098360552032,-0.7160256769542772,2.8874801815254556,1.2825670698000011
1250,-0.6236966383105363,0.7899685449781568,0.7730427668982331,0.5388528085585793,2.226076125059868,1.0608926689960847
1260,-0.6295650920562632,0.7752147605499317,0.7696264693868347,-2.469790355395812,-2.092742060043854,-0.38525458221688047
1270,-0.6328577108546912,0.77021944207574,0.7700962869501613,0.7901126161068526,-0.7902019005616676,2.0685815222365305
1280,-0.6065080151865712,0.8113209608535037,0.7887668648412545,8.25560495579151,3.576533047637931,5.964922854834905
1290,-0.6521295899858867,0.777314747831387,0.7472552535069651,4.558676116511868,0.5287792826220461,0.5338173936739274
1300,-0.6491715510189067,0.7846273481548492,0.7525780952659017,4.120558342323522,3.8685590824849707,1.519196944100998
1310,-0.6132281255904027,0.8066050067842174,0.7811282984517957,-2.7002175046427785,-2.068079564842235,-4.651353954166918
1320,-0.635856246065942,0.7774069357797089,0.7587481710604966,-1.9704632193074718,-1.7347130060596159,0.029376135833208528
1330,-0.6202986374917594,0.7941957999834206,0.7728732209983052,2.383067332612659,2.7743012854617093,4.165313647563924
1340,-0.6351790257750107,0.7835268585236983,0.7681639018347557,3.0425929657599737,3.497449116996518,3.7069205791440796
1350,-0.6018897760763094,0.8061822757256305,0.7943826031293544,3.3234412645472333,1.3521494314454883,1.4084375459601053
1360,-0.5987179712364246,0.8165352375191585,0.8027551068969542,5.560110918747492,0.9668673683839444,3.2867339145023444
1370,-0.6121576346096684,0.8051133029049029,0.7848417863747598,7.434285926201806,1.9625282649537785,6.3415914022599855
1380,-0.6189062436086119,0.8152044200029259,0.7772428524704972,-0.1139444128866468,-0.748351860738767,0.7517585531967661
1390,-0.6463716035788846,0.7856535725186656,0.749806450233567,-3.8079102316642413,-1.4762892256304256,-1.8809699291078488
1400,-0.6176136248640935,0.8043557328753974,0.7769324773072577,-2.2701470080897788,0.06089364117521462,-0.12549736815712992
1410,-0.5979735947523485,0.8237542980089289,0.7992631721154617,-2.3840619130633875,-0.27121737660066203,0.23495278687988688
1420,-0.5970742639408526,0.8263216049941552,0.7977078348192811,-2.1096612923284908,0.12519468153205326,1.2326584094789765
1430,-0.646717803911186,0.775157434918029,0.7446525039736981,-0.9918385295652735,-1.1923742177651764,0.22431547363062243
1440,-0.625046464545768,0.8079743358952457,0.7669628086011239,2.000976324365692,-0.5879952963118051,-0.12236550269955426
1450,-0.6378898830845321,0.7965298932500408,0.7550983469343091,-0.17542869197594846,-0.007907160976938055,-1.1049060767180587
1460,-0.6255419317996888,0.801746071213561,0.7693818119600544,-2.565279745994475,-0.6340141620127426,-2.311744367908098
1470,-0.6227417241614349,0.7962879818953629,0.7727025170400228,-3.6794491129282543,-1.3881138720767394,-3.1367936870456434
1480,-0.6334265944076835,0.7787841014053095,0.7592203988443418,-2.550813834179791,-0.6358951977501922,-1.0566226674516153
1490,-0.5849879334499047,0.834986442842518,0.8109224146032558,-1.0296884315544437,-1.1967821204077622,-0.486827125312318
1500,-0.6253634710907584,0.8073813826696742,0.774491802917202,2.991481854832216,1.8927763162927569,1.5909926253705744
1510,-0.6183447320569693,0.8164087924145881,0.7787521687170794,-0.654023098335706,0.7703330654365164,-1.4355936148132686
1520,-0.6166684339095527,0.8116136779849963,0.7825277470795761,-4.841270380711663,-1.7878380444748252,-4.484459297836966
1530,-0.6113437911232557,0.8088664062048128,0.7817083952417933,-5.839278689409806,-3.191358144219499,-4.886097718692562
1540,-0.6383394355452318,0.782224142109276,0.7606121723257716,-3.202817836059167,-1.1771147243966693,-1.6480496171691086
1550,-0.6394698134276501,0.7854520223252289,0.7615280417487384,2.596136563265193,2.07734318583156,3.3688419349291614
1560,-0.5897197995742692,0.8355284107642241,0.8048761704318765,0.14137437647841844,1.425816987791666,1.446009808650393
1570,-0.6246047917023421,0.801985687231632,0.7703198514351186,1.218540310759816,4.1383477572205365,1.6449312781455503
1580,-0.614312407222804,0.8086800821738637,0.7839749350800804,-4.031159333356741,-0.2056990451885543,-3.549928563027963
1590,-0.6137891862143501,0.8077080285861618,0.7851781676578936,-4.166635669108809,-0.24701838648564275,-2.6392133934722897
1600,-0.6265883491326971,0.7921536513052619,0.7677646240351633,-3.46094138008719,-1.2220041027768254,-0.95078385350071
1610,-0.6336111800056264,0.7937247549136853,0.763019390529033,0.36482395884720487,-0.5677009259670214,0.010239292935136202
1620,-0.6071008448157041,0.8206266599012074,0.7910241780864086,-1.520575738804843,-0.5260681906556157,-1.9140518054684235
1630,-0.627092962079785,0.7942287717718383,0.765391950017962,-6.708367925312324,-2.6734190583259987,-5.58659963274377
1640,-0.6069790422045711,0.8094430979393625,0.7928592494744949,-3.758775724781533,-1.6891252129942973,-3.613038071319897
1650,-0.6290576692032807,0.7817045679069633,0.7644761368731687,-3.1189395645828832,-2.1655775113942677,-1.755415822917805
1660,-0.6274375135420216,0.7845079233060422,0.7654157412624091,-0.04672913237847018,-0.5872194746990216,3.080149689191272
1670,-0.6225813797928,0.8051528138663873,0.7736090637838532,3.081646397903725,4.2919582991545715,1.4718274841568575
1680,-0.6197854254063292,0.8068300931351345,0.7817519469986433,-1.303582528083945,0.5183476068156194,-3.802352956959256
1690,-0.6338715725184118,0.7855424861526897,0.7629094903465725,-1.7287274097399696,-0.7688730918032641,-3.69411210798106
1700,-0.611603287827584,0.793817739872985,0.7798456865495873,0.33001811539133474,0.30781897381303114,0.3754054153943118
1710,-0.6167230455532159,0.8073463978724298,0.7850245411312575,-3.4214055488104727,-2.7111437105829266,-1.6911624774749663
1720,-0.600053937669765,0.8160303406281294,0.7967750951909917,-0.5898036371431086,-0.2540272089782425,1.5198674478174548
1730,-0.6248610319906417,0.7959054710023377,0.7760504206009224,2.0947025217421773,1.9472133165285395,3.076273488376601
1740,-0.6124328075825185,0.8117135029938635,0.7879923815190959,0.8591333125668208,-0.14218850593167978,1.1828921120773457
1750,-0.6328257882125371,0.7847508876907157,0.761970560364276,1.0559988168291679,1.3406647912651168,2.115048960441336
1760,-0.5894072049130388,0.8294353043394146,0.8063550929370262,-0.5290162246196205,0.5952837413821742,0.7621323360551012
1770,-0.6184298660766812,0.8034071361774284,0.7819650031649846,0.24283416922061374,2.8911157778691625,2.684502789152231
1780,-0.6433594932370048,0.7705405474205541,0.75514606821249,2.2614609163378665,3.938763499209008,3.697398578876905
1790,-0.5953800231786857,0.8210556934776199,0.8007076875710919,1.3171140306974678,0.6302694393687823,1.0363500595998993
1800,-0.6060743248041335,0.8168378671910806,0.789482609819893,2.148643517602939,1.9219734598300455,2.7775334646649017
1810,-0.6188509713083084,0.8030279468863074,0.7779313768687698,0.6467078880409575,0.5987029519731824,1.569942743800032
1820,-0.633981557595101,0.7871745994344377,0.7628894472734005,-0.7329997389709576,-0.5787262153401014,-0.39365508936357774
1830,-0.6082293873310672,0.814907468162905,0.7925818364531992,-1.3492011777841495,-0.8486909757717577,-1.4653102823404676
1840,-0.6033295137092128,0.8160860149796982,0.7965674279114348,2.163512860751815,2.743396640833719,2.4201913753154343
1850,-0.6260608947798124,0.7939596711741103,0.7709844756913777,-1.642060765088151,-1.3565495378901162,-0.7163019321375738
1860,-0.5973876357230254,0.8227578046626477,0.798050193789314,2.51330609988568,2.3532869092049373,3.3158177110855918
1870,-0.6322028079419882,0.787624949563446,0.7675763589999778,-0.3773354384357399,-0.7226269856838515,-0.031780865127821634
1880,-0.6482548789011224,0.773875594488729,0.7477700764630458,2.430933729015767,2.461977324037692,2.713560851231747
1890,-0.6301817380574759,0.7898679865377071,0.767119737048993,-2.0122188171594346,-0.833564474677295,-1.231635575695576
1900,-0.6049493712971483,0.8097331670330135,0.7917913507272427,0.4633219247391209,0.9554336728559768,0.4608863328115924
1910,-0.621991107717013,0.7971275987270989,0.776220654453887,-1.9121542879718296,-0.5850414297818806,-0.981816533635416
1920,-0.6241030311081474,0.792411741002049,0.7735141575399292,-2.9289604811622256,-1.3728986210074643,-1.1504061119201987
1930,-0.6358753439842184,0.783140563845217,0.7662723408130669,-2.3568714246706417,-1.441910242550527,-1.0913288565305659
1940,-0.6366588043167639,0.7762623672697755,0.7639754958192029,0.12022599893857955,-0.15310334506091006,0.015575981771104197
1950,-0.6283468697650191,0.7861578173394196,0.7725934084020178,-1.3136114664819816,-1.874786777057249,-2.0245413888343435
1960,-0.611753906253379,0.805716538719049,0.7840766851603261,-1.7904777855811977,-1.6995889538940714,-0.8990936397808411
1970,-0.620238537639884,0.7977466021357544,0.7740709442812179,-1.5442777770929406,-0.9134152917482622,-0.4532946324924908
1980,-0.5976711985695212,0.8196165488069714,0.8018719105499766,1.016150405133296,0.7554776337907381,0.38816120652147107
1990,-0.6404538903681022,0.7827815324559386,0.7586675868756646,-0.43489323772773814,-0.683227389658671,-1.2116878276730323
2000,-0.6327700152883408,0.7827063294407421,0.7648192749286956,1.519383704488325,0.5157768774312221,0.09299191684353625
2010,-0.6341519043959495,0.7843606906200944,0.7610768952286675,-0.25986900144706804,-0.8175021054830353,-0.8751257605778942
2020,-0.6157802692627166,0.8076611523800087,0.7840772511247868,-0.8010289966116458,-0.1973869139272611,0.8821281071133247
