time_ms,ax,ay,az,gx,gy,gz
0,-0.5394417037399521,0.4071441782931348,0.5887332216121757,-3.010830944708288,-1.9766871218553947,-3.2612331896934976
10,-0.5673231189735242,0.37948860065161977,0.5569132416646528,0.2429101541866998,1.5923008780265513,-0.2587772524336196
20,-0.5174239596538834,0.4285183119654445,0.6061866834320249,-1.3624776996414703,-0.39029703349020217,-2.556927393372478
30,-0.5610396656208935,0.3829220969179979,0.5624824214410842,2.033683438838981,0.9932267101764417,1.2693120439139889
40,-0.5713748036559158,0.37599362669825337,0.5502786484670653,3.034334878599706,1.7914610635852595,1.8745573317579631
50,-0.5619399218017113,0.3883557931405324,0.5592834295719887,-2.0600336598540108,-1.9110748525687937,-3.173970691460261
60,-0.554656686018817,0.39428839901814816,0.5673462993905288,-0.2955993173745852,1.2519586812077317,-0.6228081318203608
70,-0.5343671860989112,0.4106744795447986,0.5895838713115253,-2.1125630239269877,-0.5136948238395631,-1.7851491962062953
80,-0.5641138456204026,0.37710098989987206,0.5611034315406626,0.20281383001751274,0.25986669562570486,0.865057112245853
90,-0.5385743262302268,0.40127687233924836,0.582422919352753,-0.8072969146416423,-1.5879310597269716,-0.1322141377914824
100,-0.5730154840837651,0.3709614469866249,0.5513667652054203,-3.554153254877285,-0.6971036585095939,-4.668697708559826
110,-0.5463794734092678,0.39441091973221615,0.5761730367865043,-2.2004329436091234,0.13219806238468806,-3.726699341043122
120,-0.5209943977790429,0.4150211554177725,0.5975219151577693,-1.214772466928271,-0.40529682616795526,-2.8428979506993626
130,-0.5504510512173796,0.3912807808816094,0.5758226068305657,1.6493146399718848,1.1185370902317668,1.171682711450336
140,-0.5714178792390165,0.3743018997827521,0.5568573248797493,2.694609355648847,1.3979678328244232,3.0246675955444693
150,-0.5458328900548675,0.39818184447218163,0.575311538059864,3.878441601333361,2.588558804013281,4.293533432736988
160,-0.5344906834757115,0.4072736831339618,0.5889582933606965,2.8486887743393545,0.6965686871024401,3.319964321308462
170,-0.5522006535562201,0.3937419399206119,0.5822380691849458,2.391344897642329,-2.3449733487897655,3.240212569301699
180,-0.5640438230358086,0.40357444974687,0.5779870433545112,4.79051468173254,-1.6737773984583075,6.914275407888196
190,-0.5713496060235377,0.418756989639547,0.5667055073116273,2.763603694057535,-2.83222895210908,6.331763252436637
200,-0.5437169209864342,0.4360464344823969,0.5910377422104879,1.7630561707057977,-2.6224077612977026,5.385485948019149
210,-0.4961009803663145,0.5500131356581982,0.7267588558471543,-11.347060083548977,-9.659598755665726,0.11118594446426133
220,-0.5974171982837572,0.4895455382570989,0.7273491478984901,-14.642643059847,-31.01787593247119,20.262880743588003
230,-0.5095118167504668,0.3708353622941556,0.6086049543504362,-19.74855136233961,-39.95325385291677,15.04282352400031
240,-0.47470936272424735,0.368533242130693,0.6077008966065758,-10.516672378783753,-38.264956013716436,20.10022730499664
250,-0.49986116674021813,0.2834000123754498,0.52985953341073,-3.25439656777505,-33.98583111077828,17.31132858667959
260,-0.482606117190351,0.3003897926297863,0.5064185743916717,7.753728072579324,-18.944944008581547,11.944123306914143
270,-0.5499148247865325,0.35594201807088016,0.5194442887560944,7.846808817317352,-8.744139205056662,0.46502085366164336
280,-0.6210151863874853,0.42843483147829386,0.5395667800809606,2.52413138881104,-3.7867049772524535,-1.4973355597177977
290,-0.6309725544799663,0.41166709062018236,0.468998765484547,-5.491758027205875,1.2320732197312125,-5.218685434517362
300,-0.6001496057697436,0.3307445392144301,0.47170842001694685,1.790349658236615,28.330132499455143,-9.212638321505082
310,-0.5399899044300107,0.43073758607156665,0.7616685241536636,8.60021714827701,41.51801742410485,-11.440442806422737
320,-0.5390824783525295,0.28788147367503714,0.08717397272132522,38.97566308610549,51.0227805255617,-8.256189021839143
330,-0.7764016981361803,0.3564146337332246,-0.6827263409683264,73.0381027537345,54.58150858991748,-9.005467481059553
340,-0.5813111834380186,0.6669637944386684,0.6241829165036046,23.402995412378786,53.09657158274989,17.07873769503859
350,-0.27526564076209914,0.40878452086182143,1.1253046242180111,24.85513812785963,33.69792493759758,1.5803326757200398
360,-0.4268939340979687,0.3564595243864336,0.829952241135172,16.491808980618977,18.870508457286483,7.987282994859459
370,-0.5301474992456593,0.42065944873868283,0.6252672751644219,9.950916569472302,5.602919941076116,6.658165203862417
380,-0.5714145607157829,0.3899273217710226,0.5665736594286052,19.915361702738213,5.113633904016236,10.058545933678733
390,-0.45839262503973993,0.28932536721347707,0.7449315399945989,15.764433158673478,-8.11966294744431,8.991841138676646
400,-0.378499119191163,0.09320533060215079,0.8815726165327711,-7.187866453354406,-44.16516021372846,-10.617602868083566
410,-0.49431252669592257,0.062405389922960595,0.645795247031896,-28.885037678349786,-79.4309841186861,-43.62431127044432
420,-0.4123772801020991,0.5240412187760857,0.6164967348590721,-32.43296494600403,-78.04030873432559,-54.065606645797835
430,-1.0141909249509,0.7174344700826698,0.4595927200763393,30.615910379345195,-45.05569172971716,-35.320389233915144
440,-0.8939370011919567,0.7415389134860965,0.3022713369140859,-0.9197788787977619,-24.257172002619733,-8.277231828167562
450,-0.6273568736872568,0.5666019750366872,0.498513408707357,3.559414781253775,-9.506371572018738,-10.679258184112332
460,-0.5686239130381476,0.5587502361040002,0.5800144421248099,-13.245184061475419,0.33133502586869135,-2.2107701087204648
470,-0.5342864798729869,0.4778979149787574,0.6038503416165126,-32.64824584661588,0.2956941524179783,-5.605989166864915
480,-0.6575202108965275,0.37427660207645186,0.4517372142940352,-47.70782079326223,5.272528616766995,-9.694954544922837
490,-0.7506587688382695,0.3888419274442863,0.10481527303845109,-9.492695824974035,38.767731814799234,-5.211810043408395
500,-0.7735930634312356,0.38165971822324024,-0.13267654864446413,33.665240231404475,64.62507296560926,-2.456651692513672
510,-0.6518319785586347,0.48754134596222265,0.24331890727442804,44.05556330781504,64.0117909987988,7.679421825746735
520,-0.46953884238726035,0.6876395737402937,0.8243992355839608,49.25476059439807,49.22073698614186,10.990244777213848
530,-0.5630686511574536,0.2991183492560155,0.49291788345565585,29.043509270082595,31.600253142400984,-6.7395849315548295
540,-0.6669557991303502,0.2937748289372905,0.06173366461834265,41.675783726120116,40.57423968775317,-6.633910150942322
550,-0.5441815239407027,0.5629197820745254,0.7874421049865857,13.616230119666053,34.49239018881076,14.174579114799691
560,-0.5437154874844033,0.4062155185950435,0.627029313968996,0.6006302064404485,10.649886272395321,1.2431111676928042
570,-0.5331812606910475,0.4057913675502076,0.5971094865585854,2.340309487255643,1.8449148872602863,1.8551200302956374
580,-0.5777180986226272,0.3784129970145153,0.5470547935392479,1.4354196301709123,-0.8554626805687171,2.746398824412247
590,-0.5899617350561998,0.37892876089337496,0.541055166372225,1.660401362624217,0.9205983641835739,7.586614186857828
600,-0.5166886037809817,0.4191979338292424,0.6667886090389313,2.651903672931426,-4.796067744890168,9.04739065847817
610,-0.5371753426498969,0.51539898848029,0.7167821399565096,-1.0168909661354948,-22.653460722717146,12.94147667349273
620,-0.6375447513651921,0.5667770601381288,0.5879717148372623,-7.511931696580717,-43.53901731407466,22.34586933780571
630,-0.5391750143538742,0.40271124307963374,0.513544930008481,-1.040157716964172,-47.37368958034323,26.610210482843467
640,-0.4634290472980528,0.47158247330431974,0.47981646183251214,1.96777220505169,-34.5950378477586,25.418947708156768
650,-0.4379088992957729,0.4298961549843616,0.4313926663458273,-1.207111151508176,-17.23886332201646,21.641353246949365
660,-0.38867324265342146,0.4283782179350108,0.41172462865882115,-12.070892300892469,1.2922446321711134,7.203074891227212
670,-0.3864885569824751,0.4448313831948333,0.4115515533624378,-15.442561763750186,27.91667813152994,-1.6897981739312797
680,-0.46968291802554174,0.4284815445109618,0.604723632090835,-23.210150487921496,43.42141562886572,-11.289468067569521
690,-0.5396650252795288,0.36295639464393054,0.6024782550794319,-8.242201433528525,14.511444536288629,-5.349603970642898
700,-0.5629326514892904,0.32086864932738984,0.5719205871418251,15.635307871761308,1.5134108646832354,8.015093025141056
710,-0.5194560060374249,0.34360447598064087,0.6051676321963635,27.245392290573683,3.1201201837740404,9.739634876968069
720,-0.5384421554962335,0.3246250657232319,0.4970640168877816,29.156853158210843,8.193769021577749,-10.219831502888727
730,-0.717363242882707,0.2070336437100964,0.5714256589767975,30.686393283173985,13.696752881266075,-45.564847267845465
740,-1.0920489557760256,-0.017905127109374128,1.0522203990547656,45.404948105257525,15.019657240045746,-53.1540231497153
750,-1.2294854884452353,0.0919468235109121,0.36696149510102655,33.88488628478773,21.867454719966812,-39.53944519421088
760,-0.5568425925248437,0.5642280658854694,0.5818515899582147,-8.150641982586146,-0.6039280681203276,-1.9451165648390383
770,-0.5535817356413676,0.43437925644420305,0.5739391026862244,-21.737652339809955,-1.6734943932187853,-17.19256793535917
780,-0.5421728896698048,0.4013876510851814,0.5876100132001744,-15.072444283019617,6.168757403072832,-15.052449015468373
790,-0.5677775196660628,0.3659597730702676,0.5600136683103102,-16.314331712951144,1.3973385147112134,-18.079652016157958
800,-0.540319932411658,0.3754900192419907,0.5851666801431843,-12.531702487108285,1.0833144726710058,-11.832669613992358
810,-0.5683599956920303,0.3383742937398839,0.5555298976794044,-6.164381063470056,0.015487329725485457,-2.769024127922551
820,-0.5542903399767081,0.3706677610423579,0.5702292705677374,-2.2270355767948686,-0.5791769037236347,3.1412564230950135
830,-0.5594812298786256,0.3869814818051648,0.5665501196988948,1.253792602640421,4.373609120614995,6.832604686903936
840,-0.5360029130429682,0.41021256779376836,0.5883094258737183,2.27498952273099,7.199428096904028,4.785966826182717
850,-0.5506183847322015,0.3942204013761067,0.5697418139881192,-4.520908037788311,0.45649578729220175,-5.347855693840516
860,-0.5633161758439085,0.37334029909368194,0.5570428926426786,1.6478539860935395,4.9303628167640285,-0.5264731049829927
870,-0.5684421702386778,0.3741242600019594,0.5549381216867729,2.7279947089021763,3.002170816595551,0.3301037396495752
880,-0.5406402087347675,0.39836660328946033,0.5872715306189218,3.0504854090259403,3.4415398906292523,2.472648467067928
890,-0.5505763727698407,0.3853182243987128,0.5788439981564347,-0.48417983706739065,1.2379525496890766,0.16684062457787574
900,-0.53248424718786,0.39983152589025706,0.5932834863583278,-0.03633708057902574,2.417798143369456,0.9889449556038601
910,-0.5597310082843907,0.37699085810859717,0.5644091919661497,0.4724419535369404,2.9933133345625267,0.6788008785886133
920,-0.5299189428023406,0.4073615711237704,0.5955222606169835,-1.4054745116590475,0.9164947474677686,-1.5874537308963763
930,-0.5669055474872645,0.36594996760603965,0.5585732620131383,-1.4499477706400876,-0.4022846995805939,-1.6104245352580149
940,-0.563304619857603,0.3673431786595821,0.5587266830724026,1.5398730316009934,0.48564643936332463,1.1976782158429966
950,-0.5656857434141795,0.36810900552138104,0.554043317818613,1.3471310132781762,0.3101563249069555,1.185130181508065
960,-0.5502193788523309,0.391563116477036,0.5738407047164684,-0.9865179024379045,1.5879905614988403,-0.40725097256442444
970,-0.5654987710916173,0.3729780469950525,0.5589374720776925,-2.5476230435318894,0.3976495144579698,-1.98908224792015
980,-0.5604589195245944,0.36946474719544126,0.5662450422466926,-2.670454840194477,-0.8554526082294875,-1.9755449605107664
990,-0.5439396999944254,0.38899376577047307,0.5799823303507511,-2.336143916938198,-0.9684771410410166,-1.3093818965893547
1000,-0.5472389740643278,0.38922858397772214,0.5771171359582868,-3.321860007707552,-2.4892671590136066,-2.759594160545075
1010,-0.5771694936970803,0.3573596518422491,0.547127951437498,1.1760003558102397,1.4628451203616595,1.0866344475880618
1020,-0.5291483728493159,0.4081432429554896,0.5915425110888392,-1.7321113841048832,0.10620555923002056,-0.6797212720890429
1030,-0.5337735517731899,0.4056969607294883,0.5864933661814028,-3.7526674021006987,-0.3695132117148961,-2.0094672886528504
1040,-0.5247843652212515,0.41096010903115315,0.5985366867150289,-2.464313146027455,0.5703264420984376,-1.3688192924130278
1050,-0.540317157138547,0.3914639090513444,0.585975220207554,-0.3826403813257424,1.29035698768871,0.0351314278777497
1060,-0.5498211374304154,0.3839948963158704,0.5781013729316616,2.736055246454453,3.3873895148843136,2.81311136856947
1070,-0.5509727216009883,0.386286198260672,0.5738856596766959,2.3988476106557624,2.098538131589471,1.7931435342781616
1080,-0.5423275037657144,0.4001641626342301,0.5795892814263687,1.1834519359896163,1.490641657174903,1.1680924773478205
1090,-0.5379798778031003,0.38905564265724846,0.5869047430320369,-1.9830294918150764,-0.9909380891187689,-2.074777716169351
1100,-0.55517128798511,0.37143154671723955,0.5659036080585537,-0.7803847484890176,-1.7798932590561236,-0.567977803526523
1110,-0.5417568761791145,0.39011469905452495,0.5803110380442342,3.633867287173722,2.6812951202289677,5.441773156942753
1120,-0.5693062525143261,0.36825511811077216,0.5512247296933891,0.9288727483035031,0.49472144066598217,2.537111643862375
1130,-0.5213247940368873,0.41690390166369795,0.6036940337575442,0.8101759039389087,0.469361946695586,1.2064082914756873
1140,-0.5660503930376218,0.3694886505280456,0.556995891555084,4.5470422691983385,3.135161067076784,3.453867024674335
1150,-0.5766552501843588,0.3599828553147666,0.5426556540377279,3.1470336129957652,1.985316622574511,2.378162472793787
1160,-0.547420640739633,0.3933700214357897,0.5758548467579891,-2.0468869272668635,-0.761998199958436,-0.7647089880401459
1170,-0.555142822935703,0.38466924409201386,0.5706607235816181,-1.2107863373698229,1.602605859206079,0.8721552206711878
1180,-0.5438408146433457,0.39412403564990356,0.5829570273023611,-4.071295491673233,-0.6577599801741961,-1.789295187101713
1190,-0.5520908937993015,0.39142556114770394,0.5782362230552215,-3.987369178310568,-0.526530637964472,-2.2926580298302355
1200,-0.5355159730209493,0.39676288432776924,0.5842650391167885,0.9178539046337029,3.184948445328895,1.6611984820791255
1210,-0.5653582317290448,0.3660312764485,0.5553669037466361,-2.9522959775664583,-1.835590787177951,-2.651299278895398
1220,-0.5585166930113444,0.37732956081849034,0.567644746536234,-0.9898318458336379,0.2694437702441398,-2.2462655136287344
1230,-0.5557360450297718,0.37870209090115803,0.5657326736597259,-4.994390331931835,-3.962644256880502,-6.186090757470595
1240,-0.5390284356774186,0.3917408749708388,0.5838740275470159,-5.594683717265384,-4.491824580967154,-5.551496159269848
1250,-0.5603926301487455,0.3733528610526836,0.5630560046526311,-1.912355234518734,-0.45914582628358236,-0.8156628682177612
1260,-0.5559146172834124,0.3797800393411095,0.5667466520721799,1.2664058253653743,2.773760890401614,2.659756322663002
1270,-0.5318553578264864,0.3987653747162718,0.5938585842566755,-1.2003621996936287,-0.30088785590890266,-0.07997462955772161
1280,-0.5574981824214392,0.3735396796865831,0.5670389415939776,-0.5013775378661229,-0.400394392281388,-0.22556154847174048
1290,-0.5547419434462073,0.3818153193848124,0.5669857709956424,2.8953528320750266,3.37510809263864,1.3516912583354628
1300,-0.5509378158946943,0.37931931576430217,0.5717269377773571,0.3357172656334926,0.39820040721111766,-2.252946803485793
1310,-0.5474052576699592,0.3826222212734295,0.576359599324088,0.35156446410369946,2.032933439353691,-1.3656395569407398
1320,-0.5416963584014708,0.38034103502331695,0.5765136279899367,-0.41160042001931374,2.1071417221429947,-0.6280096439764002
1330,-0.5507119325741971,0.3760509535345117,0.5699448497349616,-0.3962156354334334,2.179633246601984,-0.011071127460501318
1340,-0.5419374847703597,0.38601243671458624,0.5789304257771791,-0.36469592829450304,1.4579077706572239,0.06145691046518165
1350,-0.5545118012806146,0.3729831423901194,0.5685036872216586,-1.2549838361528571,-0.8596693086622732,-0.6676797267132419
1360,-0.5817216518173057,0.3460441212458121,0.5419279159278554,1.6228293728432739,1.1978117767846657,2.1976936448377393
1370,-0.536833587870373,0.3936851254215482,0.586161413199711,-0.1488373015674357,-0.35056659747662416,-0.21390478430362847
1380,-0.5420052394462825,0.3907355286407412,0.580339047053234,0.7233304066312949,1.5200751674360884,0.14671452743488422
1390,-0.5763996955690576,0.35197060152073567,0.5422679060968805,-1.415210921638644,1.0727939512114206,-1.5314991335567156
1400,-0.578676381890742,0.3493404566991329,0.5454760669758657,-1.9492548800198732,1.2368060799148093,-2.52760233430047
1410,-0.539454424084031,0.3873595394573326,0.5799566137807571,-2.9909649562876455,-0.6407902529901087,-3.9155985021560937
1420,-0.5411780386508237,0.39061187879367515,0.5790778850743054,0.11596125668107123,2.669097563163489,-4.705451889459797
1430,-0.5644380159751963,0.3620352721572043,0.5574554894922974,0.12819146396375622,1.75478984293192,-4.753076073203344
1440,-0.5596464108604797,0.36601236560694117,0.5604555345819979,-0.8940769038526447,-0.15801670115554717,-3.988009263218249
1450,-0.5570436875989085,0.36526780441912265,0.5630729447581634,-0.1778267559443601,-0.5013265635870722,-0.7751743823210702
1460,-0.585407005875289,0.33777788667109937,0.5341265650996826,0.9538921433320857,0.35446704607277635,2.4879917771029203
1470,-0.5263014573610774,0.39833708787037503,0.5921596787305227,-1.9944387820526215,-2.4290144657484127,0.2250745176530975
1480,-0.5121878930212237,0.4119866598286026,0.6075193150315511,1.873366706135554,1.9678619630706247,3.2231770176574015
1490,-0.5629676372732026,0.3607089590101835,0.5597838405984412,-2.021677714625967,-0.7195718435652729,-1.666689947954204
1500,-0.5475835636259682,0.3731334400644695,0.5751141742356312,-2.366910203521665,-0.32257244643305216,-1.6877852440170193
1510,-0.5215792180721753,0.40136152010609255,0.5968270929985745,-3.5953573684547617,-2.424518532296243,-2.535799578903817
1520,-0.5380623677889114,0.38501247723932785,0.5851991430627677,2.227347096242694,2.823669574350949,3.2343310614767184
1530,-0.5421123151644808,0.37987267076340936,0.5838646387010328,-0.9482038832587971,-0.655377333435145,0.5837023746301264
1540,-0.5556570109330509,0.36627793697129957,0.5641036178454413,0.2016437546787675,-0.8370804212296701,0.6675502177715349
1550,-0.5397727493768574,0.38337564677197394,0.5823578498807662,0.8998857825595841,1.9896385275494741,1.069083172526056
1560,-0.5474483775421469,0.3767907125601877,0.5738123425632019,-0.6963881307786434,0.6574285521859697,-0.3709081650881235
1570,-0.5695134829438884,0.35680989886418607,0.5481905065217142,-0.48111240085163937,-0.20666399869877122,-0.23923108718126568
1580,-0.5700436804789929,0.35784787128874307,0.5471065901720353,-2.6504489476915167,-3.2197378812802677,-2.7546820187450978
1590,-0.5662238952447124,0.3606622104415524,0.551353602095388,1.922723040890375,0.8697212439349075,1.6824897892661839
1600,-0.5509937134917817,0.3724863969951828,0.5645524818091212,1.7936267694099417,0.812717144377852,1.8157373494903009
1610,-0.5590126151226982,0.3619273247669857,0.5576478523840386,1.2686117886149015,1.6041452589039003,1.2891757171438112
1620,-0.5573157843229573,0.3691944125881842,0.5636447248112779,-1.1350922551245008,0.08348869818736937,-2.520603156982081
1630,-0.5266698017427436,0.3950590111870498,0.6054575536637494,1.8611800358049375,0.1666766350156449,-2.1212011335645062
1640,-0.5510917890944603,0.37049498988942925,0.570166785686708,-0.2704198345653763,-2.0099531409565152,-3.6925901659102127
1650,-0.5629275902949135,0.36156635423196504,0.5599248336699956,1.9254149840703338,0.22395959620656553,-1.243477609080292
1660,-0.5465629323675407,0.38002723115498865,0.5751906473351767,2.258040620466372,1.5694321184461217,-1.5932716033223175
1670,-0.5624998003670162,0.3661453874074224,0.559050263359327,3.770175280139097,3.4915452459976493,-1.5732142580758857
1680,-0.5468608597439194,0.3748404249417308,0.5725951981073969,0.8455948393671091,1.083134125581336,-3.854145453701146
1690,-0.5693593130672128,0.34381810248211986,0.5493078627934621,-0.18556654291615815,0.8726215479553118,-2.37100485522256
1700,-0.5549982189210073,0.3539809565089034,0.564020357372575,-2.035431678850261,-1.2201451689795704,-2.1798023091052823
1710,-0.5345242247701226,0.3716235279001759,0.5813637422035721,-0.23594936658176194,-1.0145136999141933,0.7104511843126742
1720,-0.535001262241482,0.3773160002126303,0.5816415547357355,0.21855266606541654,-1.2201626799201004,2.5309448637736454
1730,-0.54498202121467,0.37393629679231233,0.5801773834289959,1.8976378495079724,0.6679913658296812,5.883208379393733
1740,-0.552457175978292,0.36132770516694346,0.5644989807875176,1.9850047008719507,0.8326148496382609,5.928616712279821
1750,-0.5559990884960226,0.3641762952027835,0.560805968052191,2.148303050065906,3.7591463171255093,4.419656189699969
1760,-0.5639572401531915,0.3541610854629522,0.557292246705018,0.1160643090249237,1.895229156019221,1.2648015615006596
1770,-0.5461165616791827,0.3762691541188775,0.5775735617450206,-1.7387902330458656,0.11029598173124855,-1.0271139516117416
1780,-0.5458127300512737,0.3772549316790948,0.5791147799644384,-1.3480259400323562,-0.06311764959487687,-0.8949237768249965
1790,-0.5558185373932236,0.3640860524933225,0.5688867191590623,2.397530779037,2.129891917984664,2.5683515035750037
1800,-0.5448759298368654,0.3740114207393901,0.5779308025872567,2.8060626817525347,0.3283509970794839,2.661771356269668
1810,-0.5672151700066622,0.35692291570143464,0.5524664471251253,4.929235656091226,0.9519329339684917,3.742772231201102
1820,-0.533111469833288,0.39924878913477213,0.5846926390352699,1.8215680774141434,-1.3109766670762681,-1.2841004713735822
1830,-0.5569612069618108,0.3754497753156544,0.562916950172095,-0.19509271900524627,-0.5862370323984666,-3.9823943667973762
1840,-0.5616095309026484,0.3619765396162216,0.5521444313178228,0.07081979071292488,1.2851173096504023,-3.444671003888847
1850,-0.5551200814593624,0.36041084577187804,0.5580230261191595,-0.988874604175378,-0.6679733024467319,-4.513173576617136
1860,-0.5306588309668708,0.38653975573807264,0.5860111812512688,0.6720953490342207,-0.6412476459440943,-2.1824843697847283
1870,-0.5685904542304462,0.35076006039595986,0.5514664140994298,-0.6601798532141978,-1.5996911883980118,-0.9146209950326731
1880,-0.5448252155793093,0.3749194626379,0.5770234481225893,-0.8389932003113474,-0.35803734832226525,0.6313875957156269
1890,-0.5604613170249503,0.36192526752875437,0.5589867846939944,-2.834015751494514,-1.6148732062331501,-1.188223051915615
1900,-0.5391110011139405,0.38584809616285043,0.5798011798361816,-0.5591044650152901,1.119950384167017,0.29084000969160345
1910,-0.5496800355072841,0.37849018273291063,0.5698618890372222,-1.7412555727682872,0.7216371250688401,-1.6798654116112588
1920,-0.5411062265983649,0.38862730939547957,0.5775352929827721,-1.8677327108801665,1.532665191833606,-2.186612793378332
1930,-0.5506130037202185,0.372425184789896,0.566980678890437,-2.4755382250057703,1.2045995141473889,-3.040232421580644
1940,-0.5871192025448105,0.3298913156113063,0.5258493979893973,-2.4072842219286485,-0.49342590477978115,-2.92629483087166
1950,-0.5696685934648235,0.3580815079057406,0.5494854791069879,0.6101924772977148,-0.4344177189774656,0.9183379786562358
1960,-0.573052899342608,0.35130050194612816,0.5459219422228389,-1.438653639160766,-0.7189869418105006,-1.5686494996191596
1970,-0.5523804348153445,0.37081257841387494,0.5685049973799465,0.18043509963292625,1.8277519623320968,-0.6939175809434676
1980,-0.539279972140577,0.38253771862298813,0.5779090839973409,-4.905643589162968,-2.434728343015909,-5.606176152064815
1990,-0.5588652931661692,0.35761515880323025,0.5588484253504311,-0.1931814518448599,1.550259546727422,-0.44619159648942497
2000,-0.5690020297138021,0.34559670730710257,0.5493153301210618,0.32237736527632466,0.735246413289285,0.5191239267972225
2010,-0.5511667347864863,0.36533377509900383,0.5678585410833524,0.12667733860062602,0.17711800700425712,-0.09561436033177656
2020,-0.5453741056573418,0.37609449236049547,0.5746612371764088,2.2759081133441406,2.5297111843850044,1.537749580072633
2030,-0.5798704726033002,0.3443694979078468,0.5399422317342731,-3.6588808048893013,-3.5166979299867522,-3.9519690136844714
2040,-0.5523792359865299,0.3665136905511891,0.5676216404881848,-2.163909591673317,-2.181093019946398,-1.7601397529060874
2050,-0.5446684602649606,0.37535772252667915,0.578252875669739,0.13321483470819606,-0.6014376816325783,1.1323947844919746
2060,-0.5762754363069228,0.34582373063379873,0.5428899207979209,0.4488088457075554,-0.3111107149137686,1.5400318483722262
2070,-0.5477557576093766,0.3743901535498095,0.5729469761179183,0.9272367111060066,0.49694848465405406,1.499837621036343
2080,-0.5479271061790787,0.3723642366721824,0.5644762188371533,-0.8106541245451985,-0.5427308589092732,-1.7324256347748315
2090,-0.544788582234457,0.37498737783402203,0.5720635084617942,1.775141894478489,2.3275738193027715,0.8200046191368564
2100,-0.5223558209199651,0.3951091624880306,0.594075675191104,-0.6742484422167074,0.20970861555669434,-1.383422859058583
2110,-0.5392649219287446,0.37597386446472214,0.5767571680112276,0.25059486683980836,0.8272685730471225,-0.8191160993104671
2120,-0.5802820743542557,0.33430938081695494,0.536235699737039,0.0070738292108506184,0.16018253598207516,-0.7493907134548088
2130,-0.5502346711428974,0.36628769383597015,0.5665294978704465,-2.109949868793406,-2.369894186482168,-2.050067529925035
2140,-0.5168185120812804,0.40196821045068104,0.5995221822237069,1.527375250937883,1.879579787273015,1.3852281422433301
2150,-0.5692548482870099,0.34761686224869903,0.5454023312134614,-0.7660853465288742,2.304163020004249,-1.475880805615932
2160,-0.5450131620972462,0.36957082169050787,0.5738851651371267,-2.1064894035388146,0.4294961186818796,-1.5884251836638785
2170,-0.5425012425626267,0.37008134456731717,0.5764424035841939,-1.553705021955607,-0.4805228907684469,-0.11393084644752055
2180,-0.5418839393387052,0.37254928466745185,0.5762682087435836,2.3417893699673376,1.9889260180780635,3.820731964141962
2190,-0.5697024582963981,0.3491423466101553,0.548518847281892,1.6374789824142306,0.8045176306355553,2.2888746171478145
2200,-0.5372458782797889,0.38322897499588604,0.57915036549875,0.4917290118122887,0.17714177642304973,-0.7564789445326996
2210,-0.529286832506621,0.38940033854067857,0.5866620755077844,-2.973268157759466,-1.5315698629261427,-3.8449841910056293
2220,-0.5765732812631328,0.33821000590250333,0.5434851016648732,-3.732918815691154,-2.6152444035956757,-4.03534484133694
2230,-0.5717754417480618,0.34106206327874516,0.5499810525088953,-0.08447574571330405,-0.3566274675518034,0.29672875301861673
2240,-0.5342808192173858,0.37789310846427676,0.5851158368330851,1.3058591898591407,0.24011232140857952,2.6882487791190783
2250,-0.5309766379264768,0.38087469399464613,0.5854064953905685,2.5987053207830964,1.2679683775083146,4.2922015484055915
2260,-0.5559722502887573,0.36007523932336105,0.5555968611971894,1.1120897514768984,0.5038082999588483,2.568896052771793
2270,-0.540681031785405,0.37722824565304386,0.573482485846338,0.28263045260764785,0.5293933524834622,1.2952979177549442
2280,-0.517158000965518,0.39732266295224583,0.5987705686340884,-1.315922717469836,0.4134342619685857,-2.092139030842459
