time_ms,ax,ay,az,gx,gy,gz
0,-0.5552448331442844,0.9044370522778027,0.9687980761988901,4.116395798346199,1.7341432906845562,0.33836680654974927
10,-0.5609724377941776,0.8990128341019114,0.9697778663805682,2.5088447560995615,0.7198815994179057,0.20591358943524551
20,-0.5702663511533825,0.8804967472029067,0.9534396331662174,3.8532589368507586,-0.08671158396237455,-0.18617895829295628
30,-0.5806426899447046,0.8749716062733125,0.9447997144272908,4.296101173276078,0.24948131762082526,0.0952866990641883
40,-0.5660186945346055,0.8844415288976091,0.9534547361742692,-2.2600673293954467,-0.6359170301882511,-2.26774872799103
50,-0.5570900838215614,0.9008674912936366,0.9667987803352966,-1.5849152503124824,-1.0977871905444363,-1.4840954145078444
60,-0.5535198444966632,0.9070750973152661,0.9717612680901536,0.7743264567302877,0.9022913146007434,0.48773118874881227
70,-0.5801469665042704,0.870182953889033,0.9438642674033512,2.534626705832017,1.996791557823299,2.189911061366815
80,-0.5704819482524611,0.8832710212358678,0.9523381686212206,4.44880185271677,2.3619460423811462,3.164841205696286
90,-0.5643748623010212,0.8882775400101528,0.9605169117222816,3.798349515546839,2.8036084275492033,3.3931881826336374
100,-0.5579285786328345,0.89844072920869,0.9630634490795271,-1.4979181903863412,0.5088373431084656,-0.5446282152675559
110,-0.5655131395179602,0.8949784761094912,0.954840058506374,0.6318955973800056,3.0914838680190866,1.9535153258077977
120,-0.5468802599686168,0.9069284291084968,0.9780267252309334,1.2792222303257117,1.5928422845288406,1.4671748931323567
130,-0.5563492419361358,0.8969011720431788,0.9679260997551841,1.711640555110681,1.1429795970716805,1.2645807155192623
140,-0.5771618641620307,0.8827935746302088,0.93749023142211,2.020730019514586,1.0970469724633292,1.5346964571707238
150,-0.5790431506413459,0.8913934768783879,0.9515160980482391,1.696426110650652,0.6107698147523286,1.1395100002567382
160,-0.575319394835844,0.950555329254457,0.9772481098649165,-21.17946002550842,-8.996433864116163,-6.769053585839161
170,-0.6578887611757824,1.0139107696390148,0.9303441279013893,-44.793059994522544,-3.6368547154945885,-0.3104878892075158
180,-0.7760034783969737,1.1737032799851406,0.9136565627069657,-15.14277349054131,26.589258991290414,19.544944543706116
190,-0.853481197543792,0.8581095968266355,1.2804541353700902,6.50846093518642,7.5358339253578315,34.93579290310791
200,-0.6301963359739031,0.6939725941466717,0.9349335176853907,24.913717002953504,-18.196983019789272,38.187255429994416
210,-0.3452540362575682,0.6902107152972254,0.7158573194808993,5.286135744259495,9.628378621750908,20.344565898143017
220,-0.4351364000756383,1.040934659824607,1.0691613572489085,-24.79280850812023,58.40658264377463,-5.453236979735568
230,-0.8216285420253051,1.0030907242210991,1.7343545669162175,-23.25687622516762,17.464742407174217,-8.572963793990294
240,-0.6535877909306461,0.6834332044436702,0.906985992253764,-12.188503706558013,5.494373721134038,-17.65890023143379
250,-0.5358759800599777,0.8402432577780009,0.9733554468317804,-13.235199161996038,11.494098026124234,-3.8211495128908464
260,-0.5403526897244832,0.8148413825355447,1.0007559450049028,4.995310379692507,9.517954949965466,13.34939629617806
270,-0.4431995842009148,0.8472604737263929,1.1063791992215264,28.27318207014837,-12.680287694714682,16.972195857652277
280,-0.05652854356945907,0.5839161164155766,1.6869943117448112,43.60701503372231,-46.24293227390902,-19.80974059179337
290,-0.2114966724360215,0.2653803948578424,1.5924821744927617,10.643140763420748,-80.63783236711028,-56.49778769212383
300,-1.5753607988824019,1.6352190719560218,0.0036661125586991946,25.072710016456554,-67.43128816698841,-42.45947698864953
310,-0.08256981862345628,0.3721028571150023,1.3992191843218142,14.31468310185018,-103.59489180897684,-101.48939012149782
320,-0.5786570000062016,0.9745000029025811,0.8594258006030019,1.002613786768904,-74.32439621227616,-81.34450140555995
330,-0.9501630685810792,1.177281673352863,0.74057826117987,18.807088889734132,-28.615830134877033,-31.844602351608806
340,-0.6590619772015861,0.8062974656114162,0.9048252200200889,14.222553143856326,-6.872967782226847,-8.530337016511758
350,-0.894235042324728,0.8043532885289567,0.7034725219155034,6.592049685130865,14.202396215124212,-17.455752004826252
360,-1.0183131570609412,0.8851170017084847,0.4482922715555214,-10.953472405295654,42.76305267576681,-20.113282811658326
370,-0.6418936257281053,1.203486486199081,0.6565207678653742,10.132922115032216,49.36788548074909,-17.30305694207451
380,-0.7038726867321548,1.1105411539312318,0.45581219360727615,0.16978974883077147,55.43614209636063,-5.996727291183308
390,-0.6325462542453322,0.6326591447220327,0.7542225819493245,-22.81881996118571,50.34133766565954,-4.687087626507852
400,-0.2924949635037958,0.7249087969137329,1.461181577239743,10.096544380428705,29.890388126936827,9.654785679293694
410,-0.49675238871424926,0.8946152164355627,1.040419587462298,-6.586379648403632,16.284818805666315,16.45587425547134
420,-0.4699988585042405,0.8708316083332288,1.076125607711399,11.284992416127224,3.918204245639252,29.700378416784407
430,-0.5546974810980294,0.826605833906309,0.9952754232258536,15.090638459797804,3.844104670157193,37.81556262663365
440,-0.5274573525648364,0.8243727734192744,1.08683794889915,24.338447512746637,1.262425526482844,43.802818603244695
450,-0.438062565491103,0.9855628398830099,0.9888874614896821,10.790907057839872,-19.407128796202475,54.060383743079406
460,-0.33687250405599056,1.0985730351037597,0.5779843818728718,-28.648587091027238,-18.71472175297217,70.43016772884572
470,-0.18099316644067265,0.8636324636572893,0.5468808707868396,-45.16077729037957,15.32333142638083,49.13866294829964
480,-0.45346155232626756,0.7901603060311261,1.1490945066848008,-61.511444585099134,24.780577679714828,8.03273225589269
490,-0.6922583876697391,0.9154943969476317,1.5754271781697908,-30.474835311909846,7.261370037026408,-27.391583628638198
500,-0.4698445633222365,0.8221427416210862,0.9713281083852087,-13.724392685450935,-6.644581854348105,-40.65235220329912
510,-0.591662876419186,0.5815017915546039,0.9386101832763506,-10.949292848242674,15.585783605921993,-6.198053806161167
520,-0.6755957876227042,0.3893206818598714,0.9677840446392478,-12.466866154164277,16.545909537921172,-6.902122817781371
530,-0.6281883171810589,0.04656980356351342,1.0529419908497264,-42.9588862495571,12.26540913362619,-32.96534544432712
540,-0.6160407902413142,0.7046747760586195,1.0512754905050492,-53.04643964005883,-5.897246145523711,-67.77361364880647
550,-0.5849670186637358,0.7929179306154177,0.8854673977815817,-34.209649840972965,-13.19304265143837,-101.47174268988135
560,-0.5521200601768166,0.6688889652374805,0.8729441548806658,-11.040041487544647,-7.02901243389338,-73.9473346315591
570,-0.5362839248959412,1.072026123353108,0.9422895455493502,-5.155131401048606,-3.1312941486965853,-13.33227557665219
580,-0.5839690677627294,0.8159043943419274,0.9433072867889163,-8.569279925120245,-0.6384621341262069,-1.5437234810305307
590,-0.5621573520691586,0.8416264432281682,0.9579532391656282,-5.333553093381573,-3.420558464136664,-1.8045552115741748
600,-0.559711775328508,0.8532839924417451,0.9703693272278066,-3.1129835510917228,-2.5463948986216796,-0.7948631044931528
610,-0.554748759353188,0.8503063216147001,0.9857390592141638,-1.6682405303425005,-0.4370768875888533,-0.017327341409383135
620,-0.5727087623150428,0.8221562268608036,0.9662826708296656,-4.0043209387563,-2.5415749793469384,-3.004315761729588
630,-0.5635330524093304,0.8292138289330213,0.9708710691490589,-2.6253281289380714,-1.2525410522674747,-2.365564120455405
640,-0.5590178346489146,0.8357968485739629,0.9726280889533656,-2.2536497207590998,-1.297133951684431,-2.8324255499626525
650,-0.5625382499185659,0.8312128590616995,0.9748984796502184,4.419575109056859,0.27441581427344197,-0.3677508292647005
660,-0.5698178917621783,0.817490549179744,0.9625099775274809,12.227683582833334,1.6518591660318025,2.3707352888281767
670,-0.5664633596105907,0.8318307733397097,0.9637814080215227,11.41110742972002,2.145460106922052,3.423301295682108
680,-0.5774908054798172,0.8304200243668652,0.9540570171110917,6.296919307714712,1.7414426463517372,2.600063245705938
690,-0.5539878460381393,0.8503704000146464,0.9746296509165655,7.424804951370795,0.8977273738757215,2.346947433843815
700,-0.5565865804743347,0.8543572793682584,0.973471427706885,3.4824711149587113,-1.6613494093945875,0.1792129323486933
710,-0.5572019406339315,0.8576828110617759,0.9784469300178321,-0.7725012395689905,-0.4589025206268641,-0.5600463020664656
720,-0.6003331749179743,0.8132475611163246,0.9356299638261395,-2.0290805016732585,0.5664628944877872,-1.4420505917687996
730,-0.5810653116374015,0.8249119136436504,0.9502039275840652,-1.606727941078614,-2.9200705056914367,-4.737879698120452
740,-0.5605545646978249,0.8382132251553855,0.9655829303979409,1.5864270769391429,0.15647366915405303,0.020546583918237715
750,-0.57880048680266,0.8240196235386098,0.9502272479329106,-0.17421534250055004,-0.9079988707309832,-1.866504505010889
760,-0.5673122701399423,0.8340171810533112,0.9658678005372104,1.9254869733107522,0.18044494336026035,-0.0345658051569
770,-0.5897650763527088,0.8174997628876728,0.9440548191781543,3.5354520676202394,1.0716918015313748,2.0602814079629725
780,-0.5708926903257386,0.8348536902735773,0.9598785058248096,6.214882213933573,1.2093026620842684,3.149181466535887
790,-0.5462284129060498,0.8503768822339572,0.9788991304915856,7.679146120582809,-1.274019232506538,1.4966418607127843
800,-0.5819758349916099,0.8297439315390589,0.9561193875696887,6.774394679639267,-0.855651212987271,1.2824631276345637
810,-0.5494573523010071,0.8580747062668903,0.9860288281688827,5.496830556764579,-0.8896879976760343,0.5105055768226479
820,-0.571147277277789,0.8391803593662013,0.9650998997765791,7.413892319983955,0.5275868993775059,2.280347113591626
830,-0.5721440384251409,0.8430010062442661,0.961946275079294,6.6125650762509816,-0.08205521683625516,2.4453264434944866
840,-0.5695722665210674,0.8488966228156548,0.9662246633205684,7.604029939680475,1.4776701400827164,4.442373044705882
850,-0.5420673077783561,0.8843006276076952,0.9947834648108573,6.012098382550276,1.1984669636971106,4.384241005771579
860,-0.5849056255122105,0.8419335647284042,0.9442100919175636,2.4924459928561236,-1.34854490610364,1.3772030006061082
870,-0.5842370536600193,0.836406209349618,0.942263194353105,0.7850506481185966,-1.3569594828730152,1.2612119733989797
880,-0.5732778564541475,0.8382393711844084,0.9521370485847582,2.782326353910646,-0.16621519600382462,2.1807612911334164
890,-0.5822124197339358,0.8337724328053413,0.9465389842122119,5.39760607676232,2.4102644458263343,4.49960630386147
900,-0.5873883091645595,0.8400703868705026,0.9470387914780911,0.6295898867228479,0.9859836279415211,1.6663378977180696
910,-0.5515213061847076,0.8727961760453387,0.9805721889301023,0.35513183946712434,1.7315916952408905,0.15805960683261033
920,-0.5498341810954415,0.8748506257216068,0.9824299993980644,-1.0431088690546986,3.2993538839026213,1.3210528220886308
930,-0.5744060106661014,0.8498164900105636,0.9535623895585137,-2.3720647621155893,-1.2893742118827276,-1.5071597842231141
940,-0.5685014035314822,0.8668421694339579,0.9640721992321216,-3.4268308678369035,0.4958656759289415,-2.2256220464691303
950,-0.5587570288111925,0.8818301135110962,0.9714333953868676,-9.551773606464568,0.3929660011590075,-7.133908215044885
960,-0.5867701773963561,0.8466113163303186,0.9487177762679129,-12.67256935486991,-0.9410024972746077,-11.637853676615068
970,-0.6000764826597645,0.8090351840460889,0.9379716587973422,-11.667675884581598,-2.74379312226403,-13.070573913560828
980,-0.566771977881204,0.8493021827935578,0.9640516046739981,-3.8080819594338613,-0.6813104879672005,-10.524194713132717
990,-0.5487370385864058,0.858467006901192,0.9832666929883683,2.6103891182276913,0.3259392009134616,-0.12808539814710418
1000,-0.5820498459349659,0.8244083405679209,0.9468964084567691,2.663439727359526,-0.3558784474250847,1.7404073335968535
1010,-0.5777160143437254,0.844825894424718,0.9537508589225335,-1.331337120184962,-0.8336869922157308,0.7155126337458071
1020,-0.5643844950610689,0.8622653638868821,0.9801187360211123,-4.36137872369633,-1.2097002277272058,-2.427343212878156
1030,-0.5951498081206132,0.8330398061673108,0.9436592645193607,-4.353096899737723,1.9678889260990198,-3.33358109111924
1040,-0.5552279017198549,0.8714645732935579,0.9811738420121454,-6.63577079310595,2.2392401530565818,-5.220992658241574
1050,-0.575357956205901,0.8227592698856289,0.956381328630837,6.282599322167223,-0.1700584347664259,2.633900200853026
1060,-0.5811645090606478,0.8283270750244486,0.9585862650194314,4.182935762807217,-1.7613358328988584,3.3892952545616732
1070,-0.5649799039002856,0.8545735924661708,0.9690760616929229,2.5727787104673845,-1.4578064006094524,1.205445735599592
1080,-0.570629647760372,0.850871067218929,0.9662610315355444,0.13231574868394344,0.8444057590338975,0.7785735870258738
1090,-0.5727563054935375,0.8423921443289135,0.9590595241106308,-1.2946100797984017,0.8806972979799315,-1.1718634605973033
1100,-0.5709534062396336,0.8362658555906753,0.9622768158149341,1.0705641304282523,1.0442013311820788,-1.0166003145800127
1110,-0.5533443495516581,0.8506191142080088,0.9765697581487836,5.23772672296129,1.2020521850259345,4.383024419219304
1120,-0.5616067848071057,0.8543699045950695,0.9811722684116732,1.5865348796534209,0.2510035143251236,2.8338748537456695
1130,-0.5693088296549667,0.8517430316461415,0.9643538840992909,-1.9700231210458647,-1.6197658965177526,-0.3130843585200158
1140,-0.5666351192444843,0.8463465786120693,0.9588681802364039,3.3758606634810655,1.7113940933964,2.166231329449163
1150,-0.5537177128892946,0.8664406717855874,0.9811843394550979,1.6918498016365426,-0.06121195620543338,-0.09182868380365924
1160,-0.5636763998595539,0.8494477952606594,0.9656598268764911,2.063922919691363,-0.75489465306096,-0.8603941792596154
1170,-0.5709581759064346,0.84559842743055,0.9621471612134994,1.7894140819203272,-1.1622542342344007,0.17773692599517266
1180,-0.5644782882818652,0.8543796424584605,0.9672705093287144,-0.9714948841618269,-2.1352639543249268,-2.016052463369887
1190,-0.5792644868709136,0.8395561671092341,0.9563803293636424,-0.764153034683004,-1.3232804151923134,-1.121608052060038
1200,-0.5666725621510442,0.8453735261384709,0.959060847251247,2.891493824458319,2.115848288477555,2.2179303013784684
1210,-0.5914048637919161,0.8194895206917499,0.932719346928785,0.5953541648447808,-0.31505558706663933,0.2653302835920235
1220,-0.5756634176072352,0.8476729308770924,0.9553843353144433,1.5208498570022475,1.4272839931025454,1.4128668724224498
1230,-0.57645661549195,0.8487710676708835,0.9562447526053368,3.6525990327461457,-0.07146257390908095,0.8414699072476483
1240,-0.5696675441385346,0.8604099737929478,0.9674367721660533,1.4271468911542051,-1.1152323003669913,-0.6970650838532289
1250,-0.5820543783247905,0.8472930494640214,0.9571812119601484,2.6823404918652765,1.695000662789254,0.6528100317341703
1260,-0.5675331213630054,0.8525033708603179,0.9630224075780085,-0.42791436612911726,-0.8256051086701269,-2.294949709608712
1270,-0.5688410651208421,0.8477574730802231,0.9571126739564484,0.6068278801756899,-1.341583582422944,-2.276677420708417
1280,-0.5568043252138178,0.8631681707329523,0.9765541558108661,0.5909074083920505,-1.3359909740653642,-1.1379674704320206
1290,-0.5487423053401186,0.878310396280749,0.987481924875348,2.040078215457723,0.2776638628551863,1.0486774777725363
1300,-0.5596442926586294,0.8682662025407407,0.9769816768490489,0.023621194248528488,-0.40165719446217985,-0.4467143747468372
1310,-0.5530612406188458,0.8672928021462554,0.979285780945498,0.5796478017263651,0.25892376802680106,-0.1557408073099279
1320,-0.5658366933990316,0.8600502591614927,0.9585214330475988,2.9559961039201177,1.4713539269663787,0.6285662238902578
1330,-0.5577538899397041,0.8678272605133872,0.9709607113531646,-0.36372045487214955,-2.5366935137247104,-2.5525490397980697
1340,-0.5630912381481991,0.8538476890979529,0.9660483888859532,3.1165488305612485,1.197540818905966,2.1314969706907907
1350,-0.5690659061317916,0.8515485120108219,0.9586071436445893,2.015203769439042,-0.0025860670770936067,1.3851386225205111
1360,-0.5870971229504924,0.8430987522673002,0.9407296002796391,1.1588090456217,-0.379577377075895,0.029306245857191215
1370,-0.5872873933495725,0.8403128878595963,0.944740118087531,2.680593865979318,1.3478214359949305,1.172191919406577
1380,-0.559793018411576,0.8619690773938373,0.9677953625693945,3.300322670270625,1.243762027642417,1.002279390936955
1390,-0.5757551442822283,0.849965218443906,0.949059802867703,4.417504700948925,2.3967588127486734,2.302014848143276
1400,-0.557336847169905,0.871690129493762,0.9720746626335328,2.9761411147377563,0.294434513629829,0.43957292750682164
1410,-0.5845823862886601,0.8459393505281305,0.9458185697624627,7.359569079039955,3.55849999160235,4.895575890044656
1420,-0.5814423126411634,0.85189109337307,0.9471017980705293,7.65015345602567,2.876608067183963,4.203664762885575
1430,-0.577134033678605,0.8571792252084823,0.9503705121862159,3.2772504622363994,-0.24381985023592634,0.31054336171369634
1440,-0.582797856349567,0.8514763380999747,0.9466735767704029,-0.5344207078492906,-0.6768344771009254,-1.9887222646174105
1450,-0.5807022266926998,0.8662518672607573,0.94834263049015,-0.19990205165627895,0.4103926384273877,-1.066854233130827
1460,-0.5453536777876777,0.8954233294566748,0.9832089025306542,-1.0346976625224922,-2.5988855753549474,-2.815990230779606
1470,-0.5676620595261967,0.8674089603687138,0.9577379185966303,3.229776476270928,0.47969487054877763,1.0778722267169458
1480,-0.5493578579873757,0.891362730039173,0.9797800975710236,2.983252451096671,3.199479346015478,1.8042119520703324
1490,-0.5505258426662456,0.894754172486517,0.9791028057281561,-2.0972850018791065,-1.4562888129774163,-4.315544953834216
1500,-0.5690226402738466,0.8715476453753935,0.95925844487776,0.6797113021716932,1.5116014327207692,-1.7987020714993591
1510,-0.5553867874355436,0.8786892840817083,0.9740074157440194,1.0110498890969581,0.8181700353013155,-1.9789026321188516
1520,-0.582942424180419,0.8517987431798095,0.9458157665994408,4.046865308444809,2.0200454675255095,0.9725579809895253
1530,-0.5750989679089437,0.8702293579175446,0.9545576530921404,3.5002666838252185,0.7126023898631048,1.265013294517312
1540,-0.5815801710957966,0.8678744142100642,0.9456635923202875,-0.09777363408512096,0.5297614108061192,-0.5232244225707612
1550,-0.575404394598403,0.8690013081748147,0.952230707531937,-1.6832452200494372,2.005208039798026,-0.15880919614253863
1560,-0.5725220591999466,0.8638121922981243,0.9528577351563676,-2.4944390516698247,0.5374360948832977,-1.553953869970829
1570,-0.593625122211566,0.841732930830074,0.9317434109298456,1.8380469915106694,2.7811585976704074,1.662010443998592
1580,-0.558652729761144,0.881866420034953,0.9687056659577153,1.1063918572140308,-0.4289843643283604,-0.745197508816302
1590,-0.5542065423889256,0.8933860211055282,0.9736998230854732,4.482918755097851,3.3009536167947684,2.1577981377236712
1600,-0.556903393324481,0.8903471429875232,0.972618259489351,1.6809032951079779,1.3643708133146626,-0.23962178900371356
1610,-0.5691700244102343,0.8727053538519156,0.95945622687366,0.8592686068392947,0.49091591550472413,-0.6065448501085942
1620,-0.569410160546839,0.8739046248316379,0.9600659420569696,-2.2101405872528623,-3.345140764721756,-3.867212856439322
1630,-0.5557524878640223,0.8861702860509233,0.9712834884033631,-0.5680088326153296,-3.025591466763154,-2.850311992658053
1640,-0.562011548443954,0.8794375332671165,0.9661573498012239,1.4747558002585373,-0.13725090344011665,0.27876026335481646
1650,-0.5962747865719932,0.8415352516468846,0.9282672598844673,-0.3115082360410134,0.8633953419870859,1.1260324938798763
1660,-0.5366801277348152,0.9045359394472053,0.9895360999216106,0.4244761818237366,2.095210154480572,2.2791319486349497
1670,-0.5943647492973181,0.8536322838134167,0.9309846852479108,-2.881674445568845,-1.9711201382033554,-2.379654603837275
1680,-0.576524302305533,0.8701172713412145,0.9489997255605785,-0.4024557097613438,-1.2459317707004374,-1.622116209220052
1690,-0.5628780220460516,0.8829691402450386,0.9666363385426443,1.4769286828615233,-0.5738605892911953,-0.8120520669079315
1700,-0.5721811436750363,0.8704127466124033,0.9552599471451918,0.4110727794286744,-1.963312481155996,-1.607374006363035
1710,-0.5905992228679193,0.848401490753551,0.9312274980745431,-0.055822201050362175,-2.0074595147323695,-1.7114784192085466
1720,-0.5828531904960139,0.861718385446902,0.9434339641570592,-2.289857030864532,-0.6398244717184522,-1.8344934119019485
1730,-0.5502703655360878,0.9020815635794079,0.9801422492496769,-4.2520366216663685,-0.039827335964522925,-2.5078180423171013
1740,-0.584386898165742,0.8615816641795621,0.9393914745622786,-0.2678614034200886,1.9653247946178434,0.26958681821746544
1750,-0.5724094758790939,0.8702701024302067,0.9550053347423607,-1.021238309624939,-2.1143007303772405,-1.7297331534753904
1760,-0.5716982714038003,0.882043960058418,0.9608748913381083,-1.054774521346129,-0.8095828623622471,-1.1980553495778663
1770,-0.5857864941721403,0.8631965807079377,0.9411919861896215,-2.182305059972437,1.037613583863436,-1.5868567962854327
1780,-0.5523088710761037,0.8833905033159978,0.9714209731453806,-2.41801083048382,0.1584484265773427,-2.260957410343099
1790,-0.5705260379405998,0.8646323115501594,0.954487442120949,-0.6235245258641705,-0.3114915752409916,-0.6139019342926685
1800,-0.5647957490121134,0.8692843716511709,0.9591610303698057,-0.21013020008796457,-1.0775566225239932,0.34142667577306884
1810,-0.5733112935558347,0.8711631523501796,0.9533689563047838,3.613317091396086,2.858707264575557,4.269675038407825
1820,-0.5630155281330441,0.8798538630653575,0.96317411566256,1.2869751776761769,2.366612530397808,1.5271804343112376
1830,-0.5907440530933891,0.8470073792734968,0.9334149152778074,2.1757000926030075,1.7697082743489767,1.2730502522444866
1840,-0.576139269127507,0.8603586434612358,0.9473434783197691,4.658190251261471,0.8366964116948028,2.4242244870976566
1850,-0.5433738282803522,0.8989006929196365,0.981191568737878,4.046622021579632,-1.0044175414180443,1.0161185119932994
1860,-0.5484503593200055,0.8952374136243667,0.9804825668333977,1.6376846057808976,-2.5328452355032436,-1.0068667251948136
1870,-0.5578373898098066,0.8885252053522248,0.9674533043682847,1.362232224053408,-0.9532228745817285,-0.0933041660363737
1880,-0.5885199124623801,0.8554514446365994,0.9354566343291844,-2.818026183268273,-2.800208585031406,-2.8110225544742757
1890,-0.5798517374061075,0.8606668010265988,0.9445271168655602,-1.0357599646141957,-0.743954569444164,-0.5143796609041832
1900,-0.5443307407427238,0.8935120820163867,0.9789730167921608,-0.5670641517361177,-1.4392574521460613,-0.47785761472642185
1910,-0.5526574812798795,0.8877839834944518,0.9700161648615275,1.8206740266281067,0.2247010031681117,1.3713849512668481
1920,-0.5650010429646298,0.8772311335200992,0.9590693368866616,3.539620615835111,1.9215068098688546,3.0812487287185597
1930,-0.5587473829282131,0.8899537946894507,0.9644535002841143,5.064695640115913,2.082409267519509,3.551697115901364
1940,-0.5892598472826566,0.8608995392559167,0.9370901578098916,0.5859966401787213,1.4397570314907087,1.2405390078303995
1950,-0.5646840919312269,0.8820061784510294,0.9615546519791923,-0.5778256510925279,1.7444070593447545,0.6229696202032564
1960,-0.5824273048344386,0.860584228767225,0.9433734962247589,-0.19037832782522845,0.7536042139812336,0.03815144923967717
1970,-0.5845085037858352,0.8522653041998078,0.9380930219480161,-1.6449661404512628,-1.2838914761041194,-0.38680045999938883
1980,-0.5400963459418648,0.8997649131580394,0.9859984592852152,-1.2597697711570486,-1.4019505399545154,-0.6851996391139
1990,-0.5756335479496292,0.8693455492228833,0.9552897323499457,-1.5909384145748235,-0.3751604040929998,-0.9006398972519838
2000,-0.556900306187188,0.8875847949490425,0.9697145708677358,-3.3394243562777883,-1.997569468967983,-2.8209293703490705
2010,-0.5783435247073397,0.8625399141795032,0.9452959739635167,-2.0923940598104345,-2.262863521538382,-1.9818243373870639
2020,-0.552971782384461,0.8940406942403529,0.970347385355257,-0.8248945723830516,-1.418917935415719,-0.9978002209766126
2030,-0.5994595440328758,0.8501767889513803,0.9288190263083181,-2.011322268191197,-1.0343542999779958,-1.0607826575786978
2040,-0.6077825265031901,0.8358725781087838,0.9225178995589289,-1.7211152888674457,-0.09311911666103995,-0.610679390029817
2050,-0.549512150701427,0.8941108739554386,0.9772479796684607,-1.6641316546529146,0.8901949413576579,-0.04904091586671944
2060,-0.5620758054075986,0.8782151086575498,0.9645379744441936,3.121766110463766,2.666598460187579,2.5236306076860058
2070,-0.5850627733226325,0.8608109404167725,0.9435522942172182,1.654494844460016,0.6687269219727696,-0.08419393113621682
2080,-0.57906386874044,0.8615849560940502,0.9505674698053798,1.7780375920829266,1.3182426473427993,0.7737610430663282
2090,-0.5795068947237678,0.8601179475419279,0.9453149201146747,0.7567014154653142,0.5183252378260634,-0.22960815205694668
2100,-0.571047593042002,0.8718540834244,0.9548549103619867,4.854666776003205,4.867474591428178,4.625155918945813
2110,-0.5539339734412764,0.8853226543449793,0.9768237443022862,0.9953043843233416,1.4976089855715649,1.0114471984555244
2120,-0.5534925817799169,0.8884735645927669,0.9694976153025916,-1.0767197693036685,-0.8608479272073759,-1.144359591921683
2130,-0.5751592899600707,0.8665875227988526,0.9511367722969748,2.7938346118543453,3.270982207652463,1.814467679414712
2140,-0.5703423241464537,0.8682648178915513,0.958238233339915,0.9695257641414478,0.39439752707393494,-0.7193065734319994
2150,-0.5602191594027929,0.8813501638948954,0.9632339068935528,-0.16187727289231946,-1.8328721165869284,-2.293952001467944
2160,-0.5490866278476811,0.8942032087276532,0.9805842763190302,0.5166023000771993,-2.3362066496792093,-2.588103554778634
2170,-0.5741597199430004,0.8693996601712836,0.9539846771001375,5.372064435907104,2.8432314327128214,2.963695030523275
2180,-0.5699514929837599,0.8726180661432319,0.9606940159146805,-0.35775920840234166,1.4348550902066024,1.6095919398608005
2190,-0.585908216881947,0.8550150335456251,0.9492924397638656,1.9959024883273733,2.7577443273984468,3.064809373403647
2200,-0.5736430296179256,0.8720460874592536,0.9467952021983871,-1.4127190709222968,-1.0133107640336994,-1.417061896538482
2210,-0.5717083921568781,0.8700882791062708,0.9567317690907836,-0.1300078852209311,-0.5575040720533262,-1.072486183106692
2220,-0.5733309866543502,0.8590719874210754,0.9523516150544037,-0.5843901675225338,-0.6338172811982781,-0.3004513060731079
2230,-0.5695495812703794,0.8711862989494472,0.9595299331332529,0.03562772802188838,0.07433217816179359,1.0049224487273263
2240,-0.5648341913717103,0.8732582164776072,0.9636880861001743,-2.604506465884614,0.9138542847372761,-0.03593228850806138
2250,-0.5867522072574037,0.8524252615877721,0.9362832694928839,0.13922708581025173,1.5178743518284659,0.7647794544473614
