time_ms,ax,ay,az,gx,gy,gz
0,-0.6909201749912094,0.7045745313544532,0.5639789261986077,0.1289120264023197,-0.08437452844362875,0.9124289030051353
10,-0.6540007415416365,0.7446604655737052,0.5998694947662003,-4.757436722607615,-4.559301366953953,-5.1268232136517105
20,-0.6505335127468728,0.7453595242988972,0.6025971345343419,0.07778823147452218,1.288878277383986,0.1421192262298765
30,-0.6643731718364068,0.7297731156834163,0.5927803970880058,-0.13846834484065107,-0.4254073992358671,0.4997204111426035
40,-0.6884999597950641,0.70727850517965,0.5676932549858476,-2.245144057496993,-2.3652080639967594,-2.2706126642362947
50,-0.6788739726837674,0.721335854288405,0.580149482999522,2.736294196113999,3.1149625619963053,2.256463603301828
60,-0.6659481237133572,0.7342130189230318,0.5935763777401741,-0.3472454332809283,0.43853542187018646,-1.0628784054742906
70,-0.662758172164934,0.7337729836179091,0.5946091582706049,2.816651032691911,3.3007413814754596,2.525527651590792
80,-0.6747941653022946,0.7240179976420694,0.5846163862133553,0.8702749936003533,1.19027687228969,0.7022581433641213
90,-0.6856920016776011,0.7156962420173284,0.5711742662901159,-1.2507900610495573,-0.5201199038953186,-1.7508829995927253
100,-0.655332301803418,0.7428658219407963,0.6014364914461883,0.2195482244308171,1.029427330814293,0.027724793461949837
110,-0.6688803923694253,0.7283927557981162,0.5854330916426442,-0.3272608098864156,-0.4013239499094706,-0.41829799352226227
120,-0.6497045284726619,0.7484635619594291,0.6051766014661546,1.82688110960618,0.4766722282553981,1.6691761231185633
130,-0.6740707325221648,0.7263682609375096,0.5884314675682718,3.1212973253699827,-0.055888108178693496,2.0664811338223474
140,-0.6668994248525162,0.7738802062494279,0.5923891612076134,-45.862622355401975,-8.820630026842359,-32.879440751935014
150,-0.7070445796464121,0.9818946836630172,0.4533347893670354,-54.199204767486215,0.032614261367355984,-23.723247604418244
160,-1.0217480395210847,1.0730985351117066,0.8094792797033479,-65.2406154196381,-0.22067680685422375,22.44679891371685
170,-1.1320024757505505,0.9876467177260845,0.773543315018204,-45.88849809503329,-63.465261655572235,51.44737792924068
180,-0.8103009832044831,0.8511885934134985,0.584371651364264,-30.631297601360732,-65.91710490094174,86.17663092440893
190,-0.45826586664298735,0.616124890729745,0.3933218061265922,-23.558378385484907,-32.33403348304747,85.8623211828673
200,-0.1128781049253764,0.540307331162847,0.4619975271541779,-15.567296368100747,67.50316033038766,25.318960468891007
210,-0.3249981815647321,0.7094471531939422,0.5120168190756643,-25.766147398303563,93.82543533581217,10.064989232224402
220,-0.5920371679339713,0.6942783562536072,0.618733656306052,-42.28431570337036,107.52593918885368,-4.020129623037207
230,-1.2200962581902388,0.7044012025983939,1.1487083605115747,-43.30054310818368,76.65914340604246,-21.6730860995427
240,-1.3254681383702442,0.4817394499620838,0.9719733188082821,-10.8097839282112,28.626683174941014,-27.6378022340812
250,-0.7538266321029832,0.47884388285112156,0.5511186798370389,22.35225126331334,8.677689088043188,10.733071758271304
260,-0.6135879015018207,0.19865002592211833,1.056714271342971,16.853402603448494,-17.456982908582145,0.3519040696431446
270,-0.7989952811941807,0.1103108062478615,0.8176474661967174,20.32212942050682,-22.882393457809613,-25.47650092887587
280,-0.9030329670870941,0.6795175395810521,0.5789617211358292,74.19095003946933,-43.885596082173564,-49.48336675742496
290,-0.08683574799517604,0.2628153126408696,1.2640776461976098,-56.93102893047502,-51.48042661919387,-95.94776918851699
300,-0.3418791088536646,0.3556140594941057,0.7417031347582745,53.93120530568943,-105.45829007351591,-129.04193878379138
310,-1.1127576543270878,1.3621242117196841,-0.09317940671193045,26.80235572908391,-16.091515471722705,-12.109790666124256
320,-0.8475723311836378,1.088758497091364,0.10555672756993868,-20.74699101429852,9.269167632123303,1.7763860573550465
330,-0.7401868823922362,0.8126540116905381,0.42198064436128113,-19.981395295747205,-1.1933797327727214,-11.208172274360814
340,-0.7275835334276716,0.7196918273858777,0.5441111901049979,-66.37148611473187,-10.032740666742775,-32.45546020670103
350,-0.8622385236661806,0.601562939551031,0.2504644127100253,-65.60019331625875,7.159619991381083,-38.1025560505919
360,-0.7608745604553958,0.5541372271435713,0.5341305142398337,11.494608446343866,53.93260466679757,15.459173775306883
370,-0.6594431389067806,0.36279280059366553,1.1039065128178975,26.31335966588667,54.5478147488499,42.92233733654144
380,-0.5276893287470089,0.6296612868915852,0.9466586722718324,40.86977907898957,29.58575713021897,25.45958103313545
390,-0.522655789953619,0.544367037257256,1.1876941729597246,21.71996558606709,26.14371596273586,15.366008535624996
400,-0.6991026700234619,0.7259563778265726,0.4761661448784072,-5.0012355699981,23.022619403191364,7.618473682359803
410,-0.6553741605466699,0.7930095809749005,0.6141744946977731,9.732795630283267,9.443401371567942,12.395103023081
420,-0.6483340451264116,0.7732564871319352,0.7210997799372204,-4.469331896274459,-6.578600029954746,22.333302972029035
430,-0.7699189857764591,0.9001426701335915,0.7161775992970053,2.6086672629275314,-25.36682790502561,44.46960784844641
440,-0.8876608347125196,0.9523751748759204,0.6743361131005421,-0.3520677737755369,-50.752684160446705,69.43197515290609
450,-0.6548009036344226,0.9401983690771599,0.4639013902164535,-30.035327327694677,-56.87208440861443,64.11891365704248
460,-0.3727160453675073,0.7477098959485144,0.34916558812517046,-46.38737289958684,-28.870747969128992,44.48714531144237
470,-0.11544286344199896,0.551696021690196,0.13914428242589447,-51.6828510219737,17.91397093479829,1.580702490018441
480,-0.6243509373126159,0.5759546670664867,0.5641064756973885,-24.812494059236776,11.531868369063039,-40.0428223481349
490,-0.6800332771743041,0.629800563531033,0.5894200248694271,-1.5125076993763327,8.442504866106422,-7.660296126040199
500,-0.8035519572993811,0.3462742662776126,0.5001354737473767,23.4244722915682,8.665878074393097,10.235494017316627
510,-1.0277466190087428,0.05000736678363474,0.40131797589635576,23.27571526833819,10.375758626266876,-17.80356422671168
520,-0.8737511360205008,0.8316341084005517,0.428047040091547,89.28739290253326,-2.0011024053015536,-37.34184209888198
530,-0.7650182542690881,1.5312331653423603,0.3525221737709259,97.47452304323996,-4.6417713088873045,-19.958364248340676
540,-0.6568940274687125,1.3582227325513463,0.5265243707766908,12.167497851839967,-0.7023178139052606,15.267873931723207
550,-0.6446612720831805,0.7993891971649896,0.6207111220179203,-4.573162838976979,0.863624829476124,-2.3493384637041808
560,-0.6992818786545815,0.7063269325593031,0.5749149341523785,-18.857734394149166,-4.457915705714902,-20.367255264987662
570,-0.6630523227468055,0.6950184311518628,0.5962464329448869,-20.691461487400925,-2.6355369047659654,-21.833190632540774
580,-0.6669984435468791,0.6646012614455408,0.5926162706817183,-11.55896884812795,-1.4607068279318884,-13.211351087456292
590,-0.6615178419177655,0.6827547258088498,0.6042586412670178,2.7515263440922677,2.529593653934077,3.303825159170574
600,-0.6625921383389437,0.7003964263928513,0.6058959403350744,2.5991006570255806,1.0107582852184207,3.986019974838219
610,-0.6994507652305186,0.6650216593452009,0.5673490061130826,3.0609413831901526,1.7166794976862783,3.4482768567516406
620,-0.6966410201324645,0.6611146447362222,0.5642565231338958,3.966670996825701,-0.28705952194127493,1.870783929997999
630,-0.6935819735058861,0.659728804344591,0.5725021003412486,8.309350347788428,0.7234045716907432,5.252201858864294
640,-0.6773612531500759,0.6911799004589555,0.5925402911160245,7.74041823043285,-2.0707385552198043,3.9583729621728465
650,-0.6779344275986167,0.6896260140217672,0.584618439255708,4.398704645228846,1.2868431224961192,2.8563377863654993
660,-0.6800431189052578,0.6883478954335362,0.5831981038644364,5.225151605112125,0.9314326733154229,3.1759033648892347
670,-0.7054192712365474,0.6646379041733221,0.5601758592849587,3.5296525769557605,0.683298685374202,3.0999827535483018
680,-0.6855923533264145,0.6874426469057779,0.5823806843237334,3.2011368988115163,1.2364756567870965,2.719370156727298
690,-0.6770339441215482,0.6928683491622902,0.5824523156666891,4.872436971588459,1.2482467606238348,2.482995722315813
700,-0.6815265667460565,0.6931582440719688,0.5758888387407691,1.7281550964684032,-1.6118341981683502,-1.0492633868438759
710,-0.6646531572630344,0.7113950313104844,0.5960276255854007,3.6061281032405303,2.1644503693732413,0.9329020204696135
720,-0.661896071245015,0.7085838037341199,0.5931773900972229,4.100586212396762,-0.5165346082870936,-1.000054152801706
730,-0.6762725795936403,0.689510440782873,0.5823945950343496,3.1927095737936964,-0.45804576939008246,0.9880940853671406
740,-0.6791979518858081,0.6940081809616127,0.586578125927828,1.7877405940738018,0.7579405280169996,2.1253501939224178
750,-0.6728000443693154,0.7009143536107125,0.5883169830436836,-0.19004617747710806,-0.3198496015943155,-0.33444730156643243
760,-0.6341712847596975,0.7532209708568639,0.6305806638867189,1.9656823332439632,1.5052125414013995,2.066047059202747
770,-0.6604130859189804,0.7174087619420927,0.592996876905963,2.464840801810305,0.8863709216760591,2.120841229423394
780,-0.6607761342658465,0.7072671618423053,0.5983280234374343,3.67013494719287,1.9652266363348811,4.355932046177364
790,-0.6668655287852928,0.7167125858340014,0.6008807453991083,5.509374726022327,3.7761011886625573,5.318522017624382
800,-0.6766243858217564,0.7037565068846791,0.582157173938348,4.42555853638437,3.3506880113021746,3.0139855098807784
810,-0.6693715983488633,0.706363643651478,0.5860706870595829,2.67982856024219,1.2037638626981024,1.2706884115465813
820,-0.6443250842816086,0.7355525553794479,0.6182113988989371,0.36676949472038256,1.3435110989711343,3.342732600597201
830,-0.678288786608626,0.7036171118143059,0.5799779535899159,-2.1320295671570633,-1.1103703037798702,-0.5434489070818574
840,-0.6753519203584902,0.710979631769035,0.5855302100896224,-0.5165981060667938,0.435745895761815,-0.7200195836090382
850,-0.6682818125740447,0.7118392721043834,0.5923893714300871,1.3880140137539962,2.3584538528325725,1.0673258994465942
860,-0.684347785654607,0.6918128348265234,0.5741170608033068,-0.055539620476251106,0.2875392058711582,-0.33797027895540294
870,-0.6637825906650747,0.7127533981845916,0.5927090278908473,0.8560839694305438,0.8991490279431311,1.2030460035959254
880,-0.6480451129896357,0.7320747713981237,0.6098806295446845,1.1404399797810498,1.4373741029121458,1.61182663432691
890,-0.673274136224349,0.7081512906124858,0.5902330302582625,-1.5820382687328174,-0.5966176721359931,-1.3391916027402881
900,-0.6777941891855549,0.7026456614589733,0.5839561119367628,-0.9834318545652874,-0.33038786757385,-1.4579037279631566
910,-0.683916059199783,0.6907944281906188,0.5732519567316973,0.32714153129697476,0.03692858075648642,-0.7249434036011426
920,-0.6569067678766887,0.7146954762456563,0.5976952147589151,3.8137656404695988,0.6237097342256972,2.606066526733764
930,-0.6863115671661134,0.6872718101917579,0.5856129246598141,3.3095380806074473,2.8291979759551205,2.367667595672845
940,-0.6813362049796744,0.7032860207160943,0.5753619577727581,0.6415933779586103,-1.4718991229182699,-0.8864802683474168
950,-0.6930468241310183,0.6828536054794728,0.5708918441494977,-0.24865608587331567,-0.16466473006117888,0.3645162524320025
960,-0.6771357176380693,0.7073549469382535,0.5805636717306918,2.432773728219588,1.6054899724378613,2.2514864194493214
970,-0.6810029560909565,0.7036640445621699,0.5741283035988771,4.875112424179289,2.246542718297063,3.6080775161197174
980,-0.6709786472690143,0.7089737952033275,0.5841821396418252,1.062192078396442,-0.4287200765286129,0.48983561914618634
990,-0.6651023466519917,0.7162298627275981,0.5932056939031881,-0.012535180195725526,-0.24439936691039643,-0.30662024591540493
1000,-0.6483075240797913,0.7332208252938356,0.6171756179492792,1.0074768824625295,0.23594397201156103,0.1979228442758988
1010,-0.679072130692646,0.7034947517862701,0.5850460330572398,0.2263504335853468,-0.37194648542226894,-0.20261248637138185
1020,-0.6886266145327082,0.6998535350149484,0.5730324366347765,-0.18193945875103568,-0.2367243259131495,0.026694738454650535
1030,-0.6949448643709136,0.6945462779757983,0.5635162826659637,-0.4351034418884099,0.06979937227487654,0.37152141605175626
1040,-0.6726010107309968,0.7108374631183727,0.5878422160172723,-0.38363135061150266,-0.5466140576689628,-1.2069459656991897
1050,-0.6799939823506459,0.7025552283017243,0.5748101488428756,0.22768597110585143,-0.3435158015196446,-1.2812118809309971
1060,-0.687471593077642,0.6958817750053111,0.5708194742191233,-0.7981358810938253,-1.0173457213623742,-1.4695490115353584
1070,-0.6727567665421976,0.7105782492396895,0.5893824413673087,-1.3922017383288234,-0.6388009435263253,-1.1311994388893987
1080,-0.6821954838532617,0.701836657321389,0.5807706238461253,-2.5921670117600524,-1.8571564454901135,-2.4036991064295194
1090,-0.6845524919502886,0.6969413159589386,0.5695566562763663,0.8801590459890709,1.1620190478083692,0.41289340430472593
1100,-0.6779555985466073,0.7066925961620268,0.5802607339499464,0.9700288142601659,1.0039655014751245,1.4044964506065443
