time_ms,ax,ay,az,gx,gy,gz
0,-0.7222439068820427,0.46707931501553573,0.709479039281745,-2.7056142206238682,-1.2562356664597047,-0.9669898295224493
10,-0.7091658843200498,0.48120094259989754,0.7200588552473394,-0.42779945841525824,0.4963393075415668,0.3641126638266442
20,-0.6947568592432504,0.497096691356405,0.7389197173605183,1.1196184769659319,0.996174444215222,1.1601255063537197
30,-0.6905200223209454,0.49464614131574414,0.7353080014832101,1.5030792636467505,0.9327284675493104,1.8621599379118257
40,-0.7159845329101966,0.4797177239417461,0.7091074073755806,3.2195937411806352,2.423467135268438,2.911491632488758
50,-0.7040596286589316,0.49701459012260707,0.7265650216248519,1.8427318993620998,1.996777613001172,1.2378967944113557
60,-0.6916723085432398,0.5047885383381768,0.7391660864269908,-1.0219281238677342,0.35682461878029376,-1.3545728984116066
70,-0.715029679485463,0.4773894160796432,0.7165972533998644,-1.8371154245210604,-0.5757268930649755,-1.8854763781771868
80,-0.7311493716504432,0.4602010766768332,0.7011186830672677,0.4834883333200386,0.7273403157867856,0.6479298234437579
90,-0.6872229717051709,0.5052100605237033,0.7437524427259787,-1.62008527802197,-1.7018515154132783,-0.6381506007997495
100,-0.7157854848419399,0.4790834034559867,0.7136267075887605,1.3384196271353361,1.9457718070522314,2.762818376718272
110,-0.6914271298816445,0.5033172352625542,0.7364321910311779,1.5691872189992377,2.821519386583073,2.1390158500293075
120,-0.700688546708992,0.4915473833335314,0.72910113787212,1.078127794609946,2.1665578588387913,1.3327668922874762
130,-0.7069669310825093,0.4840047773183318,0.7231187725943063,-2.063565211073029,-1.3385401678909288,-2.414715133957531
140,-0.7064842137423007,0.4844567673332732,0.721954328883278,-2.5248668919040713,-0.7540175252525707,-1.9317312813481538
150,-0.7142988528433897,0.47531071795113056,0.7226131930224143,-1.3515226868171888,0.10222419975990465,-0.6747870282487215
160,-0.7087552006187547,0.47855990466606413,0.7219844632267441,-1.99806583976085,-1.5823860840497512,-1.5489433833313782
170,-0.7190192573640647,0.47125679239670093,0.7181754227762099,2.866642788008712,0.9688406283421007,2.095172676975275
180,-0.7023889555357253,0.49845719000227207,0.7303925746716069,-0.21546933594351453,-0.2401730133456093,-0.34871285506163885
190,-0.7114271736561838,0.48638560514884094,0.7214466563669429,-4.194470321906653,-3.031217259599908,-4.274864744400487
200,-0.7136489480989843,0.4823994923319577,0.7202671159992053,-0.3426347767869098,1.9929930950176549,-0.34211563704923753
210,-0.6966348797353991,0.49387044434958777,0.7361618695814895,1.5817124005250025,3.808771797525523,1.3465670367976474
220,-0.7163446908080418,0.47320145000128955,0.7132289431753036,-0.9674826571398222,0.5032998252252562,-0.4661087346207696
230,-0.7152981008037692,0.47639754806769463,0.7142766186632882,-2.587658509644034,-2.6666839010342325,-1.8536997717497186
240,-0.7346861039931792,0.4605830253170488,0.6956288245089735,0.5479900790339026,-0.0870750173617289,0.5820422533714847
250,-0.7172668558124563,0.4779518855621036,0.7121108660329464,3.76126932452829,3.8643404104857177,2.730181784599186
260,-0.7016138179164918,0.48630580132787815,0.7280228047628472,-1.0352086048562523,-0.5403908245236776,-2.736742357943097
270,-0.7211012412745458,0.46108293528419014,0.7087825630502133,-0.9729636372018698,-0.6571309394122998,-1.909713793672971
280,-0.7120351131859757,0.47145018104101516,0.7163637389239583,-0.9768598800154897,-1.691845436784638,-0.921688266476739
290,-0.7336885770498883,0.45722719886007407,0.6981219056169621,2.3123489759568914,1.4032908426541009,2.916954532080212
300,-0.7284379362013231,0.4661986984932542,0.7152405799615563,1.188272847324494,2.211269437239883,3.178031042539383
310,-0.7186678738715674,0.4809616579416207,0.7210710296484781,1.7762027773973195,3.9198270816014418,4.884691883830911
320,-0.7116172110864942,0.511836631764917,0.7443577611510976,-4.9759460143475085,0.160116905281102,1.389953878049898
330,-0.7155914083417193,0.533504870317335,0.7102178105257203,-9.67454787011993,-1.8112669209739387,3.06701688088421
340,-0.8837368379641364,0.5085830585590183,0.7746645262438291,-4.212126826316498,-3.8447879051873564,7.914038747185785
350,-0.8802431441026037,0.48880593985125,0.8323808507304021,0.5589838957852971,-15.329178158591692,15.105830175565194
360,-0.7074582684372843,0.5213179232204113,0.765753667730942,5.925681099814846,-17.220981406940727,17.359191917174375
370,-0.7044492316411172,0.49582214560513793,0.6392800439642013,6.451949796152095,-13.23452233679557,18.046297393546187
380,-0.716388682323112,0.5176580372370111,0.6894955201124726,4.011092718713539,-8.47502668550402,18.726273499206116
390,-0.6999048527394923,0.5211635841117234,0.7202453201571068,2.4191574149259596,-5.926435411831689,17.531371302317577
400,-0.6793486390625482,0.5163370137545453,0.6897566695165467,2.3091562580489904,-1.990091455908599,17.723501930068537
410,-0.6546824906241923,0.5505642433100708,0.6894503120184322,-0.22994819682889314,1.5706952983344684,15.96746932197127
420,-0.7403046709305116,0.4829058481492355,0.6487947529356881,-6.918008932730578,6.629711268762012,12.526254877995463
430,-0.6954138589959215,0.5466930318033257,0.7930674141685063,-13.044383644225256,15.69834234662305,15.24203124919679
440,-0.687987035175295,0.5772022230686943,0.7181173387100024,-12.63709908078194,12.173250132590189,15.281142423614654
450,-0.6423102609090704,0.6089359006436936,0.6899371958915042,-13.034905739155585,17.35695299622965,18.568174815275256
460,-0.6368746588292281,0.6212782324514354,0.6700436749631294,-21.84192289972791,23.563116092713994,20.95526942369345
470,-0.6653997920178119,0.5386241479934596,0.6768888733605337,-30.91057698976943,26.390193121489844,18.18204541981971
480,-0.6974317166811173,0.46514212885376816,0.696313014839002,-32.13138692160916,24.672137535474704,9.196914565734719
490,-0.7045216361260266,0.5047946909526302,0.6335517216006253,-30.50386646108246,34.0401028672038,7.203201288345488
500,-0.693000488789046,0.500208964396713,0.6672136831969232,-29.582775328639258,37.59641778285916,6.510014060706308
510,-0.7985446298479525,0.40273085858241087,0.8458269821994014,-32.278199417548855,34.48394361735941,0.9782556512792797
520,-0.8240216410802108,0.43479609504667466,0.6140138719672708,-19.173474036486077,7.13265169275758,-16.249649643145872
530,-0.7411552514858663,0.48806842424640245,0.6143062456821972,0.22489752697570065,4.879823426382639,-6.438308721041351
540,-0.69783602786268,0.5120494041281627,0.69199959032714,6.179517172530819,3.607516717372978,1.572868059036224
550,-0.6658410766854179,0.5434291854516435,0.756960136565513,14.612872839479389,-0.7563318314907614,4.927869859479641
560,-0.719602012244067,0.47154382594733174,0.7052349780392897,18.680450934809365,-5.4913982979782725,0.05834298664283384
570,-0.7733989838618949,0.44438327909174064,0.6475964654018674,19.73510842101301,-6.833388971369624,-4.572393999171281
580,-0.7340806463291182,0.47830674891887426,0.7078357717775051,19.46245362133301,-8.84971308113655,-3.5628188634665254
590,-0.5980278468190379,0.45460868089442863,0.7629743805463478,10.245645777756263,-13.648599020745475,-9.182783223385341
600,-0.658457689175694,0.5336818171776023,0.67967810801918,16.761897932060755,-15.947355020549354,-9.773406579945071
610,-0.8333023914320248,1.0893144322211954,0.700125402075952,27.107862908917706,-25.701528606717112,-3.279042884301129
620,-1.001961276002749,0.7302394815467796,0.27901647713426503,9.842074866922259,-2.428572796533858,-10.774380077147207
630,-0.8910372359500367,0.6290879419563182,0.5168334873800838,6.999331645615195,-1.9181148253243436,-9.604504904675492
640,-1.0660396136892674,0.660376496272337,0.1521791379723001,9.427405358241217,-6.604059171669117,-4.666615154191856
650,-0.614123643296949,0.5703259258571644,0.67034120137211,5.664197293733257,-12.05130524680915,-17.558704626938425
660,-0.926774740672734,0.6657969821098055,0.7399471910380607,36.77735799239884,-15.185073675160355,-18.037209866712743
670,-0.8323996332161322,0.722293137731993,0.758663434748448,33.04338632987839,-10.1299305645782,-21.02056191988716
680,-0.7138766002298078,0.47133916836431694,0.7684663549731655,7.761072288999289,-6.585491690124488,-19.973118425172775
690,-0.8595723470013176,0.6442215571969885,0.8674998349908981,9.51484638246776,-7.895763112082641,-20.21290946613552
700,-0.8602082710577221,0.7139657567209899,0.8506598899241983,13.855994000186868,-6.902389425348029,-16.010812841645283
710,-0.7868323618641744,0.3978382680189157,0.6413375209865275,1.1612949768143048,-5.153895239770906,-19.007353259392396
720,-0.7749754697598067,0.34198036689842676,0.5973045387495581,-3.5652190833989623,-7.11917219621757,-25.7973242208326
730,-0.7331731404391563,0.5910041918707106,0.7497743040064699,15.275819847249117,-4.7829603816568484,-12.661775278191511
740,-0.7084698465752923,0.5810102564661929,0.7582886074404758,24.55355502278597,-1.8251185492131672,-1.8321432638680903
750,-0.6830598747386772,0.4791938982171019,0.7912406412131993,7.453874514308294,-5.881184759158727,-16.40772130219375
760,-0.5430585669034079,0.4813288864791526,1.0311746910324222,-3.6607305661862104,-5.352614618068827,-10.129510923516783
770,-0.572443724423141,0.32571115330736616,0.88285778926611,-8.337503656871643,-4.346412693839439,-13.249672285015485
780,-0.5863845934320593,0.31682883020032837,0.8632918815393708,-11.392213020700671,-3.8840637763509296,-19.667136301755612
790,-0.5938480606926304,0.442515170844994,0.9700620110785476,-4.918201625550712,-3.80173937520011,-8.726332724294899
800,-0.5886319088090725,0.28717936827054114,0.9831840256578791,1.9382637741436914,-2.741675535052935,-10.066001669748095
810,-0.7526293123949691,0.515539929212301,0.6858640845270537,3.1157642855756933,-0.551065428291144,-2.1605973785743195
820,-0.7166342167476372,0.37400478093780076,0.6957700065062815,-4.47900850388292,-2.891966431529731,-9.38043977810912
830,-0.7035962079360768,0.5028215478879994,0.7483552146489273,-0.6419634955949531,1.8632383917253414,-1.9135287861988297
840,-0.72948683489818,0.44391088756707786,0.7163136801135339,-0.31147893231544543,0.27223750109012945,-0.9232354531077711
850,-0.6968635107552301,0.44710168176726084,0.7399482976280077,4.356392967400344,2.588047307945648,1.4992385295651747
860,-0.706506741809044,0.46689231038865986,0.7050071164418384,-1.8964121783208947,-5.926943013085755,-8.348273296215057
870,-0.714604813588103,0.47657674054837446,0.6923744781751869,1.309264528059816,-1.9459731305767318,-4.978817032739545
880,-0.7312986202747508,0.4614584768734939,0.698247237097663,-2.4993045667301157,-2.3325147211136406,-5.238994122085785
890,-0.6999257838074062,0.4851602507542363,0.7284314995799056,-7.540098467092973,-3.4195537993275367,-6.8902463508526415
900,-0.7099295315278953,0.470195007561617,0.7133172057259127,-14.976397058897216,-5.0228619593187345,-9.216445992327717
910,-0.7431226970194157,0.4293394191766068,0.6802706661478894,-17.713263122259406,-3.264297657615642,-8.254288262100106
920,-0.7092785854810096,0.46316907673990776,0.7063931514792542,-15.107828154585205,-1.8849486286197206,-6.845614477128153
930,-0.7057577126519498,0.4324104843900064,0.7305951565611656,-13.455824103066785,-1.9187723414273745,-7.570322475958088
940,-0.764183366059276,0.4135436099303114,0.6850187235516793,-4.036801953858313,3.091651459135235,-3.1592995058201474
950,-0.8425909107743369,0.5144017596851709,0.4181983740135169,4.211672369771948,12.71168063512244,-5.755408664937079
960,-0.8541613621663584,0.41926361151926866,0.3423098936812776,-6.2206207090868775,11.784062671976338,-3.794202288063067
970,-0.8600456377491887,0.4597874885486852,0.29868633693972546,-12.86506605014894,15.308876132750044,-1.1623002795563888
980,-0.7926402065593534,0.47948627165455404,0.535454506053139,-9.289249569443427,14.47588193518158,-1.6479784831143047
990,-0.686454328195852,0.4593317209047303,0.8220363997029816,-8.395213291015727,12.433272837697588,6.899739354739554
1000,-0.6794415803996038,0.4773442763518813,0.7159733403800563,-8.974055059960024,7.920892969834365,0.7923265430507532
1010,-0.6508903831498921,0.4717731681274182,0.8292103015518496,-4.101141856165085,8.787503066310153,-1.3740478766335031
1020,-0.640120211108704,0.4246950052685291,0.9600348579392417,3.2585548755647133,8.544320682060484,-2.354142125300333
1030,-0.6991591890823489,0.35310164106781117,0.7941065819958311,5.9655995955366565,10.085261618002358,-1.524873859917254
1040,-0.7175696895820899,0.48507582318385706,0.680240330801211,5.12932730854926,9.627266789431992,1.5500610060540165
1050,-0.750159702709756,0.5987231889023482,0.6501976528189874,13.436688016851821,11.902397806288194,7.074734413103238
1060,-0.6795507034617133,0.4821776689237732,0.7025374189990793,9.029808787951088,12.417617972249122,4.737208935397445
1070,-0.7176351664145735,0.43977292427939535,0.877443942025824,3.946840463312374,9.425707565258257,5.624443086827791
1080,-0.6961278217269202,0.4071771787878987,1.033598127964939,7.818161508236674,11.126754216339283,7.093090151864907
1090,-0.8410667436032956,0.49146829455909075,0.41189549300768774,11.099594331467582,14.765323264365488,7.206655918008787
1100,-0.8788138068351813,0.4992095659366611,0.44101466763020214,0.2442638210532322,5.369024470565708,0.15951448517409395
1110,-0.7852825599092177,0.5067403524206125,0.4255983166561639,0.08920767816334141,8.384324805037542,1.5920195190207325
1120,-0.8726430769028741,0.452930697843819,0.2936917131530263,-1.2219410802043633,13.4145931086127,4.335912863651524
1130,-0.6741159796252446,0.4475136530027965,0.7781040648420314,5.973399353559351,12.007027320232108,4.1211165869630815
1140,-0.7154624458814008,0.4541121577761904,0.6486483056490998,-1.8890350646770564,4.056359861015311,0.4267844438373646
1150,-0.7288109450651411,0.47778301319188754,0.6417058023012526,-6.516871083627984,2.662066685463972,-0.2028937019522748
1160,-0.7526758053830682,0.4420901546842104,0.6476328751820275,-4.452324665646574,2.6762984418681803,0.2171517604174249
1170,-0.7472931419543742,0.4464196338753834,0.6794933914271447,-2.784695673622828,4.093128663122262,0.17190513694016524
1180,-0.7400095771446065,0.45558369402334087,0.6803308171923391,-3.3361453253427076,1.9094780686906867,-0.8681555318831452
1190,-0.7272638217729559,0.4495477184563279,0.6804461329516747,-2.652195167566668,1.9762966340035397,-0.5635412608787438
1200,-0.7246354795604196,0.4409205207012692,0.6913725378125438,-1.467277494037153,4.067999144591595,0.7471553545524525
1210,-0.7355866784015883,0.4488531915574569,0.664877850960045,-0.9622961327993793,1.3344664023795492,1.9901064324878441
1220,-0.7587114972713516,0.4353810624488397,0.6392391675294965,0.33598821540901325,2.482684377453214,3.9197362062739765
1230,-0.7228264428399727,0.46144042747962827,0.6883101106793286,2.1183748180221844,1.8161829947088326,4.341351741575412
1240,-0.7145095125100457,0.47351731886443166,0.6976791325864629,5.389035156676972,3.0268917172159373,6.828138552413854
1250,-0.7363732283905597,0.47887336038489575,0.693867947968499,4.604693946076802,0.24855825455903058,7.678661109231015
1260,-0.8477440419886724,0.45207546904053586,0.9430595595008892,12.382256504457656,-23.733944614579073,26.663896418220496
1270,-0.8859222679866855,0.46504637077614713,0.8074714809007413,30.86456101232082,-45.979977296356935,21.641555025775627
1280,-0.7597872274751913,0.5782841832308593,0.7405296979065381,42.54921460621433,-49.72035681175108,25.095138311210565
1290,-0.6496713657499928,0.6093948467914106,0.702668046958694,35.64391365896949,-49.57481686459392,24.48233086425019
1300,-0.636016492582761,0.5869356760925244,0.6395407719268938,24.001966363406844,-43.752103318768604,23.85358430226612
1310,-0.6181345891586016,0.6236606290473571,0.6112485674436615,5.008548973229748,-36.51075315887773,17.5741506559521
1320,-0.6912054343153742,0.5337366518846101,0.6670659953762728,-9.297577113653597,-23.506511415080407,6.6004080948459585
1330,-0.7175048484802393,0.48470388741919024,0.7064808262400395,-12.14966538595963,-14.467304386172948,3.1677017760209156
1340,-0.7011334720942859,0.49128105982645603,0.6533111882413725,-17.736533451793452,-12.991617522994272,1.5983943292980527
1350,-0.6680433122839269,0.49194259110970073,0.6425631666846743,-23.668385233129975,-7.659951017291355,0.7420258421647707
1360,-0.6751145329076712,0.47303489615295996,0.6650699604486374,-26.04667681588519,-2.054704056740961,-1.0427595034840529
1370,-0.6771513752604449,0.5117153477753931,0.7059082730586099,-25.48629442126925,2.2546366993853404,-1.4700055744737326
1380,-0.7339322317511692,0.4507866586719253,0.6764638996823761,-25.37074696266708,1.5646252784131862,-4.198740882809059
1390,-0.7149816875308023,0.48389593804921927,0.719492125756835,-11.73276418696944,7.627955508429254,-3.063517581737001
1400,-0.6955876666029721,0.5498049821917477,0.7525979225855706,-7.84036837627153,9.362556452381058,0.8552516037479052
1410,-0.6983964194443233,0.5247640910163647,0.7144659897890869,-11.828522402158342,7.207249559163579,0.5090323095758459
1420,-0.7391503856283147,0.43540433478368257,0.752923208191958,-14.890722033143891,8.232695542908434,-2.4778446511400816
1430,-0.7838288578092613,0.42070118494047504,0.6753280912098455,-12.570838457984474,-8.069329288792167,-13.639368859035558
1440,-0.6777365834985091,0.51116320321222,0.7521374340179464,-2.157932124108827,-4.0288169043592585,-9.976963676665788
1450,-0.7108766571283852,0.46619760823554296,0.714041017533638,-2.7530937247949443,-1.6336575913431728,-2.107778285135681
1460,-0.7218918508306915,0.39571405968242573,0.6795498557522028,-2.9868903875316715,1.0244670981277908,-0.6359000973454627
1470,-0.7407376244888075,0.3685002487675881,0.6336592316924456,-0.4691809023172657,2.541403395386767,-4.087461464444328
1480,-0.7553210183161851,0.3533122583404114,0.5476768026305978,3.395919105212253,4.78906333405058,-9.5245365610219
1490,-0.6769876270102096,0.34108316900348273,0.6217839445116704,3.1890912737671933,4.3490332408355,-12.555288312253476
1500,-0.6718379719905396,0.3850337683739441,0.6403034612266035,6.432230083995965,0.01678933436114516,-18.98329289278689
1510,-0.6074403399899231,0.46592084478712587,0.6527552003045011,13.465256206707588,7.554136460775148,-17.624458802725684
1520,-0.6492352908085283,0.3799854021978364,0.6782362787623023,3.483758028993315,5.8611023276023655,-13.757674710355055
1530,-0.7275422078525611,0.5901297114159486,0.8134387730928447,19.26961430227173,5.999424270746427,1.9509586164791428
1540,-0.7342087801363314,0.6587087272729085,0.7608350368759649,27.6459475050057,5.935958884469022,-7.213579948296289
1550,-0.6520653366937071,0.6250556403490747,0.7019205327978012,20.55666960118132,9.50275397453965,-11.599495321605504
1560,-0.7795426720297822,0.6378787871634009,0.767882596814247,25.82570131031254,5.739392356424695,-3.325791877336306
1570,-0.799479200132101,0.6871073847821781,0.7436345078681309,15.456693177318115,2.1174110457944764,-3.33382346545467
1580,-0.726504524964483,0.42218882733801755,0.6524963790572522,0.6037660875616843,1.5491618216409722,-4.8497800184423
1590,-0.7405908644057415,0.5385460955170441,0.7658807245415561,11.294804951581925,4.661796945466888,-0.5810291032453772
1600,-0.7202394586513583,0.5910034822554513,0.7704412845358166,9.247676214850935,1.5241991634995888,2.7058065978039703
1610,-0.7029761825444771,0.42774125153484854,0.7058113196218749,3.0087619124560456,-0.6253585100963925,-6.373469333659235
1620,-0.7038518494324681,0.44509051847442543,0.7001098378158065,4.087262424120016,2.8337527843595423,-1.9374965874740342
1630,-0.6925740941451773,0.4547208376377834,0.7116177593239529,4.069884042568609,2.8722525820831626,-3.2998796312375878
1640,-0.6736893464922729,0.44359281327762534,0.6923434019851469,7.246561447950452,4.790656682361409,-8.134618446623465
1650,-0.6855724550698765,0.4353704135036532,0.6597879032355928,0.11896320476653388,0.700448898004538,-15.00802456796723
1660,-0.7051817874755492,0.4879211326828869,0.6929453686777292,-2.271735244923969,1.5260289224799843,-4.6123766366062595
1670,-0.734140039352592,0.5101366977435776,0.7135968281282098,-2.327483779610909,-0.7799859256719571,2.5549532587499977
1680,-0.7299621204479333,0.4731386958768499,0.7021012970276593,0.8258735619296271,-0.0785659982218394,0.4422702800312952
1690,-0.7133432972947314,0.4778476425549566,0.7175545230248441,2.375285632085053,1.6868431555400756,0.24259525520139155
1700,-0.7429932604267853,0.4415469699886425,0.6824167017374244,0.9752527136350921,-0.5631084623568673,-1.5093502420931513
1710,-0.7417900098070115,0.4496022460785087,0.6833909763132182,-2.480132033364136,-0.4619313392195238,-2.644163797909014
1720,-0.7165799493887046,0.4658857930730789,0.7054219520346152,-0.831533351936879,1.5719974621010457,-1.7993336351691869
1730,-0.7168792647333159,0.45123535457583436,0.7007788808094787,-0.25067920031295654,0.47686543322083197,-2.6907213609305565
1740,-0.7238029742868589,0.4569111361396647,0.6969088816539766,4.506843241229012,4.020486085768033,2.236308039166906
1750,-0.7358532436857549,0.4407607907859044,0.6831323544336128,2.2240950019557406,0.6027083357541706,1.2531290552370327
1760,-0.7131913739292907,0.46700011306544364,0.7062668717514947,0.06780336719697866,-0.8941832843558489,1.7345621358182077
1770,-0.7109846823925343,0.4741075505473746,0.7151591867950259,-1.6078650150344889,-0.9699638727639138,-1.7546253085071262
1780,-0.7354516162851475,0.45105953878648614,0.6894163026419278,0.6010236496431814,0.8844779997608156,-1.5183839642916808
1790,-0.6688198858754916,0.5143319996388828,0.7527953610873017,1.4791796678532194,0.8772719273268608,-1.4404573984093128
1800,-0.7312450990415855,0.45067726444029266,0.6888461444194921,2.0584192229964144,0.8024655850582103,0.03859794423521842
1810,-0.7086176687118347,0.47651416809996444,0.7127073483589336,0.9235409547532878,-0.29446744404078085,0.7954260663211881
1820,-0.7103908339355703,0.47639401583240976,0.7113492308375716,1.506768900708486,0.8926587961132124,3.0114346712521387
1830,-0.7076551665396771,0.47754044653856514,0.7136575627141527,0.30619882819622046,1.337666844891878,2.1138219250785903
1840,-0.7042892249724624,0.48130067416416356,0.7191465612158647,-5.884298548833719,-2.8792638486071764,-5.069477757279423
1850,-0.7157496354201851,0.469561432826322,0.7056663010016498,-0.6310159381224545,1.3055079424323934,-0.7470762615608553
1860,-0.724470983104201,0.45264304781847436,0.6909872457762269,2.7510848537256525,2.544804264635021,1.5263879787638426
1870,-0.7114352997955542,0.46480204704495287,0.7073429867014986,4.343605239749797,3.3641492703626854,3.144661789971626
1880,-0.7071553785339572,0.46998472691206145,0.7112155505202121,1.2495441130837006,1.3861501723077887,1.7775116237345256
1890,-0.7185565375415507,0.4716090617057766,0.703792227609471,2.0213171049059167,1.2888840044867174,2.3565735512479558
1900,-0.7055653871833116,0.48561919224862915,0.7174297204468103,1.5966634096190997,2.6145996675265692,1.9884025228978497
1910,-0.712382280658109,0.4798903351820273,0.7086581597892323,-4.795791182846789,-2.8416572181293525,-4.888686386215499
1920,-0.6997381176448555,0.48774352525431036,0.7233192521282129,-1.3529675816584477,1.4063803137935382,-1.2221351606024409
1930,-0.7186431699157547,0.4682164354927268,0.7021945922322611,-4.2337076464412515,0.28571610911670076,-2.5444919676971973
1940,-0.7392586215244091,0.4501973828805698,0.6864283175508094,-4.383898957491064,-1.1864003042316174,-4.000654624824923
1950,-0.6857422287662844,0.49744342977969996,0.7379024801575628,-2.8559905473472664,-1.0050205520484001,-2.976454547577601
1960,-0.7120329180078812,0.46816466111255145,0.7108601142200905,-0.7105108011347384,0.8469070079856709,0.49172621726554827
1970,-0.7395501077654079,0.44153907693042493,0.6821640857618577,-0.18204919961013966,1.8325448790335055,2.2238641770522984
1980,-0.7164815959034254,0.46291553283300063,0.7030150524768187,-1.9708213716398544,1.6192541605936757,1.6070115882809093
1990,-0.69577890276989,0.4814150994170024,0.7250354269226107,-4.218845493723367,-0.34362323457240296,-0.6699792602654677
2000,-0.7277834025613802,0.45069994789907136,0.692968363453525,-2.7103268182883076,-1.3669663142560289,-1.764504501921797
2010,-0.7224075845940929,0.46220287889819417,0.6999230009318225,0.30059020185243635,0.5051990210121607,-0.05028486400362586
2020,-0.7238368749425844,0.4576141745772979,0.6955044525150049,2.7750884562349287,2.145577755310879,1.7216501562568203
2030,-0.7075750408386666,0.47386478588347725,0.7105652766100045,-0.9700071632750475,0.1584457748911816,0.49503970513538487
2040,-0.7005763084885176,0.4824361120300035,0.721026884898688,-2.782114480707798,-0.6785447121216821,-0.9952036122236991
2050,-0.7065972992655045,0.46425537154285196,0.7183749763123471,-2.861021638166321,-1.3493921213971605,-1.7324841002464688
2060,-0.7165449693750617,0.4592352789033878,0.7051425779110027,0.4137552230072974,0.8451971133376791,0.08807752373269961
2070,-0.7282279170609153,0.45278238348832683,0.692397581154021,-0.0007656725361452343,0.5858608137885326,-1.1144692217753427
2080,-0.69631462787051,0.47509329760343316,0.7232645919172213,-1.2582114308762413,-0.6065776718503676,-2.517586051324279
2090,-0.7099800550709207,0.46623051371623353,0.7082024587736998,0.06711314119990464,1.532092501441274,0.4926537870178853
2100,-0.7306374759053912,0.44159805415461495,0.6885069518556937,0.0721200664606616,1.2774418029679495,1.179808679085514
2110,-0.7152415771234976,0.4559501765762507,0.7038002097583346,-2.102365661427192,-1.5625930303439817,-1.2584311346199784
2120,-0.7081201392944347,0.46539771774305216,0.7061510489994759,-3.6637887099752096,-3.4913465689559695,-2.964270900032907
2130,-0.7059164635168744,0.4664139223053641,0.707451124749871,-1.0080666915930059,-1.3909219177949645,-0.621528473313735
2140,-0.7209214334433839,0.4536439166439403,0.6995865253699973,1.6755283356803994,0.7453943727802005,1.348449008560621
2150,-0.6848151060645451,0.4942945914105144,0.7358080787657132,1.2726624471077703,0.5973949029366523,0.6216501248260985
2160,-0.7206221412480868,0.4550889207657997,0.6924201046504572,-0.6916381516910108,-0.9357488836065457,-1.138548111635472
2170,-0.7220699856338724,0.4531661357397525,0.6995317161847285,2.8322154605412644,2.152115169920599,2.2578068579667114
2180,-0.7176521192639189,0.458765703601332,0.7008208905166493,0.8006406019766683,0.09879436993798191,0.464689899698304
2190,-0.7108080222967689,0.4712241147090622,0.7142470265666938,0.03196487249340041,-0.10633744295869563,0.24881876553646798
2200,-0.7118277708796193,0.4671770696146426,0.7115702302185539,-0.8874949242525039,-1.2906429252457619,-0.8314119427533759
2210,-0.7251037955479244,0.45652793439141987,0.7008803761268774,-3.946241735693688,-2.5860552882039243,-2.9272873518767786
2220,-0.6785978904111162,0.4966756236013481,0.7431720789176326,-0.041602115951898666,0.3187643799383782,0.2296623816171644
2230,-0.6958613987656925,0.48276477287056596,0.7332436088847281,-0.9257605214259184,-0.8438059864163476,-1.3138065852196195
2240,-0.7214445150674227,0.4586714145071328,0.7036203705031806,-3.4249560153439016,-2.829084995607051,-3.682558446441539
2250,-0.7136891312927521,0.46044343813789707,0.7065474734131061,-2.3259826173291844,-1.318629995107692,-1.9750192185906021
2260,-0.7313048250799251,0.44184368361008386,0.6901375037999603,-2.682451447586218,-2.2433554473357193,-2.4310599974824347
2270,-0.6879824326284536,0.48285787613587555,0.7309296952489378,2.6033450886471563,1.6200998539037346,2.377361921850748
2280,-0.7290978141157086,0.445994068898459,0.6877504243699749,-1.0438187045402316,-1.4829049827733858,-1.4561971202218507
2290,-0.6840252005752114,0.49808791190199075,0.7374113824113546,-1.6334728919785833,-0.19815509271141243,-1.414207140089974
2300,-0.7077433031843933,0.4707656255474064,0.7183149288373367,-1.6452830827211864,0.6752134627593913,-0.3609081685708775
2310,-0.7033873789526732,0.468623320997594,0.7209731395966377,-2.541370576797339,-0.5182467545486434,-1.0361707465643888
2320,-0.6774719005217692,0.49515474223524547,0.7430971286454086,-1.0972511200641395,-0.4535334185650143,-0.27177969529762025
2330,-0.7097419106935737,0.4622268658428713,0.7096357132701446,-0.8101639100884348,-1.1223025441518826,-0.3303285278043775
2340,-0.7065294151234656,0.4681034297444459,0.7105363280921089,1.238235447373584,0.33522770254699286,1.109903194051332
2350,-0.7184779004788308,0.4620621163107519,0.7035212311693707,-2.168820616916,-1.3836748160021817,-1.7544463655287437
2360,-0.7234208458774685,0.4556867307170057,0.700321469519543,-2.2773285778618915,-0.9297732970137347,-1.3455904581193008
