time_ms,ax,ay,az,gx,gy,gz
0,-0.7847413879420173,0.32301533249429176,0.5648593682434928,1.809562612742929,3.4413345142485317,2.0173931423876663
10,-0.7580771359730865,0.33844839208081384,0.5887982581863921,-1.8452221709190806,0.6017508889644175,-1.8631903208062928
20,-0.7852979053830051,0.31516587365123455,0.5640994156645094,-3.383682012136953,-1.7503034047039423,-3.5748516165857103
30,-0.7899899140340013,0.3020894483379524,0.5497709367834364,-1.14614057954596,-0.3346248709070714,-1.2260351684892672
40,-0.7812435620412193,0.3139487654712764,0.5609382459371418,0.6899778493273641,-1.0416382689203365,0.12331641977642782
50,-0.7405245673879769,0.3580141410568837,0.6001674098892422,1.7267957814435295,0.5588608196193992,1.045543898329286
60,-0.7471025879256469,0.3542165052314653,0.5963456604479147,-0.9225494771602858,-0.863166586929099,-1.2096438867015193
70,-0.7822001900111896,0.31375635004632074,0.5561351004320465,-1.856465448135026,-1.1400225587070794,-2.2794755593976572
80,-0.7728316084934302,0.32246536513486257,0.5660600935232256,0.11483533392205841,0.5831689530824292,-0.7509796513776649
90,-0.774856246427577,0.31574768870661796,0.5654092020704247,0.3555288701101082,0.22071418007626253,-0.18640498484280343
100,-0.802454195974291,0.2880125700055254,0.5394068070410448,1.0621174731247818,0.5251874429232082,0.9861153317338833
110,-0.7886073307546358,0.30897131835295544,0.5571239443923194,-0.27797399423279956,0.147319429274527,0.29272460375681075
120,-0.7916065975389066,0.3110363737518774,0.5573306574508197,1.4734323864955214,2.613807389819945,2.0984671342718424
130,-0.7696949711066224,0.3282126451608487,0.5732804244519127,-0.05128016746886854,1.347362359302501,0.22969950385067905
140,-0.757898202788505,0.33857077741406066,0.5866218589519862,-0.8212862059275251,0.2708335630749963,-0.9910140308372802
150,-0.7940272336801615,0.29680814611614065,0.5520609531937722,1.9117066788135457,-1.6214042699819775,1.6363762051342976
160,-0.7862012176186297,0.32855211936650697,0.5781469649079772,12.121343297527634,-3.7509415939965622,6.189806278861261
170,-0.7927903429314447,0.3187830171724955,0.5723378274680911,14.604595420722697,-5.50372979793498,12.177379184595607
180,-0.8237853106711804,0.2982878491377716,0.5509943217148493,10.937312812336668,-9.546482055086246,14.27767717230225
190,-0.8206301352160864,0.4057276665751017,0.5819412283341844,-1.8600487493343854,-12.54389456663382,11.97952363054816
200,-1.0242272912148758,0.41174498925367625,0.02482555635654947,-24.43933139308755,12.891700166135218,7.332242565434623
210,-0.6772096189700951,0.42279876785010495,0.2589652311138745,22.516381841248172,-18.058831527411115,55.12901719790729
220,-0.6176110096247402,0.38582704412012053,0.45922436566676256,23.674753712506554,-2.758316335579667,51.33462640612465
230,-0.5153982422862419,0.42386803365382414,0.4230136031530483,7.780118597926907,15.199066753179737,42.28153326905769
240,-0.5021204826587625,0.5083868878938322,0.4674241770246278,-1.7923920249110865,38.09964062460748,42.77619638685618
250,-0.5448381343558832,0.5921718530457761,0.5577344448333093,-22.50722842819043,49.72736397309395,42.72008818419789
260,-0.7378533280185572,0.4483878398377031,0.6215482608120728,-25.673435713084494,38.13118860837134,20.476076452157713
270,-0.8555595641461582,0.3004735858003254,0.45922649927592335,-6.634837026409084,13.707460897220352,-16.01882502899051
280,-0.8055639750445881,0.3100510363085759,0.50520162618578,-8.499884204327124,13.950933877328001,-7.422930997379463
290,-0.8203435193509371,0.3567039569439714,0.5255839847126794,-13.615287722821552,7.903175664833807,1.8281206899805764
300,-0.8004544051627773,0.3530574602785272,0.5062205231274697,-8.050794581608107,1.6786421370854594,9.637609254047067
310,-0.7282787618285405,0.21675013757168735,0.7153972417588513,-11.453692238621901,-11.297934788441403,5.423476911239055
320,-1.412477177294911,0.558743851808314,0.6763769868906201,23.085825702442815,-37.70888243238977,-22.28293745398645
330,-0.9644572001644043,0.013014810488166228,0.7049142975226136,12.95765760981706,-66.27850224350584,-48.7142197145492
340,-1.0954376158399106,0.20607601540734238,0.36381131662780786,9.825189767476832,-81.82009786887356,-54.69654581550465
350,-0.7479824340064221,0.7610928657688627,0.481664281632294,-0.7141707302238072,-69.9930080247365,-35.49489212897494
360,-1.304603414758127,1.9817672068741001,0.4266073943849056,43.43136460851455,-84.17554812500052,-16.92095691252633
370,-0.41494807784220405,0.7426120431172608,0.9122852377866,-7.236952215908747,-47.945626214256066,-30.930544738597888
380,-0.2285477547508109,0.3751508548836391,1.0182405791645628,5.64304249163242,-23.996413197846422,-29.764429338843136
390,-1.1747645659392438,0.35787046797333355,0.20612441026778508,16.913791047331294,-19.7612964569597,-7.942089846042201
400,-0.9184868069720848,0.46465444115007204,0.3291505167541334,4.376232287548686,-14.123140019981435,11.767737224943577
410,-0.800284791647882,0.3595589261014009,0.5507995907565224,13.367486620254736,-2.1830481521700773,2.1369570696190143
420,-0.7372745612754142,0.3862278601672612,0.6545026770311902,-12.854736143405837,-2.2335580113533116,-9.17618356173163
430,-0.831660032050218,0.4720079215802943,0.5253905325898299,3.0117646296657106,10.051322290211308,-8.783167180257038
440,-0.8810551101637992,0.4812174831505682,0.2646390290057386,59.09362652731253,64.6875627419059,13.08970071931195
450,-0.5917188503111461,0.08970367986779237,0.8114534679229098,22.335827003754087,81.41651493974781,-0.0687943966412167
460,-0.7373113442187728,0.22600290001672596,1.5592681823312091,33.57327911388018,80.3278779619121,-0.879628181218884
470,-0.7393686632800465,0.20430575218732772,1.6714487257018542,43.396721881079536,66.83646677285641,5.013347589190566
480,-0.7467501126032625,0.29960621504940926,1.0701269869959156,-6.328682289643083,41.18536398425388,14.164239530515268
490,-0.8387970389177146,0.35257015117030466,0.07553150187713331,-25.644426170986506,39.82199112725591,8.294384672220833
500,-0.6865254820778676,0.4192679480946051,0.7045642112571706,31.518120875465023,61.151960522942886,2.424002905618479
510,-0.5604337272844443,0.19589991383675096,1.5293522462132836,-5.5532488722086715,39.06031864410871,-4.612022078338008
520,-0.6444589837718178,-0.22611055025381266,1.3096164287627468,-42.941581488393524,26.62448344044722,0.46531102941146774
530,-0.7332805367609788,0.06656113023817851,0.7222728461691342,-14.49000757120924,0.8699023672357855,-3.13703037464988
540,-0.7914682040270961,0.3190503537064101,0.5504046142880012,-7.676535420306308,-2.0320885115479,-3.4815511199258418
550,-0.8084925459706646,0.38181648137401636,0.5112858236112887,-6.8255874408581585,1.336328717800145,8.543643555613581
560,-0.8349088303804032,0.36423705491108754,0.4768459616929781,-8.010215216975151,0.9632978111816757,10.433559539355697
570,-0.8154750402791199,0.37970597269233586,0.4967304351863871,-6.852764856823309,-1.7187952849691837,8.661742084175227
580,-0.8196124389906749,0.3676767114455213,0.4976345013516455,-4.8761932773811445,-5.991901756562239,6.299540509391679
590,-0.8046012573944814,0.38186913481312124,0.5260571726624008,-3.2659749135623914,-1.5082130643744267,8.43116344965499
600,-0.7955016030517319,0.36415126374388446,0.6643037664838775,-20.50783842803438,-18.76394961725679,-4.866406284149803
610,-1.0251779485583918,0.3740300066397657,0.5379049040657873,-37.854534782834385,-82.1143497153503,-6.783229071598283
620,-0.7937947550855757,0.45322441108928446,0.39626315392612643,-42.17142271094522,-71.10970957497902,-6.384905802112089
630,-0.6595211399429848,0.48996752660268883,0.46038218375050105,-46.60281701340632,-54.33328988084658,-6.966188088867549
640,-0.6067069152964881,0.4723589155296944,0.4941162620021115,-43.95992016046593,-38.335388651999224,3.3316714135535443
650,-0.5599943171988349,0.4013612694351434,0.4116184911790805,-48.67051583086881,-27.234229522937984,4.956065572199613
660,-0.6225385926850104,0.34100224259030243,0.4083319022151813,-47.58874357805576,10.009106220188373,10.339319640807684
670,-1.3637621463829077,-0.627188171331466,1.0396839388652672,-86.73827655075951,18.730547984481582,-33.08732847359711
680,-1.375885427067574,-0.5257009927966483,0.9699442184950834,-56.12278449821673,5.02393426354193,-42.843677728360184
690,-0.8336815674388093,0.2648095963555914,0.4868863324427819,6.451380128002672,6.48390385175999,-3.830557944874011
700,-0.7806262907470752,0.22587605471664374,0.4966650759362946,14.304606517164444,0.730038089050242,4.70595882026914
710,-0.7953198922009062,0.21517260305242528,0.5105683316656127,32.69139363841633,-8.221193283413324,21.614777814379327
720,-0.4053601817413619,-0.37709682518950766,-0.08924289281357099,32.51485531572399,-1.9358782955388107,-4.890509157720771
730,-0.5120907142370988,-1.0806208777187973,-0.2738679751180725,26.86370245853653,6.837552361543353,-40.61781589852027
740,-1.3734576621967007,0.21019081424595618,-0.046395587976757385,63.636021654469175,0.9316088706880468,-15.658581323766905
750,-0.7451433169760222,-0.23601978928524067,0.11484807049154878,71.88722105157873,-2.474552251584337,-4.602602526449596
760,-1.6117097486621461,1.8209807566584568,1.0112103925133504,91.00988429364932,-24.48934451995214,31.99296684570718
770,-0.7303869160760519,0.49552268799843635,0.6429941302593865,10.521900338099766,0.18048744474784462,8.476666938187915
780,-0.8047084479606195,0.31823278116429515,0.5412233628632435,-6.098450078980688,5.2803292103302955,-18.542737348541255
790,-0.7542244319489921,0.34100036697001385,0.5857604043353651,-4.620225089650084,2.3102776840339088,-14.949857468541508
800,-0.7855100636396568,0.3174188430014915,0.5615425819838479,-0.6365506644911183,-0.29289814323843255,-6.47688934266885
810,-0.7903665995179001,0.32440102151465416,0.5572177629892425,3.33181232855275,1.3272444812309165,2.504697727939025
820,-0.7806988170094583,0.33773080545900813,0.5740634266564596,1.6523283936633033,-1.9022043408809504,2.648044708812662
830,-0.7909046784577556,0.31009545421604684,0.5628965327440787,0.5439559277494224,0.928975221709898,1.224437504560179
840,-0.7836849241018883,0.30313748585912503,0.5598247394608067,2.3404289499492634,2.1943296361675984,-2.3878199225875005
850,-0.814703774229901,0.29461760431858397,0.5358527938703522,4.970378025634295,0.9217860405138292,-0.7478411303215202
860,-0.752607474382301,0.3621728953036628,0.593197809892139,6.646892935638314,1.63182433922056,0.9258324123863708
870,-0.775689033219435,0.3381901285916271,0.5693116630404393,2.7289286479326504,1.159535901442161,-1.3025437991534856
880,-0.7875020901460361,0.32619253180108804,0.5638688061783985,2.630636353416425,4.212859137891105,0.3224554536883506
890,-0.7679159828232253,0.33740644486257365,0.5815291257904827,0.9531297388579508,-0.1975259965569799,-1.6132937245329382
900,-0.7532096848341385,0.3505149816451716,0.5928779422309016,0.4786531478849603,-1.984431074394856,-3.271735691042066
910,-0.7712696517486841,0.32850829740021964,0.5607475635557293,0.3689199293752346,1.4379290240479095,-2.282396190665387
920,-0.8082649108387051,0.30163751007796236,0.543232374499452,-4.394435097083027,-0.13920409607052942,-5.097131195836372
930,-0.7815423267338081,0.32816530571142977,0.5699886737975925,-4.144622231599927,-0.33592222397961413,-4.303409603176636
940,-0.8078378868894903,0.2983846240018369,0.5411946609884558,-2.2782264633201352,0.46752248181094624,-2.5549742223829663
950,-0.7523918146026908,0.34434333124457417,0.5976645002759629,-3.920175647640848,-0.1524261528987314,-4.989056719813282
960,-0.7731942750165554,0.32487658094835514,0.5731169061645603,-5.0874373882712405,0.2577779943694196,-6.375629637558488
970,-0.7642531839109988,0.3321996723180436,0.5845353619796653,0.7627435374455414,5.156773440517279,-1.1028245694289711
980,-0.7820143470165165,0.3044656981265332,0.5608713814052855,0.24794782131099724,2.9127466329619702,-1.8768332225246338
990,-0.7791226301450861,0.3091408763380602,0.5651413582024142,-1.6795294591526884,0.7995022382516077,-3.566011878876295
1000,-0.7694797301900911,0.32223234041084564,0.5573859760699522,-1.2824885668038013,2.131288006798572,-1.3378802460099954
1010,-0.8034405625581468,0.29110358572695094,0.5418054537217311,-0.3557251053161177,1.9709506015303795,0.7105282042400767
1020,-0.7791853836015841,0.3082367189739426,0.557832498762199,-0.3508889523748633,2.361861001078555,0.22993722790831184
1030,-0.7961695679094789,0.28655545237100233,0.5384151080987353,-2.6759712077504223,-0.021388989951064863,-2.6762074858671743
1040,-0.7834181397137246,0.3053102202224222,0.555825164654207,-0.5110964598112622,1.9950323356922037,-0.39138515647365324
1050,-0.7806354300776992,0.30920172997455914,0.5544228850003212,0.030250755950448127,2.15093860263296,0.6972387053097044
1060,-0.7652348618726118,0.32533854333079326,0.5725538587496057,0.8655718666230087,1.553641591306401,0.8985388089395672
1070,-0.7992205364993614,0.2873560884483581,0.5434212910571509,0.8608232456850842,1.0872238935257283,0.11944110881995262
1080,-0.7876222889151286,0.29745763906380573,0.553728428905425,0.37165467435415367,0.05355251078170442,-0.5764101354982942
1090,-0.7793105403642794,0.3054330726046497,0.5535035377539969,0.16380049427520782,-0.56936635738273,-0.33008111166269827
1100,-0.7742034085883115,0.3169388793611408,0.5548252917546465,1.754712124027034,2.248267157612582,1.5991836003632816
1110,-0.7933990569507552,0.303944708324257,0.5440576537898814,-0.04178561495260236,2.3580113544643884,0.0797761039578414
1120,-0.7625999946212522,0.3253805187019285,0.5671951829128332,-2.555404341306482,-2.2391192557269046,-2.454376011541544
1130,-0.7796539698788222,0.3020473243159861,0.5500149194056078,0.38082867699495426,0.4761567070894701,1.014613674435839
1140,-0.7751334357427128,0.3067319355097866,0.5605201087638074,-2.281184153205366,-1.2947386995355044,-1.1401456379123833
1150,-0.7592865916225112,0.3264497105794501,0.5785649507947773,-1.402925273101506,-0.9656928851839656,-1.0429254265654762
1160,-0.7878047115684322,0.3038002583732978,0.5524763375202321,0.217147106834495,-0.8379043930404914,-0.7572690335694467
1170,-0.7686164147044616,0.32070402781666024,0.564305711000188,-3.4526194631149587,0.22721860361892698,-2.8759271130864428
1180,-0.7869017099105856,0.29197500808725513,0.5456756327656448,-1.2588902611284194,0.12591611640734385,-2.315954026857571
1190,-0.7815455296555447,0.29293064945190495,0.55388803470584,3.6850214951893854,0.07922689727996568,2.112600837586879
1200,-0.7982583680644317,0.28192456982829617,0.5301613043175322,2.5036082184152,-1.1593448186090445,1.2515724473982632
1210,-0.7670507968519048,0.3092210463036776,0.5596464904669723,2.2300584032724418,0.8505821621901788,0.5527441952077785
1220,-0.7860096846740771,0.2926346051397532,0.5428388244590958,0.7379607859040688,2.276221770723186,-0.7658944658173504
1230,-0.7716686879249444,0.30894369314874925,0.5611136242914826,1.1441146074769772,0.855793151140678,-0.036108692067301856
1240,-0.7600616618689777,0.32572486754979746,0.5695397480140906,2.416406125002452,-1.2694699770984612,2.2227304349059844
1250,-0.7861510346035181,0.2987203830824452,0.5449015502106618,-1.1810687229625227,-3.031303193997453,-1.286137194418244
1260,-0.7888985178252532,0.302791262485264,0.5490951324837615,-1.910894226915503,-0.9815327932879883,-2.6086315565737936
1270,-0.7576022600500815,0.33262472595125464,0.5793767606923473,-3.5361437602209627,-0.6581110616856183,-5.293152282826832
1280,-0.7634798349071038,0.31369808902064134,0.5686990356252969,-1.8345950792683414,1.4996602921396616,-2.9707869101818445
1290,-0.7880887367030952,0.290051986374535,0.5448070722722436,2.179181007875112,0.1527216038312234,2.3139981964388516
1300,-0.7691341188531086,0.3155125235911301,0.5586759754041027,3.006795308661483,-0.9938045548101322,2.088076913530103
1310,-0.7705240146257585,0.3211853142908468,0.5601428015400818,-1.1970635603907067,-0.19416686096349264,-0.889958600588685
1320,-0.7757740557276626,0.30580205747140815,0.5571658770492453,-3.6991130392526372,-0.6578071467576088,-4.997675159732401
1330,-0.7820851596728233,0.29788859496227327,0.5511273836155975,-4.550163427279072,0.8195348568941967,-4.7875693083892195
1340,-0.7805683396142282,0.29552891971562056,0.5521943998645242,-6.839516701687685,-1.1365740049795474,-6.002190836895908
1350,-0.7896976880668788,0.2942248877818512,0.5448364864327638,1.6788102666452498,-2.2430448891828196,1.7069630027421572
1360,-0.7733166406335782,0.3122327498201785,0.5662884408221563,-0.02400503893557429,-0.6021453278924042,0.0767530305406707
1370,-0.78209110818147,0.3048028005598571,0.5494379896469335,-0.3449702209368195,1.2199040932389935,-0.6742205004488833
1380,-0.7943693166079946,0.2846091642693477,0.5416436132584498,-2.4074684488118443,0.9535703038422229,-2.8454758754888023
1390,-0.7863985606618024,0.2850918187385652,0.5451346362578117,0.2599072786453336,1.8557259616986053,-0.6204844674352782
1400,-0.7688530142106801,0.30641548899396615,0.5616402605258358,2.836427730862736,2.012377201716539,2.49541635260184
1410,-0.8013476590031559,0.2833463553368695,0.5273376332895069,1.98764904597903,-0.6178755121496341,1.8552596465799525
1420,-0.7640255497323026,0.3192289581353131,0.5676251699987838,-1.3218841987159764,-0.612061007596178,-1.21410730967551
1430,-0.7921475461671694,0.29436822382778915,0.5443814911363112,-3.370668116441884,-0.7353749368691793,-3.330291919500571
1440,-0.7963808337210667,0.28156023567455396,0.5334463606786691,-2.3197247409262,0.6706327392449986,-2.0773131415105954
1450,-0.7615155142354917,0.31365621686923495,0.5687028187410287,0.6489096356228271,1.8588124800560664,0.9012631679523628
1460,-0.8092244037409853,0.2732169771061767,0.5236402061255604,-0.9590523879915159,-1.7372438038600377,-1.3578438859954989
1470,-0.7708550591039398,0.3060412695324009,0.5604551260899973,0.1517845547028791,-0.3722771024505196,-0.5891016172410998
1480,-0.7899317134731709,0.2916916929897265,0.5427076532893059,0.5742778090406939,0.8092671555278584,0.1766457009184237
1490,-0.7953373864054295,0.29290627775758943,0.5399601919481893,-2.3568348082699844,-1.2853879450607324,-1.764314924635129
1500,-0.7718537225284167,0.30347756992046104,0.5590689164245377,1.0479723657639173,0.9895779798618591,1.338813220135622
1510,-0.7872177675869687,0.291632886824163,0.5419601162563186,-0.3723425818497402,-1.0724273317346156,-0.006894370349244533
1520,-0.7866761191377987,0.29437417596671955,0.5409279959079262,0.6499962741485458,-0.45315580359021657,-1.7716998535761876
1530,-0.7704268499318752,0.3086362250009802,0.559210922642968,-0.20867169358516469,1.5050730611073158,-0.8859135365948294
1540,-0.8019463796212547,0.2771633622411107,0.5315493492581116,-0.8539758413868768,0.11847417364381352,-1.0639690423404788
1550,-0.7787724154290269,0.3016501602310341,0.5505533338504346,-0.2730822898721891,0.4488683560648865,0.5320404875162824
1560,-0.7685118048921561,0.30565589311239366,0.5598836668494899,0.2961109807901887,-0.31399784875460657,0.8597741195102919
1570,-0.7780220308102161,0.30391805462312577,0.5555418953677572,-0.15637215190379306,-1.34578054391791,-0.47843417851974135
1580,-0.7715094098418364,0.3105864711683152,0.5685900901613996,4.019976014169908,4.510850457912837,2.8318006024116382
1590,-0.7784056448500436,0.30479113248946643,0.5594701616325114,-1.1078596824874118,-1.9866254138727075,-1.9143007476697194
1600,-0.786593993369213,0.2949269372522363,0.5499752810383631,2.6902988959971994,0.7019259992485254,2.624638193969144
1610,-0.8038198771977861,0.2767909847165505,0.5238705172482926,-2.7937325049783466,-3.741259968365165,-2.8304142503560077
1620,-0.7791797730549063,0.29704946558618595,0.5437941723135231,0.44202049933866905,0.9151327517530701,-0.3683319232871475
1630,-0.782220776092951,0.29872444665707976,0.5504692118011644,4.364531683037529,4.777970241175218,4.322166000933774
1640,-0.7829086046158409,0.30308069787139846,0.5542410213127125,-0.5550605218987318,-0.47519177539410995,0.2389212518423478
1650,-0.7987922007416726,0.2836208444002342,0.5362325481118926,-1.738743037508531,-1.2912685783643423,-1.563618568131905
1660,-0.770316673444183,0.30901819201524056,0.5616243289121231,2.6319253798305,3.2052849132569863,1.2428631698772525
1670,-0.7658700748207254,0.30790598638687294,0.5630519817970001,2.095262262937165,2.5858916547098274,0.3137846674324416
1680,-0.786910630903199,0.2871283184569751,0.544372637415473,2.457868372057405,1.0389511278506687,0.5552322930258232
1690,-0.7867752303686404,0.2902972557828885,0.5466622319061399,0.5812325474237243,-1.1144418587109324,0.27825725999329554
1700,-0.7786604224801352,0.30660601813631655,0.5555291660807744,0.8389066632274875,1.3389922333493658,1.3245160401534295
1710,-0.7701153124894342,0.31173765223941574,0.5600850023253818,-2.7550425270975563,-0.8497716366768824,-2.5966330347098543
1720,-0.7723817954266704,0.3083133741648332,0.5550381676848674,0.8466578350245486,2.0024669679387754,0.07577471035808436
