time_ms,ax,ay,az,gx,gy,gz
0,-0.7249100329626998,0.2897352240861741,0.6354392156161454,1.9518603636825438,-1.0809050636022963,0.37348719203234404
10,-0.7144816682941701,0.3038293045398608,0.6472535993591803,-0.5624895144334104,0.8438721446659475,0.7034229466205303
20,-0.727575564078796,0.2927300402852241,0.6334744427104498,-2.97587943207216,0.5657409485776648,-1.9101911633930495
30,-0.7082025513820106,0.30827251238405307,0.6484959328571053,0.2031226201398666,3.4329239350910727,1.3748362822220639
40,-0.7103418661426656,0.3064275327128026,0.6469585933174321,-2.1302683769056125,-0.5764810234762734,-0.8795764668934538
50,-0.7352572520957775,0.2816283474008102,0.6233904800829393,1.1716800479324552,-0.27199334893875093,1.4086550429249853
60,-0.7054193164736263,0.3123094203502452,0.6485591028653662,-3.678392373067127,-2.9289156521133637,-3.71736583474462
70,-0.7238318149093758,0.28652602162439333,0.6333636006019641,-1.561785653143239,2.3500221511052017,-1.5264193715177523
80,-0.707393110993216,0.29949469710185606,0.6503857524656449,-2.672484192916545,1.137525683110383,-1.6679750072681563
90,-0.7092544877069012,0.2952551408715082,0.6450247203257886,0.5571247939873705,2.841928343711454,0.761697727325745
100,-0.696945700273769,0.32378725168690276,0.664419321133769,3.751601585211594,1.204841715588305,0.7283496810957412
110,-0.7207587488830887,0.29888973061938534,0.6330483855684355,1.8770399334572796,2.3464894251498616,0.4537457423453335
120,-0.7029834392800515,0.31604352534140023,0.651574858395437,0.7608902892209304,4.817098069407453,-0.07195489981488223
130,-0.7208925212711081,0.30073963837381124,0.6320761827374258,-0.29130819106421235,2.3510372849224024,-2.05196718364978
140,-0.7264870908951419,0.28843630868959597,0.6255071288177505,-2.4670200725455587,-1.9067070950630103,-5.168291217797307
150,-0.7104375208210822,0.2950804541434262,0.6425047856015401,-0.587447570163367,-3.260313422299749,-3.106685191542627
160,-0.7115541379869949,0.29443035679966006,0.6478878900371808,7.160277680989965,0.12041160338382628,4.2409156292818135
170,-0.7057232281509902,0.3156902877663489,0.6565845023177259,4.650365812943943,-2.392970159523877,3.425370627592268
180,-0.6957000594709148,0.33447836522099683,0.6739468641239422,3.9441411823595933,-2.881369630069518,3.9240199569155862
190,-0.7449050388764807,0.2755246185373151,0.6347873970288932,7.246156740476934,-6.979851875446016,6.551727263876293
200,-0.7341099592899687,0.30568469242784474,0.6528646198057748,13.68015656606154,-14.121899563598713,11.077421168577919
210,-0.765217577934561,0.34517954041095095,0.6465048504786758,4.4907253351075616,-15.063444294868129,14.418577305499445
220,-0.8496317287088142,0.4640062974481107,0.5282161850609423,-6.130631830443008,-15.678690144394077,17.36421065978604
230,-0.7316932218015133,0.3697925818625726,0.6390542341378596,18.72154825376796,-32.25558092254583,60.764806548299575
240,-0.5627277606436579,0.31988332852481643,0.46471873738531716,7.1983172557267645,-11.180940308122288,45.475011548626135
250,-0.39755598652451707,0.4549296746508361,0.48009887782186,0.825736055064009,16.286333558837825,36.27323569912923
260,-0.5081771909524815,0.5008101294123429,0.5511694654576494,-11.847716808532937,42.0189021057076,34.88127170779902
270,-0.8784750010938751,0.28221815899359953,1.009135741644541,-45.85455280267246,35.57973188732971,17.203020188332328
280,-0.8095950583251065,0.26130215454215844,0.7789493764854298,-21.598239813174292,13.96923455412273,-4.554401863476442
290,-0.7595560658718034,0.31815271717316823,0.6274195170537226,-5.188938995562876,12.148982026307037,1.7941100549252944
300,-0.7237372190724246,0.370390264823475,0.6553365251404961,2.135237317361758,8.433856144631452,7.203416726972669
310,-0.7153701829408132,0.34169040599417677,0.6789509592488893,7.387280938984757,2.8354770597849783,9.486210891874322
320,-0.73844616251051,0.38268446428442937,0.6625981683776477,14.486999842991604,3.662117902382704,13.728547141567033
330,-0.5100584531371792,0.08791832031790003,0.7480590174902941,-13.065577090604807,-36.07589420287402,-19.22377371052121
340,-0.017708325699467127,0.1588790342561303,0.521084400250967,-28.872337468218365,-68.31915481435921,-62.78201721933714
350,0.24389795552433213,-0.23789601313837838,0.7161523150081976,-43.55564805721215,-70.13964838312585,-52.78478045070271
360,-0.5031011987263926,0.2630380952319885,1.0210701849244848,-12.101051538919418,-67.81480216943228,-31.849341448635958
370,-0.5570940359070553,0.38043903055162415,0.899903103014391,2.2443044181693628,-62.45768249806712,-23.975910583305343
380,-0.6725158899635103,0.5657397100887563,0.7843045450221827,21.277605008173577,-43.30832979304549,-15.625263261561027
390,-1.2847675967683778,1.139234307075333,0.7047379401808634,45.614760160759865,-32.24779331406747,-0.6529435282802465
400,-0.7072910667931328,0.3281227400514522,0.5891903156877135,1.1369082366091985,-6.743819610429991,-0.7252552527849887
410,-0.7081107415049847,0.40485575814291885,0.7035981185939224,-12.613931319205827,-4.182755466574893,-6.941798861656547
420,-0.6896791203647116,0.35243403966875664,0.7289018570054008,-2.495437346687377,-2.770434162768446,-4.913017416031757
430,-0.7096842703263411,0.39768873963944523,0.7056154696588531,-15.996145753525987,-4.094221795175362,-6.929870191595458
440,-0.6912396231873874,0.6181274640282841,0.8354733087668411,-7.294351845447498,21.284477041461816,4.890963217805196
450,-0.7976986304807111,0.751957541509601,0.2774836268390863,50.46343527161391,71.72992755809649,19.55527338199323
460,-0.7546450958860328,0.12774276812901164,-0.8814633737116623,40.73856766913901,88.40752590430041,17.65149446752428
470,-0.5983414543321868,0.33491250629552394,0.6971199167397184,46.11454432595845,84.39034923120556,23.712177207483368
480,-0.6414195387803374,0.1633374879061831,1.1392526464643853,105.48632266958612,89.7636878448369,2.75562021963532
490,-0.40876605792084264,0.5445209370918332,1.159730153526882,122.51005819941153,83.64205879749153,15.52886170776463
500,-0.5530855631370126,0.2872749979285242,1.8826809796919453,-36.66199468934117,39.96315389291328,1.8502558940307599
510,-0.9429223542980084,0.42238558338250154,0.044483667155847645,17.065148967080024,36.443763615248656,6.998331458918273
520,-0.7224303847144734,0.3396075297901843,0.6587766432974008,7.46414335741925,0.20676430237479781,-5.9120045243785855
530,-0.747465544816416,0.4439394667945877,0.5569336811900637,5.406988428032338,15.32602031507498,4.826337224802256
540,-0.7829098187501424,0.49760632549497463,0.47886987685693894,9.968398258508373,18.823790223304467,10.553332423224138
550,-0.7428082084218891,0.46729616368786747,0.655756892772602,-10.565330207118913,5.5643535340570525,6.787467765564949
560,-0.7592602748620636,0.41216393342400387,0.6370495996556427,-22.776387025024757,3.961010508649525,8.923944392446336
570,-0.7387220215868738,0.3858808136593124,0.6738621660294258,-40.41225738806333,2.065207041769359,4.82388225512098
580,-0.6759380350063254,0.2996903819570566,0.509985151228464,-65.47989937596388,-44.569190895651374,-17.3268896843455
590,-0.9138299576374634,0.737365630729817,0.7853730122562522,-56.03429498150683,-48.57484231874706,-13.496576645740806
600,-1.0272142370247384,0.5596501287710148,0.8857556708482476,-41.58355456399051,-81.77642980685329,6.545186053824579
610,-0.48352006361369565,0.4524669941412719,0.5552905014324568,-29.761340825308437,-79.47494122375656,11.15642543668891
620,-0.35213012789443043,0.3743065059564532,0.32399234066692195,-23.253496817048326,-43.285243018589824,13.832236613048739
630,-0.38735897032510264,0.43483599456437627,0.27121655865796124,-24.791345208768814,10.751425289419382,16.62166699166674
640,-0.4779035977003071,0.4976586884096998,0.44006411281811975,-34.17885082608415,46.72428383591769,16.99464022943735
650,-0.7012314857830195,0.41321387192717435,0.7066276067478034,-44.069859195964746,68.08342883614661,19.777576013126822
660,-0.8003133848728475,0.26117313692207683,0.9126583325204932,-3.8950610872248808,36.81183675882871,17.63476404018425
670,-0.6971637717992079,0.32003276383511214,0.7270462122149493,62.12912152389196,-6.103469922015197,25.71478009625261
680,-0.6705662393845123,0.16293375092596643,0.8601212532657624,45.83616058319494,-16.447482235884213,20.281900354168926
690,-0.7597921528933471,-0.5408808899355068,0.2195005729741762,22.4144741423878,5.035133856972718,-26.85913405199578
700,-0.9924424593811124,2.2018271770030546,1.555341573321116,42.33852667388618,9.98660848081182,-45.23403294089778
710,-0.6324123451419359,-0.45216058376244844,-0.34662328818949995,13.56306384670581,17.770525074395856,-90.35207193728044
720,-0.7236035649178422,0.5182813786224539,0.7152671033696791,25.087643598323204,-5.45337909947665,4.820474373491454
730,-0.7413631733425005,0.40985860010774205,0.6741898843211015,7.129332681269316,1.8124385933976397,-5.378775138486065
740,-0.7097468553309771,0.4164641488811363,0.6903045270979741,-3.537605826346674,4.958912842859357,-13.19023436073134
750,-0.7247230585386645,0.3769102094717819,0.6746063211140324,-8.113785797695735,3.6441673004885784,-13.608273797154734
760,-0.6951596283950803,0.3724389372997766,0.6965985921857675,-6.606846969317625,-2.061302921795928,-10.176656271418793
770,-0.7166099348089218,0.3711476434986747,0.6792463533954891,0.8883514903659284,-2.7234306205437306,-0.6229026861821749
780,-0.7010710960140456,0.40143649595701486,0.7052856294293214,2.898701725516215,1.3399677835129378,2.725000709956011
790,-0.7016756294202341,0.4248903243465388,0.7001232819535287,-0.5054615935401289,2.6027147818941403,-1.4961552225980004
800,-0.6848824193121842,0.4200912268794906,0.7071697558070243,-10.822265441468556,2.778488962089363,-7.672196348426382
810,-0.735447546268935,0.34212485129725256,0.6617431921015244,-6.989531990874827,0.7280935776810957,-7.308588092485142
820,-0.7212893608359828,0.3604237755524413,0.6669108442828238,0.9854995976268706,4.305604667096579,-2.2344343540804203
830,-0.7287197932968958,0.3488916168291144,0.6589850218227167,2.8227467379423654,2.8515942253050763,-0.36395455135073584
840,-0.7321177689404849,0.35347786768991823,0.6583473569859372,0.8768762520334419,0.7832376323876055,-1.4509821186880079
850,-0.717426968093263,0.35869112782710394,0.6685600080444752,2.392014356507337,2.729852812858008,-0.5214412764346545
860,-0.707540306007081,0.3622165699607781,0.6704233189940251,-1.532896952008894,0.3304692859625704,-4.861890215940894
870,-0.7073870998306764,0.36445196576951905,0.6710974437614268,-1.5513229360518395,3.407900402480614,-3.0546529648838496
880,-0.7064782822763203,0.3628426571465277,0.6846537338939532,-1.178314899678134,-2.8530363939282646,-3.0081163024569944
890,-0.7094009811579485,0.3623828601359372,0.6950103340216274,4.187938081898825,-4.171487631267956,3.8981229640380075
900,-0.7171747209587662,0.3599761832079611,0.6677745174725055,1.6701322061136756,-4.49736369434563,6.241464042272814
910,-0.7139609514026974,0.36848011573093115,0.6853424976120651,-0.13655821175906935,-3.1243486506489346,6.3783588236333
920,-0.6850941850964873,0.4009971746195184,0.7086858209457637,3.0137839241390485,2.107319609456204,7.701836646855513
930,-0.6953675566924248,0.40255100670427746,0.7040716759152935,2.893945768863285,0.8702428970171976,4.446258859519709
940,-0.7433271162073323,0.3687786315721001,0.6524903006678758,3.7972072278371565,1.894828213204968,0.6241329800956592
950,-0.732661907354184,0.36624835532018774,0.6553006220956519,0.7617693277176475,2.784714886720421,-2.9230317890471014
960,-0.7020189744863661,0.3883009604692553,0.6850832724539593,0.957311698083257,2.2766423290692157,-4.473580817054787
970,-0.7124558270585961,0.3792319790674669,0.68272089961336,2.535992623238552,3.2823979145155855,-2.165308722944569
980,-0.7122858005218201,0.38386647071577934,0.6859760213030995,0.45018399540307485,0.9441629726586402,-1.5616833551407465
990,-0.7380067690878263,0.36309398427070866,0.6655468035214944,1.4065309853778833,2.155495068908283,5.323915854632259
1000,-0.7275133122393347,0.3761944502785113,0.6667892733558143,2.125923917333945,3.0395846432793387,1.9174901040483747
1010,-0.7425888743924081,0.35857876551431245,0.6569524829553377,0.7257788279327119,0.8426130051624315,-1.7364979589424698
1020,-0.7172182660030708,0.3861023795778614,0.6777865117152911,-0.6833772149167192,-0.6002836219512019,-2.439951962193865
1030,-0.7236745699249475,0.3797069968199289,0.6700336045504468,-2.5968566672167475,-0.6186680201056538,-3.450485246029972
1040,-0.6990024127020362,0.40000481938138854,0.6975154377721247,0.047466921042090826,3.0009158168650756,-1.0239468888685448
1050,-0.7258846846124216,0.3649909829194359,0.6630345449239682,2.2990923605129994,1.5151971006690856,1.5307387772311634
1060,-0.7110685148914156,0.3940727816694902,0.6847323419425487,4.783484482125792,-0.3144553379537571,2.8352913765264574
1070,-0.7426214068230562,0.37807140239975573,0.6530060928253048,3.0356291338767525,0.14475779683250245,0.36364477500386716
1080,-0.7225367823635077,0.3933845232539289,0.6720796075286045,-3.8253700316515244,-0.42471215920013594,-6.7346258262540815
1090,-0.7066508917858616,0.39384960396603147,0.6890663363906048,-6.841570605971588,0.7273908123231229,-10.198451576136646
1100,-0.7257913041770372,0.35520642895463067,0.6639532081708647,-9.148073346829237,-0.5572585824027257,-10.905609212662537
1110,-0.708360453100266,0.36886689158410374,0.6822420947279481,-13.649037691630948,-2.445974626828358,-12.478840800879848
1120,-0.6939163971966934,0.3662410049383092,0.6915700469044569,-13.366739605122012,-1.23131924125415,-10.635559044356
1130,-0.6993864873178991,0.35383363935053425,0.6788416146713754,-9.248597786590953,2.24078325513639,-6.507518656308807
1140,-0.7112126546575589,0.33667528249154954,0.6684563403830223,-0.16283132440680737,5.995446589316176,0.1724738827396437
1150,-0.7216152099842069,0.3426937043326643,0.6623956745223597,2.7333567749597014,1.4512645413603091,1.2306580302384453
1160,-0.6969371816184331,0.38230050324074016,0.6863896874398551,3.0141987042160863,-4.245929643115544,0.7162245353842236
1170,-0.6852999750315448,0.38221976305082467,0.7007235204638713,2.2224299832274474,-1.9623292298481099,-0.07310798373554084
1180,-0.7269358385268789,0.33394758827288884,0.65734064741332,3.7916107086902677,0.9135788078831202,-0.5357714562507772
1190,-0.6989626231281191,0.36305634106720436,0.6852580307602886,1.5551998228774333,1.5992674132613867,-2.716457113263551
1200,-0.7028527479248196,0.35722401075824073,0.6865390929637583,0.4247946707845178,2.6758244444341175,-1.8997602496998571
1210,-0.7187240201837125,0.34400701735225264,0.6580515005955043,-0.12266703921689803,0.20945566878334754,6.342164734057371
1220,-0.7283574850715222,0.3490941850411627,0.6511001792214025,1.6702190983915974,1.1514486494491698,10.700444699563652
1230,-0.7238658740652919,0.3625226399172834,0.6630135792257648,-2.086835038020964,-1.099319070068924,7.772898056857138
1240,-0.742951617505853,0.3406858059036899,0.6396136005668958,-3.3628234852107006,-2.691111976043618,2.738055204073626
1250,-0.7198092982224983,0.37020589387636993,0.6666863775883605,-5.212288504573959,-3.420193198175731,-3.9077210178415283
1260,-0.7242889413875687,0.3544969549876403,0.6643710866125442,-3.6328365607342916,-1.4786913104095571,-6.648022139626277
1270,-0.7085608177203641,0.3510567330252039,0.6753559801959778,-1.1603061622999795,-1.8719535297506238,-5.458244798875642
1280,-0.7204196135609119,0.3344378260064357,0.6616877284878894,0.9914430891366122,-3.4420507933585056,-1.3800931062254789
1290,-0.6502110558711204,0.40617077407373336,0.7335536845294596,6.887216271460693,-1.6634778273916513,5.951528600926531
1300,-0.6903334381045668,0.37520210124590303,0.6958462919538041,10.508480586759823,1.185798153048029,9.648323758964825
1310,-0.7346999889746213,0.3433002891089801,0.6511911383680468,4.317239726898924,-1.9693406548575183,3.04764069137158
1320,-0.6884081913885778,0.38440634439322074,0.7013777759864407,0.4290565943750151,1.599915728292513,-0.926898953001486
1330,-0.731192688593867,0.33627849377620506,0.6535657530851514,0.9690632026315144,1.0098369162726852,0.15744885461210065
1340,-0.7262717232814659,0.3409256392338364,0.6568999324471593,-0.6759488096406141,1.7714788448360077,0.40438906321143947
1350,-0.7200711458266997,0.34753211954323177,0.66661949734126,-3.3643022819780595,1.1473875711110564,0.2611515028608455
1360,-0.7456819212447886,0.3239502127020042,0.6379894814463434,-8.02124524550887,-1.2378050248454002,-1.8017654287677067
1370,-0.6980641843775385,0.37283319814663396,0.6892256556562307,-4.256579374745286,2.2164892374117855,2.4401034413557703
1380,-0.7021997487662496,0.36279169771312897,0.6854198554286387,-4.179636567256388,-1.3136865002566676,0.27177081229237565
1390,-0.7311275927174097,0.3394977764269627,0.6533202359223186,-2.928044286308862,-1.616051698311149,0.6054825723074173
1400,-0.7152658516154627,0.3547998466965542,0.6694026711686253,-1.4665627272036161,-0.8625619817788743,1.8898092232518031
1410,-0.7065705987098219,0.36328680991577944,0.6758437026860326,-5.147548917773401,-2.631562666510402,-0.5322176946787742
1420,-0.7249176944512877,0.34283688067188867,0.6616205133150178,-3.801564719485064,1.3307558263484531,1.8342382994174182
1430,-0.7813647068182771,0.36690903380594625,0.7228962256701159,-6.082336824249725,3.0003292082342474,0.6429070787953508
1440,-0.6985283457316622,0.3753860964478282,0.6778215075972253,-4.494786884504075,1.3814034102367314,1.5261423022487128
1450,-0.724965827816853,0.3368297889407048,0.6368451390101045,-3.2324904065429814,-0.5555965697343387,1.9254558301048363
1460,-0.6999419279952851,0.37211093675844914,0.6879166855351573,0.019215036047037948,-1.6161447725518983,2.361925483619859
1470,-0.7036553865999337,0.3692355021696297,0.6898724204655773,-1.624446168855562,-4.120646220204107,-0.6264716997255526
1480,-0.706124930290544,0.3637517033894916,0.6794735903707296,0.1672856396186998,-1.4592054354413206,-0.731007052830571
1490,-0.7380598600459062,0.33546124613569567,0.6515662374956442,0.031233589146631213,0.8349882378873347,-1.8650101394390126
1500,-0.7156319504163982,0.35607136935135336,0.6703680307933089,-4.358906161969159,-2.5563365682150456,-5.527652083529242
1510,-0.7226488105286292,0.3440290088747071,0.6603996369613471,0.1097392532720014,1.2398880264493242,-0.7825580362131708
1520,-0.7475230418299552,0.3276871371110188,0.6490132451496305,-0.4943820845356368,-0.5158331697247014,-1.0270919165130932
1530,-0.72619812970573,0.33868635515247064,0.651173825872733,1.9517295323128543,1.9175435392088178,1.1084441338977746
1540,-0.7279290225382621,0.3383546296155214,0.6505070508833671,4.213623282222517,1.121953549858966,2.041335168686791
1550,-0.7291468912051216,0.33333035883912016,0.6497570601030738,4.01989791652756,0.3412264923725927,1.7900291425744734
1560,-0.7043857964759112,0.3685430084151281,0.6800785651621746,6.60705201646172,1.768134049200396,4.343481019293663
1570,-0.710526524948171,0.3707375740328241,0.6772969873377558,0.8774876885805496,-1.9222031500600085,0.4842644944131467
1580,-0.7256280294719731,0.35009159571877685,0.6621911420962507,1.4997731711721594,0.20585156481793043,1.7054207583712515
1590,-0.7144917605197953,0.35090329592277486,0.6672850350582683,2.1135081406969967,0.7538501515688532,1.6258255591199617
1600,-0.7177743376178207,0.3500729948398449,0.6669339845589274,0.6338356904104092,-1.4628564863075355,-0.03765326763312715
1610,-0.6904711192925812,0.377189330509362,0.6902928969864663,2.5336246974092287,-0.23589418716172783,1.6103933056700994
1620,-0.742869783159659,0.32210802367637326,0.6373760632991954,0.870437471070578,-0.6934128791948159,0.17060515625184447
1630,-0.7164016114480596,0.35948337328286495,0.6722467211933156,1.2788005436349705,0.5104790216694133,0.6492405641425579
1640,-0.7262640862271276,0.34138246107076586,0.6587082811434015,-2.2372340899989682,-0.607242754580908,-0.6467051110797098
1650,-0.7096424444185699,0.3640445049676396,0.6708241965732618,0.11525369947629614,-0.2089234337581558,-0.42526588276789606
1660,-0.6928015879165681,0.38463238629275437,0.6903496459401707,-2.8083737945546017,-1.3888520364374268,-3.7754927157298255
1670,-0.7279822567776554,0.34294063949529224,0.6557394434808242,-4.098248039318588,-1.4040575655749832,-4.972333291121827
1680,-0.7026593294663319,0.3625388607479852,0.6805937825178151,-2.796860456341586,-0.6878089062937768,-2.990225452329223
1690,-0.7034529112667275,0.354505867947569,0.6752880089833587,-0.7759944305784334,-1.1378313400302487,-0.4464710944565209
1700,-0.72342424837127,0.3456305200879168,0.6603602298067841,4.887838786717054,3.7305640727521068,5.8991445181402415
1710,-0.7444941829879997,0.329485975096045,0.6441686829040941,-2.811999012812271,0.006084185611572479,-0.97014768547104
1720,-0.7143928494309181,0.359610145265626,0.6767344296925363,-7.3469067447334275,-1.9732794550372903,-5.812946656628695
1730,-0.7203424346959562,0.349091678829496,0.6703445477894507,-2.642142912685706,2.100393140096466,-1.2028299078688742
1740,-0.7457566541091243,0.31495551139370137,0.6373476277108494,-0.604277294856834,1.5166716854103608,0.7723712024524756
1750,-0.7440024793326506,0.32641693460691196,0.6438098810207802,0.19598045238596845,-0.8216879750081716,0.5775351829002122
1760,-0.7106256018448682,0.36456271654182976,0.6717713057337223,-3.727601878168281,-3.3918567178020695,-3.707661493341152
1770,-0.7148197182325138,0.3504542315187247,0.6655638051765269,-4.12675380555155,-0.6586515326281361,-4.28093534051497
1780,-0.7190955489976419,0.3443405150529548,0.6618569587921426,-4.046540593538887,1.0197805977306416,-3.603033272998474
1790,-0.7090793333318598,0.35374120726213765,0.6743678157913161,-4.652457423138343,-1.7108679904941142,-4.504485595700549
1800,-0.7115417304512106,0.3497141644590442,0.6693111576662846,2.333866259305508,1.6680510815895806,1.8667648832095733
1810,-0.6958728815060503,0.37033039363470666,0.6868127189088391,1.6689401237622756,-0.269749573212391,2.864912020698427
1820,-0.7295179124734613,0.3370952842779547,0.6553563319278215,2.5727064331651275,0.7908022515330648,2.3719994719044615
1830,-0.7455113278296706,0.3285490668286597,0.6338667404021002,0.768230254368654,0.7711121545237009,-0.8915442160997575
1840,-0.72816821196805,0.3332298993223997,0.6515859870444516,1.8075754638627484,1.8525196578357623,-1.2162424554787086
1850,-0.6997610132124445,0.3693839607937146,0.6856983089261247,1.3053667200831345,1.2161858410592572,-1.0617608743237854
1860,-0.7017255108347832,0.3571930601304639,0.6812316550976592,1.5434519197638585,-0.4807376737292422,-0.03340297973157738
1870,-0.6934010023342216,0.3740780944571768,0.6929749404782801,2.7771009112753,1.0641517150612616,3.3096244623757674
1880,-0.7136473945520624,0.35689264615001065,0.6717186791218277,-0.6937989268075336,-1.0006370907247963,-0.6624965848292441
1890,-0.7079352104604725,0.36001780431540814,0.677040967642369,-0.8726123584422479,-0.6902046111687491,-1.7041724220256889
1900,-0.7335435926264287,0.33158517885312405,0.6497924084675414,1.7191897460138086,1.0801226935535149,0.0014306623525458528
1910,-0.7135320939469825,0.3508402605136714,0.6685957718882931,4.053970130621524,2.403711418740841,2.1489923980386942
1920,-0.7120667410454281,0.3589277029428993,0.6750094481720313,1.7603607591358061,0.6971973677466454,2.2012952840428888
1930,-0.7400243536152845,0.33130995855878403,0.6431020220802329,0.8132037375539708,-0.03273219104409357,1.5777688273712276
1940,-0.7093306760528522,0.362406609946031,0.674469969192843,-0.2701402309613177,-2.859883389565096,-0.7713838767844217
1950,-0.7049409405351788,0.3752914872408501,0.6814526982168577,0.5430055840744697,-1.30156649659309,-0.6330445477534218
1960,-0.7139864464965887,0.3594213354147995,0.6735818898938988,-1.489593922239823,-0.5280657079813977,-2.8396392818111815
1970,-0.7200203731437698,0.3443501950377543,0.664169405961194,-1.6041511396152037,-1.026078486547338,-2.7731330923977566
1980,-0.6977341028663896,0.36618548001265244,0.6890647642405613,-0.4538978524774675,-1.1701078578629243,0.4566539929975071
1990,-0.7265734764713762,0.3404813495663596,0.6594141016139009,-0.32146210382530116,-2.617854735060046,0.3413087270050257
2000,-0.7066295075992566,0.36486584822091056,0.6786458364221155,2.903991901587595,2.2732880600225664,3.9076873805991683
2010,-0.6992462983166923,0.3727631886126925,0.6885053120655893,1.9150624544083548,2.3451243245311018,2.235758381518515
2020,-0.6989932252565035,0.3686691553565519,0.6859482891481151,-0.09288482490620689,0.6600208587617211,-1.0624633905233443
2030,-0.7148870778969809,0.34890683435328673,0.6714371908793508,-1.0997182053602832,-0.87570495896104,-0.9613904664901851
2040,-0.7440518074409448,0.3157058124037444,0.6392046023900606,1.5127941450974058,-1.0678010095945547,1.6404390506135276
2050,-0.7163626449275925,0.3519997941919622,0.6681215970877724,1.4005102356973187,-2.1121298700466054,1.3676644296335287
2060,-0.7007581742038774,0.36623732081400484,0.6790189600846352,-0.6932693974654434,-3.689843807554059,-1.0081518637221372
2070,-0.7345945221994272,0.32977374336179294,0.6434774058222122,4.638789587212969,3.5322302423738834,3.3402548967957864
2080,-0.7067914534896569,0.3585759001398322,0.6788335525999178,-0.08024323536254516,0.09566247538963674,-1.0832902253189103
2090,-0.7024643786125887,0.36590672978678473,0.6843693521772873,0.4942201392463988,0.6255512615903039,1.08496085381052
2100,-0.7167959321673153,0.3529419412549839,0.6627500580554254,0.12018580673470358,1.4671495290903573,1.516356414010669
2110,-0.7257761320312108,0.3392348239507036,0.6590671618418027,-3.0611633921938015,-2.8215729131456397,-2.291170231804945
2120,-0.7104298664673907,0.3562872659247506,0.675412872609901,4.56388348355548,2.545811897455035,3.679224857053369
2130,-0.7140501340832676,0.3594366474072701,0.6704772567401092,0.24862946506613826,-1.8813060905951013,-0.9628170212981164
2140,-0.6974443657783176,0.3707508317733772,0.6865302873400513,0.0419193907495842,0.7654927344158646,-0.914066030731541
