time_ms,ax,ay,az,gx,gy,gz
0,-0.7445524267266982,0.8390840389547101,0.7917461483975092,-0.7593546889899401,-1.7222644653266295,-1.174950728088196
10,-0.758220373346596,0.8305852516530745,0.7777592343850206,0.5684979818637201,-0.555105579278199,0.0974286364667416
20,-0.7422157746399292,0.8440154276675903,0.7899404620917205,-1.3709992135953732,-0.28319980240891274,-1.5837502147123386
30,-0.7449376683395488,0.8445531648500221,0.7867966551528834,0.2900184557800174,0.9502336381468064,-1.0712236301834879
40,-0.7489714535376126,0.8594797331701445,0.7960360267172618,1.1951308635181448,0.013075276768693245,-0.07659712320395651
50,-0.7522071660561674,0.8783935927977211,0.7972306885416174,1.235437906227761,-1.4321530753245477,-0.9085903252188636
60,-0.7622173671758278,0.826342034581012,0.7744529786273103,0.5714624566720373,0.22290907033816088,-0.3750159470507419
70,-0.7393476696872723,0.8498328210197118,0.7995854817679799,-0.15283958419736976,0.11393933869163653,0.27736875245352266
80,-0.733787343737678,0.8544424790200433,0.8018998542764454,-2.372421347218684,-1.0178120857073494,-0.9703734735713359
90,-0.7328066881110854,0.8529226722294455,0.807473525249146,-4.2500164687504505,-2.817003293497556,-3.545942525866166
100,-0.7481086561002903,0.8326421316458887,0.7862973646770013,-2.5092218626834537,-0.061250186450994476,-1.3634989970551903
110,-0.7337513875213375,0.8515041872036084,0.8055209123468692,-1.6526926401985982,0.964522579161777,-0.01786812326577747
120,-0.7454374343777233,0.8395442432890086,0.7945535301118715,-1.0918486255217648,-0.22332006263648618,-0.15283226735463207
130,-0.7868102792369878,0.8149793405467746,0.7930167189159137,-1.975909926387385,-3.908175244846776,-0.019248011159205713
140,-0.8703911317271706,0.8321026662049422,0.9107006732113544,9.336972108160206,-1.8784843588499849,7.357010428689742
150,-1.0184594898822292,0.7472133924114787,0.9678144313472075,5.632425768089013,-13.819929797487701,2.7754213458925068
160,-1.004719029376847,0.9524501470357416,0.8054456381650497,4.789578957608088,-42.577230873580504,16.270202676421118
170,-0.7559509960855614,1.024959334162043,0.685909255726713,5.113338406464239,-32.252756899431574,28.781770204381402
180,-0.6425613026282084,0.9940110220122842,0.6501000320557306,-8.69545400916195,-10.203766465777218,27.060402900134235
190,-0.5723711071851435,1.0153198961698673,0.6629260181385742,-28.291368274630845,18.653827011376396,25.99160592202216
200,-0.5210950561213928,1.024546735399081,0.6800202068120411,-22.563510515774052,28.85415821854135,33.87300862853314
210,-0.5150922115636255,0.991167840300594,0.7116547820563687,-14.259808278189878,42.38165688490691,40.114059097707646
220,-0.5114590773022413,0.938151170468164,0.6670009645126467,-30.421012109461113,51.367535413243594,30.455098707087867
230,-0.5800220041318749,0.8124215000565422,0.7504022871731618,-43.40039562371604,60.159540103955244,15.345004908479359
240,-0.6962629596555882,0.6311775604061942,0.9317579508692732,2.132147509344514,34.668744739907034,-1.2258606348514731
250,-0.6948212334575177,0.7148069764320175,0.7989137508009235,30.622305428526914,24.090785868397063,6.643516195567047
260,-0.7675491816407355,0.8234971136688163,0.5750014724863908,27.95498057882729,24.293859540609063,13.575981220166318
270,-0.6692967639123448,0.3073695946944211,1.1987984914695151,25.03117576055441,6.80782003528793,-19.380480215181397
280,-1.0060453603951536,1.1263664253677945,1.273076891678712,35.468832571453866,3.586537334922586,-2.917121051687218
290,-0.4047226890596776,1.0420303607625974,0.9839116203481809,-3.300954690077706,-1.8124457045726898,-45.303459548018104
300,-0.596446895756325,1.2643254640761186,0.7070681470057774,36.50934645358797,-7.270215488744937,2.2141101305792583
310,-0.14721729888070997,0.7600289049588117,1.0714799974987075,26.505991492864506,-10.287833197153931,-7.2542503639442755
320,-0.5884645301925981,0.2527673551982693,0.6377849127799238,-67.00258937853305,-3.3124420967419526,-41.22055646601529
330,-0.807986517131693,0.603587198806973,0.8612423579656863,-46.896062437686666,2.1881081127764173,3.958784559929973
340,-0.6262763061032933,0.733572925653994,0.620124988013533,-7.577705151729612,0.8126636984471141,-0.7485504689110032
350,-0.8539558773873135,0.8253721315094408,0.5530387211940719,26.28506082198198,-1.588586916525112,8.802067557082564
360,-0.8977276017965553,0.8682993595623054,0.7906984396339863,32.75285952425401,0.8041467260737248,0.4832201965345197
370,-0.8029931283909233,0.8479074132851835,0.4101107709545075,11.023146175596596,4.36035006713022,-12.346089634064848
380,-0.9110752527355878,1.1014264287873168,0.9127926348998364,26.87704083189007,2.209025451945954,6.077351929459079
390,-0.7376925904741036,1.4748774518333754,1.2682417034921079,45.67317267633095,1.1281761221906228,18.085358179485596
400,-0.7720559276783813,0.8658250727997755,1.3231106940350676,43.18675090188882,11.034399864113931,3.679786508017985
410,-0.6568246190741884,0.7618151855658885,0.5444802803975357,32.91456213933687,11.225009958796718,7.231320429308284
420,-0.7127486442533333,1.2063139511530132,0.8652128517331684,31.331740063663776,-4.110792095948953,9.739720456448271
430,-0.6118145885372148,1.1196431201340082,0.7540925148997102,-3.8380731289886154,6.448210539111576,-10.394084581589174
440,-0.46002065274105286,0.8853062427035374,0.8870751571780905,-7.7710562889499535,14.344289337474766,-20.577399824110195
450,-0.6696015302025974,0.9356650853635956,1.0656430494464382,1.830418240610476,5.689829328282238,-13.902858229112978
460,-0.7605908421731121,0.9573166760304743,0.9465004075041585,0.4430558396254869,0.34093057775671354,-17.228174182679556
470,-0.9635577981323674,1.0783376715225128,0.8557218408847213,-8.614514678553522,-57.20806999458685,9.702646911453964
480,-0.6668665327795859,0.9964881040972602,0.7368031647464027,-8.522343218963966,-53.251946439319056,30.92330254146516
490,-0.6021218502138105,0.9730712208982407,0.7014616854874466,-15.145572477711104,-37.57175616851199,30.570188205367508
500,-0.641764129379165,0.9608522864230693,0.7367249726380967,-27.66739708495951,-25.133620242054675,20.361213299145316
510,-0.6729964370576713,0.9414706929283942,0.7336395459813777,-35.67339829509599,-15.039750366574605,15.19025673027154
520,-0.5467603808591964,0.8496037003852798,0.6384720115945896,-41.68578137331446,9.061417332045359,23.655507801373943
530,-0.47638218801781046,0.6779489434886817,0.47931812507452964,-42.456957703383,38.2287656046566,26.879051011489977
540,-0.4332501916403902,0.5640627500925385,0.45009782451313957,-54.4438118322485,55.28745354493978,7.082317906467927
550,-0.44471826315761914,0.35834021482157397,0.4321993715536416,-58.528377035458114,72.43059087306537,-17.81996048023246
560,-1.3625315824728979,0.29217232020205036,1.3577730355378466,-63.55956158970015,46.18154155255888,-55.81174272550038
570,-1.6459889994233952,0.3907152192066808,1.248835289276369,-11.79949209644764,-51.348141180385774,-8.314362238582818
580,-1.3316905692700762,1.010259481402156,1.8712621177849982,136.96553960382928,-24.44225370685532,24.789274125182093
590,-1.7148853198182556,1.6571028013577997,2.10816118315891,129.81032131951787,-6.629888953736053,16.39716308415514
600,-0.6135534826185665,0.5514488471931542,0.7013405738080076,12.498951002041151,-1.0592807147805483,-59.903794760220144
610,-0.692991768259799,0.7162392908889164,0.2693230264799846,-39.51973216074105,11.043819916513174,-53.44930663726454
620,-0.833162315785567,0.6983847484161483,0.8006680493114401,19.20213908031106,-2.7172602641795267,-15.375012172144896
630,-0.6254028039783637,0.6409521310742372,0.7102876858037905,-0.2693210421308656,1.703985008804019,-7.56781660895747
640,-0.7948797626527129,0.8290889184658451,0.7485174764671362,-4.469003852441235,-0.6569627515067068,-9.807710334377358
650,-0.7746487669501465,0.7989327086518715,0.7662308894963537,-8.265771978491157,-1.37272786870281,-13.320873398597106
660,-0.7545275999493231,0.79455027669306,0.7801879944638963,-8.488005534464499,-4.698712641936703,-9.05500834737872
670,-0.7442986686871145,0.802805017235678,0.7945740558645962,-1.9228785832211581,-3.9531327254706423,2.9415707373838393
680,-0.7607753754424728,0.7918995077099705,0.7755088128017884,6.174623494473364,-0.9384795818874965,15.42281026038362
690,-0.7669818462117463,0.8106626208177188,0.7669299741953434,2.8415922282174346,-1.3527720546394137,4.371230239127418
700,-0.7484729555450466,0.830517141322874,0.772422607345364,1.1142423720968475,0.8065303128031136,-3.215447335505278
710,-0.7434998533378195,0.8316260198316543,0.7838986480577799,-1.8164517246608678,-4.184441716141966,-9.213757844059154
720,-0.752272607629118,0.8070376183987683,0.7716122628993489,3.3091580313505995,-3.540466228508946,-5.422559957900374
730,-0.7338644316444847,0.8277222250834153,0.7987875158114689,6.2995399524189395,-6.696328849864248,-3.024317259316529
740,-0.7369879643697007,0.8308567344286846,0.783071853493475,8.83854976629725,-4.201318844570668,3.1633779918417204
750,-0.7994544714579372,0.7811382937540329,0.7444752336458754,5.3454400855271516,0.004422311088908892,3.4620364181213352
760,-0.7293309587987815,0.8429090206066736,0.8099017797893494,4.780219809517125,3.3191977439189517,2.7452300401559997
770,-0.7546372456186117,0.8152367357416718,0.770851066287267,1.7242439974880812,1.6641064207545313,-0.6665378479916303
780,-0.7247845445312878,0.8417010642098596,0.7979145186466052,0.38324613469978075,1.6850439795925993,-1.0914882028201414
790,-0.7454295367691648,0.826367798934858,0.7820281046317901,-2.6710875602728743,-3.180672443171852,-3.434212877989879
800,-0.7228767686635819,0.8534411200223826,0.8106006721933773,0.7460561863724474,-0.6647735194571136,1.6625399194988835
810,-0.7528927729988631,0.8228409029400502,0.7814062985504518,-0.6923576559143123,0.0664541846529425,1.981099564404272
820,-0.7650598519169827,0.8096754225358924,0.7668915074906357,1.8551476260073154,4.3822798743536495,3.7034131334940144
830,-0.744716348510829,0.8317963718710234,0.7853445880022062,-1.1885463649330057,3.2040099032322513,0.7995220397953484
840,-0.7674550725642959,0.8134721846282187,0.7741651336525718,-1.4907769894889968,1.5643873653825948,0.23309923828283696
850,-0.750530548999077,0.8362717837133294,0.7830880849264915,-0.14977466016563357,-0.834194137007864,0.5285006005783299
860,-0.7027691584226752,0.8743883526283956,0.8236698719041504,-0.7802980904557999,-2.3287350015199064,-1.054827812496686
870,-0.7476750045690614,0.8301432436450239,0.7816758736018113,-1.7609394285416422,-2.5654532390078595,-3.55763536621183
880,-0.7144561232895319,0.8581835182052423,0.8143899198676519,-0.6041839661626467,0.08930939073428712,-2.906921800235139
890,-0.7604096216947828,0.8121446453476574,0.7697536831786137,1.7918726141609982,1.6535830958347109,-0.08781098089564932
900,-0.7811931526733147,0.7937700456106784,0.7559605779433299,2.283707437205294,-0.6159892410151951,0.6436885185987195
910,-0.7709089698703399,0.8125860798146586,0.7679156712948555,3.4952425531419653,0.8277885448293967,2.844113911600031
920,-0.774264975357124,0.7987226758546458,0.7493663902900155,-5.712313860850323,-4.11575244194171,-3.988286086088638
930,-0.7453205208058635,0.8241403335291888,0.7767020647636095,1.5042645071565444,2.0035913808166956,2.0463012633139517
940,-0.7647590416733488,0.8141513583561271,0.7671682172327567,2.342211351630907,1.450475039155915,2.214461135024947
950,-0.7693703110692909,0.8228204838283822,0.7684382674747,2.5462438965954615,0.9365759050373443,1.3005893433503313
960,-0.7654763043827852,0.8228876144119782,0.7660889688201847,3.9495191668606027,1.3214169045967088,1.964279607648925
970,-0.7591687833260251,0.812840721898234,0.7580741215184259,1.174226989737705,-0.364322877624798,0.538622682044774
980,-0.7254991288514814,0.8423086375267417,0.799240942234788,-6.861949847206774,-7.401494152069549,-5.63632765498791
990,-0.7663328823543111,0.8099728989969296,0.7682944743572436,-0.6649650675565064,-1.5074172761747557,0.6944673842828544
1000,-0.7417058707409873,0.8345548534930067,0.7913529892591106,2.66124587653582,0.4672828004341635,3.8794340205199793
1010,-0.7568659743024877,0.8302732251196554,0.767002770144323,6.497290883244723,5.628960543770524,8.356105164381868
1020,-0.7435544648751619,0.8384529345649027,0.7903151507312015,-1.3292138995119216,-0.6611914937396117,-0.6083184078720107
1030,-0.7728479225230229,0.8199962113539635,0.7688610558843714,-2.4362593841932885,0.003930974461682002,-4.06521873198719
1040,-0.7303812558920256,0.8572536360448274,0.8144458615058813,-1.6258878624406279,-0.8723068952033506,-3.336628294254022
1050,-0.7389473878485704,0.8429012042418943,0.792666137385716,0.09364347436605702,0.5285890574343887,-1.3024346745900894
1060,-0.7544944502997546,0.8243377101541394,0.7728434114442357,-3.456948521587273,-0.7313495359442426,-3.2154706606185766
1070,-0.7528648341485109,0.8195867057349749,0.7912242385981342,-3.5756937651507217,1.0277437084362269,-0.6574444360170482
1080,-0.7379473260842321,0.8403803252735335,0.7960320654278971,-0.8551921748452567,1.5288472874166845,2.7458011402496156
1090,-0.7534790840658752,0.8280576394098478,0.7779480817727283,-1.6475020755111016,-1.127315995528305,1.4699181831660328
1100,-0.7527031963244536,0.8267846443698631,0.7882056608531381,-0.9607506862144188,-0.14337816272767945,1.2071227179356767
1110,-0.7645631945139973,0.8097289054082851,0.767006951225114,-1.8456646516378565,-0.9295868548110882,-0.4466469768164818
1120,-0.7513027711093787,0.8285625366951942,0.7765650672353691,-0.7391460135370667,0.289340754258679,0.4964509485938418
1130,-0.7502171585025772,0.8313919243526917,0.7829489618489175,1.2778158548004934,0.7419736018166363,0.4238811346917368
1140,-0.7635900384092279,0.8181598019403724,0.7801845209253792,-2.436373908651506,-1.774772669808325,-3.6952331144901462
1150,-0.7687444315037119,0.8110619639993725,0.7717996003461561,-0.8007352930483074,0.7803407744142009,-1.1203151284764927
1160,-0.7426437262733339,0.8245683531737958,0.7908711847745566,0.4211976707800853,2.3154522268801196,1.0530242148449995
1170,-0.7542615400865381,0.818671260401296,0.7794811177046721,-1.8056595595920213,-0.4404496015745133,-0.4172756661178409
1180,-0.7719730871003188,0.8083111767934035,0.7609761082839593,-2.011389878520501,-1.687525329894659,-1.5352738845802318
1190,-0.7525601038707863,0.8289389427985407,0.782383063559612,-2.0765441056860037,-1.0329422197167542,-0.800684721331691
1200,-0.7740877651682516,0.7939582832423522,0.7667258822079291,-2.820262958758097,0.06472495915114829,1.7084619525587823
1210,-0.7349900010822796,0.8299085676602087,0.8037472319689453,-1.2696025480146464,-0.8616908327422146,3.1623749118504225
1220,-0.7300742586527337,0.838000905307549,0.8070426473807993,1.76469736260634,0.730487968714521,5.667744741022223
1230,-0.7630196555136308,0.8191245676521473,0.7776090274756133,-0.06083061185196037,-2.0338012952829536,2.39088863361144
1240,-0.7578941310492486,0.8204910614792986,0.7762116656755398,2.922812950984696,2.0408040612544607,4.294369282831063
1250,-0.7864541733314312,0.7977885400850814,0.7567761242426371,-0.9085244059993661,-1.3136331512604102,-0.6906794883878662
1260,-0.7682756176876491,0.8158800883873786,0.7764405876939571,-3.4497399250632004,-3.0878501163649394,-2.9720989506363162
1270,-0.7592443768856367,0.820757633752814,0.7781931938723193,-3.574263096784904,-0.8525607916350244,-1.064098702325564
1280,-0.7624153113665603,0.8143014308335977,0.7784736513617515,-0.822091270840231,1.1720243854525108,1.0459579852284202
1290,-0.7310427006771848,0.8447268754974858,0.8083783710252034,-1.5759245130342068,-0.35676921058752553,-1.5769057356515939
1300,-0.7369915486839103,0.8337578254386193,0.8033989688298777,-3.4586187983084984,-3.4651532521200594,-3.7091916993612966
1310,-0.7732312404760405,0.7987526058507035,0.7633501650047343,5.071277014439282,1.9263151414728183,5.712220507226238
1320,-0.7414782112265345,0.8510702535825639,0.802492331000153,3.8487225175995707,0.9234020141429486,3.7022644566511844
1330,-0.7621264344167021,0.8235533863414058,0.7744659202668472,1.428443796025005,-0.11603392244472471,0.6559354374653465
1340,-0.7641563007990113,0.8153473593899317,0.7614667381222735,-1.5919637894195227,-1.515332067425832,-2.5873094863188024
1350,-0.7613169919948782,0.8171876112852339,0.7688146899992088,-1.4596742917096115,-0.48272764959505227,-2.627129851906436
1360,-0.7501475159431691,0.8282332230078534,0.7932871084309394,-4.170993580158975,-3.031636228753693,-4.475735249919902
1370,-0.7493976254466572,0.8300620666335649,0.7893290216382826,-5.258884358985103,-4.237619438747158,-4.180749202100519
1380,-0.731995783507683,0.8459182863694834,0.8012991636972846,-6.097716548237298,-3.416675135045269,-4.2717465242224435
1390,-0.7360636035619095,0.8415912584067589,0.8101909614269662,-2.2108141091821727,0.7702364049348592,-0.7389118338784983
1400,-0.7477152868500659,0.8161211876424596,0.7951895278154567,-3.774053972894415,-1.8287890349725142,-2.363028722446656
1410,-0.7825157983143091,0.785940509691234,0.7567931070196298,0.7590319645510769,1.6134246217202048,1.5276999273408411
1420,-0.7234243084852754,0.8497838122412054,0.8167263339583777,0.9146000564063744,1.7471876671404112,1.6371338248826297
1430,-0.750646453980663,0.8151926135111532,0.7875527554294103,-1.883230197829441,-1.8877616321437307,-0.9266434872308228
1440,-0.7534157055828565,0.8250440734046992,0.7868259317829959,-0.25148134852623133,-0.11317124747648202,0.8706271173666846
1450,-0.7526676057626486,0.82083896721447,0.7920698147199201,-1.7124801185148806,-1.2209095320061287,-0.245650755307109
1460,-0.734723107926235,0.8363728307130603,0.8031738424573808,2.9231496634701046,2.5254066905250756,3.147997293057819
1470,-0.7401529135212513,0.8293635237757954,0.7868132328468053,3.1508245627974465,3.1258774194373804,3.7003703707024367
1480,-0.7787658376908091,0.7963099311983034,0.7580083562099345,2.40638107906,-0.3800966731863161,0.86255454251848
1490,-0.7708041861711816,0.799159579976668,0.7563102326103076,0.2911211849290489,-1.624514183205867,-1.078057553477818
1500,-0.7622462497897169,0.8030411163485952,0.7712228491844978,1.8686866287109716,1.0348914643804104,0.804431135471887
1510,-0.7527632298099812,0.816856064655907,0.7789960791601495,0.32982828814962395,0.014804301700465927,-0.13472871432168904
1520,-0.7567678882833301,0.8138847745653859,0.7818217046735066,2.3942077446597345,2.2774314495584367,2.667895392067805
1530,-0.7690167552006837,0.8063523358659666,0.7736907999871564,0.03383557189266906,0.9103130608055858,0.1051753017801128
1540,-0.7612116672491431,0.8182860001000398,0.7780067590620469,2.0764632510622514,4.2214558481851965,1.4894567959180167
1550,-0.7398978362459026,0.8382662414508213,0.8003314499995073,1.1265193388725796,1.7795021213967006,0.9026239602927899
1560,-0.7713794934508494,0.806985247573789,0.7687383634520534,1.0435959667479582,-0.939080793567105,0.9811165049365578
1570,-0.7319254999353935,0.8344424165928951,0.7940897766150634,1.8800304129754024,-2.441560953671549,0.7734663219335345
1580,-0.7588759906112577,0.8196979006312916,0.7872830113369698,-1.3840967203322085,-4.389025293330043,-2.005296108214118
1590,-0.7590953951994432,0.8120590233237646,0.7775801752515477,-0.4592276432867568,1.834344304095754,0.4151250621929594
1600,-0.7462951226725071,0.8191041653754665,0.7817916367197255,-1.0301685324901748,-0.03784792107342061,0.3986843637448798
