time_ms,ax,ay,az,gx,gy,gz
0,-0.6359477917297727,0.9204980331946493,0.9257153012665973,1.425629135090423,0.9766353139835656,1.1712267489468986
10,-0.5976936131748067,0.9474306330097857,0.9650168866616143,-2.5627215272513966,-1.3350881164277897,-2.401363113929799
20,-0.6004207450933439,0.9437281386027417,0.965317932457959,0.12290477292442634,-0.039578210688328314,-0.43509814142119774
30,-0.6096720547674466,0.934052902200039,0.9525104749036566,1.7825338502500874,0.9423127535366991,1.3931911222220943
40,-0.6213753002713605,0.9221555921002333,0.9432301997272221,2.4268112680585303,0.9441244768295867,1.3086512544538582
50,-0.6012327770349611,0.946077896851806,0.9624902580092524,3.8821817476850264,3.575996824952725,3.08161028391338
60,-0.5877244580120171,0.9587535562697301,0.9791296107071357,-1.4029099510379177,-1.375154178819881,-1.9970193526414535
70,-0.6174461911624983,0.9281825683074257,0.9463445820416062,1.5357030268940515,1.3987568502302283,1.5058981425954034
80,-0.6199198758037506,0.920803539849838,0.9398513974032608,0.46445188579831753,-0.9077744853989468,-0.24051827900377987
90,-0.5977399058830757,0.940687060597244,0.9674824176148904,3.3210844931012926,1.0078024640634144,1.294076829600904
100,-0.5847102287658014,0.9696401208104163,0.9857896368781239,1.8515439470502777,-2.130677412401026,-0.8860506357026292
110,-0.6330040213646002,0.9524943225164906,0.938174272816476,-0.6191920902414274,0.17689069140859798,2.8401925557727337
120,-0.683883802329924,1.1713914730505275,0.8154560115650274,-36.8129517647824,3.203304834493285,20.401522435825584
130,-0.7931712399147589,1.3571322389661715,0.8510582630884138,-43.59535644646245,22.45586483295832,92.11822116172016
140,-0.94977522000314,1.2581142194528758,1.3663878560198834,-10.543844980600632,-9.360089063536844,127.42179248785024
150,-0.89251045521126,1.1813193198583738,1.2369552253975462,3.3440365774971177,-53.5398550478549,146.88806647521926
160,-0.6035266204036659,0.8391040219389666,0.7850453426440261,-8.154263346567793,-57.1142090853555,137.7078100247988
170,-0.10657843150133131,0.7765189120673631,0.5606067838993618,-20.72808412463798,66.43778801104638,33.91257540155196
180,-0.30040367288303216,0.9004635616914226,0.897391776364157,-47.211844144699526,116.56781979470246,-19.124483800478416
190,-1.11062194438672,0.8134447243405073,1.5423484629014248,-105.48968802428229,90.10683493490278,-44.582328027982946
200,-1.2790089073322797,1.02704775739338,1.4298793839410469,-46.62387514943039,30.860841673535642,-33.10700427625477
210,-0.6591617590704119,0.7836607053118406,0.7225941590341535,0.6537047724534764,13.463463702021262,2.8003562542598663
220,-0.6241619932589362,0.8506050398559172,1.0150234137599188,5.654334143770725,3.5116866460249225,17.317693410356704
230,-0.614919976522817,1.0142446930882911,0.9619217306907718,29.405691716213145,11.856951930624671,11.926146841331658
240,-0.6734751754046692,1.233729611611875,0.7836353769213157,43.295115633229635,0.7281607636789535,-9.838414996944714
250,-0.7798710149917064,1.3000392749978436,0.6429203416809436,38.22188549374966,-13.93925366076584,-26.85064250776837
260,-0.6399299488857306,0.7440890979957694,1.4018918803861127,34.89348974789879,-31.300244642270933,-45.82245203158432
270,-0.8853921381920116,1.293765583280263,0.453443880281019,29.061347097987312,-11.470919818018011,-10.978246788563885
280,0.10390335912718843,0.9904923145049095,1.1400498398094547,25.9182578161108,-72.15368298677795,-86.88072271815967
290,-0.03259025334556459,0.41055859789973714,1.5242171322461369,-10.846866220502111,-77.49037993482744,-101.42123265981363
300,-0.28237829637196765,0.5457428477197176,0.9733215579009217,18.19158051814716,-68.24529288069043,-81.71140722990764
310,-0.9375702927867603,0.6804854359535862,0.5689515357313286,-6.436158449286134,-38.69214419530295,-44.841867417597214
320,-0.7696672442739286,0.878162031170667,0.8949169336356935,-34.248884067948495,-9.091126154416903,-24.702412427832186
330,-0.8341776444992689,1.106170317262185,0.5505697389568925,-54.02025489029199,6.308738809977804,-2.4556957444963565
340,-1.0649489616415955,0.7667530244161094,0.44605568826166636,-80.17299116879128,19.773226791363463,-16.073562256124486
350,-0.9160276904174764,1.0151587708522611,0.34791777337991614,-15.683201006734002,59.375900715138165,-12.344477559916086
360,-0.5081590028391305,0.4720419679178187,0.6549589450262135,-15.048400995969427,72.93925698658441,-14.547445195791386
370,-0.6053936971349285,0.46691080844929156,0.8679494891157498,-11.428335772006578,40.765439414772,2.020006882143673
380,-1.2669202594164488,0.10666737120031707,-1.08110487411358,13.514837534541678,70.80406086510948,5.661375397726769
390,-0.6637840813449006,0.7687463093917849,0.6239179781302658,23.16508795160426,23.797511743834914,5.408513699095418
400,-0.41925354842336415,0.6033052972958806,1.6667495077884593,15.525451380430004,18.23161188221068,-32.10427574191872
410,-0.5194671194006277,1.0216469008956692,0.9978910745373669,-16.47321813870422,8.688761970686466,2.361262137991294
420,-0.6035295975698163,0.9281066645064577,0.9118028681079859,-6.095827867351737,12.403751068290763,0.2814467426447935
430,-0.6060173323527592,0.911839852052259,0.9691280438043497,4.409913261891939,6.576973023305453,3.7346890663774683
440,-0.6167730000459186,0.908155701876322,1.042798801217598,24.126324666737723,-5.920875357022952,22.535952381973825
450,-0.7643035317202568,1.1211333694957941,1.1343286226426015,31.94026000358375,-30.863531141353043,54.00556476460165
460,-0.9696035372028117,1.2710483841654026,1.2978682409010065,26.433616641636547,-65.65608698270914,101.61264970257666
470,-0.7898831030493685,1.168532234578468,0.9336685110114181,19.55347143701352,-80.44398319906594,107.8286439585232
480,-0.4303064318866395,1.0013793657472145,0.8155964698552187,-6.341431544827661,-79.25427304760319,86.1256347096794
490,-0.17527911987220238,0.7668810542791836,0.5872584421724144,-21.753926356105506,-35.206235034962496,43.38003815069692
500,-0.4678982773985791,0.79803543824676,0.8202836745536045,-87.46749742214698,74.19546929906282,-27.14227319147838
510,-1.197254569756348,0.8842146077884218,1.5430754843846044,-103.9858653811107,28.034422647217376,-29.371991434972955
520,-1.1472036583133967,0.925914160641047,1.3602034117972583,-26.041191438494526,-10.21279726820892,-5.792602008454316
530,-0.5428987345051677,0.8877614755559506,0.9587488105344281,-1.838258186052891,1.521692560862074,-0.331299362818678
540,-0.6230093539771129,0.9355512139847502,1.0083368094825427,2.660379842302458,-7.434635314206923,8.271711147319387
550,-0.6490217551805634,0.9361371039414647,0.9546375585727972,24.908705093672047,-1.070129581376356,-16.247846087997846
560,-0.79736276666838,0.37270291192655114,0.9493871483182907,-30.939447037974798,-10.565653180523018,-72.76385240977797
570,-1.0149484900099588,-0.2229408366385504,1.007443485681421,-121.67404206327728,-4.700852452052977,-71.37549203322935
580,-0.5948230789844229,0.8952657523289256,1.0354779742958724,-64.49994923661413,-10.713106492965432,-72.27403869793162
590,-0.5018173785015222,0.6031777174946997,1.3693662981407841,-14.785420285171067,-11.082648268194989,-64.86883339756126
600,-0.6685454847529821,1.583476421654893,0.8477681694421667,82.19441308306286,11.22059723980618,1.6165784533453986
610,-0.6093546437740907,1.0068922198054777,0.9661777427144672,-29.248787215770676,-2.1883850248305254,-5.73640308906972
620,-0.6188810244180204,0.9528381537892257,0.9473544305459796,-26.780179022274066,-2.682258749434351,-13.983653110464521
630,-0.5888169609340721,0.9579406119467754,0.9741462145491123,-24.940224428943885,-1.9219016782815217,-11.266490632461121
640,-0.621112648736097,0.908739711637598,0.9448028288463987,-18.521779835644672,-2.497120465168458,-3.9519443794659077
650,-0.5835981831817743,0.9296545416446818,0.9796140114080361,-2.7808760221739774,1.1349295543024742,8.748366230870692
660,-0.618023176001108,0.940015103392149,0.9462767131553796,1.382192310886012,-1.2030968687135215,-2.456749568328051
670,-0.6185046738075424,0.9196051749501423,0.950101163077546,0.1360726220816384,-0.3033797541156438,-6.7432361569463355
680,-0.5978269499353446,0.9399110846725767,0.9635367690785545,1.2596714620648362,-3.637971357675066,-7.593946314551498
690,-0.6010779763398072,0.9364530435111745,0.9621069533220906,4.423346184056166,-1.5560289803350493,-1.1561224950626727
700,-0.5944626043309095,0.9468052283623017,0.9728251089057067,2.7841290338522113,-1.2636408749295172,1.4209295458101945
710,-0.6142432138124796,0.9296255996973385,0.9537246323759225,7.320610903003054,3.797895517127115,4.805838287482429
720,-0.5957186022313218,0.9612265095185527,0.9674629961109495,1.584739177791368,-0.28932343364096424,-2.6233346971741085
730,-0.592291894347484,0.9655445015556233,0.9650503907489416,-1.8371965596231712,-2.4952452238385927,-4.488790177718409
740,-0.6176554033744506,0.9321546016538146,0.943184720986202,-1.251139060791195,-0.9702412687735126,-1.8397549324979
750,-0.5761336258319584,0.9616572737730285,0.9838319363406032,-2.983701706608058,0.11922724863770062,0.7391208224414989
760,-0.5933896722157284,0.9574713942949404,0.9688555502228466,0.25408088831397313,0.3507478298798318,0.10817129568821682
770,-0.6002472070627783,0.9406163334822326,0.959780420825012,0.33223376747677236,-1.5411175545629008,-2.5568341405746158
780,-0.6085416294325406,0.9358379951371881,0.9595906921323666,-0.4963644331028729,-2.11401509540494,-1.8923236425194978
790,-0.6027486591952875,0.9508664503147602,0.9622701314834888,1.4822802166285305,0.5628057121146888,1.0695393032866922
800,-0.6110885482515601,0.9383150429486539,0.953387690286668,1.3636675714856543,0.919954645282147,1.0908099330488863
810,-0.5817623521008178,0.9627211990038509,0.9826410070778722,3.1296164626563456,2.0347221285368167,1.1825117988750378
820,-0.6401100967635204,0.8999625817246533,0.9252730565861857,-1.1274825636930552,-1.9327273622069179,-2.865406494254202
830,-0.6358242265004387,0.9038456451229866,0.9276250113355247,1.9349639793694746,0.18618401942492602,0.0540808545582292
840,-0.607176685926982,0.9322418240316118,0.9521973661347507,2.053284436911777,-0.3006680034977199,-0.3551198256066498
850,-0.6178164107346701,0.93140222523696,0.9439339729634781,1.7333596879388882,-0.2696468894112613,-0.5084048160510349
860,-0.6147354007533197,0.9350483508947255,0.9540888394590668,5.413957259507349,4.650597840874632,2.756863980762831
870,-0.6171862013732395,0.9268857208787026,0.9474361054297769,2.0018374905753498,2.4467374007702984,0.8338928850667182
880,-0.586475422595148,0.9692336990824274,0.981773807789136,1.7563696932690345,2.3814055641548455,0.944408744877031
890,-0.618941380243806,0.928920656890694,0.9453034574699997,0.6839502082440535,0.7045254972622305,-1.8663260350953994
900,-0.5961521549740565,0.9460553681609072,0.9659077323692337,-0.3213610647478956,-0.7522926264707819,-2.126977015742103
910,-0.6055611572401632,0.93566666332679,0.9627399466824083,0.008221541981955793,0.35436581431308506,0.877057033899385
920,-0.6194113837044902,0.9259676270065934,0.943478528017134,0.3854324204218753,0.2693120272022019,1.0615718825224418
930,-0.6343336191089389,0.9162258534239376,0.926630073748254,0.4334650186041267,-0.39107794577123184,-1.5650780818904544
940,-0.6119398188276741,0.9343868198836653,0.9485525196670557,-0.8389806805458918,0.001994696967097198,-1.1184729267966416
950,-0.6156216749436695,0.9324342435499322,0.9513950893254469,0.21758264362219404,-0.47706891634661963,-0.4925583894097132
960,-0.5859885272585108,0.9567905881361358,0.976046868202003,1.3801733035262562,1.2708913953068666,0.7392738757615418
970,-0.6443746746237089,0.9074896499049804,0.9162020060816867,0.14802941273540027,1.2116283253347777,1.3958620880303227
980,-0.6108520689645748,0.9391123179639612,0.9542130846775597,-4.485957319272713,-3.3253267868645735,-3.2433062158006396
990,-0.6211592358384996,0.9240035703547025,0.9397074698696448,-2.333287164141045,-1.264403083273106,-1.1092026909138069
1000,-0.6022447544312983,0.9400915205508895,0.9603480007318353,1.0135848621104722,1.9548353554842568,1.5541324101370868
1010,-0.5869954036031796,0.955390147659967,0.9779110350154355,-2.244866314151336,-1.2653008701784934,-1.9607514815851554
1020,-0.6040329249131775,0.9382243633691417,0.9576297051527976,0.4126122070734066,0.06616113780079669,-0.4999990099523383
1030,-0.6105645075354155,0.9318239612063038,0.9523418521989667,2.9293506574361263,1.5051476778944683,0.9282499876673507
1040,-0.6148394163194005,0.9337328158525385,0.9519225190592141,1.4557555542300975,1.3849829575832233,-0.4031651126195843
1050,-0.5922757459246251,0.9549918658677437,0.9701216231319372,-3.1663363574079604,-2.1828703151065607,-4.42259006554584
