time_ms,ax,ay,az,gx,gy,gz
0,-0.7075328674293471,0.4985927755075423,0.6000731816111058,-1.272110684073807,-1.6191575632141546,-0.593542877258704
10,-0.7199514672909035,0.49409357629783407,0.5919911614782111,1.6151609159455957,1.3979311320887395,1.663716305422119
20,-0.7049719633593955,0.5068439236244213,0.6085520332574788,-1.9408301491885298,-1.2814631162237502,-2.3862952285207655
30,-0.7312608920817866,0.4810735718413537,0.5860664512535806,-0.7523694245979269,-1.4060075140241917,-1.5451582624385325
40,-0.7189819412406467,0.49740496396294076,0.5900065020871513,-1.4833839603719876,-1.206930622586815,-1.1988167592358525
50,-0.7144336812445051,0.5006403358093928,0.5996228943050375,1.1487988070256663,0.5250299344644709,0.4274840219897521
60,-0.7269587969968221,0.4891646397932496,0.5795945710833341,0.8696584997544543,1.2723700951658334,0.9485729161131744
70,-0.740843128157447,0.472069232731463,0.5668789958330424,0.8954054926117219,1.9148310504176196,1.6730081160916785
80,-0.7119981799579453,0.49811072721336846,0.5992339936375747,-1.7523779457305118,-1.6524823975405274,-2.0866805495461946
90,-0.710324539958673,0.5026315717251143,0.6028027766118617,0.8131101486351853,0.9962951926528019,0.23777935168997189
100,-0.7228426882890788,0.4897780559647828,0.584858795207971,-1.1410690078596835,-0.30106635483711014,-1.7661755005878494
110,-0.7038004857005745,0.5096661120477238,0.6035952502449746,-0.5249608370423989,-0.03932890084142826,-0.90551613794367
120,-0.7228870722553457,0.48926935299050717,0.5903318664870786,-2.53757945279597,-3.293269138141673,-3.7357207704978324
130,-0.7141369846387365,0.4931790702037352,0.5982895951123204,0.5595128924065826,-0.53877902012807,-1.3476358727412734
140,-0.7158761982891869,0.4937903630660083,0.5950269419751043,0.436032125806891,-0.0575096443887614,-0.8191421474017744
150,-0.7193840015836803,0.49158740770036924,0.5921307752641936,-0.2084300757817463,0.006606373888918521,-0.19260918871738358
160,-0.7049440189099495,0.5073421184703661,0.6079311596405647,0.4383802087881252,-0.8675457493211148,0.43164571904526094
170,-0.7125657745116228,0.5004839896720698,0.6068427401080352,1.1513331728157494,-1.7769109455808234,-0.02500092495726669
180,-0.7520090215763575,0.4728199986591686,0.570846603717271,3.726126958108633,-4.4719772330781,-0.052902313856044825
190,-0.7352535078407597,0.5482028901220135,0.6086579248080667,-5.224913760157432,-6.317305327005096,0.45859762305208174
200,-0.7763709654784691,0.5482762138145084,0.5940827924380131,-25.14845292993688,-9.412971275129863,-2.509110109216993
210,-0.9386431607406345,0.7674650105295548,0.6703900474885209,-49.25590859658141,-91.56962510659417,93.70248153174649
220,-0.7153193993693062,0.5714052438716184,0.5117549306833982,-47.570747859043884,-83.04677669909945,100.43031357317008
230,-0.5834648201381204,0.4986581863528207,0.45936774371050265,-55.02783837440026,-62.09774303795885,89.6731377783814
240,-0.44383109826764783,0.5482865420438476,0.377836684879923,-50.15066537424294,-24.241778191905095,84.0866634975998
250,-0.4034219278092942,0.5059890382378653,0.3707038526941297,-40.84235925696177,18.671338595875316,80.2979904501332
260,-0.543308610864475,0.5164298519158717,0.5129616352820476,-36.360376381531125,80.51864738968463,50.30045624505606
270,-0.5805771538602079,0.4811429327224765,0.5212614373476224,-36.61548568564062,94.28824755967653,36.01369771758578
280,-0.6259836736904828,0.3675196648900954,0.5877204263365202,-34.68091536089327,99.50566264817024,13.881428102927247
290,-0.9516477828281057,0.18129126616133867,0.7466656983142238,-34.215332341579796,83.52579836304305,-29.1809486356249
300,-1.2118922369993415,0.9083712428430646,-0.012682983264232082,-1.884179572447243,-0.3037520265301349,-29.279948115150425
310,-0.9046436456539912,0.6790664775423948,0.24252990559896098,33.66747068559796,-26.622603136264388,-24.736171325338677
320,-0.49963629043865837,0.9696003306636805,0.8731450459755373,36.93707025841696,-38.450700050508644,-12.108466268284307
330,-0.5136257987249361,0.014717071127087783,0.5011064608393287,-17.887686891344888,-56.9067775721486,-47.83008134307695
340,-0.8182708761959288,0.700971809317538,0.20415108517039318,7.666266487182848,-76.38393649446442,-54.605646819744045
350,-0.7661280218937934,1.1439963863927143,1.042629334175285,-13.955636679137799,-76.95859426128219,-73.61271856406906
360,-0.005656533148972753,0.8103542162746122,1.206975619600605,-32.46439289004351,-72.01874714049552,-92.56188199574439
370,-0.16347947822764847,-0.24276829759848184,0.8641408288300209,-10.094644770656004,-68.38797212534178,-92.07501992952764
380,-0.9827415301696212,0.21743454497928663,0.19106300247397953,7.767896034696728,-47.159972835395564,-69.32298276629541
390,-0.840904151324639,0.4801808831808302,0.5162596951518355,29.276864774225572,-52.09815533061314,-56.18897702287998
400,-0.7949941858351791,0.6743602152589471,0.5981371083966249,-2.1186141483763663,-21.78130076011247,-24.745745590970177
410,-0.6961767523524005,0.5199179847946918,0.6647964339769522,-1.8845237687721044,-1.534357721058716,2.533850778434568
420,-0.6638358742216208,0.4530238686608264,0.7037419493952018,-0.8744379273118825,-3.2734202243621953,4.281744226364614
430,-0.6626585737440701,0.47335945320753076,0.6996183511886508,-3.114612785111502,-4.438026102259289,1.3946598021155687
440,-0.7088991445831967,0.4840090588043162,0.6196314467451964,-54.23519565387115,3.8861908349231555,-8.67380039516306
450,-0.5638119556343193,0.47299558788180585,0.8876731855153527,17.764415550826733,50.4395674703582,-7.20865322679488
460,-0.8043324622533108,0.5919598421028086,0.635888434477931,83.5965391222372,81.06481856230471,-7.105570150874633
470,-0.5915448348800492,0.7891163664466067,1.3980215217737921,77.15716390048077,89.27295413388046,0.8873318528155727
480,-0.8177255152215376,0.7116125548681538,1.196785746892163,79.51295725201933,96.42075179204018,13.78920498614268
490,-0.7155431758621087,0.3485092739926663,0.4998935599185399,78.33458208956645,94.34502670211974,27.181948983281007
500,-0.7366438214045484,0.8488607980557428,0.03969565691011453,49.8281503476361,69.94300513231285,22.697195054565828
510,-0.6213831027337392,0.3503208873656153,0.9228333436725644,35.69883329210417,48.952758410372404,9.868982610404121
520,-0.6515964066499597,0.8958126420256824,0.7668159350334796,-27.588697631080223,47.24942471958418,13.31140871532357
530,-0.698509320710535,0.802977837764143,1.173292374515492,-11.847126845320775,25.388060325460845,5.421311411957532
540,-0.7933033595981819,0.8430772216551942,-0.09023920699592647,30.148822989290675,64.09823330681844,6.8997751579422015
550,-0.7531708851535,0.5282502670359177,0.5155690695756814,-3.9001853484840474,-1.3363106300216758,-5.791043179998798
560,-0.7575078401160396,0.5360151261682589,0.5142732518901085,6.732210355784238,3.439242024823894,2.2384563734026295
570,-0.7256862995772162,0.5896287192576296,0.542828808927473,1.6165321110610535,-0.1862187130753804,1.719017517015076
580,-0.742926052184034,0.5771260820681907,0.5162070777402143,0.2071346926962201,4.173761253526488,5.089200131966434
590,-0.7541237916728222,0.5617659591850244,0.49948964366228477,-3.899207843775576,0.5244028663415958,0.07337980261344068
600,-0.7544808233594428,0.5618550333900038,0.5165376911148979,3.6913506686387825,-3.4415969987120927,-3.4305104999651044
610,-0.7670292905022573,0.5558299869124328,0.5001010805182957,8.809735013807595,-2.2597766976106892,0.48402845920562243
620,-0.7613593872357427,0.578639323368103,0.5067079825265602,-1.1114416014407746,-5.254204695124976,0.1604033490096537
630,-0.7043365890793056,0.5496948468667359,0.6432823811758334,-33.793619926313454,-20.07273559001953,-7.654789694310617
640,-0.7568072668397293,0.5589269574030657,0.5411648017890706,-37.56200263121469,-58.721277506558565,9.843658047182286
650,-0.6937031156962915,0.6308365356303791,0.5513912084664229,-52.71581770903984,-78.01455638388398,23.12516679518524
660,-0.5954163434128804,0.6721120359527343,0.48571096253777096,-58.312715426891124,-57.47198788045233,21.07607716238542
670,-0.6117600700151422,0.6001250278209751,0.5288307101518648,-67.6705664075219,-42.33840985486147,19.873436518261304
680,-0.594388804853419,0.6047134259764472,0.5511664208988196,-65.62208207071346,-28.190465776888026,23.161981317924315
690,-0.6356899344197308,0.5029896522611386,0.521859248018268,-66.51069026337422,-5.875870095550537,7.195254428737819
700,-0.7904462493306816,0.3430319202442951,0.5568201725111867,-68.62495706097907,1.137975500544408,-23.159690119159002
710,-0.8361664919748597,0.44934803012687113,0.5366803414520084,-47.53688044264926,-15.415938248963348,-30.80108104019375
720,-0.7585851201576306,0.3820831670528713,0.534240143452094,-16.390466225634338,-5.753595006966099,-9.834393004142406
730,-0.7222894315224997,0.43656182871296423,0.5882438183167462,15.696117915491403,-9.92345591655066,6.114786245740677
740,-0.7813651323833197,0.6114754609880533,0.5966738968450629,96.27595184960224,6.151378700926692,11.4670488269641
750,-0.7674183694789514,0.053942444217327856,-0.08251971039916918,75.03179228928367,15.882535569299273,-1.2544653289246988
760,-1.041110419152496,1.0986224405240699,1.14643368736609,91.06834245896883,17.35338579840362,-24.321348171451746
770,-0.5690138747640214,0.8484834349136658,1.2041343693424897,123.42610331716918,24.245820370475446,-52.34853063979435
780,-0.9478040981779567,1.2152409118631606,1.4133310159476902,114.93012360841873,8.538148681524751,-50.88727729382957
790,-0.6806250933815892,0.32147223526126123,0.7035079598416049,-26.714545913372078,6.083043908222245,28.773726304390685
800,-0.6640239685432351,0.8306909595650969,0.778896779002844,21.63075306099622,2.9935480543852218,1.5733781964342661
810,-0.7230250827502118,0.6540740757004683,0.5710663615980438,-10.097661114927128,7.349552211799515,-24.06767666989936
820,-0.7560914812223305,0.5738150512874696,0.5658622948955441,-31.052000379309437,10.750015473791517,-32.15516238472228
830,-0.7199825969355921,0.5289034077579875,0.6127115732976138,-40.25854921959656,8.921887972843145,-37.24342240365246
840,-0.7271705665370872,0.5152936247390006,0.5925839826241786,-1.1962359792005235,1.154625579540456,5.3547822050461935
850,-0.7177590472068941,0.5473540410698166,0.597806438341969,-1.2165860763584069,-3.2187154490623544,5.547225430670916
860,-0.7045788341614562,0.5644720589443281,0.612838446349931,0.4736873162765121,0.45472315583504547,4.665083438221348
870,-0.7090984453706625,0.5631840660425549,0.6057419052410561,-1.497466028410439,3.051230492246031,0.6337813967338173
880,-0.7355130171618912,0.5294758612437493,0.5806353401528777,-5.964265369919085,3.4745524394189804,-3.7613598552108476
890,-0.7056199571889107,0.5467806915346678,0.607420599293995,-3.1977001985282403,3.9507984443229365,-0.8434513015868044
900,-0.7145571943406304,0.5355061892891539,0.5968307715631591,-3.514514886743912,0.04811878426738048,-0.6826383250769871
910,-0.7246760490877623,0.524440763346281,0.5891598048319643,-3.4995687903817787,0.6350635678958644,1.5424767294536665
920,-0.7338034514609932,0.5210184720854206,0.5838239947474132,-0.9630692516854832,1.7479988627691783,2.537580518116113
930,-0.7071377250226831,0.5473014339133504,0.6025328191183791,-1.1926247148081475,0.5455784649387048,-0.16409266029639635
940,-0.7105665343231857,0.5435635720989208,0.602054030370396,-2.1179882274510744,0.9574814493916274,-1.1369515594444406
950,-0.7257097855401327,0.5262932789014134,0.5820771912266514,-1.656758693135945,0.6199892482350287,0.21715629621789384
960,-0.7186162485973971,0.5404804506200936,0.595816847154001,-3.360774546587621,-0.27277283310514977,-0.49513985211132194
970,-0.6983515322152887,0.5604415340120944,0.6151165788838039,-4.284075195228326,-0.6670239398546097,-2.7368962592398587
980,-0.7511364937128859,0.5004689229196428,0.5550019913852643,-1.1389551710900985,0.5248596105212426,-1.7123464651263915
990,-0.7067669794722862,0.5425387236626587,0.6008724575126101,0.917644054465179,1.8895142104199376,0.0842588002283653
1000,-0.7286123257599099,0.5262823156674273,0.5860371515006373,-0.548563845555549,0.3992826000800336,-0.10844773999835372
1010,-0.7501041216139294,0.5015967223009835,0.559926462888584,-3.1027874755231846,-1.157574322204744,-2.0272535486906076
1020,-0.733636431245853,0.5192959073921106,0.5725573350562726,-2.2482826832657947,0.0912899390373696,-1.6383665276040578
1030,-0.7270164118131363,0.5233312427324739,0.5852257933825107,-2.1219626420550544,1.3605898212682337,-2.615777940920316
1040,-0.7142574496211977,0.5251113081890358,0.5980021214801173,-0.16610762698037895,1.0110689284180767,-0.7900653923409716
1050,-0.7195747989720243,0.5218795918418196,0.5936358997041535,0.5777177945234427,0.45617320081681256,0.7745073739367515
1060,-0.7402922293684927,0.5082100451084263,0.5732481859398525,4.741922321503332,3.9495964915504755,4.665192521849308
1070,-0.7380032008260364,0.5255324617561483,0.5762365256913253,4.595549902153048,5.229941539992115,3.9216895704323145
1080,-0.7193361028769109,0.5253902013865702,0.5940518206741925,0.8245520068804311,2.41456500060754,-0.05511535281385971
1090,-0.747291914617653,0.49856663764840325,0.5617992776788803,0.2732438751790395,-0.013553601386819991,0.1161635926818238
1100,-0.7271909141022889,0.5200534553147393,0.5810244373451624,-0.000382801576474856,-0.9121847895651576,0.7267793618973017
1110,-0.7079895620852511,0.543927025004695,0.6035864534906844,0.6706110757728304,-0.9943592257582949,1.0555893496241433
1120,-0.7387301874892792,0.5152908808598806,0.569292357610963,-0.8511471943704361,-1.2435366187642947,-0.06998173379301417
1130,-0.736630722433227,0.5132679608222072,0.5709604999270687,1.470774402672677,-0.2054631366849191,0.06829244039869364
1140,-0.7334450477812902,0.5167625225422514,0.5794498108599022,3.014843168134524,0.6051687614454895,0.7463506744828445
1150,-0.7175479044254736,0.5286527773186361,0.5967679051041802,1.2122850904680562,0.5924803080029145,-1.1132164999552376
1160,-0.7324588377987336,0.5107171323836266,0.5768864368766293,-1.0674788644046642,-0.8111172489723439,-2.66898095471487
1170,-0.7485353740924273,0.4962886295406877,0.564728587887253,-1.263985872197546,0.6753011174462055,-1.812900049339354
1180,-0.7146168548062861,0.5305391070760974,0.591885447887155,-4.235800760383743,-1.6663782999567054,-5.205811349814946
1190,-0.7054983271110586,0.5395527449087963,0.6044817423640264,-3.9035571643353295,-2.2269282596614515,-5.622117184896507
1200,-0.6937203286734713,0.5441941096799116,0.615005735318548,-1.248410906114254,0.5308275941082116,-1.3587825322506406
1210,-0.7255252333752286,0.5135091766382217,0.5882295792256763,3.02403952105507,1.7851323549179683,3.3745144677647305
1220,-0.7277109605890877,0.5151553104268309,0.583593843105622,1.001122645520974,-0.015981495497027043,0.665600449842839
1230,-0.7386477494588235,0.5059334119264003,0.5734893472443355,2.9686189312221445,1.1932182988510003,-0.2475403400188685
1240,-0.7319480092444993,0.5084104848786631,0.5831157381902544,0.8436568867083645,-1.8040833654515764,-2.763595987269599
1250,-0.7353510608694752,0.5043105428878536,0.5773073946834202,0.24999867721240665,0.14563682461861893,-1.3011195783162686
1260,-0.7310459764334438,0.5093723112935166,0.5815962570727876,1.3385872534386525,1.4484244698151056,1.358651383377706
1270,-0.7450932023708853,0.5005649789634381,0.5666600171932522,0.4302151607426977,2.019809297721837,0.43113482744041437
1280,-0.7097101197916204,0.5316751389844042,0.6028142324239502,-1.8491680268342194,0.336741048289538,-3.0820883527165623
1290,-0.7468298275808406,0.49268597635046696,0.5620290646612986,-1.320360030178739,-1.214173247697195,-1.8380141155862495
1300,-0.741187612246566,0.5030551225688699,0.5677940690781729,-2.3913831047372143,-3.118735283651603,-1.2999408765190257
1310,-0.7224411046757292,0.5187695726314231,0.5887800742013588,0.0857286965137013,-1.1881348772223046,1.751525430400874
1320,-0.7284758433179206,0.5166699532740403,0.5787676180554497,-1.7125241387931938,-2.6571510687347772,-2.8461436779726625
1330,-0.7362862805245735,0.5072228375169237,0.5719989401735163,0.20878656049679134,1.0625603155316328,-0.9096876717469846
1340,-0.7548508900681148,0.48169619033711053,0.5643215709963424,1.3284872714734002,1.3692704560854825,1.3628710340826353
1350,-0.7501966758994872,0.4882396265182429,0.5601748798427794,2.0915034385784925,0.2167102664460605,3.276733611836328
1360,-0.7259909949524915,0.5206014994212624,0.5880470230068194,0.3706142660115396,-1.1407121840634746,1.9997109542814284
1370,-0.7362783042238644,0.507958811438579,0.5738793302026952,-0.6720319717536788,2.2252382069223215,-2.420982637545546
