time_ms,ax,ay,az,gx,gy,gz
0,-0.8413032697543096,0.9619256191276038,0.786041222665991,-4.57090572900524,-2.786175230046357,-0.9779298069752587
10,-0.8611879330045227,0.9449981001141827,0.764409318555052,-0.13654817115638274,-0.014501376301181205,2.2163694352474703
20,-0.8363559766274133,0.9749302640203182,0.790436022620208,-0.2853128761917021,2.2363235544383353,-1.153555512505621
30,-0.8461098930876545,0.9593761169633437,0.788264799897612,-4.573757272901046,-1.880018169232954,-5.023840115120574
40,-0.8415600560619896,0.9629419818502726,0.7913561143734106,-0.31032582286359556,0.4702829972916971,-1.097419638806669
50,-0.8680881480959968,0.9291759526294122,0.7622214399333687,0.7068968038613573,0.31717891753444355,0.5154612846383196
60,-0.8353837186553287,0.9707470071165619,0.7898899171473012,0.41261175361848235,-0.7491884304237838,0.8815884509584389
70,-0.8491425667001358,0.9622674529660579,0.788979066193903,1.423010033760439,1.5726657252293192,3.260853034788793
80,-0.8718188983948194,0.943149253673258,0.7578434581206562,-1.5403536157603397,-0.4460308286890169,-0.9506069409768766
90,-0.8490968985941947,0.9600403846012742,0.7840082748123324,-0.3224630281346646,0.65459285932825,-0.4397797394777197
100,-0.8473712394385714,0.9616794673827386,0.784057850676854,0.27244047889555323,1.6440514145371938,1.1903372384294886
110,-0.8883487150145747,0.9246390081179642,0.7509699172111253,-0.8226500347502568,0.6771956974175499,0.5615158273818057
120,-0.8546698507506606,0.9500329664208484,0.7784158299166426,1.6890343187949544,1.2711812571105296,2.655230851504616
130,-0.8525051582942634,0.9586150294024586,0.7866711587921875,2.4237093235050486,-0.4634482328503393,2.2470678047556762
140,-0.8652283743093919,0.9715854767501548,0.7673342599215007,-9.174153534402201,-4.826258503795052,-2.600391365368175
150,-0.8881431170797861,0.9994760283099597,0.7682073515608867,-27.631584541241292,-7.916588593135936,-12.708182301290686
160,-0.8471777190223643,1.0293600703894201,0.8117806947017973,-49.92655533076709,-7.259076372488066,-14.511328132984897
170,-0.9463158160475889,1.4233617544854154,0.610942991759567,-56.08692413172531,-1.8738101386622945,4.202439727255999
180,-1.0599409104947901,1.0874693095254673,0.898810623134051,-64.15211980758654,4.9738637933578875,39.932046407413665
190,-1.2248575994453026,1.1585555474029248,1.0170068590325776,-44.05335923855657,-33.71097544086017,78.0126029915289
200,-0.1783314743096458,0.8432497463893459,0.47786566166937017,-24.473863499445645,5.826804720715805,58.65843567693005
210,-0.18189987525234275,0.9231114308857946,0.44491007949784556,-29.07360679891266,53.739733643111485,28.935639710867484
220,-0.3418896665745179,0.9904888276655853,0.6367250176123544,-55.06027152176587,87.71512655995171,-4.047113622211426
230,-0.9840758369214128,0.8634508805817744,1.4871952961460089,-68.61817458530999,98.8081356319272,-47.32850398281824
240,-1.8418496545686136,0.29280824977001146,0.2174927331810344,-162.57488599105628,-41.60288878432779,-67.1713455887573
250,-0.7021565815360462,0.7301155496193715,0.7116087157032789,5.989435366765331,31.740305369192434,-25.14764125447442
260,-0.8889764784069271,0.41219060527069046,1.7759172599134565,79.50151774775917,-41.708225892413175,-4.349598823861029
270,-0.8542093614694327,1.0441083790763792,0.8395080071078965,86.67448645795152,-65.9327870374347,-67.22279863246317
280,-0.7636347822635243,1.2385437476636585,0.7188166934843483,-38.754799437926195,-65.21070601613185,-118.27699232362221
290,-0.3019736389684327,0.9435419497969104,1.2713621351342383,110.90630575839673,-103.5371020679961,-118.2848661211542
300,-1.2087120816893027,2.0507062102404032,-0.1867540095311231,113.65835482240031,-57.82781314704751,-51.534497697177756
310,-0.6599195776062358,1.9988619286940472,1.1125346556581173,43.425912096872516,8.04010251086927,10.032256450411953
320,-0.9374050006894712,0.9495030658433209,0.6914694117359058,-65.87413747221197,-12.524600536873505,-35.273142388385075
330,-1.3241740227587577,0.6996668496822465,0.057152512002248426,-68.19121446560735,23.91870498531342,-47.624361544285705
340,-0.8747168719545761,1.046542764428279,1.2275435648292023,24.17173772411791,64.24965371818831,-24.118343991705284
350,-0.8728882525325656,1.0703910518446367,0.40519648008951725,2.9838088761987502,73.62067877684153,22.114452826026355
360,-0.1756970205602242,0.7338238634114078,2.504330564045215,41.615456053044475,52.838237791989926,-2.980931557428609
370,-1.1093106376020214,0.18622385063455,0.36616023825670774,-31.90173298947407,40.49863991174868,14.306402066795659
380,-0.8851096507177576,0.8941537435419631,1.0376309418569205,22.137873192643806,11.451686587633445,19.198364879780282
390,-0.8783537761251947,0.9164049139104896,0.7574181773809318,14.85892222827999,8.13894236327437,15.791315880488899
400,-0.8025308100682477,0.9993452201712796,0.846965898539487,20.205240823679752,8.826088213194634,19.54829841010649
410,-0.8901837998337572,0.9917004615141468,0.9977850416229461,12.845813603034925,0.09598858903904839,18.822989837690923
420,-1.018392409244156,1.0883471207335043,1.0489197189767658,17.156332971886624,-38.39117078625139,34.227910430370486
430,-1.027763194074075,1.2250543963670908,1.009835827061033,16.29364638350836,-70.71159784000034,71.82639942295657
440,-0.3520236384963904,1.021239224533419,0.5399278989984732,-41.0476643193279,1.6547615304543595,43.796541923758056
450,-0.3615190309178845,1.0220045571370895,0.5655644903738779,-58.48492040283063,32.4781174778467,7.35107168914783
460,-0.6665885701257915,0.8996331793232765,0.7979166238796114,-66.82360666087874,59.712840962479554,-28.629221060801818
470,-1.61439260673269,0.890594204946323,0.7116426592313534,-173.81487078644855,-79.43327620878534,-62.43606327580155
480,-0.8017118186839965,1.0187111991673279,0.6067572488749876,-9.948479615535138,9.482920110234296,-38.48212643730066
490,-0.9429648992129668,0.7820020722624208,0.8035398818621108,-31.285963703865356,0.34820903223922073,-25.2354376374122
500,-1.3337420407822342,1.065885029863035,-0.5623277573710902,89.9121866861976,9.579329234229267,-36.83466380125599
510,-0.5202220616044662,1.3529472480566485,1.7347814626525186,37.27151438469184,9.242363004743742,-52.31937891814698
520,-0.7980696466738179,1.0509656368660483,0.8179670149393303,99.72207516917977,-9.08001724921858,-61.39492736112593
530,-0.44687867872278647,1.6858365399289352,1.0996706951087132,25.091181179604913,1.1636171315860193,-21.28778751938423
540,-0.7540441442269097,1.755387625198299,0.7587639973431712,23.04607680996853,3.66689027418574,-2.785310089872858
550,-0.7675109922620683,1.1559673918541098,0.8703343033310517,-16.51130556873774,0.4205617420797896,-12.674244770504556
560,-0.8214310042950161,0.9078042622106095,0.8254372606109917,-10.334100583947746,-1.9485543938606955,-9.186950533627963
570,-0.846481705593159,0.8860145407240743,0.7842566642427002,-1.8423079027679259,-3.0662633588914723,-0.3561827036121088
580,-0.829843518223646,0.921591206104672,0.8155480940707258,6.092301114059894,0.11108419395683566,7.54050319385093
590,-0.8473366934178518,0.9173403968101302,0.7990697286243245,7.624696147145587,1.3591630908652395,8.279185199190648
600,-0.855209343159257,0.9100508944181719,0.7914572394236705,3.2780794201769514,-0.5359528880846616,4.310410761684788
610,-0.8316901190173482,0.9393819673718913,0.8154863569387427,4.5518686417366165,1.6846860575017224,4.835477825583115
620,-0.8408382792809611,0.9276253903792318,0.8052005645273003,7.046243561158759,0.9638057540051058,-0.14725257840531267
630,-0.8836685294088685,0.8804663634113398,0.7721430728336655,5.431060313000933,0.7533282137981693,2.5866831786383377
640,-0.8663618789207624,0.9112870788707247,0.7832190234069895,5.143277978620823,0.517395132781155,4.879401954842336
650,-0.8257624065552593,0.9549639495583117,0.7891225224242248,10.663095005337338,1.634503583310265,8.311635347895724
660,-0.8354191204795516,0.9517231146369488,0.8204595513002446,8.571324768810314,0.5736120370503047,6.508338296971859
670,-0.8433133771705459,0.9428865300211653,0.8023565257263467,3.575147156123685,-0.2659308350156103,2.1782004061775178
680,-0.8463195392369842,0.9400780288648537,0.8031720754593736,2.0396839178980195,3.351038070535779,3.3105580720667396
690,-0.8544059225776379,0.9172453007471638,0.7767489649676288,3.0148729294737295,2.776440363561079,3.7882892333280878
700,-0.8361383816618986,0.9548395032728705,0.7961967378307137,5.605660216455619,2.19025787087047,4.722843897337673
710,-0.8370633863335294,0.9618621005757148,0.810661494762879,0.03629654867419596,-1.0162710085087503,1.0981007496300528
720,-0.8332861590113007,0.9517931455005434,0.8125985792719191,8.014253709936758,5.851953591279105,7.629028233192821
730,-0.8682974829094517,0.9193865302284839,0.7654653497193037,7.984189694083396,1.692017288911083,4.504818824430742
740,-0.8342443778055265,0.9566217805802204,0.7966970370308672,2.8641074847269574,-1.2422251718096369,0.18361088731461983
750,-0.8397771290486492,0.9507644964186468,0.7894610074039884,3.482501573007217,0.24382425051725753,1.7256148538767309
760,-0.8346199089008126,0.9605128028756139,0.8010778048823417,2.6689040581494115,2.615192744470253,2.5699299958534594
770,-0.8427525188688035,0.9558567541292162,0.7901496095371892,3.3014295612426645,2.8927647683508537,3.5267514822377612
780,-0.8135102715327941,0.9948404252856137,0.8222803442028227,2.0629534062626167,-0.2352914366962518,0.6107443085911884
790,-0.8372187104905164,0.9686529947913611,0.8031754613442735,0.20665083289032138,-0.9735612836257508,-0.3516494918375703
800,-0.8330186787607389,0.9617167177665115,0.7950183703278754,9.881099925735741,2.307273189086976,5.77156141268905
810,-0.8443431890793548,0.9706229088750823,0.8066549986762016,2.256639889448942,-2.006235273767646,-0.6689238035134966
820,-0.834641421923638,0.9693595386275033,0.7907423569270635,-1.0705847826936863,-0.3040652124247911,-0.28182119849135145
830,-0.8277331066527607,0.9694667536383818,0.8008410309016717,-5.09035899110652,-4.243108965862003,-4.569944501073709
840,-0.8178145716473221,0.9872240718236146,0.8179737924446803,-6.868722392476316,-1.9056995932428087,-3.1936059252555458
850,-0.8344044255573565,0.968593568153509,0.8032694065022582,-8.930417017186222,-4.119857426608303,-6.962437420139644
860,-0.8510346651793332,0.9372845925895931,0.7870715630078441,3.9364754608113985,1.043508035662681,3.075949262207616
870,-0.8404679872743384,0.9591273271065988,0.7924935083154858,1.5356637107198297,-3.2345735724590323,-0.4083658095969933
880,-0.8317330075179795,0.95946857007531,0.8034122130924953,3.448509854041804,-0.6309551934697496,1.7960619924182537
890,-0.854250339288702,0.9535804960618242,0.7908860894634411,0.4690928100173839,-0.9328577207513814,-0.25266761056078557
900,-0.8475614234033857,0.9524698640349871,0.7867838228456119,0.6607894539547717,1.9122204378794276,-0.06687437841165811
910,-0.8491962099078931,0.9498585840855907,0.7824051157943435,-0.145781049611378,-0.5309641133455403,-2.998989526520032
920,-0.8514738060974547,0.9392364396027162,0.7810000142133378,1.5813355128497242,-1.272475726725992,0.13977063036091408
930,-0.8582146207140344,0.9368287388773252,0.7814099709181344,2.590523963987903,0.12823261370784753,1.9462307231474942
940,-0.8566031649820401,0.9365806236105803,0.7844010892769399,1.840131561770111,-0.3687682424154224,1.361750164363147
950,-0.8717740291996281,0.9324580896390757,0.7595503685775418,2.2748022561868515,0.6085983975284837,1.381446744771297
960,-0.8589211348272282,0.9475928239371487,0.783032637574615,0.6498380842819279,0.5118447578372501,0.25704889627084676
970,-0.8142590171339072,0.9887527191315236,0.8181694780224611,-2.5443049931155817,-1.2078003493257243,-3.1082032767457486
980,-0.8332670739889418,0.9602428310230798,0.8052339275248046,1.9656686774268275,-0.31400995559326583,2.268725492816673
990,-0.8401162777214792,0.9507727538362585,0.7945371795776018,2.8713319465261464,-1.1397812085291559,2.924943788469863
1000,-0.8189781653909111,0.9848924407742707,0.8183308137896972,2.031612616169807,1.2115093896220734,3.390693419089555
1010,-0.8289740809736339,0.9737095211170824,0.8083208561775668,2.644649472811489,3.8342833929814715,2.7182443756125294
1020,-0.8528216845395103,0.9521319417318278,0.7794644954776094,-5.147320746423887,-1.3541738544769482,-5.1612937707125806
1030,-0.8277982843837866,0.983903177915307,0.8084065974176233,-5.379477412257665,1.453898573293399,-6.699719037428657
1040,-0.8540390788248061,0.9312008402226848,0.7824545212874633,-6.964384661232009,-1.2115819282401468,-10.057108247808776
1050,-0.8478931439680334,0.9187507504866823,0.7851630899630011,-8.621774486625398,-2.9211670404838594,-9.116646191676212
1060,-0.8452123877856619,0.9379429592520705,0.7937350518850547,-4.285494875879159,-1.3562201553214244,-3.425197223439655
1070,-0.867991997628654,0.9092676224155396,0.7710343019651177,-3.065769809893209,-3.133680217889827,-1.8966070124746022
1080,-0.8331782971899142,0.939410710282649,0.8060333910539159,3.563683011156259,0.09299994806529788,3.7080762761648334
1090,-0.8285415468368914,0.9621662225272133,0.806832551189318,3.938064925378724,0.5033688617952705,4.035303021759824
1100,-0.8380974718938372,0.9476562179644005,0.8029362291014115,-0.8570812058809322,1.3702990367196022,-3.1223181240673545
1110,-0.8170121825653707,0.9717072579797909,0.8230443314830669,-1.2121215476647298,1.3180667887394075,-1.8160021833281925
1120,-0.844618630112297,0.9364318923176389,0.8032032409689359,-0.3499939482435751,-1.1027717209975603,-0.39321966759596827
1130,-0.8402759497015214,0.9334057577586594,0.790049516745999,3.9259566519426152,0.08910195774744689,5.248544505263157
1140,-0.8867466792504541,0.9127496012607355,0.7604565180869975,2.102769861146659,1.2844632671843756,4.998049168910155
1150,-0.8288898534457981,0.9659862616549456,0.805887788930762,0.2731686641990454,-0.047352126741366574,1.2953615201259092
1160,-0.8339047885417613,0.9431503713027078,0.7950369272465858,-1.7241930657091147,-0.6266551602830281,-2.1643278870196605
1170,-0.8481324214478643,0.9399901563557628,0.8002537331918409,-1.763059830382662,-0.147418298755503,0.20757998276472628
1180,-0.8444085912643998,0.9235615058581291,0.783980631351268,0.03198872658233698,-0.016427775156392155,1.956159796321526
1190,-0.8610379494526043,0.9288543099325967,0.7861240107627857,2.3108929122352073,0.8153601619716543,3.714962854701901
1200,-0.843798384767574,0.9498414170825222,0.795490800721857,-1.1937359642518668,-1.5388271715779476,-0.7732970550322931
1210,-0.8576866132397989,0.9354185634157406,0.7831635354941393,2.2147092518964695,2.5339591726047126,1.0674454903410873
1220,-0.8603712199650314,0.9216701130876528,0.7819242982555262,-2.1734674768072306,-4.104450160113538,-2.090573240087484
1230,-0.8401807662499985,0.9511527241334592,0.799840850352354,4.880242328445409,2.06855973560017,5.2704366644960245
1240,-0.8427512522701949,0.9534556233730629,0.7972717270096117,3.0696252928913403,0.6715386163243622,3.292277185741959
1250,-0.8136920131016477,0.9904646915707924,0.7995068785896896,5.736305232135523,3.2646322480841006,4.504831880677168
1260,-0.8781844778293504,0.92385223167925,0.7684091107952051,-0.6189947149372866,1.2895950560786336,-1.528259131662427
1270,-0.8369734759001473,0.9578445401419813,0.8017745330911036,-0.9981250064966077,-0.40898054820277085,-3.6408134727581585
1280,-0.8543875321807236,0.9313369194702882,0.7785145962252691,1.5232847903491997,1.0070282016504244,2.6921798731108177
1290,-0.8586967384869675,0.9326703138275989,0.7799919033204519,-0.5338823652675678,0.09478924986613851,1.6108420245293695
1300,-0.847775523242979,0.9341501271717537,0.7835334698273294,0.8712002509261376,0.9018709210148701,2.421010241834657
1310,-0.8480574219734082,0.9450547747952253,0.7920444172294535,1.6030354397577757,1.5240959059688217,1.0026064682994065
1320,-0.8461483411050369,0.9456677960700617,0.7914661237707465,0.19879275896184667,1.292021664915887,-0.4535879265930025
1330,-0.8321315326968519,0.9583929595543941,0.812051289880066,-0.6328332254495859,0.25137729682259025,-2.533226679285357
1340,-0.8563063778166834,0.9266871352129671,0.7900841658073379,1.7430333509770488,0.17258115152692521,2.081952432821474
1350,-0.848154785175309,0.9324385324575448,0.7841508875810344,1.3469295479635233,-1.175445268538604,2.4973311390580557
1360,-0.8395915740650794,0.9447312084926363,0.7975157227924486,1.30210079241832,1.2361551871591443,3.6883058909629236
1370,-0.8616932336311007,0.9456103632400488,0.7530221851164806,1.3524430116948398,2.2950710946924593,1.127043540440762
1380,-0.8839496344439293,0.9175711694232018,0.7507785947458445,-0.3920945374626372,3.2031533912689922,-1.4574854684842191
1390,-0.837338145894348,0.9509590913104206,0.7994337448204424,-1.5350869944326424,1.1679500100405795,-3.2956258077691967
1400,-0.8328334409218311,0.9541886566597533,0.8040744252562313,3.0267684206407326,0.8357478183140842,4.143309352051542
1410,-0.8691431794880472,0.928418260096026,0.7743470864205569,0.8291110563170089,1.0389471099202297,2.6071233670520852
1420,-0.8625753962961173,0.939781000042976,0.7805472913785718,-1.7148899658398435,0.8952800141447468,-1.0701011077154412
1430,-0.8293679519190176,0.9596259017910813,0.8070168678226342,-3.6786123268552404,-0.4707132534060814,-3.7962147567009352
1440,-0.8383210058141753,0.9472117185436694,0.7990604936135112,-2.86203599924578,0.36340711645202056,-2.727951950106823
1450,-0.8430535506030662,0.9412101642456603,0.7981342559172243,-3.662026096502326,-1.765938708114459,-3.005619148935698
1460,-0.8387832297815433,0.9501069002406742,0.8031098127590142,-0.7390259427917796,-0.5805634483223711,1.8006714963107728
1470,-0.8373959571300527,0.9553675392933132,0.8089352193101371,1.4687479778796673,1.472034431068482,2.9814738478003573
1480,-0.8566687898209755,0.9335432078835867,0.7879863033281126,-2.006092276025205,-1.213777134987101,-0.4358724751804097
1490,-0.8357425726432465,0.9487230351233391,0.7999098159854839,-3.1899461963415057,-0.5306489486874463,-1.2694747710810528
1500,-0.8640126116655319,0.9300181244976133,0.7772087296233897,-1.8707963724919554,0.7431229547656567,-0.8557665211156008
1510,-0.8433802607087255,0.9371852582424829,0.7943583892445372,0.5648590100629116,1.0741709584583312,-0.044048147497547596
1520,-0.8582891080109704,0.9304958710922385,0.7897593888423825,2.711320062192082,1.137443237786052,2.096041501470714
