time_ms,ax,ay,az,gx,gy,gz
0,-0.6930288080340008,0.4050876470239907,0.4880692187054713,2.299119016254456,1.8184210927652489,2.1668882310360185
10,-0.6836282424643627,0.4181721496932972,0.496459655336277,-1.1191218615510972,0.14958449060962314,-1.1131289642150743
20,-0.6782755495982055,0.42188980388667147,0.5022059825564511,-1.4266974723120316,0.23852229331447233,-1.6685780198802083
30,-0.6906193141542533,0.407905451052394,0.4916801353400403,0.1427708741051784,1.0828031186816962,-0.4814381071316127
40,-0.7015438149644445,0.3956031482995003,0.48181645051458066,-0.08373780573266057,-0.168147455881258,-0.4857316605310362
50,-0.6889193938887125,0.40738059066585064,0.49376576896590707,3.7104070215145906,3.1732814832641485,4.074614888950798
60,-0.6957300244690428,0.4030471669616196,0.48658417004757576,0.12051358423849434,0.031011706130161354,0.35548210242890366
70,-0.7010724618777217,0.39397297390776437,0.4785875871482504,-0.2265753119283458,-1.5921504667953814,-0.13775690338017532
80,-0.7067300208534871,0.39191232826470196,0.46725749520543275,0.35518245809362425,-1.0201124574586902,0.5733711942803754
90,-0.689563664312319,0.4098669172979998,0.48821867827412235,-0.36974281234457296,-0.4040403072832035,-0.12378206025642491
100,-0.6600302846002553,0.4397565596403361,0.522138281810287,-1.0069086220823118,0.5958031192545132,-1.0658495999113795
110,-0.6745444141276706,0.42424213119103255,0.5060225888304719,-0.8352799300097231,1.0866222540748962,-1.0677542538599916
120,-0.6938972396745723,0.39750784330666733,0.4817151218712439,2.220883272223905,2.0875814450859984,2.732142059818285
130,-0.6879505520711023,0.400979590786468,0.4850410652447336,1.1853050037568102,-0.10566998126345195,1.9471846857508004
140,-0.7099882143359146,0.3880463878945245,0.46886432995953664,1.1393401935304186,0.9633173531935114,2.587709628353294
150,-0.6987255031034314,0.3986427799369636,0.4806844608599727,1.0315922683294048,0.9535759557585645,1.6454872125550613
160,-0.6815532768114332,0.41319037521410995,0.49577279332674,-1.1366311750061056,-1.6323573882451434,-1.5886896265634152
170,-0.6898566989619014,0.40443025101478525,0.48638638678159124,1.8692754358309949,1.3175947117207305,0.8185300258625133
180,-0.6995725454338793,0.39489802333180973,0.4785574104574396,-2.284007187801005,-2.2602617517250785,-3.2475335266924894
190,-0.6912291169687261,0.40307525501305314,0.4914712829295446,1.0563204825223165,0.9361853312520368,2.164572658367258
200,-0.7032005051325169,0.3907828628680523,0.47639018687141294,3.2055267348976066,2.0104353098128316,4.127393947211388
210,-0.6670935480626431,0.43447023747472324,0.5252187697063725,2.87268268754602,-0.7342488456963575,3.8313771525959317
220,-0.6886666423683515,0.4099529249443982,0.5049091196083115,1.9946516458069428,-5.24972554002381,2.2565359446366346
230,-0.6778046282964564,0.4233557193619387,0.5048675084465517,5.34931394520985,-6.543464673006653,1.8554138870653918
240,-0.7083812562466073,0.42897830215357347,0.47176836924181886,10.674014394657986,-5.099710446310142,3.9384003482714753
250,-0.7159172177928783,0.5037116814168628,0.4986148762578021,7.826417731165598,-7.558000641005344,14.300707436897557
260,-0.7946121512423665,0.5097110660587353,0.438239914309383,-0.28341658582689766,-50.7852035294745,54.64882102442275
270,-0.5351650579739936,0.3570653780969718,0.2672806576823662,6.127420375270864,-39.80244913151948,50.99787577481394
280,-0.4248556433114222,0.3152500165781876,0.21781639259852859,11.279684142628309,-14.433488739941568,30.061037606382428
290,-0.46308128058380277,0.44307059207293026,0.3372294444537145,13.700799145035752,12.442903197220618,15.684208216644244
300,-0.5679829400370466,0.5741973622928341,0.4733834607672001,7.03638521200665,26.851716082579053,10.925917598647178
310,-0.6022471628476131,0.5678437995970451,0.5100519440384599,-2.540047318281523,29.060493618006515,15.875639715949312
320,-0.5890602606857719,0.568662850043669,0.5112436827983191,-10.731924471270903,31.657792539096874,18.074669835489804
330,-0.6188932137443763,0.43747251523940417,0.4880916889645743,-25.696159703317207,41.818849362515095,23.362700524411743
340,-0.6617126120378765,0.32120739301229184,0.45956007174452906,-31.086143836542092,45.056276472354014,12.94800907783858
350,-0.6572832884847608,0.34615854920537215,0.5609411720602362,-28.71184720644761,45.227679829633566,0.038299700475826315
360,-0.7275109365298373,0.34066427177208997,0.48671003121927764,-21.708501213732085,29.65907870135729,-15.868878022869907
370,-0.6756416067821475,0.3961769357624746,0.22760059113967782,-2.6880604282142353,-1.0507057563247466,-29.73016144140226
380,-0.6883422708324906,0.407721198438221,0.3934900957391399,-10.261519590683932,9.993250886205148,-11.73355127456994
390,-0.6963224208566521,0.46341714235596965,0.4441192179701065,-1.3943974104897927,6.549603164383041,-2.7077238835776134
400,-0.6954427635105053,0.48908737745119213,0.44844991504765686,6.8146523671125845,-0.5751281972732261,7.032909059691162
410,-0.726191547964076,0.5500715212824041,0.3602161752067126,12.526592910898737,-3.9017254865364444,7.831626546230314
420,-0.7588984779244206,0.5547008790346926,0.32168485227953664,12.235894265939296,-2.1960670289525877,3.5206780572068226
430,-0.7469236174377525,0.41219704580375754,0.47731402019849434,11.222876557634574,-0.8657177912311576,1.8182694405383557
440,-0.7847973919097185,0.2437669388409921,0.5979229798160199,4.964035884766812,-47.079801264536826,-40.32434465960688
450,-0.9044159150449199,0.3826030354985295,0.16751679522603863,-29.484900359612727,-44.33386905160582,-37.846867337078315
460,-0.7243899799123318,0.07681535198479161,0.3155887379088787,-46.923202504582,-41.59855220605978,-40.563981693743145
470,-0.33093686741691697,0.31118434794761,0.8152350466871795,-31.915281688387747,-62.59168087928208,-32.99090948809046
480,0.0346146850171694,0.504141612554232,1.27204728201161,-0.2191495885949013,-77.17983440928326,-21.873020053196328
490,0.08416658320688472,0.23680677258502827,1.3299385079449084,15.133797249223273,-68.87953817691462,-20.650123060714954
500,-0.4787627418209649,0.2914989336392608,0.7498407298959472,1.5716679676888488,-58.73057146986552,-15.273447300378786
510,-0.5674039873671726,0.05554982182403914,0.39172137997444434,-30.742681654764038,-55.516032852103436,-20.277304190907163
520,-0.1937831867204044,0.2166975079658187,0.6434738751930855,-20.65264638966241,-24.541660811953726,-36.56120528839569
530,-0.40407993872708176,0.4671965510466017,0.6634023278076536,17.578625180239605,-19.750695113171783,-21.52971190324411
540,-0.6492986304542322,0.5905941687870079,0.5930039280879792,27.438112417899866,-8.752671315899114,1.1410095496087223
550,-0.6654119454154604,0.4924268724034742,0.5369319206773057,-10.11702047209324,1.734653735178327,-3.8917996903359944
560,-0.678727711066222,0.4432542137444172,0.5357607542199117,-17.53905866605301,-2.555938948091857,-9.8578166757558
570,-0.6853502675061748,0.424674774853824,0.5291879253443719,-26.881205553819953,-2.897449294858409,-12.630625171587061
580,-0.6833091877887163,0.4265390058496945,0.5177094160984302,-34.94004305198852,-2.9641992858133612,-16.93417950661627
590,-0.8386676936649111,0.44810959714343634,0.22060107990194044,-35.64949486186724,7.823097614265176,-17.31544318745319
600,-1.0095976649836165,0.35620642938388614,-0.5205144189900416,0.10027529688364473,38.798479350872114,-14.656498536849552
610,-1.057256650093927,0.34717550927319096,-0.8363837260949257,46.77028103010191,66.08035112557981,-4.284402201966656
620,-0.8540197762914616,0.6622750552725063,0.34616137602012914,64.87211258336929,70.84163773875858,22.25689862468077
630,-0.34278724119165105,0.5825249942201943,2.0127517486909587,53.51198691486543,70.0657030244454,1.6014624138407487
640,-0.6565295328743617,0.22203299881651117,-0.023619447529684538,42.940536560516755,61.48628825621607,-3.0879332210321504
650,-0.8062390069010948,0.4079389229581773,0.015425197228442423,44.82957476019653,75.70217540430694,-1.9195136386931473
660,-0.7708387137471416,0.4529757737053808,0.27317575777012115,54.65252189521813,57.67666683338234,-4.579526121092837
670,-0.6868754390994447,0.5308643594571388,0.19603460302130704,53.037703151256906,35.87036492612287,-2.3202180315056102
680,-0.8212430898597692,0.6623984104134021,0.01344779930705732,29.04564271318035,40.54670305411162,9.032024666415188
690,-0.7035263138330835,0.4093863621518401,0.4706611364608519,1.7945951427137299,6.211203384183726,1.9907531270288024
700,-0.7074747035616219,0.4274583196612239,0.45846911649083655,0.6433028883241613,4.43739760199664,0.689537577780923
710,-0.7229879618735382,0.4288782383745038,0.43614198890309924,-0.6221815043022347,4.359305886077246,0.8441130192161094
720,-0.7309323155544851,0.425747199446026,0.42074653766010045,-5.352942374101371,0.4766458478972806,-1.9333233952871127
730,-0.7461885780382634,0.41168172024068783,0.4025311969242796,-7.086278597741117,-2.554661916896627,-1.8833912322147954
740,-0.7273337760370181,0.43345323940185465,0.42335778439062105,-7.73343111291094,-6.061015332969854,-1.0700698545879235
750,-0.7436275423992409,0.42663009471958163,0.42161642153876117,-12.831646845117513,-11.746756521368328,-3.205282231539617
760,-0.7295002248942443,0.5913418176172835,0.659906240026764,-23.777476368193767,-14.792009023575684,7.388459416629136
770,-0.9123758353335709,0.4402909634924527,0.6979666614270272,-23.150766049270647,-57.34003777237984,38.70318164701848
780,-0.8438988497008932,0.4110362505604453,0.565555812476616,-27.250438606378577,-79.1298974588727,41.61509801877765
790,-0.7034937291009669,0.41619183802939974,0.40927858443188464,-24.783981834965616,-75.12132031374536,33.91937964027684
800,-0.622391056992469,0.4224544337395086,0.31571489776657774,-22.02638410480238,-60.05534043294814,23.10011300957647
810,-0.5393123861208128,0.5334887860384796,0.3153115065013463,-21.17638879800952,-34.18624187058759,17.7158907091865
820,-0.47840647260099495,0.6128310022831132,0.4479063613503256,-28.048674218208678,-18.46266826440487,15.96530612429174
830,-0.5522343721156004,0.39956619792498516,0.3543010591574978,-34.52896884568573,34.63853565735115,8.621434768597496
840,-0.7891850107319973,0.17890889198829898,1.0210725519199833,-13.592818859299918,-6.119468025898891,-41.711303221311205
850,-0.8578119091023396,0.14196895743088828,0.8803178839665092,7.136826317684083,-9.208534739774686,-44.983483004919194
860,-0.7039843471092017,0.32224648996807254,0.3746616920082606,10.239865702844808,12.23994469135296,-17.620967360558687
870,-0.6736822378510917,0.41015070560015976,0.4923024178697348,15.767397467939656,1.2010685478760954,-2.8737230718704208
880,-0.6763196188363954,0.38653946992278926,0.4834248672302652,19.871435440618587,1.1294418362898035,8.80548230391339
890,-0.6903370733873475,0.24926152032843307,0.484067256232437,19.401248107256666,-4.397501723230189,7.243312221530427
900,-0.5568484514406473,0.057740185229280025,0.4027616433855101,26.13577097652799,9.037899819899927,-12.134584895572903
910,-0.6546043373948346,0.14784553282705806,0.19657015949565385,58.27654121527927,9.777587320165734,-38.68092070896543
920,-0.6876627302016247,0.3955660341112624,0.1799668736131027,60.5496147633703,11.191091847459479,-47.010173353589735
930,-0.6052124713750588,0.5042362969793953,0.5687699722435626,44.353513191689025,20.642813004807557,-37.57335156011655
940,-1.1531403159095948,0.35335609383902145,1.1146626945308133,170.03163036310528,6.679621988464609,-54.61184116741751
950,-0.8755788108853728,0.7026214581009784,0.44105872561330267,120.64508673198642,1.4450295620701243,-23.696163591490333
960,-0.696935740582735,0.499831389803811,0.4602421407406571,55.206566532980766,0.6408457709130966,0.30719303222024374
970,-0.6759605607419373,0.4180614474775801,0.48825153789000186,6.923105918804318,1.3702478831507565,-9.304890097776726
980,-0.6925538895673115,0.43311589407787693,0.4842400733874329,-16.19842954915373,-2.937495290965827,-25.0450240109311
990,-0.6967282913133019,0.4095451584153511,0.4825368552304205,-11.941878550678258,-3.941818333530496,-18.422255062348448
1000,-0.7155380989442751,0.3763056846486608,0.46598760066347505,-4.474818490601437,-4.412139398423875,-7.922214861076026
1010,-0.6867375411325374,0.3954163423746255,0.49112181909276037,1.5734994505859277,0.3130653348430814,3.891921718583615
1020,-0.6812922206138909,0.4099994162195176,0.49634846441985825,4.05814276530563,1.2703830507365583,9.129205956250802
1030,-0.6779078276104984,0.427259643484634,0.5022323690895999,2.445351641902364,0.29940003491881295,9.166706006429537
1040,-0.6936057875299579,0.41652484371278053,0.48868157838327514,-5.585881425809572,-3.8627922960218037,-0.7036000029789
1050,-0.7120989977440318,0.39673028848288844,0.4707876647361998,-4.27857280324916,0.6493552431748232,-2.9652642147455404
1060,-0.6873532845898083,0.42445916565023256,0.4946936031377211,-3.197674849218243,-0.19832941808918986,-3.152302002084675
1070,-0.6983477036800966,0.41017996492114384,0.4789896887920684,-0.9621035873508093,2.049198033539183,-1.6734161270534824
1080,-0.6966328444265405,0.4101513794574675,0.48693116544639925,-0.8601586252063995,3.199628435870019,-1.8985155553591115
1090,-0.6933753945640578,0.40961141882810587,0.4808164245262005,-0.36394133949429996,2.922956470737921,-1.4369955568087298
1100,-0.6823747816039505,0.41983830663986804,0.49287250096356494,3.6869750013300484,2.9680484462014913,1.6800819372325377
1110,-0.7043246617900224,0.407867060787775,0.4757873469793251,1.807799773202512,-0.936978809610334,-1.4946392782379523
1120,-0.681381104523273,0.44727063591955857,0.49397306542049296,-0.2831344238883762,1.0189166920013246,-3.916458524105985
1130,-0.6994176881931415,0.4211880654776415,0.4777502465065982,-2.11258200086888,2.9916348951817113,-4.433698437207838
1140,-0.6862432591232115,0.4226498719835068,0.48648793327226186,-2.6197119525270196,-1.0196641700642073,-5.569494092107275
1150,-0.7045703479556514,0.4083531815104911,0.46863823291249607,2.0386763584408323,2.7272429740326958,-0.9910037800379325
1160,-0.6931895757456052,0.4165035944219727,0.4812168474685306,0.6919278022302875,2.3139424281745744,-1.8785639061194765
1170,-0.6980491251734217,0.40594195220451973,0.4778524620725936,-0.6111279357991477,1.773744394701842,-2.5375039311942955
1180,-0.6928155793527107,0.4133057413871401,0.4854363959523961,1.7823217036988366,3.9156761753739575,0.6100483559740493
1190,-0.7081393473802702,0.4106404787452353,0.47254425803204686,-1.6530081988976892,0.5541509145792556,-1.6069317111109906
1200,-0.6745525305657103,0.47385968546085666,0.49981546853262776,0.7901009444997931,2.15045070992622,0.9911624908877033
1210,-0.687011810699472,0.42125161180634335,0.4825635494695191,-0.34048246891554346,2.367616430450463,0.3872526288538374
1220,-0.7249167114374894,0.37313689914898446,0.4471884530887528,-3.3313316266270365,0.16326210644258338,-0.31988376379013184
1230,-0.7231487323062218,0.3771337651602942,0.45064798642073955,-1.8154760334642035,1.0814003608235814,2.8757525574856366
1240,-0.6973009948285903,0.4038135004319249,0.47566265849598377,-2.868685418977317,-0.7009826693296723,2.230578505626062
1250,-0.6954688261368334,0.41495286068265735,0.4790309630236858,-2.394335298253952,0.8684653914082232,2.962097087662847
1260,-0.7164530486416781,0.39205825069711386,0.45026041547532003,-1.4144167592769787,2.021670271450752,0.9407723407451877
1270,-0.6639959273852301,0.447406475901807,0.5101308965976874,0.04702901507167534,1.2448105211950382,0.07680572207374559
1280,-0.7036380732850369,0.41263052352558516,0.4695159797733709,4.943292108015505,3.922619167631444,2.3081026490541117
1290,-0.7346395223900786,0.37999696544873346,0.43828533449941337,3.1679005646328955,2.027940699930371,-0.9925827515884589
1300,-0.7029095034592171,0.4080444997997074,0.47196028534464574,-0.68030274629156,-0.46127411536729523,-4.895926892672396
1310,-0.7054789808654004,0.40674802842723035,0.4690364432720769,-0.8716146229216273,0.3181019018666512,-4.149108684917822
1320,-0.7266226853346778,0.3789822016890842,0.44652428880823,-1.5107116732722397,0.30030687306059434,-2.6984258599937996
1330,-0.6835103275987681,0.42825589916411316,0.4942317967075279,2.792471450544954,-0.7497636545029269,3.39752959262468
1340,-0.7117132436256198,0.4040897104949123,0.4629232165569293,1.557215212787852,-2.210089970663224,1.6078658882846257
1350,-0.6953978116306466,0.4216629564254981,0.47923621141443173,0.38908094808846205,-2.1216124175224005,-1.085908377192314
1360,-0.7339778415305942,0.3793315589816674,0.4445501993003122,0.49722214709921453,-1.4635341284596626,-2.87916979346631
1370,-0.7025781384653113,0.4031323557483528,0.4781653845759382,-1.2360410567272646,-3.7217537358201094,-6.380061934658228
1380,-0.6810895096928773,0.4213027197200389,0.49359400282402727,3.6080262794224667,0.7428152443751572,-2.130126442495882
1390,-0.655280509176999,0.44518291186147446,0.5143833206268503,5.793492495286547,3.645993728278914,0.32538482452212936
1400,-0.7061588857810003,0.40379160011594434,0.462077709739864,1.5007532641450243,1.178881576096517,-2.5283060127113903
1410,-0.7227906415461625,0.3886457132634731,0.44392647206935654,3.649763816881996,2.6381598385609255,-0.07455482903646116
1420,-0.7288955308498504,0.3812471514965146,0.4383686415884181,0.6268595129142023,-2.197648223487752,-3.180616046372281
1430,-0.6759741441112175,0.4358047841722449,0.49491433431765885,1.7093714574039962,-2.416466195056591,-1.6630085073005763
1440,-0.6973186728893178,0.41625798364511113,0.47737941896581093,5.325059774673657,0.43653555440027203,2.7966489484970802
1450,-0.6906616907443619,0.4237596236364418,0.4823071907809,2.5025864134453766,-2.252491720468375,0.7944082705932254
1460,-0.707051167418291,0.3996217618468834,0.46671093732264923,2.548596521698276,-1.524392492129345,2.145799048338396
1470,-0.6838723035611988,0.4251707028695572,0.4924960436676159,3.502959715585134,0.11475667023247804,4.657633580707495
1480,-0.6796382578122961,0.43491696715494216,0.5014678792845486,2.498364717539677,-0.3725010133667278,4.185745115333124
1490,-0.7116405631632161,0.40720665883940677,0.46993947027491223,6.219477339123972,3.8125967817970414,7.2137722292073105
1500,-0.6800627935877565,0.44314858142958274,0.4921458447776478,2.0760156956048283,0.6074607078947917,2.210552313379703
1510,-0.6862094074325389,0.44117000512670185,0.4860322578669451,-0.5388429522685976,0.8369495094977691,0.2670137682448811
1520,-0.7038708713413467,0.4170187629691201,0.46659798712270584,-1.6792446349314893,2.7109893727741916,0.08713566037309883
1530,-0.6894615479186568,0.42346253176957566,0.4868997727847963,-4.5119355269690375,-0.4924945600253259,-2.812417400210844
1540,-0.6988137917244424,0.40978569763612044,0.48002203402436056,-2.861352553906551,-1.9956664137290534,-1.1375063118013389
1550,-0.6733745711907753,0.4381556487870344,0.5036396979421589,-0.8360263505418328,-2.305457124714788,1.2662681961448938
1560,-0.7199793311184591,0.398780722342699,0.4554381738820792,0.5839737024103724,-0.3764865234043988,2.580558555157954
1570,-0.6919938064810734,0.42317255198316034,0.48259418036358426,3.822916139972725,1.2296535013734358,3.415114817895824
1580,-0.7246376328306843,0.3942435398127092,0.4510432374512985,2.902433809829838,-0.34380033963887857,0.816542974535586
1590,-0.6730176318140444,0.44813628293103025,0.5025837559683031,-1.3412035263926416,-2.0371309692026593,-3.801015303333943
1600,-0.6962229920592645,0.4208155859061173,0.480149809226895,-0.47723986039795174,0.5403496469285243,-2.8502050535482204
1610,-0.6823687001855443,0.4289581775062873,0.4945379902443508,-3.2303844713488594,-2.520901745684421,-3.850120937997743
1620,-0.6898599539610546,0.4205600152343615,0.4862230953082818,-0.3401319408389758,-1.0339061814873354,1.8143763363033818
1630,-0.6981798484023529,0.41778057980569555,0.47641581211930295,3.8569803568803027,2.8371718239849484,5.76547175246472
1640,-0.6946350406453641,0.4222974064849605,0.47765175373038926,-1.8978643930947312,-1.1483145449760093,-0.6489589604918032
1650,-0.692626254809284,0.42366816265227264,0.4788763456538635,-2.6928318990412565,-1.4294138560583929,-2.7734587958004706
1660,-0.6769477185535967,0.4377393592873049,0.4937436779643554,-3.2555459176933543,-2.473329064510596,-4.321422100030169
1670,-0.6897189138859678,0.42187119476547924,0.48373615492543076,-0.15234732617346403,-0.749424356324506,-1.5558263579845222
1680,-0.7167615253116909,0.39206515498921973,0.4615910520329691,1.0906343117515287,-0.9077310967174902,-0.06469888279285496
1690,-0.6856271004419927,0.4248175595381086,0.49369057484598444,3.086602820839525,1.082761939583988,2.5578519692857156
1700,-0.699211050627623,0.41962867357840533,0.48097695369760085,2.356401129195803,1.9442044386583237,3.049335672095533
1710,-0.7272003020704388,0.3877328678163368,0.448211504784727,0.6784332148867367,1.187590837734097,1.5291643131696442
1720,-0.7158414489086037,0.3991380989625082,0.45358844643768254,0.39564284365194036,1.0565955749344709,1.2940866607800259
1730,-0.6947254228813766,0.4240617633073087,0.477851238856202,-0.5023908941440749,0.6094003429001553,0.6309168878735905
1740,-0.7164687942384711,0.4040784900592848,0.46029288946998653,-1.8874097007730548,-0.23036073204507743,-0.840842372050284
1750,-0.6821638386481709,0.43401265385255966,0.4887225277527593,-4.797416917385898,-3.136687439938575,-4.487995233973757
1760,-0.6959132101912291,0.4187169141292862,0.4808765839975827,-1.223026456132613,1.1231709236716456,-0.49140995103714147
1770,-0.677489058588028,0.43280502265728915,0.4988999916134077,-0.11091207110501955,2.725871691357125,1.8234186760068376
1780,-0.6879554019061986,0.42242370558025244,0.48485200139441414,-1.1858112113093453,-0.490179227566221,0.7819790627951083
1790,-0.7291299170936659,0.37995677317360027,0.444164411104309,0.30237246148893165,-0.8619557140068586,1.7227314514652787
1800,-0.6645132916119547,0.44464156530647625,0.5127724009773057,1.0457628876341023,-1.1620824408258392,1.5314372251166328
1810,-0.6985934344486113,0.41475672375866945,0.4827411818472156,-1.1388823888660065,-3.594512164389874,-1.9385035427407091
1820,-0.6923966273207204,0.4235753634070961,0.4916451313149818,0.12356790610922253,-0.5632093125956033,-2.034923905954087
1830,-0.7059626338429286,0.4048192158897739,0.4662262005719368,4.244810380420233,3.5233270503557086,3.2716496848668486
1840,-0.7066100343270555,0.4057415692663247,0.46788504210416604,1.0722957182762773,1.5826821203580388,1.734941354336644
1850,-0.7165425671656022,0.4014792047278464,0.45893288207433247,1.725690959821149,2.129658968779522,2.811512492689113
1860,-0.7100278206471828,0.40943700997123256,0.4654927153882532,1.1597056644650987,1.2525667267525098,1.732921815538916
1870,-0.7026608005587344,0.4129189762508401,0.47371810737082926,-3.830766652662299,-3.016119938278621,-3.685776722325589
1880,-0.6962562582992025,0.4186074931421123,0.47875817732218384,-1.6600638064548556,0.3772979435059204,-1.102670634004073
1890,-0.6906963044542371,0.4181253804883978,0.4763993240607227,1.9893035084614306,2.4010955526582523,1.498700819332463
1900,-0.691176640064161,0.4147074283129068,0.48078548455819037,0.560848169487355,-0.16486205463961756,0.7028347660315437
1910,-0.7094573796312089,0.39934533739416356,0.4656256748181063,5.419730145486457,2.6733137620893412,4.880019983960935
1920,-0.7013977442456327,0.4111440350841617,0.4743899149456726,2.582521824468204,-0.40636322113930096,1.435903359058274
1930,-0.7019088255041904,0.41213437434482963,0.47239292282493617,1.8424475358379107,0.31251504073067593,0.6846712153902119
1940,-0.6874062070295065,0.42649695207202687,0.4839553326497486,-1.2658415897382038,-2.1055205483853214,-2.473838370164234
1950,-0.7226123315307171,0.39176030302044995,0.45247015365452325,-1.2261509608073706,-1.68395017631094,-1.7513133400808694
1960,-0.6979842077530118,0.4157339287238295,0.4744667799465524,1.2945333692760315,1.0809704073547752,1.1421705635886785
1970,-0.6562149286515655,0.46027280147146915,0.5213697078342218,0.6168035321078172,0.21502017881884306,1.5926483221146825
1980,-0.7077150501275898,0.41119766986207273,0.4677424181642447,0.0359622283373673,-0.6250239870362214,0.8275982461714761
1990,-0.6979376774120912,0.41914435785712223,0.4736093858535414,-1.1711279637271104,-2.10508608774102,-1.6389679773857482
2000,-0.6743827548571145,0.43716351018026206,0.5015271538222922,0.8994725488815174,-0.3669793481819599,-0.5447796351724283
2010,-0.6746059473318365,0.4376269419198783,0.5009350378603996,2.630265560837724,1.2206908708675188,0.6420989930591958
