time_ms,ax,ay,az,gx,gy,gz
0,-0.6222713660983236,0.7333567438100592,0.6473845747829208,0.2044798218057966,1.0029482419297913,-0.15348316844058196
10,-0.6164975252938178,0.7376167041727516,0.6531219340158178,-0.2382917467917293,-0.29969280441166846,-0.1670768078790131
20,-0.6001992394478401,0.7572788027601397,0.6712599034191303,-1.980377025840531,-1.717799196020982,-2.3025235125885697
30,-0.6185394074482254,0.7397170183563431,0.6523064399489763,0.22279387288221186,1.5625709734287994,-0.23762653654131038
40,-0.6158374859993953,0.7376737505362371,0.651248455863833,0.5651386414809076,1.252312653149291,-0.3800397585392792
50,-0.6261889233076686,0.7288468371263653,0.6458518095630288,-1.2529720973067375,-0.930581179896105,-1.300787396961027
60,-0.6278046392374985,0.7246102100794048,0.6388859883672787,0.7121648245711149,0.47351787499366393,1.3840644115464609
70,-0.6289257462549871,0.7167520686951483,0.6343229418818415,1.3622924630690358,1.0838157152446,2.2787264124843
80,-0.6213303163578564,0.7287331565988634,0.6505463879661657,-1.0511551250745157,-0.6012295653681345,-1.0111629458517182
90,-0.6148990304795543,0.7382764494263256,0.658222581997883,1.1656188156372171,1.3539904528963156,0.619991153064419
100,-0.6110323307475296,0.743711874294468,0.6607088691862502,-0.8056127518797054,-1.0986392861191638,-0.6016084059840463
110,-0.6293240244742931,0.7248730800720209,0.6390089164816694,0.8207581406372565,0.062066826154741905,1.4519138453928728
120,-0.6274189085992289,0.7244845611464665,0.6396924499901013,-0.49840887726864747,-1.4508974061478865,-0.49392738714789
130,-0.6010976709656684,0.7503138327692347,0.6703194773323982,5.1947757929199625,3.716735724245143,3.5863333886019215
140,-0.6237280953812454,0.7337273066858041,0.651365616402496,7.274819173004325,1.0510403488957605,2.316177737486258
150,-0.6432883549223639,0.7373472544943471,0.6440788899404604,9.471081831519513,-1.1121400603711742,3.4811079852480558
160,-0.6255522560846225,0.7913562862445169,0.6724921967495743,-0.023683947977760633,-2.5340073654896544,2.113450607938813
170,-0.6017317917457388,0.8341148463566529,0.6821097738570875,-13.839006832641244,-2.6364701587050803,1.3845939637649718
180,-0.6991375066316609,0.7917842609501758,0.5986584677232517,-22.02328715813312,-2.600486447738347,8.263141295637318
190,-0.8321736678480331,1.0143716644271474,0.6099428686029574,-18.155663177999145,-6.9045477634921975,41.01047893099308
200,-0.9279384478470531,0.8435862156989256,0.8954114520839633,9.854565576007538,-23.4040502499562,73.91621626142289
210,-0.3143223768570187,0.7054494723473409,0.5100156019433617,13.861735542516099,-29.60740941165143,90.55038095445664
220,-0.23821963303439647,0.7048134034466365,0.513973833700379,6.601599508711761,-10.402317340448166,67.95375601351178
230,-0.2063762793145926,0.7049871723456435,0.5102995241989907,0.5286929650108827,13.535539690158636,31.927138749031315
240,-0.2528437208926546,0.8328109310316578,0.5155995689598983,-38.3967787751098,35.33277099006315,-6.150628317614855
250,-0.3220487530157666,0.823987922172526,0.5333872857716984,-48.64559022813834,58.373627883217466,-24.152660265224934
260,-0.37510420022138175,0.77396236775317,0.6037224644867811,-51.75265935496213,77.52752968073023,-39.52244537833572
270,-0.5221924164428663,0.6774130262270115,0.5813172781257392,6.219449370473245,38.2860878050474,-18.749815553644762
280,-0.5062646260217581,0.670181185925387,0.7032830164928457,23.076777228731082,-12.376702381671782,-3.606668540017769
290,-0.5967012624759896,0.7540105814287831,0.711661021092393,44.142327488407496,-5.680607502812684,20.589349154374773
300,-0.6310467704529698,0.7135287260015521,0.6920593746668505,55.92163000670903,8.748147516677324,34.80842659594552
310,-0.5811581522149888,0.7766128254622037,0.6024689187753466,36.739927602374244,-9.32335363748197,3.9292185208943176
320,-0.7454885467135144,0.5970828264177154,0.753404877657021,27.41455807637191,-37.538019828157154,-43.91473329140482
330,-0.8876416156255468,0.18190428512131399,1.3225660679663294,41.03523583006043,-56.669455142858624,-71.53288937279436
340,-0.9910880908877927,0.6121392673742285,0.9128552505478658,33.33447901404345,-66.34265623070044,-68.74710335892
350,-0.9599607455342527,1.084243823250943,0.21549813440752252,18.909222416605616,-50.22216057662621,-42.43099937523124
360,-0.7706743956174971,0.7840760862810856,0.4189058573940965,0.2098309271782357,-19.885695155447976,-20.960316063623015
370,-0.655307864858001,0.8669811028416615,0.5554468823652138,-43.62156622239845,-10.570133527837406,-18.833849458181227
380,-0.6119382530364805,0.8328368756809155,0.6409047699508158,-55.507901186949674,-8.998565176629588,-17.83444239032739
390,-0.6818796605806203,0.7474694771451709,0.48749966798438504,-42.81021574883376,3.3421841348336514,-18.107634133904774
400,-0.6753026711482989,0.678761151521255,0.321354342887816,26.674423769540418,52.130213908914435,9.548785169861695
410,-0.5654874171131328,0.5640800360363741,0.4980861042464912,16.174518809487438,61.074033931153664,30.789846872037213
420,-0.48662067799668907,0.8044055628514666,0.8206288459802354,13.866909054765818,47.42289629066135,19.05698900116884
430,-0.668808964117858,0.8503183797555425,0.4570387511583763,19.915859392810184,31.7839957090201,34.93917469458664
440,-0.3874393697123845,0.3921765487016126,1.8465464140130032,23.85671997361545,47.11847608237426,3.129017105453522
450,-0.5911806039972652,0.7155102763619207,0.7483692069790706,2.033099523791563,21.999350817155225,-6.659682772842596
460,-0.5906181553881524,0.7193967044305862,0.7073313065137802,12.073797177658482,7.013140832420742,11.859948562086576
470,-0.6294914227969193,0.7276783383864941,0.6556605050641379,17.77500466944825,9.955237889310183,24.387494195558645
480,-0.6162862349783909,0.7501493950886621,0.6907258183683763,20.872277714078137,8.342973262015978,33.12156391884018
490,-0.7338201873026976,0.7720582905970258,0.8136115699614063,22.887501607776304,-12.583468953517436,37.47830744220804
500,-0.7647486059973952,0.9230679675337442,0.8500442678813618,29.983518561350632,-42.52695384786702,58.0883152746294
510,-0.668755507133584,0.9068789825870756,0.7276170924430186,30.297743120746244,-57.58404062014371,74.48867020375242
520,-0.3892472929190412,0.7994602268169451,0.48740479583655466,-8.158790454526953,-10.812292380960049,28.77261143912348
530,-0.3085743627495649,0.7805755183748312,0.4614137242232356,-35.35297166570572,35.92940660472041,-9.9200315542818
540,-0.8635342654050606,0.8290534980900954,1.015184866868881,-80.78930757924476,38.670188549240194,-44.00249920631273
550,-0.8147103748843536,0.6623161700511007,1.0924737150453456,-79.39502938657996,5.531268723042517,-47.07492066563449
560,-0.5254073353619606,0.5597504887725948,0.7292810535892192,-43.93450935869431,-10.97801290953748,-31.627918984845337
570,-0.6508249615724043,0.6007909564429148,0.6050858396301463,-18.343032128740663,-5.863257700492123,-17.74955107114335
580,-0.616142455815004,0.7133796239416723,0.6536012182142611,26.852748201263427,5.168674314565591,-13.099522804003302
590,-0.5807163301702672,0.8364222717256744,0.7864461173675388,31.153067727813283,9.13483061134114,-42.99144828444087
600,-0.592781574729549,0.6178719500234423,0.961182434970718,5.630300857324249,13.226231058128224,-49.42381556660121
610,-0.6313155335212862,0.40006678279362007,0.7378471247722013,2.07126082945533,2.6577380615476685,-68.70419931905067
620,-0.375135204376941,1.407442400060602,0.8018935209258317,-11.5083761371545,3.5885548351225083,-40.30530124305817
630,-0.4382098209886778,1.209736211496497,0.6959024051651563,6.826216101831502,-0.25811771241919623,6.982334396503912
640,-0.6624869080967497,0.7595315693133204,0.658499542756055,2.1293653872283613,-1.7196298656470839,0.8125057029863754
650,-0.6448653312112742,0.726650435168792,0.6316568280350079,-12.700381850694622,-0.10255905441587165,-4.451404937389352
660,-0.6394553940614707,0.7275621866431117,0.6054416646330885,-11.111865504512124,-1.8250435213105134,-2.6232264765367264
670,-0.6146010045633151,0.7393910876001552,0.6469947496140399,-7.799346520761544,1.1648312963165561,1.8392708832037368
680,-0.61836666096827,0.7270382770463034,0.6458933688747736,-1.1394460429205706,0.09438260098705009,4.251162209694847
690,-0.6071478253458252,0.7445107401154456,0.6682592104657826,-1.1801288966753234,-3.079853788119312,3.0036421890614484
700,-0.6265084456797737,0.7253328317423137,0.6517879605336879,3.8346707118859165,-1.2211317623954583,5.058450820671279
710,-0.6330193739648746,0.721267293211097,0.6367609981813547,4.257943715304819,-0.27625265453073805,0.8806587690490819
720,-0.60415137918819,0.7540615541587727,0.6603968643051517,3.161042872154883,-2.493411157738144,-0.9935992720894116
730,-0.6242003694896179,0.7369637136254891,0.6431102747793395,6.146586181375605,1.0790823684499442,2.9813190022960674
740,-0.6271795043378943,0.7363812449028279,0.6389271716418226,8.35984400635652,2.8352692646908713,5.540038975014683
750,-0.623744310523128,0.7449132889550244,0.6419461822488609,4.656936434275761,0.3396298775731049,3.2035862187746273
760,-0.6283602568780531,0.7464534331035587,0.6393932356468441,3.0209293674694413,1.2943736063710005,2.754922260532486
770,-0.6265690337359875,0.7458148219167037,0.6453299821133627,1.1582910763795506,1.0254262305866724,0.5156734852791897
780,-0.614447623696842,0.7522468659278773,0.6565816620604399,-3.4772358055833497,-3.343923936637035,-4.016563319795392
790,-0.6402692948068521,0.7240768121955262,0.6234112843762086,3.7436079480230413,3.981930964611843,4.324699023117133
800,-0.6049497871586595,0.7591882264641454,0.6578118525722152,1.1377283371499485,0.7582478413909923,1.3864202942842045
810,-0.6063333163761747,0.7609051278887049,0.6599690929793799,-2.311859409576938,-2.9960975321750527,-2.883176677944771
820,-0.6022057029158444,0.7700046295801241,0.6639081646081926,1.1574554462207576,2.917422469462329,1.5770879964672377
830,-0.6217876550910412,0.7471650063690072,0.6480670638613631,-4.165916553681166,-1.3960931181209648,-3.415101906410959
840,-0.6188624284193897,0.7375346486170562,0.6467083349937056,0.761225525557913,0.604129642742406,1.2426817878082947
850,-0.6036134921637295,0.7610314929935725,0.6665036501714927,3.384079609752874,2.100469373033308,4.1865670230490615
860,-0.6161010594712907,0.7549445229170619,0.6557528464179934,-0.4193267847211426,-1.2337214189927908,0.15626425914471476
870,-0.6370376098193409,0.7344284595710842,0.6284614706175715,3.0420588506563844,3.0799505280393435,2.9401277956058833
880,-0.6049946605897824,0.7750720158155087,0.6645363608433084,1.0495497105934448,1.7610305040233531,0.04502241475216029
890,-0.6179556739262132,0.7510404466550824,0.6539168090313754,3.0173586515277844,3.3294823043038,1.4680884239402383
900,-0.6431866383019799,0.722849076691871,0.6258590527599772,2.3246681617550355,0.9242602162348481,2.784386180632779
910,-0.5784582911333961,0.7998004528907845,0.6828405350236203,3.8296218204868837,0.6966007424922045,2.05635131669336
920,-0.6143502588011134,0.7538549054421856,0.6462224028840947,3.0895930619886274,1.9850452988876877,2.2446016104535174
930,-0.6219480655128878,0.751039222441316,0.6471402331330011,-0.8185246862023989,-1.101370756142499,-1.637717233952154
940,-0.6151763269022931,0.7553365858219501,0.6521573454032631,0.022039708159505844,2.1008800126091147,0.3284391948667158
950,-0.6074695613248942,0.7588251244068184,0.6571797105820165,-2.5211292914906944,-0.12219903391344122,-1.7377115709431694
960,-0.5936064911315749,0.7727408373289013,0.6721733270359168,0.17241194163454376,1.072418234548811,0.512029589024145
970,-0.6168195490831626,0.7521965092043087,0.6531006981725738,-6.0339149486936146,-5.663615123465655,-6.112414241626614
980,-0.6136958554685855,0.7550166127029563,0.6576670341345845,-0.8623580774804604,-0.40771443809843516,-1.2159251493365777
990,-0.6067859144858989,0.7600264631742067,0.6590683406089061,1.447883460623655,1.4148617926546248,0.47224818627597454
1000,-0.5880073130867349,0.7795586939519082,0.6774898171656594,2.374899025766916,1.941490754216821,0.7526815936049545
1010,-0.6144599501434254,0.7549661634585443,0.6540341106412971,1.948975026760927,1.4664539091742403,-0.11826579830950168
1020,-0.6378383514156551,0.7279269736913788,0.6296532065461526,-0.9643997111853102,-1.2237992117480576,-2.27989247586133
1030,-0.6099155243526448,0.7534024277380907,0.6561462585309609,0.3543398535667723,0.09131871796491674,-0.05040599809435198
1040,-0.6065895113358732,0.7603099824671439,0.660329586250339,-0.05919539085470671,-0.5536088461732172,-0.816430397460647
1050,-0.6064389826922266,0.7590060438027144,0.6626724420728707,2.0059872685829654,1.8785269776041655,1.4117726623181004
1060,-0.6164435637887717,0.7483198926585785,0.6489092556715637,0.39189177583416923,-0.4196696126998809,-0.9101566719798694
1070,-0.6228129837725876,0.7357914681510731,0.6425442296532669,3.7538170108053537,2.901421823071447,2.6717116076299514
1080,-0.6005389874655502,0.7650677033399236,0.670128190988787,-1.6997227613712242,-1.986916875299399,-1.9604252902220414
1090,-0.6382433035901469,0.726329498673446,0.6326989897324381,0.8984030855136105,2.231172260878547,1.6527202853725487
1100,-0.6010031530773583,0.759090247647856,0.6649243390270749,-0.6202295533281927,-0.840040340638425,-0.20501069790591042
1110,-0.6355449404134395,0.7302204412212685,0.6379889720987503,4.143178033796266,3.1922354745955164,4.1153654929080075
1120,-0.6047012227245815,0.7590980479813162,0.6634534107285482,1.4066645107025935,-0.6679796014473002,-0.75672474790687
1130,-0.6247183572899395,0.7388711195225239,0.6408105500798154,2.429757415077521,0.6918919448970684,0.4786185574028786
1140,-0.6132314883168651,0.7541407883622153,0.6578227543255979,0.5131493778644811,0.6905207352699755,-0.13470907881712718
1150,-0.6299784377316592,0.7355940780888193,0.6394233983036947,3.0143326018787944,2.5800064541206025,2.5704685850269327
1160,-0.6138933281619937,0.75199251985198,0.6508847113367255,2.772932279064789,2.4324722578303444,2.0542933513970283
1170,-0.6234900784921522,0.7467940475635767,0.6400477149534878,2.5419089064982243,1.8914489545988464,1.239653460020137
1180,-0.6127765287801472,0.7566246733723349,0.6547129780487363,-0.8340641410628304,-1.0653649891376071,-2.076249111235175
1190,-0.6044919456031727,0.7667657670774596,0.6642590281149094,2.995686199504915,3.0104774260261293,1.8547704942758203
1200,-0.6270548833890438,0.7446791213088004,0.6440161310318822,-3.3301761945486206,-3.0600307661859447,-4.43766722898283
1210,-0.6218376060023307,0.7483223253322737,0.6480718881700671,-1.1425779116611081,-1.8615844411373397,-2.201622284500642
1220,-0.6124688508041941,0.7569006178339315,0.655346362960534,4.853815798384767,4.252203014312312,4.49582979346811
1230,-0.6232457870385234,0.7470361873849818,0.6446906598034803,-3.2270902933653938,-2.068802561668128,-2.6965893768050275
1240,-0.6030603440556005,0.7673332470293294,0.66558482992042,2.0943147671948577,4.133872371416473,2.155957671959325
1250,-0.6226598270906385,0.7463947127230873,0.649305053663144,-4.023842148685784,-2.2362706264447443,-5.081224457244459
1260,-0.6135464757406695,0.7543652584546461,0.6590552020541058,-1.3659518332730034,-0.3073029222216711,-2.634299817110774
1270,-0.6179863666468606,0.7480130416875789,0.6481369304847291,-0.3566229872380584,-0.863782379148733,-1.1590094840104206
1280,-0.621485017601102,0.7445550173447361,0.645482124775463,0.5523561974183584,-0.8179457849642487,0.6542164197713232
1290,-0.6423722530538954,0.7281156994748801,0.6274078152916369,2.7050766025062436,2.593110048528749,2.371973706013071
1300,-0.6057855292164327,0.7651068178512068,0.6636154224846799,-0.5103369017917246,0.01889443771258459,-1.9257184295387062
1310,-0.6000242808332643,0.7630784859081965,0.6712240816016182,-1.5351349722628524,-0.8560812262236283,-3.292198818785206
1320,-0.6297215117088769,0.7329281908283917,0.6336666872309903,0.31479922375099234,0.0023218580373732256,-1.3622671330335954
1330,-0.5978150275676378,0.7695717579895505,0.6741352484564744,-0.7252643082635252,-0.6881984397507648,-0.8925954018740667
1340,-0.6028128862604678,0.7644002608197399,0.6620699310759868,0.6843601011314692,0.5333199024957831,0.6186411918244769
