time_ms,ax,ay,az,gx,gy,gz
0,-0.8890547209534285,0.40563872370138854,0.43992893607437666,-0.9167908633024112,-1.6285399328061425,-2.26056536768107
10,-0.8893871903883175,0.4102250722859163,0.43740084975877813,2.990970783173892,0.9876509970148988,0.400471822087751
20,-0.8945735864123667,0.40413113562546615,0.43570871307673864,2.3500889382734136,2.0114382166163076,1.2603184110652228
30,-0.9155017735155452,0.3816987645892998,0.4083597809878153,1.6029552444702808,2.4010565645441533,1.5819532057221253
40,-0.9303061130233028,0.36388472402411026,0.39708972194034714,-4.756554121314211,-2.5490310398170637,-5.087196656251735
50,-0.9100054903066879,0.3866945462976263,0.41634764904242666,-0.9121387854198924,-0.3135261141321169,-1.3388524629398035
60,-0.9066162263258204,0.38597120761788367,0.42082641811829874,1.5912060229614264,-1.5624824178090146,0.6374554853417886
70,-0.8939600829990361,0.3989423939679309,0.4246857500189413,2.426901687163939,-0.052922099347815776,2.522358848496012
80,-0.8701622919228991,0.4279749697777057,0.45393785493229005,-2.121475080624024,-0.2417728634368309,-0.9979956220907942
90,-0.9199943217312874,0.3730957257248022,0.40533575866031396,-0.9638637098258729,1.1384642808922216,-0.6609147574024683
100,-0.8949665040238555,0.39418040148109396,0.42662242132855743,1.7391547982489788,0.8960866253465749,1.1998715830050837
110,-0.9109402001699938,0.38347410633705514,0.4136892142483505,-0.6343063623528393,-2.7364020998373366,-1.192353022852346
120,-0.8789711358909313,0.4194977636294285,0.44003333345902457,-6.195399512877062,-4.279297169330767,-5.343812982562589
130,-0.9154914066744585,0.37350823903227737,0.4112098028738881,-2.854681664482277,0.2767800195407776,-2.317898919506118
140,-0.876543682376122,0.4191343151010891,0.4507955247785475,1.232897967413315,2.2976843342562656,0.0459074084076978
150,-0.8814794486975902,0.4071098929704139,0.4397108192045643,-0.9776632983732125,0.10092220982354028,-2.064247253149812
160,-0.894352808206638,0.39779629162998187,0.42998063824666183,1.4595836742506363,0.6787132200482158,1.365032733029011
170,-0.8973035570733648,0.39073388159279315,0.4310156773289058,-2.3941017202289188,-2.174277802540777,-2.32208832132334
180,-0.8944301028556845,0.3913698695515221,0.42935821714799516,0.9197929680916557,-0.610802700853922,0.19836853989653647
190,-0.9285591815726044,0.3688026527776934,0.39938782039861925,3.7690483413401763,1.7390133588747645,2.7298044001450257
200,-0.8989544364222344,0.39490507608222525,0.42056873435813014,5.376323037018627,2.3893738635386916,3.93145446242891
210,-0.9117710071097678,0.3749646083532271,0.40841658629613115,1.1308254185389166,-2.6156872417503894,0.37430999471646187
220,-0.9322945814273398,0.3586940354442745,0.4000813932614966,9.209784381958393,-5.265623905053845,15.627705556817897
230,-0.9077069397855844,0.4362157078759207,0.4292241115336581,2.7661409466527096,-6.246838836471381,15.755788063904406
240,-0.9758227718934895,0.5227997941345529,0.31030470361090245,-20.65370583609433,-6.305622982133624,2.6179744132056055
250,-0.9592994685723698,0.6002479493519547,0.37139573539684967,-27.86074990175487,32.115099113513864,22.116646040763584
260,-1.190658378708402,0.48472593816606196,0.5979468053888268,-49.91501568006246,22.77073691896478,36.52498137945039
270,-0.9431217006443873,0.4713710212810866,0.3933177639438248,-33.415239244958684,-42.917344081671594,24.12965734398679
280,-0.796759374829673,0.47610507019802867,0.3753555145442281,-31.252863228161416,3.6407116887440463,24.50260908669368
290,-0.8198563667264591,0.5319247148418458,0.42100894864469873,-39.302060105878816,11.736770945818025,23.447354874719895
300,-0.843763367661281,0.44437499670461406,0.38234872770681494,-38.75095437969579,22.284563988691133,25.949403414598347
310,-0.8028294223623177,0.4604550106207554,0.37130588833694417,-33.93192953570007,34.63312887250188,26.130413161581444
320,-0.7977410867548983,0.5097118100037948,0.324895352408733,-21.178836277368102,56.495248683091035,31.802545563092607
330,-0.8522453172063391,0.359132363385849,0.37144766063675827,-33.46183950656119,49.750809149042674,10.24027497011755
340,-0.9034690330951758,0.3296307134232202,0.3699061426973207,-11.641187700388159,11.320054206413435,-19.6740861790531
350,-0.9368788867871237,0.37045626725030323,0.3498217326680195,-8.374362669632493,10.534011436482924,-6.605034535915308
360,-0.9048169754104882,0.402292747930989,0.38026260859909866,-4.329178801084353,13.297578663173681,6.668646198643636
370,-0.9154253522321428,0.397858136321147,0.37541810967876893,-1.8668450839623845,8.19230768359409,9.45053391927854
380,-0.9145780501499303,0.41711636916884537,0.41040998122570316,10.928274255727338,9.202127805018746,17.903121903559246
390,-0.8048669170029185,0.23680425949963418,0.464850272826719,1.2420686900777103,-35.64971510093973,-11.003784759787411
400,-0.2830295403507601,-0.5320891455174848,1.3009357844273,49.863699492439984,-75.3614826716078,-59.268651826082156
410,-0.939877514616895,0.8315412965157291,0.842881777175397,25.40843896987972,-93.03884687813225,-62.07900815228337
420,-0.9807680646180877,0.22153634175199602,-0.0195830300560062,60.34283455541789,-103.88638327587017,-40.90831286829528
430,-1.1874246768337158,0.8694992306724918,0.4328351638647044,45.437819075999634,-68.97415601332406,-23.884868066625366
440,-1.1945649828055322,0.8747983752526654,0.0738047363572447,46.802488233456224,-63.116848882562564,-17.12684285292194
450,-0.023284675607408812,0.24322967246288263,1.0944299681787337,15.333792865561207,-53.89005432469474,-24.10371540140094
460,-0.845517604552841,0.5491531787265911,0.4398497215751988,48.10859973955333,-32.35165711578627,21.5735632797641
470,-0.7534412349228695,0.8686356477208096,0.7819480927562846,6.688050429686561,-31.882503550388506,-3.92009365664034
480,-0.9521013632069533,1.0073851434291807,0.26535494198312715,-6.433871674852128,-22.298457799218525,20.379721963340483
490,-0.8995745571612409,0.5301920166715368,0.5256327349991304,3.836998875329079,-8.712097043695103,6.03786346855448
500,-0.9169017928374432,0.47024760520829606,0.39742600216941665,6.247105189482905,-6.724119869679061,3.0239994749190773
510,-0.9155703095385338,0.4088385523211478,0.4769247150723239,14.078254068846736,-7.120157076139605,6.62596769739518
520,-0.9408937246470809,0.41571570916727735,0.3552748784725487,7.358795688856367,35.52871750117105,-27.02416587711009
530,-1.0112822173821168,0.2968874412635299,0.5121373165898035,4.144638335689749,62.615217935555144,-41.80519351596434
540,-0.8122539811861508,0.27826755453407576,0.06773869765919587,-25.090824639132617,54.512045519589094,-21.730956515811627
550,-0.7923390485381544,0.16076625693588392,0.134985497155239,-26.7007866218254,83.13126328630598,-31.120722120696584
560,-0.9211197970800159,0.4387344350549094,0.32048758474301214,-11.821103795474983,69.6381453633296,-10.66612742132313
570,-0.944525377902483,0.5671800366742349,-0.20519439409276535,5.304539779390634,99.29299412628495,-15.684425766019405
580,-1.1197696071824952,0.7816146428538375,1.6585619378133012,-1.4407097436709737,56.30815986185714,28.983136789546624
590,-0.9478794730745346,0.35871588932244747,-0.17289234282725272,15.77238256624564,34.416053632782564,32.94167538281617
600,-1.0350868038983358,0.5394595344438349,1.060644658570452,-11.369490242387876,42.7650488031065,9.705859862278302
610,-0.8485899588203495,0.4006997816502054,0.4202634312219001,17.812662259189047,36.56240187484216,15.958240176217217
620,-0.8492831099690685,0.38855285881557955,-0.5754578269812144,13.013749507201126,39.46648076275505,19.759255730507842
630,-0.8110724540148497,0.20339041020679705,0.49456969676863893,-1.92419254242064,9.912945887511967,5.795018428417613
640,-0.8992914405365623,0.3990868015464026,0.4040892400354442,-2.309092409707086,3.749389284142185,9.95503346017932
650,-0.9443205251271958,0.3806748372025643,0.35441220765770165,-9.20769888907455,2.8605032765192644,11.150097242082158
660,-0.9275737867016373,0.375109678783513,0.3644127781469377,-14.614584149812261,-1.8256343943324442,13.877762105955817
670,-0.9236730735876881,0.3445824085234367,0.3978229806080219,-19.407462706489383,-7.810099728390884,14.491769860628466
680,-0.9203830114319793,0.40716787825210843,0.39956144467260835,-23.47950875285607,-9.096153490018215,15.0161344092636
690,-0.9249985703998552,0.4250226155528153,0.39479337614741733,-27.546450392623022,-21.388012802054398,6.8096141704464035
700,-0.9304865476760797,0.6319846484511399,0.2664851445614688,-5.639134751287037,-92.81554450852181,33.26738354387617
710,-0.7859405845394934,0.6367535133447332,0.27519664377047526,-24.927404587632736,-61.15950288714424,32.141192910668096
720,-0.7224101961695445,0.5371349701793053,0.37554601504612173,-40.207663268163174,-40.52523112329982,29.011337324721428
730,-0.5681819860097292,0.41531251429515054,0.2428445736061515,-40.24145621141989,-13.114559681959662,30.562235301491214
740,-0.6115452331792124,0.38004628593869394,0.35072296373354594,-46.54863142523465,12.315964052672221,19.5994586728064
750,-0.7068361049380734,0.2852048982904733,0.2909922404157764,-52.587481304855146,35.40984694972685,0.2181328219074794
760,-0.8681561129591147,0.3093656902422707,0.43275338660308516,0.7343492052801941,9.42051103368725,-12.589804212156595
770,-0.9113849806753106,0.3064627484263491,0.4219378078797262,7.620192214060803,2.6808328931576924,5.296914798527075
780,-0.9147727783325955,0.3201414223995297,0.39224636779338556,38.41361076138495,-2.9933974757970017,40.18752592770341
790,-0.830852947331651,0.3181890165008671,0.38492130465192737,28.660389710774965,-2.643125880651122,-7.113853907088545
800,-1.2091973609482827,1.0961037811709438,0.08153247722556561,52.93788436944414,-19.592814753356336,15.306253074767413
810,-0.9323783692688006,0.7549069976302111,-0.21424551267970457,111.50993288854822,-18.829913336431318,26.210388799057014
820,-0.2125541019500905,0.061815659378169394,1.1408328667195993,66.37175762803614,7.608058630924528,-83.14461687105525
830,-0.04476616340414382,-1.2847008303992395,0.29318308661242504,14.154179389862444,-0.3709487509228764,-47.53088128281849
840,-1.0856424310839015,0.8658166858777426,0.395026621441452,27.29401280482681,-1.7169505399014948,25.54217705637448
850,-0.8791990267288219,0.3948508848643334,0.42278034127136027,27.40739312516125,6.96209023594726,16.59805400728722
860,-0.8922990961409049,0.46908606362348,0.45450847274566253,14.292513070939103,3.8165450900968243,4.693080172583187
870,-0.907790847039867,0.4285430056567899,0.41981412529007844,3.3851459149113188,4.76541400261257,-5.267508153118674
880,-0.9028218320933065,0.3933813360789645,0.42561669848487854,-4.444618100963023,-2.671951583555262,-5.906540188742601
890,-0.8933381799348554,0.4120549960381017,0.44540570907599253,-4.006064009993109,-2.3601327882561454,-3.6445098389993404
900,-0.8803704762114057,0.41062039197462175,0.4459796525460768,0.738110294163413,3.765178033875749,1.6873226782987625
910,-0.9021972419810522,0.39764444064479176,0.43118520434928664,-6.745653543984896,-0.47228968757948664,-5.520627526512149
920,-0.9117833998307168,0.39186006654042926,0.42761509347715415,-3.35665428334063,3.321927764444601,-3.9651265860870435
930,-0.8946642958605772,0.3915909618058684,0.4364153185290453,-1.865018667052741,1.896648487405621,-5.215606560481264
940,-0.8759655258254525,0.41558145766041255,0.44896514931165465,4.819032297854079,-0.1689877903485948,-0.3040905118067586
950,-0.8832200099822051,0.4208412671534344,0.4554106234106821,1.1984032118030457,0.30092481380751235,-0.9878146436849669
960,-0.8956096987103308,0.3988674935537373,0.42802837452343023,0.686912617146385,-0.12514287326034013,-1.7960559172998511
970,-0.8932221809360489,0.40511727899312056,0.4381269763994066,1.6990958563606193,0.04226374265965427,-0.7192436145479328
980,-0.9001926331888042,0.39434103020372085,0.4325193499580462,1.9204241169555005,-1.2530770342337498,-0.3186091684710928
990,-0.9078131363725633,0.38905248129472036,0.4257316378436017,1.9804981329045224,-1.255559078272849,-1.517274570848129
1000,-0.8922949547735601,0.39991353081218733,0.4385460672642335,0.81262992729797,2.2962511553801206,-2.4697603019493517
1010,-0.9013302244653726,0.3987396586907766,0.42896567112280093,-0.12272014792576746,1.552542311668867,-2.8437004706776654
1020,-0.8849824242883063,0.4137209705472968,0.4555259585758271,-2.6299922731363474,1.130502269474403,-4.688673113185745
1030,-0.8725197861853476,0.4249301824302474,0.46169318842690926,0.01819055522259605,2.891335337870776,-1.7767830628567802
1040,-0.8962882669560591,0.41128867381325773,0.43810364223272424,-3.2817656117449823,-0.9294372431094514,-5.12541608176417
1050,-0.9097305190956834,0.3829179899757773,0.413223494855521,-5.378277349983892,-1.6314871548990961,-7.077118858981682
1060,-0.874260216851597,0.4007843084779744,0.45735169506750223,-4.045297436969969,-3.271929256481422,-7.604049728164877
1070,-0.8997617544369719,0.38672395473721194,0.4320026670394426,-0.5537843130979254,0.325408273696015,-4.567110239568466
1080,-0.9082324167174259,0.37423270370794537,0.4188651874937829,-1.0990538907018887,0.026944316987756345,-6.086899218452965
1090,-0.9004544876900118,0.3848153599091344,0.4218184969449577,-3.580296762495495,-1.5697539292703273,-7.615629228780827
1100,-0.8920313385255938,0.3880076409918048,0.43481332943048234,0.803521711392013,3.1391824055404025,-3.8725422481205434
1110,-0.9193322240275335,0.352096512353136,0.4003366679479569,-2.9199839664508103,0.11892674876806142,-8.955318126583308
1120,-0.92650199755925,0.3450305087623599,0.40888957553415683,-1.7000734292424904,1.0492841983158419,-3.205570046312136
1130,-0.8966688216487425,0.3680825651611618,0.43005580232718355,-1.3527932245785828,0.5160822415971869,-0.4797396485549691
1140,-0.8886913294237709,0.38598817455441364,0.433622424133714,1.9043608549667945,0.38206430536272873,3.7404412603845674
1150,-0.9047012425457017,0.3779328198164619,0.42359534460791476,-0.5533306044415147,-0.2735621504445303,0.5033579292726142
1160,-0.930074136034038,0.34006126835399475,0.393979201340682,-1.3166437702923903,0.5597768933199918,-1.306492063392506
1170,-0.8758440135638375,0.38910267957675426,0.44342321036976234,-1.6309094734614424,0.8283320349296674,-2.711415306209596
1180,-0.8990481417611728,0.37968708450140204,0.438576806543827,-0.416428821087341,-3.3644723411298223,-0.5523524530506845
1190,-0.8922318294205883,0.3803635692801287,0.42824041801337315,-0.6150361842366865,-1.1046341089997067,-2.1772549979746083
1200,-0.8809335667919157,0.38242377749139633,0.43402773899585345,-4.051703556709661,-0.40495800000345605,-8.105768985001005
1210,-0.9110420947262043,0.34770215130094834,0.4037999148856503,-2.3473956165515086,3.116548346449777,-8.459786313301795
1220,-0.8706158950056423,0.3624015188763689,0.4443159751712833,-0.5570820896219313,4.366915232060936,-6.366714445902081
1230,-0.8719742020105792,0.3768422890246928,0.4465085553173363,-1.3892500688880667,-0.23134839795434736,-4.990421310719929
1240,-0.8880626625169354,0.3836670508306039,0.4345629178920589,-1.5393522117409892,-1.6942078687147972,0.6524594299792237
1250,-0.8947678844533121,0.36643415962942666,0.4236688111983697,-0.3124797930847044,-1.2791167393916276,-0.4498406476597493
1260,-0.9008469208608257,0.3736068685010263,0.41921081023641227,-2.2096039931872955,-2.1382399329906536,-3.5855169770972357
1270,-0.8949414582752486,0.36587472184748443,0.42943804985428485,-3.0849538007054544,-2.0237980358730105,-5.698239541485649
1280,-0.8945275845359105,0.3576172597758818,0.43336733457581533,-1.778345370564701,-3.299501158151602,-3.385224391242067
1290,-0.8721943196317905,0.38812418362934736,0.4584670200252408,3.2404182143571796,-1.2930100675677667,4.445899066264218
1300,-0.8888547403428269,0.3779288120958625,0.4196782649180828,-0.5545606576165738,4.517636195355459,-1.9492303973440501
1310,-0.8993715325588549,0.3583085900264129,0.4232110161402275,0.9760548627979599,4.803919953206985,-1.9060381775355362
1320,-0.8998018673059653,0.3679198334771746,0.43048798772425434,-4.0357249020062005,-2.1470050270130203,-4.9103879092295735
1330,-0.881754105059528,0.3856567887025127,0.445791228869805,3.2057015606993033,1.8469352132946495,3.6566083143752284
1340,-0.9133852781237619,0.36032554372845677,0.40846640181229477,3.2473363336722563,0.5789220834649381,4.034302734953583
1350,-0.8854886995835285,0.3902319850260305,0.4365456926996123,1.380080009283087,0.08840826285660386,1.8427438744305265
1360,-0.8867988489595714,0.374989947740208,0.4345182706596119,-2.3691434220194805,-0.7258500373991894,-2.648860238358586
1370,-0.8919673772105197,0.3726647917637317,0.4276177141325432,-1.235315948727736,-1.3785509592564902,-1.1376941215349874
1380,-0.8853132400918592,0.3785271905717312,0.43750186040109834,1.7284777215368856,-0.5984221143931467,3.199609783815232
1390,-0.8958936989525047,0.36407611762177217,0.4088354829022824,-1.0350213195890197,-3.7310391972193973,-0.15304565956315663
1400,-0.8888410990249117,0.3754032741936838,0.4162467191618539,0.30927503946855234,1.4067256094697709,-0.909790787502682
1410,-0.8955948165434797,0.36536316803824387,0.4230834820516629,0.9779684637811205,1.5770529709148247,-1.379782382401641
1420,-0.9078798296741868,0.3651308389882258,0.41111859911781556,3.122611819085063,1.444638132372956,4.418109485357566
1430,-0.8863948496874563,0.3828382580867854,0.436054058932408,3.9487792974188656,3.0084417573066107,5.739847950934868
1440,-0.892519296714077,0.37554844650168345,0.4349528027155752,1.6032341493763058,0.06211592006983502,2.0949108881226346
1450,-0.8814710484253251,0.38678652815119974,0.4466065830334848,2.0185245856287115,0.01143600296703294,0.7991771146988892
1460,-0.8861541323085282,0.38694715653315415,0.433767695922095,2.749858543491278,0.636171508328574,-0.6211112775098071
1470,-0.9097830005763351,0.3661002839452247,0.41846299932625486,0.3136358565057248,1.3222932028642098,-1.8976271393522823
1480,-0.9076273768966152,0.35839390976340135,0.4121509929262786,-1.8415127980497161,-0.48776038644493,-1.0161113628157397
1490,-0.9116938766759473,0.3478039637031471,0.39944774681923445,1.9762538767132074,3.479794427444162,1.6315586969405542
1500,-0.9142122658571571,0.3495256748278688,0.4122571590762398,0.6829013425070194,0.8070657071538612,0.3607588860928836
1510,-0.8931295616616008,0.3802436541639441,0.43555812740115973,-1.8297147475228699,-2.3486539277273297,-0.11461695297527963
1520,-0.9027085345353187,0.3627843655106196,0.41920581376767213,0.03640950825408795,-1.9747804085397307,1.672989749760663
1530,-0.9183532883749919,0.3551684849260878,0.41349796370017183,2.504742671618492,0.9122826474713205,3.1118567038741345
1540,-0.9095022850280408,0.3559123715163915,0.4107313700540918,-0.7615375757895761,1.4669565694000997,-2.290883777309167
1550,-0.8936100202860092,0.369381053783948,0.4184247998580246,-0.09740656506847123,1.7092442787625384,-1.6336349223072961
1560,-0.8485142178209892,0.4073455915315649,0.4714068626053984,-0.6183778460449864,-1.096088757737948,-0.8741047164138738
1570,-0.901688002769109,0.3644404030641977,0.43032256660024887,1.9701675905236327,-0.18782020674082567,4.322810305866855
1580,-0.9030384258102214,0.36554474212312293,0.4230889694818974,-1.2414810230005773,-3.7934640093177863,1.1900612735955873
1590,-0.9047663792616986,0.36430981288707837,0.409095603102555,1.328946745531542,-0.7841290893401329,2.002734213979495
1600,-0.9017989580195174,0.3653241322414959,0.4203381237488374,3.0790958365526917,1.5959114190531083,2.4323692000460815
1610,-0.8659976326625022,0.4016467056524542,0.4533624624278006,1.8399503487364588,2.328084077106367,2.835541246868747
