time_ms,ax,ay,az,gx,gy,gz
0,-0.7554451256283523,0.8759104803537872,0.8681638834219649,-1.730476424420894,-2.508644979382022,-1.9517576822741383
10,-0.794151368960751,0.8444488000849785,0.8295371690147642,-0.49461081686567604,-1.3617767141033572,-0.6831021751628172
20,-0.7642782242652407,0.8676226191584251,0.8576236242506503,-1.8283521134265495,-1.937753200331588,-2.2932489111676713
30,-0.7452892193455926,0.8795239488581394,0.8732684554003306,0.7287614913217343,0.8314452966170275,0.3442769655260733
40,-0.764506885977532,0.8616488777532602,0.8575707726532883,0.6736024401270011,0.6769557948175009,0.7976252500341197
50,-0.7803088980393197,0.8533771016569817,0.8498647987045742,2.1777158445219564,2.039761334601524,2.519899310688094
60,-0.7582340343622263,0.8776878304277516,0.8695431069230343,1.431135068626037,0.7978693981239261,0.7879630206690844
70,-0.7613852452660642,0.8705855973725761,0.8605733190709952,1.4041490351568615,0.4056520763604744,0.3568301873539503
80,-0.7910552207117546,0.8392651042029302,0.8321414812064316,3.5386189527741796,4.312911317032332,4.24806524284656
90,-0.773244657391937,0.8635226859902565,0.8504741376339757,1.5263488018305131,2.620443361365158,2.9082600460006587
100,-0.7875024627535855,0.8464044756992384,0.8332334357437435,2.5426310068198243,2.2477456361652437,2.6675756800892794
110,-0.7593712119229596,0.8668263924439022,0.8568440478181681,1.7781841480156813,0.5708332657659713,1.1698997828780449
120,-0.7859827498597853,0.8417186127517149,0.8310360286862399,0.8048322643139572,0.6623639874749151,1.514950129588828
130,-0.7844188606788107,0.8550920778923571,0.8472485740942991,-1.5228276503479683,-0.9745467561955978,-1.2425783617488415
140,-0.7943803609405344,0.8372441829628732,0.8232626747187093,-0.5913563188531563,-0.6826911476637529,-1.586153876257891
150,-0.7545199122537588,0.8706033427413647,0.8610140014009094,1.492585307756663,1.3024868954273252,0.2778404615090987
160,-0.7743453934739551,0.8494011074613135,0.8412986458183482,-1.0213627115505848,-0.49710397418857366,-1.0588070400166107
170,-0.7802551231301225,0.8463532832275964,0.8384469977206904,-0.6828565534231422,1.0523936227785389,0.6734151084394563
180,-0.7573358402533191,0.8719869340642188,0.8658968196366504,-2.5206377616737274,0.20895808284258655,-0.2368721866021728
190,-0.7689355060884031,0.8598008015573748,0.8567692019058607,0.7318916001215543,3.3923898383643847,3.409648275345072
200,-0.7527829526194519,0.8811194841060873,0.8790480766500137,-0.2993536923729785,0.6068076234873132,1.0846818621262906
210,-0.7633006260753907,0.904401667293491,0.8548983237263313,3.8806782255427366,1.7495798900198354,1.1942335422080066
220,-0.7591878835200415,0.8855768152068926,0.8649204003915086,10.024412603523526,1.7608097922045716,2.0884140108507774
230,-0.7825892235867321,0.8766164958309149,0.8353416159261419,-5.093328983884741,-4.188267787697251,-6.443254744831268
240,-0.8287533711139277,0.9434970013777539,0.8575955676787027,-28.574853617126763,-0.9609552653751661,-13.465988359933442
250,-0.9699159430454808,1.0352419938493453,0.8940837375169127,-46.862435101941415,18.195591520406847,-4.202318901614019
260,-1.133988975505482,1.1749879585940886,0.902714511022816,-49.92341341694179,47.03382359806909,40.41801559438485
270,-1.2285451929022477,1.0248959022181463,1.0045902356531813,-9.96852303645894,12.691049328990063,82.84348895744529
280,-0.840582268280155,0.7283927503971236,0.6155538908218383,0.8085824199502154,10.21776778106688,94.56093151072652
290,-0.44451729049191957,0.44631294723321463,0.5936405756816787,9.424288361011627,34.88228908840049,70.35358290796742
300,-0.5473577770165732,0.8470632536073948,0.890387942385369,-2.1811095998008776,-1.7287521596878381,34.818475399544624
310,-0.862010526589337,1.2387658308265943,1.0576543338991082,-17.999433281363004,-38.953455621404196,4.946294740275716
320,-0.7423673634982237,0.8308523694712169,0.9256872907543223,-0.43583650225088433,23.250956610903962,-0.10457579788615579
330,-0.652318127542074,0.8583913788906605,1.0218951833490622,6.789362728867592,16.327024782488255,12.349491101143641
340,-0.6995572133260743,0.7069539664611755,1.1542866318012936,37.573503851059215,4.728334278859415,23.50221674105807
350,-0.317959145490734,0.30943383967940347,1.6762736374151788,62.739416443224414,-38.19505194401177,-6.626985962758802
360,-0.5314984199966202,0.4163571199678877,1.2466613666570545,65.68468154207443,-42.79197715567535,-16.32329684191829
370,-0.9239581252228285,1.0848065588148652,0.1815133890196275,59.9492334970918,-29.531734861134414,-15.98553447294385
380,-0.9848996219686694,1.4821531527459277,-0.27866764352969386,53.62094659878705,-20.36839663749003,-18.578043077883667
390,-0.6283196478098225,0.7822376741737669,0.9522621336036793,21.880670527113562,-25.14942822882599,-31.555039703147422
400,-0.4677913026567676,0.9047515866837971,1.2122402842402629,-2.4097360049683583,-48.66252888352392,-43.929803174775465
410,-0.582248740967613,0.6829190971185365,1.1028828758406148,17.479039789984164,-52.06921804497839,-47.91965465142288
420,-0.8084414688156906,0.8463441014078094,0.8721863885294607,26.21309270131839,-27.592130317980732,-23.6243808767934
430,-0.8469841662701785,0.9384312029863582,0.7834216400477487,29.220275020289677,-13.918824380001599,-10.554433013237164
440,-0.7697266329299314,0.8752735661435569,0.8187783441262195,2.1045387293868845,-15.152309536411467,-14.77256058944309
450,-0.8254960601747346,0.7316005928382535,0.7602906171470224,-55.714738382208076,-14.202443125814764,-22.78808118699595
460,-0.9519918084370356,0.5518134393244111,0.5667473922596696,-65.08723661375248,1.1024712379555817,-26.136088560453885
470,-0.6891200497458506,0.8639355786426616,0.9104141097830991,-3.5804594516564627,7.651671989108125,-3.504598243621736
480,-0.6292720658985849,0.9222496883145231,0.9951984748469818,-21.741458420802633,7.003024212222914,8.401385262443856
490,-0.6739256149895427,0.9094610850302256,0.9612907775545777,-17.52685837850778,2.627106935569724,15.730779533194385
500,-0.7085398818887038,0.9010655139292145,0.9281545448103483,-2.499036193563445,4.196479786076653,21.866868425907256
510,-0.7452360127523456,0.8794532384713104,0.8860545817898379,4.852900282528145,6.175064170382866,17.445909704644915
520,-0.7768820699225647,0.8909128174155255,0.8459755240088012,13.390351443395252,5.521714540026531,4.3643509191677055
530,-0.7855970726436906,0.9484200141784098,0.8176138991260885,-2.175452242494214,-5.316192810564308,-5.031885805615807
540,-0.7758347027956473,0.9120392960325726,0.8234668499684304,0.19725990429590623,-5.6371432991618065,-5.3538828856635625
550,-0.7693878916260454,0.8778610754952335,0.8503099016533859,-0.6693920929174134,-11.289795443427153,-12.116990922475832
560,-0.7856157240985268,0.8749633800256362,0.8270878756732906,-9.237326028888827,-17.405074097667427,-22.376634734638795
570,-0.7559273372023354,0.8646284671099337,0.937799958119021,-11.863411102564022,-5.690662379227053,-27.638714614725583
580,-0.7374624011524774,0.7406044480028419,1.114399360644346,-13.655648075205496,17.006201556884726,-27.587282093380917
590,-0.737677392007109,0.6211846732564495,1.1150208672232509,-5.11313074771436,49.25129197147692,5.837967682742499
600,-0.6296275739908829,0.7077733196221095,1.332975184354134,14.208692997412875,50.65985112360048,12.153003629648726
610,-0.5985508166952661,0.6632796857747589,1.5057848875586488,10.628983067566683,36.08095056686585,-1.0380484192212704
620,-0.7195329088132694,0.8077645628744312,1.0264157759360368,-8.350594925093482,25.55225844157543,-5.429076209421746
630,-0.7679838918035008,0.9072076714814177,0.7180719728137716,-26.435844937072318,20.15617172329128,-6.52625858305913
640,-0.7741893020031908,0.8358531924135697,0.7626827769275305,-28.70634220379199,10.750856003913524,-9.189127093514672
650,-0.6424596672644167,0.8132864776863179,1.0426917237215894,0.07519777671530292,-3.4249706792638692,-6.254798189503434
660,-0.5799259501579106,0.4427079880856556,1.11483052293934,30.836928189671323,-40.058556262735976,-21.386641260189936
670,-0.5548569446716991,0.7179122552213413,0.9831332934987086,14.747353257034634,-51.731294544308405,-19.634131130753865
680,-0.9624806787873471,1.270802920861706,0.6839828057056578,-11.095371159289002,-32.99760134803659,9.60496348080044
690,-1.1152377574814711,1.3864951892714488,0.8174382525915989,-5.709599229966942,-29.881106653399346,48.38195031592168
700,-0.9856436478979664,1.1475977103710184,0.9257076837931102,7.434540428922694,-41.22091349420532,73.27556688188224
710,-0.665319584213253,0.9358739796555512,0.7893033611006715,8.59799699281246,-43.494903136596065,80.29470438123992
720,-0.47387942770289304,0.7781618717796008,0.5651530758411154,-7.2964478979627545,-16.613142571788522,66.347978072329
730,-0.5997229857476224,0.6113385175509207,0.843769919870742,-47.20769010959103,76.65032741371354,-20.551008553715526
740,-1.5907289173660364,1.09704995381954,0.26829951862902357,-68.10608999083071,-24.175103615010517,-24.541430232397136
750,-1.0488772779861077,0.9956696339134659,0.6003440754055723,-31.351527843587203,-6.725408507622095,-3.19938933124521
760,-0.6926947317482703,0.6529279232785588,0.9583221466000488,-4.873215241780456,7.805541272545229,2.099836230953038
770,-0.7631050177841253,0.5412084914107974,1.110035593305211,15.517526768069,2.442681820800283,7.6543182095785935
780,-0.8954493113091073,0.3921767545761063,1.123848893471159,40.79391323417877,5.919694438519758,15.367292907468793
790,-0.8220450213440496,-0.4019289296333765,1.3275841710296303,-0.741398608958284,-26.437500118734437,-61.38407160323173
800,-0.6159709024698504,1.6653300479732964,0.8484137777026294,-1.0461442323591448,2.7562992866776987,-20.136969588798664
810,-0.7145835866714233,1.2494480680913644,0.8642084841055678,-11.34530762459789,0.1024025465481131,-22.581502177584497
820,-0.7600942492207791,0.9986222953157629,0.8807668555650063,-5.669227358351148,-0.5492366783514424,-17.934402035845917
830,-0.7838171415843848,0.8995220551740495,0.8357385497156724,-2.6481979374397193,-1.3097514868850348,-12.441807317903786
840,-0.795315322828975,0.802635123137093,0.8098495192449449,-6.9662498236849455,-4.248231589668661,-10.294494064076394
850,-0.7812689877046445,0.8021298536316195,0.8402516505796587,-5.511203816361637,-4.074810369958627,-4.090802476507804
860,-0.7442250658189465,0.8081249278210212,0.8761554623735671,-7.602489499055278,-5.661427552780683,-1.3750510799825946
870,-0.7772867491987276,0.8005868967721823,0.8551580350630811,-4.901732518560988,3.460371097186837,3.514563513445501
880,-0.7637384115392158,0.8136409298227536,0.86292793389592,-6.260409291684489,1.7953113328494301,0.3203105874622123
890,-0.7652404563427019,0.8071227470719351,0.8545868710098584,2.6341446889384645,7.675118682713616,6.224648103877516
900,-0.7739707345227583,0.8001010146836789,0.8509688646743256,2.0046147632326687,3.7791086909547738,2.6549670342191236
910,-0.7852285446952194,0.7988847623930189,0.8500016513782538,5.182088505144467,4.260542685891617,3.2542452708200975
920,-0.7601686679256936,0.8369600198641575,0.8672398290496424,4.4542923180579095,1.244649622080535,0.5594781428264985
930,-0.767556667052653,0.8319580565110054,0.8606577251451969,8.181434970221643,3.956806561304378,4.1506318242822315
940,-0.7701129069015942,0.8300130480941859,0.8519289227534268,20.761605867431662,-0.7714372722173946,0.4701722253629306
950,-0.7802176628646001,0.8298734566341425,0.8515034095384816,24.408324961598474,0.010462473169422684,1.0731124570382136
960,-0.7545920000491032,0.8667185722307675,0.8690628144496714,23.716592107082747,2.341365858198996,3.54925456127443
970,-0.7652552812541084,0.8596646681723568,0.8429645063797495,16.968729481095398,1.3825076794043767,1.8213735896467682
980,-0.7845751209152789,0.8316224516868754,0.8311194897838375,7.4848816354015835,1.1640320966230426,-1.1404272585345496
990,-0.7960377756331904,0.8013452835753985,0.8434143413206684,3.2369372052349394,2.8178453387094797,-0.13210506033097902
1000,-0.7572337391069812,0.8449523195931239,0.8626818423589391,-1.5668600146261098,-1.8329132095049627,-2.533684385836091
1010,-0.7758565444461017,0.8268900072034789,0.8436462930424876,1.1974119358329207,-1.1556768124624053,-2.528683406735081
1020,-0.7722181028947472,0.8280550220792237,0.8481945150115615,2.4026728962870383,1.5769492113321064,-0.2349832300910487
1030,-0.7597480179542142,0.8395552982394141,0.8611470931875111,1.218379582725528,1.656878254255581,0.5505181882883013
1040,-0.7903516557890155,0.8126456838788961,0.8304594601899268,2.350072524147411,0.9716071978906832,1.6873170422074444
1050,-0.7637806578803977,0.8448923084204085,0.8542732650763957,2.1152190516508522,-1.6451996028058642,1.1033685177888852
1060,-0.7809443977916156,0.8185025561365826,0.8352712772052387,-0.6673102210585221,-0.31538165598896295,1.1567367279422165
1070,-0.7900626937854931,0.8252535576067127,0.8454135949091202,0.19538339952121506,1.101188350586308,2.4017101514750743
1080,-0.7437048240415202,0.8662606392614582,0.8845937871329227,-1.4969482534225396,-1.0403975536619154,-0.8123131191414056
1090,-0.7733522100211916,0.8324949902639663,0.8508980851988723,0.9378833735090567,0.37531457284796466,0.2889142057107318
1100,-0.7853076527346532,0.8215294754388879,0.839575773891574,-1.008545052818933,-1.9530045453878144,-1.6875548863692362
1110,-0.777339958250327,0.8298993110074855,0.8458822018717845,-0.8453484199057246,-1.294045584893925,-0.6891271893173194
1120,-0.8089522874005399,0.7975976879706369,0.8176994054754779,2.542919617662699,1.62452070048504,2.6752386712939895
1130,-0.7627678769375565,0.8467378857005662,0.8673255776921757,1.9029355892251258,1.0335863436223827,2.5714900170994968
1140,-0.7865277145732247,0.8221935023128486,0.8347056695772126,2.3697105673460674,1.5109801726719505,2.759140649145689
1150,-0.7613892278187122,0.8499430767758731,0.8629709860224056,0.2675047412165251,-0.6357774985775241,0.4127187311373255
1160,-0.7793065938901582,0.8328519996712527,0.8477816638039581,-1.3899129689055703,-2.1506278268815886,-1.394776654438673
1170,-0.7757704341746628,0.832716284236093,0.8497134580424506,0.4547560004890311,0.24430990143191733,0.6837890046842162
1180,-0.7759690714532782,0.8268984708872316,0.8487389120908597,-2.2048976718831677,-1.2895579161844646,-0.8774569306621998
1190,-0.781650153795268,0.81920748439529,0.8361256132511542,-5.816104277083776,-2.9829378277556344,-2.3885065525541265
1200,-0.7727643703340488,0.8462018275031625,0.8585714130547724,-2.5252629281076966,-0.2906905494158784,0.5509665938141701
1210,-0.7912339502860524,0.8196594696491624,0.8425684553329849,-2.8396437577317757,-1.2784377276701118,-0.1802088421455874
1220,-0.7808702768798563,0.8243035180634397,0.8440869437010805,0.9960516396030015,1.335251955524018,2.140000382235635
1230,-0.7796439680456839,0.8255386844264326,0.8353301458399042,1.3742511378305728,0.6544652185461035,1.501941315973326
1240,-0.767008014502053,0.8426743926630703,0.8490638724624234,-1.09575464752698,-1.540380464485743,-0.3608891288801894
1250,-0.7639465120256883,0.8563252678669193,0.8668762918077699,-0.3795888652436986,1.0978678608680554,1.4537777506773313
1260,-0.7949798371889625,0.812108543530399,0.8228709306951558,0.6456442891977257,0.8482328181879835,1.2496695992955669
1270,-0.7691925171981128,0.8361382532598555,0.8439395798707697,1.534447188020076,1.9274739890211474,3.041496960877324
1280,-0.7534258611528525,0.8588696687843489,0.8684084592739237,-0.8974094330675586,0.8707423007799502,1.985703474887631
1290,-0.7699669205769925,0.8462600673935619,0.8570400810795138,1.1079753057136323,3.1958530204339004,4.28727349702878
1300,-0.7665866625150488,0.8495429093880573,0.8597553500987103,1.4710973053949117,2.6439518823129577,3.6712731474533467
1310,-0.7932108536914676,0.8302216268085819,0.8326318998322574,1.87340758765535,2.207940410096146,2.586381774711253
1320,-0.7614119840337341,0.8931571327997714,0.8633165384057012,-0.4236126087187496,0.20375582132870942,-0.8977859622101712
1330,-0.756624037570775,0.8645750522038645,0.8703817607108483,-2.0262985906240574,-1.8959649146516846,-3.2365842203692647
1340,-0.7603677870956759,0.8536482539148333,0.8643087880369132,2.811594365088252,1.851570092612696,1.4105920762693334
1350,-0.7652182685656063,0.8436088085732251,0.8568232903550753,-1.9337440181738068,-2.81825934884136,-1.6899351609997066
1360,-0.7697303661825459,0.8383457221877839,0.8534646796029877,0.22693604381859744,1.4935678006200697,1.728349158313697
1370,-0.7713104673967268,0.8393007219226669,0.8533438632008855,-2.083114659835536,1.0578335038855693,-1.0009294324100688
1380,-0.7818565323438627,0.8271553301212048,0.8379386398383588,-2.179017233194633,-0.9137242656195255,-2.2608042480558863
1390,-0.7548006849538537,0.8596929010379057,0.8648723299432238,-3.685776794708279,-4.085946671951365,-3.8353724065736694
1400,-0.7627371773125071,0.8469753587411383,0.8572461538875386,0.394780123669345,-1.1521715528287308,0.2795274455011264
1410,-0.7591896881109924,0.851103455583352,0.863868525251723,0.3297290003454896,0.04075333078536994,1.6922959534945043
1420,-0.7607795519571707,0.8509067250261609,0.8656517620238426,-2.119733247448151,-1.172308938304568,0.3061545472230056
1430,-0.7702598951448687,0.8417341943359372,0.8594027778296076,-3.08684570724726,-1.294620869215201,-0.7372193614150735
1440,-0.7744716417470361,0.8350122531132709,0.8546456287410638,-1.6169542664879892,0.3982931790731527,-0.2464912766334187
1450,-0.7607266982847708,0.8409000399572298,0.8572483825417558,-1.5308840661858674,-1.392221057702836,-1.3592082424186058
1460,-0.7713512074877276,0.8340404335220917,0.8556025427711557,0.4892925817792997,-1.1433779602595604,-0.017649623820684468
1470,-0.7768354304380269,0.8384741752191389,0.844123129684551,2.7722067113564304,0.17273567607972,1.4348587229954712
1480,-0.7638896631582848,0.8537164402221684,0.8487117117964695,3.073663024596128,1.2555469107482622,1.4419551289964803
1490,-0.7554618468406505,0.8637069890989454,0.8598392870698648,3.000450298870619,2.9487631217924686,1.9234586212797589
1500,-0.7942427860686555,0.8260064044963098,0.8309975064320271,-0.993554355896517,0.47007833159130274,-0.5656481737631784
1510,-0.7630548335910511,0.8529397403052431,0.8649515414491696,-2.4170729389760184,-0.6240944563452735,-0.2385472154157809
1520,-0.7745521984737662,0.8356485582777727,0.8444820258984582,-0.23875064041980587,0.8299921150555283,1.448503127509213
