time_ms,ax,ay,az,gx,gy,gz
0,-0.8464162706762478,0.8874502230102259,0.739657192397122,2.2508135378279444,0.8532521906542021,2.254194332269016
10,-0.8607456243958999,0.8692867830389952,0.7107176670884833,0.9627419210828105,-0.3368714897358834,2.3816933497950417
20,-0.855073653704887,0.8923577918302121,0.7197003026506223,2.3055740346738856,0.759706469954604,3.0733824115051296
30,-0.8396681333695535,0.9024855907864775,0.7347447305224306,3.6844252823916506,2.3451020056531355,2.9631050359120032
40,-0.8556302600529986,0.886317892241171,0.7217540992685375,1.0798057094201352,0.5546979038199753,0.2005941557612193
50,-0.8821216317068737,0.859503862029978,0.6965454915771915,-1.1191230386376483,-1.9267622421819954,-2.3588813184992703
60,-0.8364535689286208,0.9069714035153759,0.7474857874267746,0.9312200293468829,-0.12357069446561358,-0.34145301199699896
70,-0.8584348964618589,0.894181143139454,0.7355756537228091,-0.8631745109262317,-0.024463456652421223,-0.5246628834510012
80,-0.8391350121600512,0.9083438650953415,0.7412441767183046,-0.08321463358412862,2.005064979376452,0.8954074439437043
90,-0.8462637515863755,0.906965662766438,0.7394740858467014,-2.3907033120842884,-0.9447820714718772,-2.0018881115677307
100,-0.8905907658989349,0.8578190582626092,0.6940338354801642,-0.6960551959763239,-1.2743789366007,-1.9690988023663085
110,-0.8363134739696265,0.9056061432584392,0.7409879253533904,2.843750419132103,0.14935033582943813,0.27147462230979924
120,-0.8321224553535312,0.9113237404082611,0.7447956285562943,0.10185032482294809,-1.235430044643976,-1.5372299259591666
130,-0.8614698702743793,0.8817655124184353,0.7172677799909156,-0.6478997045443567,1.4286326476624998,0.4171848025197171
140,-0.8467080582592083,0.8996470395193584,0.7359762076383132,0.1792819002774626,0.864795853673658,1.4126352111000329
150,-0.8446951080345999,0.9028258263365658,0.7345869957241721,1.6274894478039927,2.206436467235043,2.487440958535828
160,-0.8950750399146644,0.8560048336920592,0.6883096776173239,1.2514506372976069,1.1908865229197438,0.6548334298408087
170,-0.8514236085892414,0.8952411837181604,0.7389782548204964,0.14335612044829804,-1.5477342208130689,-1.7624379528352887
180,-0.8613044534249116,0.8866208402837721,0.7208033098601058,-0.8287742839615219,-2.1275408805517175,-1.494201805969804
190,-0.8640752809355565,0.8847892986018377,0.7198266507126926,0.3269827885784851,-0.16717718912799892,-0.48146970958402785
200,-0.8573580491817194,0.8851156097440344,0.7292243808153902,1.437264999216852,2.048919671655712,1.4139670683117396
210,-0.8681813609396709,0.8777326584566737,0.7148928243560196,-2.8951311754124127,-0.8470636732790092,-2.2247154986601165
220,-0.8504926602584112,0.8908431236978035,0.7325830739250573,1.2521575807510459,1.8831274462259389,1.7090798519760915
230,-0.8776532888948716,0.8686602039576997,0.7041706204778024,5.60083346389138,2.307943178533722,6.237159522128385
240,-0.841370561444451,0.9163426532874305,0.7311792162894457,12.961058313671403,1.408872749280433,10.024244416662095
250,-0.8364107750346221,0.9206933317670862,0.7254896799822322,15.798512655854621,1.1943101217144119,11.959953702601403
260,-0.8683513484008215,0.8933409493990451,0.7124635127094543,12.047868924845506,0.9389628439573972,12.999637738229236
270,-0.8594520505158025,0.9460483912923534,0.7393648030792782,-1.5532348851848612,-0.6672911670923538,9.078408075911012
280,-0.882805965576733,0.9845288224438787,0.7661179684440004,-24.531153321150235,-2.5823278733089854,6.859805787259289
290,-1.1703423491743044,1.0815111070091277,0.9939610572603148,-44.62896356271144,-6.936939161206931,78.53085223172245
300,-1.1868579692847165,1.1874747243475465,0.9000075968851277,-45.985298640421654,-53.74612241359927,89.17785319195866
310,-0.8485251828686495,1.0629001812114254,0.6058798442736335,-48.75690295987094,-47.12340098783258,99.04633202605412
320,-0.4970521831633768,0.944401573186544,0.4580235762264548,-54.067181192046235,-20.852152568842918,95.38180884038363
330,-0.210900424710449,0.9063383761514382,0.3215126075124128,-53.258002475724695,26.3547818389689,83.24167077321367
340,-0.9967691544970197,0.7019970794216402,1.3468928673718885,-61.40280161655972,99.78481078797331,-45.810286117877766
350,-1.600379510737964,-0.07683137970588325,-0.13027070718016204,-26.211961271936197,-2.228520466167261,-54.532277829902306
360,-0.7186728884849998,0.8359182341394615,0.8098338376304267,-11.09303797053651,37.180032954639785,-22.494845121920363
370,-0.717770669651552,0.7637056232755071,0.9509130377938747,-22.406799008611983,-19.154872375767578,-21.61219341987556
380,-0.8786365218259135,1.0167457084759626,0.8498184772451641,22.7105910382224,-3.968429148657955,7.837057839363061
390,-0.9773749928040782,0.5165556176013189,0.6382698767580337,41.05946177820486,-21.385459412809823,-16.10481876339766
400,-0.9645622271148848,-0.5316273908892969,1.325338523134198,62.27063652175024,-80.50757381576405,-101.41325244380774
410,-0.9804774441683007,0.7791727965960531,0.6439533393062623,71.98525971389606,-91.08538927623842,-91.49983357174335
420,-0.8959411890323148,1.6937645083197161,0.267599568318316,93.52945652276267,-80.44392524462292,-76.74632493784652
430,-0.5108917891028179,1.3734181996898758,0.7772319013702834,41.40743961432962,-38.62656386565022,-44.708893938429355
440,-0.8772292892572271,1.6488368074084365,0.5273118410200942,69.63137102382345,-26.03263023519223,-14.925085293635613
450,-0.9280486004971796,0.8459047305500985,0.6197223716105067,-66.49257214456962,4.30414982816693,-55.42750899953931
460,-1.1141170065550312,0.980238810013518,0.16123843520313644,-31.605017754596346,39.38215707592008,-32.934900299836926
470,-1.083794921569625,0.9306924133223967,0.12952914499488394,17.8118102561429,60.57144155309058,-2.671826619186173
480,-0.9214041810495623,1.1504508110448355,0.4875091954755127,58.618403325272396,92.25687069623592,42.45429994824596
490,-0.9156091080458422,0.5319681286100959,0.6219277129142825,40.066794080922975,89.37798873099538,42.12153655160303
500,-0.9218638791430712,1.0377770347894342,0.20022600265738116,22.149092773948315,47.532934092471876,34.00288111933485
510,-0.8407779346024313,0.9672038004843283,0.6708951325621686,14.178538334079635,11.248777097983488,35.20921310583808
520,-0.7872001448598803,0.9730175765694008,0.8501638721583958,10.498632819052808,4.578178085492624,32.67970005364478
530,-0.7937052394860263,0.9370648332653345,0.88278791289111,-6.060650855419718,5.838913143030393,24.16635188131862
540,-0.7237337100867329,0.6883334938061557,1.3917649227088522,-1.7287697276742136,-24.774090272806216,17.535778415722255
550,-0.8897300402602292,1.1173870129706895,0.9799276936591256,-18.933464990033542,-39.90943745959628,18.49012648853703
560,-0.6321254717316076,1.0451470836437524,0.6451455883506235,-62.06846851087936,-32.807722527150325,52.206238802101225
570,-0.41821786493364976,0.7925858006985235,0.3688249794303114,-74.30251615197773,-6.463180113904294,10.77769383153793
580,-0.5771180478101896,0.7046489405263734,0.4336706390333319,-72.13133336274215,40.18492073822627,-24.299743963522616
590,-1.2398396069105981,0.593700361856182,0.6998477195657887,-64.85554618119835,12.875698884568163,-56.99366018486569
600,-1.0591571814250416,0.6255936548252758,0.6022567052012889,-49.753264452596085,-11.28519292760146,-55.376164397426955
610,-0.9761514945645363,0.5649777242934443,0.5625884201582103,14.495050045079886,17.3893695717011,-5.711240286675671
620,-0.9490638987535458,0.20339345164102976,0.6400437694257779,68.81927692711255,17.65614082219311,-28.397868724036996
630,-1.137760891989833,0.8994808017505179,0.7446808255212108,29.52013742271171,10.523406019614228,-25.375396881614158
640,-0.6566744888316375,0.9256754345675011,0.4261581849846547,77.9170323073954,4.7398237214032015,-41.05173885373981
650,-0.9614414392946107,0.27529927359283995,0.6151352387396043,21.621357715760993,-9.828658233617704,-85.3620962231785
660,-0.8444258621826528,0.6343791392938247,0.39731025080615195,0.22933465422655797,-2.093326978964541,-59.60970718726862
670,-0.8383808863831956,0.9350052931253057,0.7699288981946084,-3.014770032348803,-1.241142733637147,-5.83448923568177
680,-0.8369121806078472,0.9084023596124039,0.7699153910393816,-3.7685955168910468,3.4443636211247597,-8.244099497385356
690,-0.8717839719229415,0.868657566942157,0.7316238198957109,-4.097602765637742,2.7547968543172145,-8.443495756053084
700,-0.8703719682743205,0.8666464180314516,0.7176481465975922,-3.428963865187386,2.955667690451055,-4.489601797319396
710,-0.8475249426831101,0.8674013204771368,0.738089661544194,-2.190792734730235,0.2594409619580207,-1.754269731905596
720,-0.8784060774679505,0.857809472147658,0.7075529738744964,4.68233760331436,1.455413216780098,5.430696303030082
730,-0.8319352927839965,0.9064129878711286,0.7561225467107308,3.5753884657584676,1.1734391509137947,2.630848615393159
740,-0.8545394541021569,0.8861803717543763,0.7315070440811299,1.9214105099738936,-1.9865361472367489,-1.1755469991441316
750,-0.8726025262643632,0.8669681179998819,0.7182950090773889,2.962019851519564,-1.3532356096391323,-0.37082509858373125
760,-0.8469282481902964,0.8823531329929029,0.7432170033699709,4.6008656235530125,-0.29682370252047874,1.421100571261168
770,-0.8436989251929995,0.8810990433478454,0.7386824802042483,7.435124519887264,0.039469126952507316,3.497520702805952
780,-0.8375868629238461,0.8997529838520333,0.7444761910120522,6.135114405982096,-1.4478104549529855,2.5154319924525557
790,-0.838431275593583,0.9044423480353823,0.7480790375888179,10.155888405403513,3.524434092562903,6.7656233625200235
800,-0.8333422543971175,0.9077151227290933,0.7470379684038708,7.562224255471034,2.2581363430372248,5.215755613362472
810,-0.846978982834705,0.9025347099223098,0.7414553359739618,3.0142322019812906,-1.4379966631276546,1.2637807579400846
820,-0.8420463498361987,0.9026602139280919,0.7430266762172869,2.950729368513631,-1.1651149120345727,0.7754996871558266
830,-0.832722939535935,0.9185064991549546,0.7499329686412928,2.5890032980584996,-2.0830705026980576,-1.5404197480830146
840,-0.8579751505565091,0.8927780979805658,0.7219904065479842,5.4205960598591005,1.6220583191500355,1.3427217255698394
850,-0.816777544001532,0.9303369513332975,0.7679348756386788,1.2408990568585652,-1.5551451738803528,-2.227554001412476
860,-0.85752701151035,0.8893817197634455,0.7308065472026928,1.5714626171126889,-1.5948403180088064,-0.7109458841603191
870,-0.8548266357798086,0.8903546466826889,0.7320152392665622,6.111861141517487,3.4489629145750644,5.380610014385075
880,-0.8156192906614221,0.934439878558369,0.7663297347777814,6.006873979769978,2.3633996315131585,2.3646884150209795
890,-0.8233338637327897,0.9221306918148453,0.7566238948303284,6.829359129692589,3.6607133047865053,2.5569267406756637
900,-0.8456353291172575,0.8988916517798639,0.7376777383937545,7.052834770345613,3.081509768344409,3.6703364749278693
910,-0.8618256278657046,0.8917984493772754,0.7180989025993914,4.304784995268248,-0.026544643288569092,1.1487917960914988
920,-0.8623600637116006,0.8922516694722036,0.7197467312484095,1.7631292097146347,-1.9786337877583864,-0.32053503528218164
930,-0.8469862544906561,0.9063209397389447,0.7336302036291066,3.2320150404180374,1.0060405328145616,1.6940903123608055
940,-0.8368909228649766,0.9137399595399516,0.7437308093094751,2.181846328234898,0.9746232749537531,0.44914440730538935
950,-0.8480665080391204,0.9051473486088124,0.7327257736706709,0.23048839766812157,-1.5979001433590807,-1.2934243823391995
960,-0.8518076517161544,0.9080967980692396,0.7368629471927166,5.619636164230181,2.4085074635582826,3.2835487300114368
970,-0.851444925561689,0.9038759008692114,0.7336354082139692,4.146366552078981,0.36857209462405083,1.6223340325428472
980,-0.8282092216624802,0.9229695502076771,0.7483741545568788,2.0634669752005346,-0.7743569708594533,0.8752655642711752
990,-0.8422943183897966,0.9132672652338479,0.7372580395447369,-0.7100686315693255,-0.18105364028206095,-1.3359483477431628
1000,-0.861420264269226,0.8939564672133157,0.7257883544298537,3.86838997950394,3.072222009225409,3.2408108486277616
1010,-0.8570963275895088,0.8866679170053249,0.7163901133010554,1.6196964152522115,-0.7940856866003271,1.9319646200344733
1020,-0.8671661860792684,0.890801578470888,0.7131032617569686,0.37801204045076897,-0.8837370713452333,1.907347194259016
1030,-0.8407391494585831,0.9181449502368277,0.7394080057923024,1.3261383762662384,0.774649238570661,2.1941049875809937
1040,-0.839830155261349,0.9203922874980105,0.7346130736687015,1.2634037873497086,1.7318154144021276,1.6566322659764419
1050,-0.8552216843877585,0.9080505386442392,0.7284584387465308,-2.212819358459873,-0.7529811883456902,-2.010657783318209
1060,-0.8489339789886821,0.9129930073149105,0.736969251421388,1.472945221711385,1.9931981028973595,1.2331197066789923
1070,-0.8642830792232004,0.8895929907588945,0.717134225571153,-0.14440834692225368,-0.5475423136939563,-0.6054773403653126
1080,-0.8408368356933277,0.8994337964139788,0.7389325018411671,3.093991450261531,1.4014365679615852,2.7886264211487477
1090,-0.8261968761296062,0.9282302207276952,0.7501599385859824,3.0643783493970416,1.5515523373027527,4.317926701022606
1100,-0.8881258541222359,0.877526741265377,0.7010427065620184,1.1810218589116517,2.619402923025579,0.6403493949539409
1110,-0.8322897408518236,0.9271326449799779,0.7470799198618057,-2.8607735131602396,-1.5836471174314792,-3.1413108325091494
1120,-0.8442782506341028,0.9185280537846697,0.7393897345211878,-0.8320029691670947,-0.7753429527689745,-0.35349969402722325
1130,-0.8463931939242908,0.9115450340556334,0.7341802861895976,2.1691300185351197,0.12650963550468508,1.915307679127138
1140,-0.8248688822415088,0.93142201315346,0.7484801585055167,-0.25746970245979117,-1.8201754830083878,-0.26663022858097696
1150,-0.8517091061194181,0.9074223934473188,0.7233850782536614,1.4520705619893122,1.4714948475063014,1.5938813365938387
1160,-0.8391869408800742,0.9244419550391275,0.7455985254470526,0.7156340585898605,0.9094662014221164,0.7655966986841258
1170,-0.8518319699458221,0.9010378170915053,0.7228384964242301,-3.30183144980652,-4.123660703737987,-3.0376327604793834
1180,-0.8682911887162565,0.8981688246086981,0.7175286633621076,1.0854562417128792,0.8166267235990714,1.5986921808684345
1190,-0.8585023777455459,0.9024067819979716,0.7182175848625175,-0.24636458367309533,1.079788379691637,0.04720643774418559
1200,-0.8584273833034373,0.9070387196896813,0.7251422538407994,0.8327701278248384,1.50331769904386,0.9024674706822235
1210,-0.84824689833748,0.9123381262803318,0.7312139888959904,2.9552905295626903,1.383404924111536,3.0861261306146295
1220,-0.8240520099819907,0.9374798278941936,0.754705111521435,-1.143633094066581,-2.240243032478764,-2.260106037026949
1230,-0.8428066840866311,0.9213896782434987,0.7445557710702959,2.2485380499471543,2.211535464324371,0.535254464396421
1240,-0.8198371466569994,0.9390587494221183,0.7652911876759113,0.46752555112255834,-0.2915611913792834,-1.1700074174568844
1250,-0.8596218377590984,0.893237181021896,0.7209828258564073,1.07409014806737,0.7572404666161621,1.6653684587980175
1260,-0.850909006067973,0.9133108533114025,0.7312463589144772,1.1976815612057496,1.6697303407379773,1.4423709985591107
1270,-0.8262991207396531,0.9255026338087627,0.7546206273472942,-1.036692187636875,-0.7605388530490189,-1.1057101823858495
