time_ms,ax,ay,az,gx,gy,gz
0,-0.813248410991315,0.4890612081112294,0.6267927736400899,0.8628827877091907,-0.021169564074764446,-0.37450692087821935
10,-0.8089107404708912,0.5004782356309904,0.6332586864116234,0.9101579378846589,0.8468966376329218,0.1072008940656771
20,-0.7890014452386135,0.515954649960429,0.651202170636546,-0.8356290689764905,-0.7376982118602105,-1.0198739882178605
30,-0.8024300801790171,0.50633405707129,0.6425516560745784,1.9611226114274782,2.117037738876324,2.075472556758854
40,-0.8041065086604443,0.505026739413308,0.6426810907195164,2.2534174368162563,2.443197576954493,2.0384690832347947
50,-0.7857146237375762,0.5220367657864838,0.6575871824857499,-1.8089122984805517,-1.411221337399732,-2.249007936211719
60,-0.7983669530080592,0.5100898277846229,0.6411823915177818,-1.6074022306538462,-0.9036971142916965,-1.8029208416266658
70,-0.7900095527804964,0.5109050936549498,0.6482784668155074,-0.2449340401217043,0.1941947794054864,-0.6762381704126788
80,-0.8043321059603309,0.49651675020335867,0.637766809006566,0.5457429722945415,-0.07890465188190121,-0.02596997118302885
90,-0.8155899658648705,0.49223524426719956,0.625964564009556,2.498320280898456,1.8272003548063616,2.25937321777091
100,-0.8104094686434145,0.5025275566804132,0.632928336660166,1.2224019125354832,0.9731032924610171,1.203121361260597
110,-0.8155916977921281,0.4955860514061385,0.6259286061080134,1.2183126207817414,1.8062016626943334,1.3608849656835813
120,-0.7970161092085007,0.5111813998506748,0.6454452582822456,-1.2489050192023403,-0.7018274705879693,-1.3972059744939052
130,-0.7779348868449735,0.5308031778665763,0.6662704217242092,1.700164549490637,1.806763162264652,1.277770216411046
140,-0.8294334306417224,0.4828184176773588,0.6145010555888831,-0.23233653846232802,-0.03170004917729646,-0.31871641292933883
150,-0.8396801638930325,0.47616451462150544,0.6109159280035027,-0.2995739777135595,-0.3240771685369661,0.08258585684493686
160,-0.8180392660795781,0.5072909560266258,0.6440367093218292,-3.541538647978322,-4.038295960962262,-3.0424380714291472
170,-0.8228725803731339,0.488906162560567,0.6288233411722665,-1.5678026999236738,-1.7584621374021658,-1.735947400415438
180,-0.823887151008084,0.4867964150145233,0.6198501965107954,0.716010765654066,1.2116889455088025,0.7414819191034977
190,-0.8003306794077828,0.5145221374226077,0.6440841678759335,0.723443880379819,1.4635415175096207,0.8301687096256315
200,-0.8202002886114972,0.49513792485012137,0.6258433925186153,1.0183855888651152,1.57924138404926,1.003875952719826
210,-0.7957062196394409,0.5171042966637489,0.6440246906129166,0.6643470945168083,1.2022805463304702,0.33305485484238684
220,-0.8344151334208612,0.4781814699753201,0.5960427303934361,1.41843784781762,2.4287069375214934,0.7198287371904191
230,-0.8116166292763819,0.50156157179614,0.6257185595506342,0.1534336967522134,1.6240212580316862,-0.3780079356044761
240,-0.8250929583852858,0.4829214062827095,0.609302105072714,-1.1967781183081658,0.41783924485520607,-1.4118124664344105
250,-0.7886060273389381,0.5115179328838626,0.6512050686725727,2.163081899348435,1.5714751339184292,1.6609856027643493
260,-0.7815404736063041,0.513805379516376,0.6633345740777445,2.58170106724819,1.5493732387247794,2.2128169681261443
270,-0.8169212914972784,0.48278198259603683,0.6330575555461087,4.226013315844546,4.3952294010965005,5.246291024961396
280,-0.8097417625797277,0.4996929498774345,0.6465148870073849,-1.590838908492023,0.7218867177863135,1.6612278848263116
290,-0.8487896950400772,0.4713728471664637,0.6117932898762756,-1.3688682173288471,3.1269534075069494,4.081956416983911
300,-0.8221525946381955,0.5151171674757661,0.6394744240168755,-2.708301226899147,4.249141047746267,5.105857180437553
310,-0.8231394387257838,0.542494897746435,0.638940052068417,-8.636887416824457,0.0981259604435113,4.001065205452281
320,-0.8247576841364207,0.4605554841079212,0.5770972777510376,-1.7222383041266727,-23.633280287488937,19.89155462803552
330,-0.7021012439458882,0.5390981299883723,0.5426015164859336,-0.4009719086536796,-24.323574948627616,20.58283224339109
340,-0.6648096576632765,0.5493586152688441,0.5466016942123297,-0.4041897233356456,-14.20473386104087,21.676600811114717
350,-0.6549979656652911,0.6100779046640417,0.5928254912738933,-7.491692122901959,-7.294116160068164,18.515904745982372
360,-0.7400509490324052,0.6313065546089796,0.5952894665582446,-12.107508286455875,1.5628063381593522,20.876541894779436
370,-0.7580376284795196,0.679856471497172,0.6563022474491074,-17.981122088336264,6.201376257244755,22.365320727324175
380,-0.7892819745480127,0.5785036069080364,0.5998710401071521,-23.562824059607593,11.706838469471572,19.286370468447252
390,-0.7293546249325267,0.4456996261073675,0.5288865615300303,-25.30634073078701,32.83226402252495,11.562554393950933
400,-0.7398679086282698,0.49951480101938084,0.6583372903317302,-20.967415174922003,37.57588478173598,10.418081332639321
410,-0.8350515648172268,0.4584565930331354,0.744774996294118,-25.855530742216406,36.408277190579284,6.6957089979573094
420,-0.8907007674924686,0.29279236683198745,0.5676030411521019,-16.99003783524269,2.8252832070931193,-11.645172287148531
430,-0.8903898426910191,0.3268011584398132,0.5101492535690841,0.7317901553740112,-0.353635297355711,-9.520335587266468
440,-0.8188017652337011,0.47312987595600536,0.5927021869797362,5.399713942825957,3.630821891750011,-3.204218380356478
450,-0.777306778992035,0.5058067254139949,0.6465769338708323,10.933759744032711,1.7814994759583553,3.779503505557998
460,-0.7845211539479228,0.4875547747893944,0.6931546994766943,26.087582748103607,-1.378558322381957,9.107610816988219
470,-0.750877035774555,0.6028116036474389,0.8039925141644686,27.059296718081377,-6.797547284117499,3.8494306349779266
480,-0.8024440276234166,0.4590671375115745,0.6891549596208976,25.71288458571193,-4.628135219149906,0.46975556134775703
490,-0.8492303789429745,0.5236940273100953,0.47977838156384045,31.773044302644557,-5.426635165629361,-1.0873431956025907
500,-0.6188253084205634,0.5380128701180055,0.7952959297664332,15.494718497565984,-15.407674517015288,-14.773652505332883
510,-0.6494271541936952,0.3558414580684349,0.8385091108453011,4.993472315435629,-24.34707350279287,-31.76373596258601
520,-1.0107800044666317,0.3692493298407239,0.5326007936206114,16.48553654612481,-28.47009125217483,-32.703504758413736
530,-1.27431931184739,0.5538239585129325,0.2509644868658184,29.768724428152638,-25.202538215470593,-19.464375933999925
540,-1.0984403096604434,0.3742679622006307,0.2564973499707366,13.23074648066743,-17.848633235989798,-19.227248232571224
550,-0.8397500088289954,0.23438065758440488,0.6558141790759289,-1.252025809191185,-22.313313782829667,-36.91888496026825
560,-1.2396384295285443,0.8715098580367884,0.4075234109922911,26.03614345648173,-16.5236952043407,-10.355183662771434
570,-0.9753340538174604,0.931330957022977,0.46267268074980705,-0.20539779328763064,-9.404278037892729,-5.730042342908323
580,-0.7250878390956059,0.6483433037058864,0.7389634608772317,-4.112122441185803,-10.337825721090201,-11.410199905563022
590,-0.7417556692152786,0.5046327350778747,0.7347498945969919,-4.40045038126719,-7.085413131083234,-10.885617052645971
600,-0.7952968196262166,0.5255888697393313,0.6560983869926413,-8.872114911067843,-4.343778384454198,-8.623861241273309
610,-0.7904211496493005,0.5124568208374201,0.6659680801158346,-14.18281447101737,-5.153926154776917,-9.808381802103602
620,-0.8321768950128164,0.4905394191829869,0.6194977852153148,-21.451645715410507,-3.2969612719150585,-10.747124304905372
630,-0.8163864862731826,0.4809721967073014,0.6224626459633589,-26.23773264111956,-1.0776825829773484,-11.759697108485975
640,-0.7936986072637009,0.4934229631649461,0.6765524736698012,-23.674662898956665,1.0817144537853443,-10.714939619968135
650,-0.8697133474649712,0.4491244687289043,0.5213929534306642,-14.057169715143143,8.056517331630964,-6.020377756559257
660,-0.7797138121232191,0.47175406527539326,0.9402168365349354,11.10252031833126,20.184066483654412,1.6897509392114056
670,-0.750121023258872,0.5358311453248418,1.00735858710373,22.572895530706703,26.746908168696983,6.492923530303826
680,-0.7680068751910634,0.5153476709928669,0.7409295994271852,15.619940499015657,28.778879717041345,8.270628596733747
690,-0.7228904748462686,0.4663487989936677,0.6315183081748377,2.2613232597889272,25.936338007790415,7.846768435614509
700,-0.7619881407775241,0.4553232865409356,0.7425683397591573,-1.1615022192061846,20.570960688270258,10.57887933882563
710,-0.7385538673542166,0.31016108203873494,1.5820098406258918,-1.8920700259025844,20.97740923395841,5.278619786302742
720,-0.7465007579154701,0.4037949356449089,0.7538254530071473,2.649893357468498,20.23425984097711,6.148140244356433
730,-0.8342600026324026,0.440893136845805,0.5334064430091063,3.5625233558092786,16.604954752339157,4.428725149645678
740,-0.7600362473904229,0.5207178125083282,0.6938031686349995,0.04016676481897441,8.257448076009448,3.124961607693626
750,-0.7520415205469599,0.5091250214204471,0.7551564382868047,-0.8657247129976199,3.1694008235394735,3.030436130211834
760,-0.7863517853939699,0.4922983579201813,0.6930759924205531,-1.7992404454801165,-0.8120799879464564,0.10516305967201767
770,-0.8113228837864725,0.4973310797393041,0.6268693357845339,3.455294106475044,2.608680965019799,3.821056689051125
780,-0.7850192246831115,0.5176777089200442,0.6579488907294364,5.227318857603486,3.848182932907359,6.533081886173327
790,-0.8380590005110964,0.4698435472680444,0.5972879569840897,5.452205099164623,4.176541143641377,6.573201470402418
800,-0.8279765181453779,0.5018773438493654,0.6102727189200543,-6.295582942087281,3.011983711729386,2.3953208411158946
810,-0.8196368139091372,0.5214485116945806,0.6234866589518466,-8.918639298734682,0.8941404919920091,3.455004493105385
820,-0.8313218255189705,0.5928181480570305,0.6409687454977986,0.2771237778811654,0.8581146315788077,17.63538321737573
830,-0.9057240994902078,0.5309414853361272,0.7021458409034451,7.6298471133229455,-7.758466864804854,24.16325169641677
840,-0.9316933710083692,0.4525587689033761,0.746612783297495,14.850175416886305,-21.056147946609485,21.230591569844112
850,-0.8591977228048042,0.4927716778938524,0.6821949798567509,23.168854064881373,-31.027790766904484,16.99602396429222
860,-0.7936392453026648,0.5351168147877472,0.5877955490852828,23.26613303964961,-28.52523504891979,16.95542256341517
870,-0.7140994039777924,0.5996422212246147,0.6163513383434833,-9.758989816699394,-5.915140968179353,5.980441712690709
880,-0.7028620936488009,0.6051681855002154,0.646713542417517,-13.518459772483412,-1.4385286674503353,2.611417065497206
890,-0.7312983143482287,0.5358951240968872,0.6046458549604642,-15.856862187113046,4.758769341766146,-1.2127598171871872
900,-0.7299133070088053,0.5485662660386658,0.6427042103687632,-19.84872046687678,8.610526153578856,-6.72129433700146
910,-0.779733776435197,0.5211076672201979,0.6085643107385769,-19.21800414167872,13.288238586804288,-8.410097542977125
920,-0.9282948246368317,0.4949946102951881,0.7094216523954614,-19.85900002881226,5.345285043615223,-13.753906957201206
930,-1.1809249823114372,0.3738034862410557,0.7788564203862898,-18.411149354667625,-9.988481489527738,-19.143005603497926
940,-0.8263516160886439,0.45650534757645944,0.6070675402719722,-5.248616711922228,-4.327266787037684,-10.864220838603256
950,-0.8221213997761526,0.463746143210522,0.6225201901602234,-3.868120008063336,-5.87416089267764,-5.0570054954570605
960,-0.7984005092641736,0.46051347022864153,0.6269922151948446,4.522738748509624,-1.7732871260016778,4.574766711807859
970,-0.8033625189625557,0.3874428313838531,0.6340667706629037,12.482772440316428,1.0518947782094128,6.989310487272701
980,-0.7310765217471406,0.23201200133421743,0.6007821365153456,8.773868746989777,2.0525549594411308,-12.634771600897317
990,-0.7152332443275784,0.3587301401245746,0.6447248209349603,17.848138974014542,4.42066738599323,-18.163684661077216
1000,-0.7548826722995619,0.45675178904130515,0.5700541326994231,20.689775071105533,5.026679726646869,-13.676761947953734
1010,-0.7589413715681801,0.26933556173485795,0.35901239816964464,9.144927805320862,11.478821651812645,-8.88255617482918
1020,-0.7563569605284449,0.6377035218275668,0.6851773111258236,8.589756965577575,4.3587546719410355,-2.482573333809346
1030,-0.8029011352432782,0.727802921425222,0.66596821639827,3.7394743660199765,2.5828686205008857,2.4851729856059106
1040,-0.8154543748481938,0.5741838183029109,0.6404120515119436,2.6422336097143155,4.582607155843939,-4.752296452000365
1050,-0.8079073290102502,0.522250996941102,0.6351861674492831,-2.731755320305539,1.9636712995987462,-11.695878881578492
1060,-0.7897102074942823,0.5148582347747961,0.6515997254101675,-5.205861327169235,0.3263410444749856,-11.870823004050076
1070,-0.8151442243992426,0.48997654241131555,0.6262258449644426,-2.0297080425271012,-0.828226116721543,-3.0826151618174937
1080,-0.8119747612395127,0.5094917248500261,0.6304283600792528,0.6113051288467308,-2.520061140257226,4.004149724168173
1090,-0.835450626324244,0.49541999512629126,0.6132172326207013,1.2243500734228516,0.49094079133906565,3.9696014461917497
1100,-0.7847194431993469,0.5463501780254257,0.6642230930528843,-4.020548259644991,-1.6090443535268113,-2.478015890902606
1110,-0.8344689676771614,0.48850702391003953,0.6057369524680026,-5.191567241760088,-2.017720002077403,-5.718301071676278
1120,-0.8130736145222416,0.5019541571708059,0.634084754911092,-3.1069418452202147,0.2914787180212771,-4.123288366504087
1130,-0.8013362755153312,0.5077658077675631,0.6424171338678587,-0.5091339862660689,2.3345788213143477,-1.060757022811987
1140,-0.7940347523069385,0.5172788470114807,0.6465007132536267,-1.0279538975604976,-0.6122979980034602,-1.1867841114162574
1150,-0.7995917905419759,0.5161506568784967,0.6437898356216516,-0.9108508941019937,-2.4904434404754308,-1.5569702907389644
1160,-0.7947944405572337,0.5239446271984277,0.651724486881078,3.7518550187533255,1.8381413472760093,2.193703144914522
1170,-0.7831227223374437,0.5369339286346352,0.6591969811185455,1.9118690105769511,0.861192114463224,0.3297569012726762
1180,-0.8053795632582392,0.5083856751299178,0.63264520892105,-1.2301037043895828,0.32669353176570914,-1.501256041789925
1190,-0.8050390528484367,0.511937685972685,0.6403541031158132,-0.7439416180453046,0.47118415142118736,-0.8402448975141733
1200,-0.8410111330006,0.4743155209694422,0.608679246027629,-0.9753830547868378,0.038319805128833984,-0.9496153277570036
1210,-0.8136858931166807,0.5019276496804869,0.6288314537242173,2.7786993883274547,3.4169403894312644,3.1879593699591826
1220,-0.8051547393746012,0.5129660972531985,0.640730510436407,-1.9469777208224874,-2.1620913124665373,-1.7570019613641699
1230,-0.7937647911386321,0.5236214953128012,0.6532912784191888,-2.5113588442922485,-2.254479041312533,-2.08114679435909
1240,-0.805088035799024,0.505239788490956,0.6365216818976109,-2.5584764732262135,-1.1448546891076519,-1.6451560841778228
1250,-0.8086136370709961,0.4938417051246211,0.6344024005197703,-2.5543098211471484,-1.7398654243244036,-2.3558189724432164
1260,-0.7983019204965521,0.5082608925263402,0.6461060700159792,2.228959846932539,2.390035139167538,1.6388279992497452
1270,-0.7780760920854307,0.5321255018532339,0.6650589046552786,0.18117254673558358,-0.29994568134695765,-0.836621024732098
1280,-0.8101011987198866,0.5011544232221775,0.627232158407359,1.6971549656495561,0.7011157301848245,1.428131065365349
1290,-0.8067937926262218,0.5084309198184668,0.6320977144702229,3.621443581960527,2.2475144800749085,3.187607686644726
1300,-0.782186796164925,0.5362778392879106,0.6596186076268962,0.8829459257317173,0.5974326197433177,0.6723216809747384
1310,-0.8135889575577986,0.503284157598337,0.6302087878011586,0.8508256314859008,1.6260971947883875,0.6927700239750096
1320,-0.8213453907772176,0.49138594151652387,0.6236193343912235,-2.0354992347533285,-1.2434080278486281,-2.5900860772059877
1330,-0.7820388042434171,0.5297846368210061,0.6607715233712226,-1.4789267322252129,-0.9685074691943379,-2.0303274317502282
1340,-0.8261775652567801,0.4849130654020781,0.6050285323783681,1.6453314422225256,1.320944091536225,1.1666875065693323
1350,-0.8361028924715899,0.47677749077652265,0.5999202927837388,-0.20833645144273594,1.2008356320177223,0.41937271199766757
1360,-0.7994229479878711,0.51352622546999,0.6398161662234937,-0.4286000685141864,1.5668378464907535,-0.41849371964854964
1370,-0.8175880359661686,0.4907718848603338,0.6215926774374376,1.8597680781159207,3.4827401199494115,1.5918201438381103
1380,-0.8031370144023274,0.5021332066470621,0.6322192164659388,-1.7882241370462169,-0.8818583820445527,-2.219101758692836
1390,-0.7727539033049268,0.5332716688205703,0.6645567795024157,-0.6560856588376018,0.08358036204938261,-0.6180920408396217
1400,-0.7807997074363352,0.5280181724301007,0.6649314592316701,-2.1048216785076566,-1.2841823761797069,-1.4205210884871287
1410,-0.8070845010897627,0.5037687824081162,0.6413953012016026,-0.20770354022245627,-0.22385464258993518,-0.12878483720553238
1420,-0.7601265027030815,0.5509542923942984,0.6869366967141561,0.4036443009595331,-0.29927040666311044,0.0030191290530840464
1430,-0.8141224128751949,0.4858250019094245,0.625060913046719,1.6780293035475378,0.9398173819429343,1.1298026545835764
1440,-0.815504856196152,0.4919400371837656,0.6263579400739976,-1.1558272693036982,-2.6313262759660194,-1.968977367887553
1450,-0.8146978552138419,0.5020904036341497,0.6388754448598947,1.0856035493663536,0.4100980461160505,0.5977219294998697
1460,-0.78508932587997,0.5339455355345871,0.6700563135742912,1.6286066997355175,1.6525159666028089,1.06233707225946
1470,-0.8131454499495162,0.5027383269367109,0.6362213047069956,3.934865188203887,4.293846411628163,3.2307385705625644
1480,-0.8359556667163981,0.4755022635678433,0.608840653430815,1.4679149129306694,1.9996030198192354,1.059167446533365
1490,-0.8000826516850917,0.5068749780338934,0.6401093666725258,-1.7008558188287282,-1.6372483757257488,-1.9569095262937424
1500,-0.7881391019310886,0.5190986377251753,0.6535660227118202,-0.3343557554794516,-0.7198899003418177,-1.0516595765171863
1510,-0.8257217693435986,0.4871752282318725,0.6141061821066711,1.126229486427997,0.751071771704055,0.5848593618690399
1520,-0.8093785958339061,0.49799690876833735,0.6223575183896259,-0.6031602419191409,-0.7847419701908298,-1.294458946497364
1530,-0.8043011966914507,0.5031852977944185,0.6320741277907362,2.3459747278936076,2.3911138096893407,2.018043099565668
1540,-0.7772799222709984,0.5296552864877354,0.6618022175724113,-1.0676528984444082,-0.9624087844602796,-1.0988757138009888
1550,-0.8201817380975156,0.48624232784679333,0.6211068867414308,-0.235418557428891,-0.33427540668603295,-0.16264918629236577
1560,-0.8067876107974673,0.5033448984601078,0.6408544012023984,3.1947119740161734,2.7857577224318586,3.16846893834257
1570,-0.8122111939758202,0.5031352178114605,0.6360192364434407,0.18019074314847738,-0.3306776957853366,-0.4327317137349474
1580,-0.7996984931964737,0.5163691955065506,0.6428236713399542,0.8292036254658453,0.31132728056113995,-0.11608267089300625
