time_ms,ax,ay,az,gx,gy,gz
0,-0.820574746999371,0.9723746641813017,0.6459876186658844,-0.17732717667168418,-0.6797564697973553,-0.3911953015029419
10,-0.8050952355718425,0.9898656351610938,0.6603652542822323,-0.10458773647100628,-0.6419187751909322,-0.8028572841392575
20,-0.8068705241629779,0.9853625684361261,0.6615622255692247,-2.7814182900850652,-2.4334127533437298,-3.729384170323971
30,-0.8129273528341129,0.9705714544061852,0.6613637236382534,-0.28843928963698895,0.27565894547817327,-0.9238411062461485
40,-0.8125934310838777,0.9642575735808612,0.6577480857553376,-3.4371348229491483,-2.4933814971673556,-3.459983608793055
50,-0.8219725749649686,0.9547650520942383,0.6452912030514129,-0.040001599222907025,1.2358270603031767,0.5369344624736944
60,-0.7979650036133153,0.9813672228442138,0.6681005895833261,-4.0434387617229515,-2.9197661969124966,-3.049309618498911
70,-0.8176717520775824,0.9638055290536074,0.6445329222045008,2.8815787684604626,3.3987642293155207,3.964757984791614
80,-0.8292989485799878,0.9583509117993323,0.6375445215592146,2.1158422782051423,1.8794594810286194,2.791295401452084
90,-0.7978442219611627,0.9982524404091725,0.6781535699396866,3.0087310413081974,2.544967493127967,2.9451691073081174
100,-0.8082542742099221,0.9808598722071534,0.6614035940748683,-1.1548559366860074,-1.2715939438712653,-2.0874235297969523
110,-0.8359808746627494,0.9480580100378948,0.6298834276119369,-0.4354896482068383,-0.9397998817954508,-1.2587614995675374
120,-0.7932021705865353,0.9867983039340251,0.6715037969992577,3.3579621240209474,3.1802639186706085,3.3876659374778786
130,-0.8245690902589762,0.9574851759247155,0.6387226577397146,0.23349191267401392,1.0791323445486722,1.1813057511380831
140,-0.8203015891663373,0.9630125222333709,0.642661254625247,0.3740503915063268,1.298950710117407,1.7529244989223811
150,-0.8306049086768127,0.9525128587051436,0.6336815223406241,-0.36820231378620677,0.5186324845890193,1.1460415827620134
160,-0.8421074072827714,0.9419150646880542,0.625541545310648,-0.07905406515541635,1.3799394830274205,1.2854885765794468
170,-0.7934565053615342,0.9911475387338706,0.6790014697658645,-1.3377181104192286,0.36656606156505545,-0.4361137755948761
180,-0.8027114044772362,0.9809480139521604,0.6713766739508968,-3.164094307434916,-1.387850614769806,-2.0415457071566645
190,-0.8490154231212276,0.9381527498548194,0.6253667725008321,-1.4126131715032688,-0.7805632063756321,-1.1290301358768655
200,-0.8328524707040577,0.9476868087044887,0.6343667160382399,-1.1823416307412333,-0.08921215328322091,-0.3518835971371321
210,-0.8048009882173999,0.9807310290545539,0.6674251492599924,-1.9699290488049592,-0.26823833417920595,-1.015661800421804
220,-0.8201773111011817,0.9643691619549117,0.6498374851987818,-3.2902675254028866,-1.628497711914727,-2.318349145773702
230,-0.8491134631302616,0.9444864024305248,0.6293176453973344,-0.5707620549196166,-0.6722300414285434,-0.4534129582394142
240,-0.8310932775596488,0.9667049979225237,0.6532844351714244,2.5252027253693052,0.5404630208280881,2.212290228282167
250,-0.8627160754084823,0.9410294069379416,0.6365791971496763,6.794771358848606,2.2653125990258305,6.532326612158839
260,-0.8624228035347008,0.9599741820475819,0.6571934664858278,8.961480983007343,-1.3058976623784064,9.406380635062565
270,-0.8577713476550529,0.9928822176111823,0.6342590954908695,15.359075400584938,-2.018440987212974,19.792031534443527
280,-0.8762687251104221,1.0920889784235255,0.5855149499580854,10.836256838703946,-3.8314635598645856,23.06444900775431
290,-0.8485892510514801,1.1420525878537136,0.5703877604281297,-3.7363324650981014,2.061070188401387,29.802360255732115
300,-0.8486542350423012,1.1044640023148549,0.560043847653329,-21.262223515889218,-9.613336305940727,25.79648246544787
310,-0.6972440314936761,1.1730036296296118,0.542434166563727,-31.717765318114555,-3.9505075431627357,25.191952620362073
320,-0.6214740512415122,1.1656067128018428,0.4958896241250279,-37.60420226980821,6.719016202601187,27.985503997161096
330,-0.5310495558277091,1.0378526303776006,0.5269867714674418,-38.32851710736784,25.029468566258743,31.68766857748684
340,-0.48936085093118026,0.9006087673962202,0.6549250729393319,-32.67681353815511,39.20429529293316,26.509995305555872
350,-0.599454690321084,0.8327467141127198,0.7095255398439483,-30.78523152653423,38.718127261421486,6.8176683804480405
360,-0.755800692138801,0.8661867803494707,0.7060995682169179,-27.807279068059238,31.46691818250955,-12.584957949426297
370,-1.0260906609883276,0.803893701704311,0.8339670706548866,-10.470646314629949,-4.218615552353322,-34.48125236427856
380,-0.7501101941744447,0.8604217257251409,0.8478246872962221,-1.102504979806289,-20.172735416357906,-27.46321129241475
390,-0.8022269577982533,0.8400413780532708,0.8727264105685192,-17.09598270453813,-25.233455459532607,-31.906436903720497
400,-0.8459364720447503,0.6034882817106535,0.7393271149686712,-13.146557794407496,-33.32228045539238,-33.36930595800738
410,-0.7514272578218744,0.49142638286496976,0.8259605445373887,-20.032678671925986,-45.5720360990651,-41.64617630077911
420,-0.6564096998310072,1.0499241865023556,0.6939585499884716,-0.753525649982157,-52.926057409283565,-34.4069039998281
430,-0.6839630494019944,1.325001905565535,0.6154195810048751,6.839030080046326,-31.05393959911241,-11.589624528397287
440,-0.8873666314089929,0.9970724265475234,0.5559616769074812,-0.7921343110567942,1.2699946336045356,7.6568487735923885
450,-0.9220714585501145,0.8726780856418039,0.4588284950909013,1.515100458915988,6.067464325066844,1.4308288485286607
460,-0.8910845835312325,0.784825646366545,0.3309694930663602,25.6034291036888,21.989842098371035,1.6684482696872325
470,-0.8671273114688226,0.800602021839186,0.6979904318208368,27.491835536427804,26.33539711828508,5.89871280053172
480,-0.8278957660185832,1.2231836780835197,0.6567380130836477,34.569844766344126,36.66562878516128,15.283581787389064
490,-0.8608682422895935,1.2770697255898835,1.046292771583755,56.43877314949384,33.84855620382686,18.16450509768696
500,-0.8062635496426381,1.1517817934625951,0.886762801680559,31.617812715128732,19.612576510365237,12.120439203876114
510,-0.7812454862584204,1.0992974037849264,0.7966342980681773,9.586993011645863,2.593898039838645,3.470938532686175
520,-0.8400055307382446,1.0498179168721429,0.7326115158239391,7.678127777589288,-2.551112143870479,3.1099209019510674
530,-0.839516093312484,1.076503282508474,0.7662366298755304,8.952183687534218,-5.814153409673247,6.972789153052961
540,-0.8228238446969199,1.119294301521444,0.800563237391814,5.904356255713328,-15.345764872345544,11.581640596435625
550,-0.8578331034320421,1.080521568497987,0.6633299422532772,9.315933885426302,-17.016439532746034,22.72148034409771
560,-0.7402237618366704,1.0686085262152636,0.5953819487064312,-7.993644156848168,-12.628770203796858,20.322455370259576
570,-0.588925421591051,0.7930787275263396,0.5508011697463578,-46.098720815428,23.815436978219072,8.909575557108118
580,-1.103233150811838,0.669005892559336,0.8489965659163646,-51.63987940501335,1.9863912793548428,-12.995884201757105
590,-1.0412982392619032,0.6616109128902498,0.7714122148082905,-2.971091365689502,1.7929970949845453,-6.16975186353561
600,-0.9152918107745309,0.7649406540701124,0.7233140746813914,26.087093265988305,5.603183231367963,10.024559863373787
610,-0.799467216228786,0.7024601289718078,0.6922187135137078,40.71335091411356,0.3275918433806322,7.333034800929561
620,-0.7078700916337826,0.7341724701286304,0.7368719954361919,44.66283393247939,-4.250205039784388,-7.901571435463228
630,-0.6587189078374904,1.014618740225164,0.7496446818581776,32.34311011430227,-4.2799777162259165,-10.67129176241201
640,-0.7168813978683102,1.1870578250386286,0.6141926030452601,19.359845355948725,1.13446798718312,3.725946085869048
650,-0.7677553030498613,1.1062867639606468,0.635429717246339,16.294004050183705,0.6154499409360421,-4.682084007484962
660,-0.8071738822990338,1.305974848929628,0.5665856974656072,12.62274014906137,3.3294620129582206,7.401786681025382
670,-0.8173583145034198,1.0091142686723393,0.6140745688439719,-1.176089829208688,-1.3348467993866713,-5.884008390036884
680,-0.8136479638469015,1.041821140026986,0.6684472123278377,-6.826732213549027,-3.1302911235878144,-11.589310625333802
690,-0.8266701769791344,0.9789930604042016,0.6223908380961347,-5.3328850361819615,-1.4266565346526245,-8.967346284538513
700,-0.8386499014612747,0.9463317128513996,0.6217716068705558,-4.556455037206103,-2.344311229243182,-4.108728225685538
710,-0.8109947659927422,0.9715532424724161,0.6593246027457452,-0.7946327789638316,-0.34731835787388177,2.5382134757463994
720,-0.8334730784714687,0.9543742947794699,0.6275628228454412,-2.1196755802309175,-1.4564427088179475,2.601284868164492
730,-0.7992809254475732,1.0018869462535438,0.6563878476885266,-2.2617294696769523,0.03062428789635152,3.039804700709376
740,-0.813680263022583,0.9941979301655106,0.6458999267380984,0.5277967682041349,3.5210510720509576,4.688253351132811
750,-0.8295041196183591,0.9792180895932949,0.6394741314036206,-5.733714029945437,-2.422157479505722,-2.715168455752346
760,-0.8187025894966934,0.9831967329217776,0.6499420334526423,-0.5552189856101263,1.413588597281232,0.8386030784933878
770,-0.8019523631756748,1.004519257495505,0.654403092535809,-0.016042591296742348,-0.254434955390094,-0.7706645084283104
780,-0.8000391408424975,1.0024192846695408,0.6642927247672955,-1.2814882953783262,-1.2705262078045827,-2.3614180543054553
790,-0.8077198502456495,0.9884574780350643,0.6565471236130913,-1.7104151273529873,-0.8792207698484265,-1.9637377701680914
800,-0.8184424990754015,0.9755884414259738,0.6495396325656508,-0.7520566011458832,-0.5831114079730889,-1.058625831007443
810,-0.7937569781008831,0.9977817821885729,0.6692900808244187,1.4786578263951173,0.9193607803704824,0.9885960392864566
820,-0.8029958901937722,0.987953546536963,0.6535780201576269,-0.9591889257699787,-1.0658007388836805,-0.8220584438341926
830,-0.8391167256865391,0.9585877282957431,0.6215900829154836,0.07878702353858835,0.763597996355815,1.2849205827858792
840,-0.8124362548812274,0.9914479234595907,0.6452753366696838,1.2457336008042488,2.1107900034251674,3.2697837072171403
850,-0.8234770909342598,0.9722992490996498,0.6331073844346179,-4.258429969094349,-2.3156802341978566,-1.8619765191933038
860,-0.8031590733142535,0.993050929814777,0.6608772832283148,1.958706292937526,1.6408569384367333,2.26390248487904
870,-0.7812853848300839,1.0097416005633824,0.6732550895535807,2.1453080740601997,0.8327238773072675,1.24564805516795
880,-0.8114115276044586,0.9873900453169363,0.6430062663531072,1.3030684161468584,1.788761188282343,1.0797819893290168
890,-0.79842244353263,1.0013975220870164,0.6609262375873076,1.750553410936162,2.9557384343868542,2.21158947640828
900,-0.8338589803148851,0.9597723322878277,0.6268784572675044,0.9169770933252834,1.6611739406482755,2.2280058914418572
910,-0.8092248701101559,0.9857325873015629,0.6499163736203907,0.8661726560063796,1.1589761651568897,2.0922289455780576
920,-0.7985951800118543,1.0019846282086258,0.6625148377240042,3.2012996346655918,3.152280596226223,3.1976971073907596
930,-0.8376434530286381,0.9572781108523284,0.6265566134332432,-4.143997784239952,-4.360340512886057,-4.43605619545606
940,-0.8207214113229676,0.9728891719721128,0.6342528909320327,-0.7521095731236641,0.9513960499057688,0.5660616416270849
950,-0.8479366286753609,0.9533815046192764,0.6215116531075819,-3.599257403855674,-1.3585939707312884,-2.0712551136355075
960,-0.8291089884788382,0.9650067140030865,0.6364450234291658,-1.0981341767766652,-0.2947111741945281,0.49912659034371576
970,-0.8367360257466848,0.961423213659558,0.6273767438636028,2.9850723429626607,1.9884675294455174,3.612392149513947
980,-0.8179325926930747,0.9817815381353194,0.6436698234502379,2.3484150569504503,0.20863324295485758,1.9927488165413567
990,-0.7925116724058093,1.0057488707924174,0.6644396927089449,1.839527213250064,0.2659571667653011,1.4216439505715075
1000,-0.8117363221870858,0.9878217415406992,0.6457331819453201,1.34017646650761,1.0153632115017879,1.4820618047982497
1010,-0.837615044153719,0.9674087244610775,0.6258894443835268,0.9429676589470963,0.8600572608399808,1.1538162826846965
1020,-0.8151934296708213,0.9953798231622386,0.6543733127388253,0.39091897120162034,-0.49087285286141724,0.07631997670304735
1030,-0.8425603615638845,0.9693332432366664,0.6290624757058175,2.1252037913895716,1.2589003703983166,1.8576358044398225
1040,-0.8212665670214901,0.9850831907674887,0.6365559436073567,1.6847386403878195,2.008767647956378,1.0083161587440326
1050,-0.8227423695285369,0.9791052439624829,0.6479400016831106,0.5309913644823487,1.361398172220609,0.5770741242470732
1060,-0.8349750283542563,0.9637548053853751,0.6290527890595072,1.2234419724987435,2.038255747614684,1.9400692280928158
1070,-0.8074261701319261,0.9925215269473736,0.6501926773993297,1.1141658692080285,1.6952737717992508,1.962490612335886
1080,-0.8595305039538776,0.9407585608839973,0.6054761283119897,1.5300557210005454,1.123361171837664,1.9238213822753734
1090,-0.7880616560768214,1.0167972643222967,0.6795242491812709,1.819469803138222,0.8764156688242197,2.029719857038462
1100,-0.8238277705751625,0.98071941497782,0.6405714169011025,0.9019251983212776,-0.1164083920060055,0.8995218596808596
1110,-0.8298296324016059,0.9677291120671756,0.6317596407631121,-0.40815998233860684,-1.3010263055762328,-0.5016834306664832
1120,-0.8096093868693257,0.9869937582546908,0.6479656544569524,3.322029982176336,3.1314113796887244,4.066240818348205
1130,-0.8097632343922084,0.9892526148341224,0.6476856127334006,0.898466765498319,1.5371383223128448,2.229091885176272
1140,-0.8122768495939278,0.9894221622989162,0.6433585178500413,-1.5075683481233062,-0.9935586889427664,-0.7685497605577456
