time_ms,ax,ay,az,gx,gy,gz
0,-0.6319284514663338,0.9822869060917829,0.9454970061407231,0.26513887428113425,-0.6114344936223051,-1.2273696147889455
10,-0.5927700930454572,1.0080782367945922,0.9871588970274743,2.81255105799187,2.836861875794866,2.0821616951972874
20,-0.6164519817953784,0.9751268457068755,0.9548856194520072,2.217917134802438,0.9788480380756779,0.7144064669283665
30,-0.6291045911850316,0.965372826262553,0.9425988020159856,0.5776789395307351,1.517582040605558,1.341673753431484
40,-0.6035913744022539,0.9845116610880201,0.9699749846583415,0.28627459104911246,1.1262806434535384,0.5043456612634543
50,-0.6512365893908818,0.9468123347196172,0.925487092718258,1.6939084099552093,1.2380298173407138,1.0818239341152518
60,-0.6300410266999154,0.9647357410610093,0.9397605027858762,2.580431703259413,-0.5183113277519229,0.21041417120438832
70,-0.6074742543611223,0.9940247816969576,0.97072219403292,3.2824850062587068,-1.0495144508794234,0.028375169667157696
80,-0.6113468240924623,1.0055348143699099,0.9583664974660133,-0.3523893800547273,-2.7787839015596623,-2.0803467900530004
90,-0.6307712982475933,0.9740809044095174,0.9344674285576661,-4.8132698936491405,-1.0060953549591982,-2.584374664641638
100,-0.6140490492366522,0.983396690576072,0.9513863308243395,-3.8153937875714194,-0.08960958295693167,-2.7652941896499375
110,-0.6000547182289503,0.9964097303968816,0.972368719438718,-2.4832879071254883,0.7177927530390118,-1.5054160253956486
120,-0.6039646763961589,0.9923629317310119,0.9694220948706399,-0.9529238914563353,0.3264522637989144,-0.47164778229287097
130,-0.6434222279032246,0.9675223869283781,0.9262541135564971,0.33798536277246327,0.5979199587121808,0.5063324892228623
140,-0.6084973663259107,1.0000631153120807,0.967976870487036,1.3012626156300187,0.5417544367965036,0.4507275019628614
150,-0.6066454377704603,1.0056466473277224,0.9745495874228782,-3.1231651086714973,0.16015522220104186,-0.2913794375252603
160,-0.6210388140101302,0.9824767868485665,0.9517929215988388,-1.8071790811518813,-0.07531717553120615,-0.8224817631630034
170,-0.6343999854684113,0.9726453843238148,0.9347360915450038,-4.217740527863344,-2.387285508536594,-3.1778918168702917
180,-0.6183835911452328,0.9780226824279028,0.9534442295324653,-0.9133053027334366,0.9995985354114385,0.21167533727722254
190,-0.6237537658413114,0.973588429850587,0.9529058455990796,1.759264447083711,1.1923388145239953,0.3007666951076573
200,-0.6003428313536897,0.9953997616631528,0.9712747176864065,2.1783220481883765,1.4197809488216682,0.2832996707505302
210,-0.6331136558683494,0.9603480636651834,0.932761360000543,1.2342151325179702,2.164800147725511,0.12961626939236703
220,-0.6063483434720858,0.992486697433641,0.967763326351263,2.2219627939448454,1.714179046246488,0.8826757775713637
230,-0.6189822691670411,0.979351960991832,0.953243070825552,-1.5829411084877818,-2.053628764669869,-2.0396379030268315
240,-0.6237020151106165,0.9817707918505696,0.9501783150790242,-4.069174277779016,1.9017303284406353,0.27417243365030086
250,-0.6209341004727693,0.9665961085278001,0.9440071918772811,3.0285352795227736,3.8982764871862363,1.5140534042935463
260,-0.6504880038198463,0.952435326771568,0.9161971690646802,-0.0073567215125405205,0.47067763773734306,-1.795285146078011
270,-0.6156089128870809,0.9776729028471219,0.9613078065202744,2.3795224456726167,0.8839780766596328,0.5413436006680009
280,-0.604711963116491,0.9803095807115365,0.9656014209268827,6.879981991307058,4.861429916383312,4.267217692292231
290,-0.650021116812098,0.9445430078119481,0.9413187229712607,11.058068809795184,3.835763031903258,3.49713517720505
300,-0.5866625788091842,0.9458587169060463,1.0106040971429044,15.340568910529132,5.993614247015747,11.121375257071918
310,-0.576057414087968,0.9065775440967198,0.9895528498596586,11.852968688647973,-2.3096175086278694,2.201716280146182
320,-0.5022012130747715,0.8995889202514968,1.0693288368727385,1.0425299565229684,-4.51363899898605,-14.979277396970245
330,-0.8075565203291447,0.8509069969027722,0.7898249811213597,-11.173941321277033,-2.2813883742481265,-17.91514692145194
340,-0.3220400506134669,1.1325695421915694,0.9854476471482178,14.79642119069177,-11.20673859140824,-9.122773215488547
350,-0.6332304251568331,0.819980396453038,1.2603237164825347,2.856832307007556,-6.804149266683437,-15.126502104306486
360,-0.5351348885659909,0.7269018998453799,1.3665436296617248,-29.191029974263504,-10.564090717533004,-22.294761852670007
370,-0.8411294511139593,0.9542208796420717,0.3987461621714916,-34.210286529950835,-0.32258637803615464,-9.771258816273917
380,-0.6516058772894128,0.7630180583401177,1.1384292534813636,-5.789366663982179,-6.785416985167849,-6.329762952577674
390,-0.7669728863542343,0.6378054241360015,1.0970902841848673,14.865634526266565,-4.567116184532555,-1.7413576740932342
400,-0.5851583403059785,1.053425199478642,1.0638590611977923,29.156844764986754,-2.9332425103345274,1.9788086894383095
410,-0.6798626721973386,1.0989099001544835,0.878374692750322,24.208332878867562,2.0060080509814573,10.479082647205791
420,-0.69585987628811,0.9408878551889922,0.9046233026495399,3.9608374415092213,13.406331217187851,6.638755942340222
430,-0.6309252476905396,1.3099806289877851,0.9733813089320427,38.12903475515485,18.426666750819447,-5.260434407815342
440,-0.5760503023542785,1.2503946919252518,0.9987440427529185,49.96754517488411,31.527864164467807,-15.092030724398823
450,-0.6935744170190113,0.9871960771912864,0.650520446442939,-25.939024752463403,25.705117847964832,-32.71404066082709
460,-0.6172864561194309,0.79287394335245,1.0635708462200304,11.9985573996796,19.990138004200794,-27.140626361723783
470,-0.6424089202458262,0.923344568902773,1.4042165771249953,46.10397085851699,5.877957319061559,-0.34463920795110864
480,-0.4698594898056929,1.1586991312503903,1.4076032098659448,64.5224420588453,-0.7011922883130992,-3.76146769107132
490,-0.5390279015936795,1.12372820468087,1.227874779151744,16.22604415375084,6.281291356060123,-10.997574251618333
500,-0.5049599533071573,1.0688172664396733,1.203628724103192,29.74586762163631,-7.822967381461068,-8.895236227846919
510,-0.5744684438248082,1.377476275287137,1.161158085203419,-8.493632418172636,-22.885611521619385,3.558188621914643
520,-0.5844047570842054,1.4111671310671812,0.9913620574967809,-68.29711559943536,-38.55899494389137,28.135412411939917
530,-0.5057255513469644,1.3259701793316179,0.9285767687933957,-81.61324005104052,-33.166995372522564,50.94908817083792
540,-0.5256366700753412,1.2445073625242595,0.7490861151767959,-90.46853798286392,-25.318637381716368,66.17122318108173
550,-0.4633531129444661,1.1006092793678965,0.7055525267619048,-76.28390961560237,-8.318356134708832,73.52585558972545
560,-0.5588529692870694,0.7996094768219957,0.6537858083111763,-78.73646775297803,34.87703452225708,40.88779742683353
570,-0.9797841460623166,0.46770825254637366,1.2199931365533918,-90.35803693674775,39.909510378172236,-4.509780512565699
580,-1.2206087969348747,0.12851596054346848,1.3720287639846958,-90.70758233234437,-0.5251618973642523,-35.78256766014336
590,-0.8529952469512091,0.31400566117853235,0.973478788411748,16.477370845328792,2.1603183537679884,-15.024487358566937
600,-0.6760367538578028,0.08456795208532916,0.8366499619764227,43.10306194015624,-5.243631401310797,-44.53019549725211
610,-0.4782282866005731,1.3062436328268343,0.9070708133273503,71.95034747200708,-4.60987584568501,-36.27486148523838
620,-0.4550272724050806,1.8574330627731452,1.035447604135601,72.94671945687625,-7.32319154596858,-22.751974288056584
630,-0.45513829622531626,1.446797133319017,1.439486222413499,34.44805155217462,-7.914287090915415,-15.182596380161455
640,-0.6364858741755608,1.1567161733948166,0.9352363090858572,4.155459347181607,3.2799496328554754,-0.5354223562917384
650,-0.6145013890908964,1.3297895700130247,0.9170223613885352,6.524422883444573,4.780482839975477,7.927859904591555
660,-0.6578204743565337,0.9621447216437102,0.939944591373199,-11.176555044781562,-1.9431545602790294,-17.506182254864378
670,-0.6578576239345342,0.9222860073369433,0.9177293895195872,-4.274540272946256,-3.8948334835737244,-10.391589642341302
680,-0.6220407761916963,0.9442715308999146,0.9484538378592201,3.1023646766402155,-2.6797940480741884,-0.6767139802331337
690,-0.6376341566181593,0.9393411220370547,0.9428829445804852,6.352716228951544,-2.9445320644550126,3.8855855699988657
700,-0.6063720455696505,1.0004785243880703,0.9545573945756641,4.594451806957521,0.13642497662982578,3.8131292363558877
710,-0.6145673626348503,0.9705629102153397,0.9570849994760856,-2.039805993174353,-1.2699039964486523,-9.303751527898582
720,-0.6205248714635856,0.9546287920356611,0.9560518305566396,-0.7650110952687498,-0.6589965025558507,-6.891991739107938
730,-0.6462081891749986,0.9341494103709399,0.9328097026901344,2.2708356629466246,1.411696233700173,-1.5071466817384649
740,-0.6199121069055704,0.9552166393703266,0.9587896209343961,3.3715709682909916,0.8988177073125997,1.3067377036125345
750,-0.6016758682967878,0.9787449575171032,0.9683172036538739,3.6136238006664065,1.409891792042557,1.514584580465925
760,-0.6246430470577061,0.9560505776768056,0.9540227759051915,5.326072450821096,2.365071260197642,1.1396584158796392
770,-0.611226753623831,0.9627925830742448,0.9572070054387068,0.7066257033924236,0.67706060607333,-0.558690662373738
780,-0.6242199188531581,0.954967612851505,0.9625619178142051,-2.188546294571759,0.5745465337483382,-1.346441306412622
790,-0.6228611209961894,0.9479115018557915,0.9462202080125625,-2.7415797589563478,-2.5992991809258097,-3.101434879305309
800,-0.6327580516265091,0.940840639741956,0.9362201925129345,-1.6411521648319898,-1.6305223116442342,-0.8125071066484062
810,-0.6209691241051528,0.9579141888205893,0.9549077788107714,0.2844408561931542,-1.489247467111035,-0.9837862247456822
820,-0.6074659687009223,0.9678738159091521,0.9708397371766042,2.573896198709654,-1.9881061635573483,-1.6958319587294461
830,-0.6158688215233129,0.9978311911893504,0.9731157822838064,6.409966918693733,-1.7813395329750752,-2.2775556662373617
840,-0.6211121789453992,0.9624258949190478,0.9518668831323537,-0.0063765611997941285,2.521721492597696,0.5737702131350451
850,-0.6243713481480945,0.9532260707538603,0.9596246122587544,-2.4826507615771227,-1.9431280507105382,-2.1017982453899546
860,-0.6341625272697466,0.9542065655228521,0.9453819070512393,2.112940530266018,-0.9786230347309969,-0.009271076465657835
870,-0.6490117233867378,0.9311762705674276,0.9224870584515429,-0.6035337552805783,0.24580805557530355,-0.12022158990189302
880,-0.6297668005956144,0.9538291613085004,0.9545061036136977,2.615051111060726,2.547724980782342,1.9383765759013243
890,-0.600152319844799,0.9802312140816679,0.9697312843531184,-1.9536923184082717,-2.9838024523935607,-2.5676155799230944
900,-0.6289425116616911,0.965079215025678,0.9553765634452936,3.4842640384306938,2.0121622841491567,2.166128728355856
910,-0.6314350845416526,0.9499725754432948,0.9419334036943244,-0.5865672519569507,0.6398675497425086,-0.5939754416933456
920,-0.6272486501270763,0.9587111891675264,0.9584873336776971,-2.624803309610653,-0.8482831720760418,-1.8103207646511275
930,-0.614682322613307,0.9620718618750185,0.9660257202270155,-1.2291142607393097,-1.2349084647386683,-0.3354961406839492
940,-0.629628851256914,0.9448337635763066,0.9418902960027637,1.001401378440982,-0.18632154765257014,2.2168492475858232
950,-0.6267679915349225,0.9667431817681436,0.9515517873555956,-0.821632467680264,0.3470189499229036,-0.6542423943060007
960,-0.6415461066001158,0.9410837390049597,0.936340730855407,-2.1420740636747317,-0.7686177603616593,-2.1953146266729107
970,-0.6164675643044951,0.9609466898597739,0.9585980872687822,-1.1548504707805416,-0.6511484097222436,-1.5080979435620236
980,-0.6281832782262547,0.9562816910037621,0.9471700787941211,-4.9937156988210685,-4.622340249426438,-5.399250775693008
990,-0.6104150754574684,0.9692891635093593,0.9706036942711507,2.05650288556886,0.5347888246797006,0.48004645608843
1000,-0.6268341969749619,0.9574066291433369,0.9509892091071307,4.092431626907666,0.4821363554438082,0.8918960219159286
1010,-0.6127585884966605,0.9692024397272637,0.9640046571646335,3.8859562301505655,2.6267087098718664,4.064977137340264
1020,-0.6042848612076369,0.9817104981817383,0.9706570113388793,2.423249464648784,2.228814681824204,3.9681710916293174
1030,-0.6261308233260305,0.9701595466131856,0.9472000846500436,-3.55348095423529,-0.05187759124209912,0.9824369302886445
1040,-0.601525589645164,0.9922328853642982,0.9821438808841674,-2.664105956045902,-0.8487480270049659,-0.12960585558334325
1050,-0.6363901027154739,0.9543027553935679,0.9435577019636526,5.326996359708442,3.127698259863292,5.175715347097002
1060,-0.606345402221202,0.9792094388826157,0.9674688411065147,2.7585707218591313,2.65506443605923,2.6799162226677042
1070,-0.6476536247983924,0.9427853133228312,0.9223058533749743,-0.09493107854946692,-0.23943546103210833,-1.1043185694415782
1080,-0.6159204862051999,0.9757697235934016,0.9658663406289186,-3.834686584355408,-3.1831030921914576,-4.511910033832641
1090,-0.6094438948044586,0.9764904257796284,0.9684460976101328,-0.4821695361309217,0.17157628356689317,-0.7101467622639638
1100,-0.6388062051478858,0.9381848612739501,0.9363483569274169,1.0727093503564697,-1.9430518926321894,-1.7287861913507645
1110,-0.6567340270450029,0.9288146319090926,0.9085452467333051,1.6782617023831397,1.7710589756468673,1.3295399176507539
1120,-0.6400280763310753,0.9492501468900065,0.9396201357513652,0.38573067637350666,-0.2855970325309486,0.28601684152788587
1130,-0.6284901485895631,0.9659131420418412,0.9472887852861357,2.0665914743454143,1.5017919595758034,1.9073424852953518
1140,-0.5998048665903933,0.9858082673305143,0.9798176969530198,-6.12586756241458,-2.8652981823495858,-3.8834657663612955
1150,-0.5778677487154666,0.9867202182720568,0.989404674190565,-1.0898362078292207,-1.7512410165410437,-1.734505239714425
