time_ms,ax,ay,az,gx,gy,gz
0,-0.472605672189048,0.48696069594773217,0.7948572419857945,1.5950642399255097,1.6704242913787954,0.9252906667287211
10,-0.4540708062874808,0.5058063831316207,0.819077863730782,2.3012208533100407,0.8308864320895539,0.22269230107215476
20,-0.4412426859327274,0.5198510470197302,0.8307289609277891,2.410824575038904,-0.41902700934798154,0.04811268146134262
30,-0.481213028496898,0.4853472113788348,0.791866863723182,1.960566013661615,1.1052953574547755,1.0758491776523689
40,-0.4538216072030351,0.5148429708753809,0.8194017860317259,-1.1922084406168383,1.0039372301174325,-0.11706755846885342
50,-0.46729597558770253,0.49800587485564757,0.803233747663448,-4.116778852097773,-0.8035141746641867,-2.1185245311888057
60,-0.4557684028997251,0.5127442120821464,0.816777178790397,-0.5639862810704719,1.671976639964309,0.8999064467089226
70,-0.47873103639015874,0.4837629353491716,0.7904311211472446,2.4042517192930317,3.5829730817618755,3.2842182498506567
80,-0.48302256040776625,0.4793248314510941,0.7866798550941205,-0.8218172946137428,-0.3697675094915709,-0.026438497033817288
90,-0.44490104123664537,0.5176255204574685,0.827093006980588,-1.11233461529207,-0.669183336924482,-0.18948269557524688
100,-0.4578535853490263,0.5055424196230268,0.8115079387183154,-1.377717990762141,-1.0760654242054977,-1.130086849461749
110,-0.4506730904227966,0.5133267744523411,0.8136357545924428,1.3627089505955605,1.2327344154236366,0.5395100086860679
120,-0.46999961516189204,0.4912779550254469,0.7974592940607486,1.15198964819362,1.0819509231226967,0.5357594081776584
130,-0.4453230112054883,0.5124363986244653,0.8235051583702843,0.4122949942158614,0.4131553565710376,-0.21522810183667684
140,-0.4586087209384352,0.5003644969026583,0.8144066264617099,-0.24055866967400813,0.09506958666515963,-0.21489007353405432
150,-0.4545150339724754,0.5042421572562853,0.8132075885003326,-2.602578455227898,-2.502530770243517,-2.6203425359516004
160,-0.4381035046836244,0.5224312756602779,0.8309448939963393,1.4832290890199564,1.2557287465070242,1.458654338751487
170,-0.4605770544384103,0.5045421819660542,0.8135373766970078,-0.006384860575579077,0.10854487445848637,0.1697620844906088
180,-0.47004161792895094,0.4991070278265239,0.7991102202298426,-1.7130569280238284,-0.3080633648977835,-1.4110919592564464
190,-0.4449658274834928,0.5206507220314374,0.8203474470867527,-2.029245183534956,0.08112999771400112,-1.1640833608839594
200,-0.4539002137597386,0.5067900344508143,0.8124081823379491,-0.8163776344955204,0.7644876704073365,-0.6773382075347761
210,-0.46980074362897356,0.48925330802088113,0.7957466302631856,-3.0856778655723773,-2.4402781638529962,-3.6552913609634174
220,-0.4555725728183613,0.5016681144732318,0.8118270079893105,1.2371907447838917,0.6584899403238691,0.12186466749069425
230,-0.4557965398477466,0.5020905590434809,0.813461431922649,5.423094198598987,3.5886577271143967,3.705305004596859
240,-0.47244032170655104,0.49370449901628005,0.7993085719441833,2.7202612641148027,1.8917048800964098,2.1586957344436413
250,-0.47791225066692955,0.5061919699618165,0.8119354194310305,-3.2524220281522567,5.019895352756638,5.071639955878042
260,-0.4470012475516203,0.5356993323069238,0.835559259112042,-7.7625548573572924,1.7975765528510745,4.826322689424376
270,-0.47283297709932737,0.5041961993601031,0.8054079784416063,-12.127313427447811,0.6865668872643529,5.089912172800848
280,-0.5271625660770808,0.3910253193980904,0.8263141651257281,-25.4065932510763,-5.082816530123803,-2.080505944517042
290,-0.5656352159382414,0.4258787656049038,0.8732811754997102,-26.093451390605836,-14.541233895821685,-9.238082288746389
300,-0.5802856873642446,0.5813243853908449,0.8680519782588604,-1.2762473634414726,-15.842591477217569,-0.7252103456854995
310,-0.5272699041093357,0.5000903022508351,0.8306854620226711,5.494313107194705,-17.639463850985592,9.215936975562249
320,-0.43681762048014144,0.49308251710184964,0.7466986611087424,8.05410561306412,-9.729824636642144,8.25045582852389
330,-0.41937097192835715,0.49842428117897125,0.7544729438659905,3.748731972100272,-6.535678478232951,0.9868466002820071
340,-0.4507530233749793,0.5106880264646627,0.7308954038459026,6.507964560327049,3.0084054650548815,6.113451438624213
350,-0.44428636636858665,0.543481141318569,0.7629890793423916,5.322242605086223,8.890047392961522,7.932926033607404
360,-0.44166755803286384,0.5366338730032335,0.788809871087965,7.00444557059284,17.129485564419756,11.251569222999947
370,-0.4097081567171697,0.5615013748764685,0.7906336929828641,3.736486760088996,18.234941392394315,10.672978146433657
380,-0.39525215473414266,0.5518095180419027,0.7689882709582806,-1.9075942119047795,22.171336935951437,8.517850736917078
390,-0.3342281830280541,0.5935752032232997,0.7808870110062295,-24.133897316635093,40.32024724505729,7.854745428772006
400,-0.35782232653093043,0.5702276947923482,0.7838771808577161,-32.745340358314586,48.1328070066596,5.945330960222298
410,-0.7796781309817576,0.27877131206597483,1.374931932788524,-41.05536868024289,31.345423847238788,-8.683309056906994
420,-1.0564023140852652,0.10900944588454059,1.6438496126700182,-38.149455540522105,8.933142074884152,-17.358228823382774
430,-0.6268994293588994,0.414345321114295,0.6426716863414934,-19.77379057319011,-3.16572808296605,-12.485298735865562
440,-0.453516069431819,0.4341805901605435,0.8057797190055452,17.142773407300904,13.569573647426132,-4.85759517261131
450,-0.4820899439554421,0.3942209322064492,0.7595935680576285,16.738189913201253,-2.3190452831522728,-4.9894993097332865
460,-0.011631493255564913,0.236252458697113,1.2558495532817955,9.446733861299645,-18.87623134569443,-7.5234484790043785
470,0.11916673094216715,0.33149625554225337,1.3851586358625207,10.957881768971717,-31.08191285530705,-16.401092478248312
480,-0.2188340480520119,0.40907402583955066,1.0915353636056557,17.824125186829555,-36.837239327926774,-30.410906769909353
490,-0.6465266655430942,0.3489826121290788,0.8332305640352062,14.813477935775728,-44.944085274360575,-47.97072062321715
500,-0.8752279597339763,0.5828238425079201,0.8260294370198373,17.132540327593656,-46.864900738908446,-39.375333232184104
510,-0.371404437820902,0.4072323268033472,0.812220908705387,-0.058584954795035116,-43.42062392920293,-46.34247481681713
520,-0.45375962176108703,0.5399019728405845,0.8888596752534238,18.759073777069506,-45.81334889307092,-48.98102700421969
530,-0.6360116258986619,0.4653201866632773,0.845558084074017,17.958783018005192,-24.577298191576876,-34.56914946105726
540,-0.48896696358132885,0.2529614270917034,0.8282294365227142,-0.08347919957361771,-10.713707262973939,-22.08111006132379
550,-0.12478037077774395,0.1257087700795133,0.8916955696501192,-17.488287296129215,-20.076717802251817,-23.738577494317934
560,-0.18880380328501015,0.24463492063184922,0.8783408231890322,-19.745000928231274,-22.2604894456424,-24.621646563880265
570,-0.29509971167055743,0.6104162901795182,0.9705074147655791,-13.908853816927584,-15.097332146208498,-5.372137419531096
580,-0.5768740790923383,0.543592681912392,0.6988463716348237,7.868776547682989,0.16111193420005177,1.284369626067978
590,-0.48376564196551103,0.4816330602781009,0.7534525870903132,5.429138673649894,-2.428371881663283,-3.6980894831372937
600,-0.4043544450156275,0.4576108577938481,0.8304561068806479,-16.64132620403718,-4.791475899955888,-4.702227033345881
610,-0.4879645261300798,0.45709633749310363,0.7768868840316635,-41.37144263822857,-7.717100408962645,-8.116189944899238
620,-0.5354001454642273,0.4412065666952651,0.7374754858678847,-26.85981701199618,0.8869301845970492,-5.010206340583132
630,-0.25646418565206813,0.42801703893699533,1.0536302549039778,-20.56156703362656,12.455701368283588,-6.060689793947384
640,-0.35839555381625515,0.46215390373205645,0.9384002952147403,-6.370532265223524,18.843480471124607,-5.220476435711607
650,-0.4650710758557311,0.480999132294795,0.8121332955788705,21.28118757028015,29.518817053833644,-9.185725602559083
660,-0.481340828842711,0.42071212337154484,0.901754709344631,37.349846705798875,34.10370141076344,-5.886140099749093
670,-0.28536447016329375,0.37666532282386234,1.1876204191546194,40.599076659407075,41.50443504936547,7.842409111305594
680,-0.08492428719574147,0.3192161640217655,1.249189565992285,31.174029425090765,52.06535708745398,11.737170875677418
690,-0.4195352060362922,0.2014916050203885,0.6165574067670558,12.591993382698716,54.87317448425002,-10.708513631314652
700,-0.4359003725423993,0.3981195604483385,0.7984232583220494,11.242693432665705,31.613336820710916,6.788874098598977
710,-0.17745662646363397,0.456639366687728,1.3711759872026363,11.024008077774347,28.83630224884107,6.225749498777928
720,-0.10723484654542002,0.4294009168961703,1.411882962427793,10.655137252199518,22.128832007458474,1.4086270784670691
730,-0.1644434868217411,0.4997380809737449,1.167474313086933,13.029814617729125,18.284496955770223,0.40007950750636767
740,-0.3441983827041564,0.5338473631131907,0.9306771385657999,12.179395388416635,14.646993036078857,-1.3086487861467333
750,-0.4170397998774347,0.5258829234094006,0.8836019910040361,14.421050788286768,1.5404460296538343,5.455459106051178
760,-0.4790048733005328,0.49985954525938103,0.8115568740018738,10.688551211273403,4.019479891395169,6.884434187005228
770,-0.48609669890430496,0.4746433581557771,0.7974757117509043,6.747898044609775,8.18488903371686,9.349132291258353
780,-0.47621430871640374,0.4764209170374348,0.8061190154645248,1.8271185174025497,6.6182809449124385,9.954482541306623
790,-0.4500264014813398,0.507641759483266,0.862001805530686,4.301794917922807,5.435460081665235,17.727001562826008
800,-0.4932962446122891,0.47300716773099194,0.9034631218424127,6.355163735663988,-4.785497850262027,22.70147539010266
810,-0.5597045573271892,0.41572458531420303,0.9339408499992701,4.980225234585763,-28.313195307982728,16.36589805017341
820,-0.42792550503588933,0.565264929800233,0.7106154311298946,22.89814989733024,-38.27846614412185,19.702622515087935
830,-0.3781127236535859,0.6137262649699934,0.7114561922073567,10.483136937003241,-33.997197662506196,20.228639832499933
840,-0.3334511684636275,0.6390639307011508,0.7498742501986784,0.8307231322476295,-24.453701609828585,21.365546439342356
850,-0.33919941484120303,0.6174558039139306,0.7723677983851491,-10.196144524172094,-17.75647895598519,17.96137465113613
860,-0.3669867546257479,0.5795894772312605,0.7935622449524973,-23.391413301495035,-15.833269988152777,9.353833239128262
870,-0.37335579170522404,0.5634703269712709,0.8240200492399855,-26.019953183861933,-8.040840153327126,7.485775997195253
880,-0.4275295281495538,0.5371538892536702,0.8116245278735147,-28.957141078179944,-4.221226260421531,5.90198431129141
890,-0.44424753643872644,0.5137666967951182,0.7883293711568511,-31.563423890569933,5.524303760942912,10.325505576715987
900,-0.42581207197218307,0.4799630406560937,0.7986771492246889,-29.82727561673146,12.160402895984888,9.611658489145944
910,-0.4494592904961541,0.4638519370801219,0.7638423470192885,-27.254332372092083,15.892210443745592,8.270234748105851
920,-0.44108167194440573,0.5118703910746129,0.8298057558017333,-29.797229281366246,15.322358736581279,5.09313174603804
930,-0.4813431236931281,0.45107761249031214,0.905409015491411,-29.745360134450184,11.112514640460137,0.6405552513276381
940,-0.4235411803549456,0.38423535770432093,0.8571871675118798,-23.328105891530086,-23.58086090022563,-26.987922497175713
950,-0.5307093991261534,0.3442911473256034,0.7069495070050895,-17.192954108287534,-3.0972318385782827,-17.249318106403955
960,-0.4935029730788239,0.39511007659343966,0.7610397539829881,-7.034441403450674,-2.4650924612611416,-6.397487987754086
970,-0.4531506609415016,0.41632450702270235,0.8059926881379272,5.923339330880847,-0.8753815419956292,3.1398471125369714
980,-0.4342550844040004,0.30200779143755646,0.8015884040142688,12.048620100991945,0.7121612563810571,-2.2510087792824796
990,-0.3491984695148329,0.2866123177249422,0.8224087688671883,18.103466306158747,4.519145716711514,-12.121355873489804
1000,-0.34942370348608986,0.6584283003609881,0.7005510640975858,27.488313411873374,1.382751122108106,-10.867623650985228
1010,-0.5772605703758542,0.44262337855535233,0.6303616658666749,34.554653518516616,16.94989823645906,-49.60540858253301
1020,-0.5909835468929416,0.5409500271730794,0.6772318096639497,30.489394284630823,8.94280485527945,-44.911518575488245
1030,-0.4892325024910811,0.827410853065832,0.7025918938700263,38.47414387629898,4.88028109330664,-3.899683849738614
1040,-0.38875152895618326,0.8338803159446171,0.7232745521295298,32.19001038054129,4.820570927020524,9.12946461123424
1050,-0.382924692764871,0.5963950746761791,0.7584404887562338,7.357283799981033,4.263297739882344,-14.11940363225051
1060,-0.44168351825434937,0.6615721758098141,0.8337642374279042,-5.272716694274942,5.83056078041038,-15.051299543157976
1070,-0.4820193194469977,0.4882086919692055,0.7845264528210559,-21.801724707380682,-0.10432009812546739,-23.593812319091185
1080,-0.4746481557597619,0.4605329770220031,0.7930098344755099,-26.32278844024223,-4.442168770851635,-25.145977382580497
1090,-0.45088189217133756,0.4551023753933116,0.8141206701812153,-22.144795903831554,-3.6680317378522633,-16.621522169107593
1100,-0.46297229677312657,0.4365976431749142,0.8001352046580262,-9.554029759572995,-4.791405459417523,-3.7665923415170677
1110,-0.44238378015381946,0.47312737845091324,0.8209373013645727,2.231468164749697,-4.851251653888399,6.500377982125483
1120,-0.45965710099749235,0.4729555036485771,0.8042778658448468,0.10217707317378139,-0.3710704656049021,6.9961408656175355
1130,-0.4335453738529403,0.5018033929449554,0.8331046808888096,-6.296465465377348,1.2966599600971198,2.9322172993450115
1140,-0.4638564821529715,0.458629974972849,0.8035317990431803,-6.694971848636416,3.28144704607601,0.5800567236401087
1150,-0.4724095733503021,0.4415498459751425,0.7907110958065465,-6.29156199511785,2.895767150003741,-1.264744873526178
1160,-0.4316764047914734,0.4775656147918085,0.8278592404100572,-5.632161124298203,0.7844539931763004,-3.255391507204546
1170,-0.47275267570996166,0.44097045873641155,0.788770451468772,-3.8213485991308875,-2.1352624761531938,-4.548436067608655
1180,-0.44763430792634423,0.47587546478856774,0.8183425291496734,1.762335528132478,-0.8792414331822405,-1.0570014732247437
1190,-0.4513611288795418,0.46040842655795844,0.8057497535472027,-2.496290464017493,-1.5374329372553044,-2.5548422488294187
1200,-0.45345567566022404,0.4615323596781234,0.8167853022083491,0.8218644267593278,1.9247906915257627,0.4090637370571282
1210,-0.45650103821099386,0.4565100995710512,0.8053128581102056,-1.7884560356647972,-0.5014561085666729,-1.9967226065978683
1220,-0.45657162954218905,0.45722102728570185,0.8047094894478948,0.3117613412365503,0.5515635547942155,-0.8731988621531067
1230,-0.4598547312706065,0.45360936777254335,0.8043175925242133,1.7413922936299397,0.8463181925347358,-0.44172207990327095
1240,-0.4428086048247946,0.4698573906534019,0.8219920014071151,4.2682631785701215,2.878652916491807,2.0933436394317253
1250,-0.43376174649898747,0.4866993583734913,0.8361341622694497,3.0916876064780068,1.1017005189132651,1.448684238349949
1260,-0.47148532413866007,0.44343154798653034,0.7946033282058632,1.7683348869763473,0.9828747985138336,1.5815007415300255
1270,-0.45830060235199105,0.45532371166250585,0.8067384507606054,-0.7117210874955633,-0.8919577682302762,-0.12100366207103064
1280,-0.4439837921923191,0.47088838109431,0.8201019618713781,-0.6347862514185971,-0.5110813062056463,0.3045331264867669
1290,-0.4458900579541353,0.46973599818944917,0.8199586410859829,2.4901701294777783,2.9050584641693833,3.3436173078650686
1300,-0.44213088543778045,0.474010584850157,0.8260862101567591,0.5821361876513597,0.8975608716133691,0.9082323706621699
1310,-0.4400566316328049,0.4785888532899646,0.8257941401064391,1.1803397951731018,0.8023745358331847,0.8869537030576666
1320,-0.43027881374745547,0.4877756640357403,0.8335522561609587,0.012182749871695986,2.0752204696963727,0.93484521857969
1330,-0.4492070622065141,0.4669951745242913,0.813997237377754,-2.7068618967116334,-1.563680859776863,-2.337400205461166
1340,-0.44386988122905674,0.47079454383403024,0.8191993158445151,-0.6544023285337774,0.30308524187892083,0.14192412437576074
1350,-0.455424527940561,0.45669880935776275,0.808998555009109,-4.193033735686765,-2.7992956254842767,-2.540077813340554
1360,-0.43788494064100586,0.47340232051956055,0.8274911692491145,-1.2425885570753883,0.6512858357657464,0.8987806738128277
1370,-0.44803551906327976,0.4663751485575012,0.8158868690856722,-1.779178424059077,0.14745902719491766,0.10228472483206502
1380,-0.4738647570196926,0.440836927176101,0.7894587279183439,-1.4021244582435428,-0.266725676573782,0.04662192961827427
1390,-0.42063039343172176,0.4978312843024564,0.842625581354758,1.8905377193565513,1.7693486355431536,1.229077504959566
1400,-0.4481264115506341,0.47221464095317556,0.8138940980846016,1.6200253744430198,1.7946640097197997,1.4536736654385813
1410,-0.44486060569407093,0.47644931186101735,0.8195414968928142,-2.674580600637033,-1.733780758131241,-1.8847914905546537
1420,-0.46954106545863555,0.451045237168661,0.798591000413657,0.06281845478281811,1.713842290712181,1.944278026603035
1430,-0.45007798470765426,0.467712874989457,0.818959586676561,-1.9898338585566315,0.15051642716821412,1.1449926458691735
1440,-0.4506970880753549,0.46418023712399914,0.8155087819938992,-4.737471364954686,-2.4397355186143357,-1.184290291907489
1450,-0.4859140198662097,0.42967056761039185,0.7815505749685456,0.5317545092295686,1.3256213613817407,2.72332653953326
1460,-0.47082358507846067,0.44446999194627607,0.7969670364359474,-0.8467430923763755,0.5844540540612142,0.3854060063668808
1470,-0.4663612021724071,0.4488532904806078,0.7980032394292518,-0.08739278684727148,1.768929604521813,1.0875073091831102
1480,-0.4386564802442062,0.4767227290979232,0.8231250937684966,2.168323402683124,3.671687824843006,3.2244049124107725
1490,-0.4721275365114455,0.44371919455067005,0.7917303095951846,0.23836401746282265,0.7821129837540514,0.4328674472570655
1500,-0.44470603649571394,0.47208067704643764,0.824422331654845,0.6372956596617712,0.062420171302192684,-0.3841726487569391
1510,-0.45533809389173674,0.46029203313496553,0.8099233801731198,0.8355733307636499,-0.4394377154876531,-0.24896054597735517
1520,-0.439821948533504,0.47773955067355506,0.8257679331701422,3.540945950908603,1.9746461371494843,2.2700858469647023
1530,-0.4767048354584327,0.4403620035095626,0.7884601634683918,-2.500240881875673,-1.9431256156991492,-1.7900336311583673
1540,-0.4451416483205316,0.4711828296647254,0.8196839754227156,-4.667038485268932,-1.8135464765058507,-2.229501012915215
1550,-0.45185859457561256,0.462360233957592,0.8122820915878557,-4.955456763313873,-1.0721658242402514,-1.934383652248205
1560,-0.46063612842815604,0.4483222002028413,0.8017426276489529,-5.201116028137129,-1.5241203340900493,-2.005554388114413
1570,-0.45764604008570936,0.4543633265194706,0.8076695154070115,-2.6897996844092025,-0.29891414804404537,-0.9495220114636249
1580,-0.4497496111781205,0.46314888126297354,0.8184293863431863,-0.7398834588641996,0.4611476246924633,0.16460217028268476
1590,-0.45454071997312534,0.4586464497159888,0.8101264643370127,2.4613001510678214,1.9854182246040801,1.6182629776444835
1600,-0.45438877251948195,0.4612441180069656,0.8055616206371087,3.8818091289699415,2.8172490155715235,2.52892455129496
1610,-0.4777891175843158,0.4423881660493124,0.781594767050189,0.6267738268282269,0.4170181966620499,0.5751616885010846
1620,-0.4343914971407659,0.48915391448048184,0.8295511092232758,-3.780643772797533,-2.5379793914343223,-1.9456832806394329
1630,-0.4537681514690011,0.4656749645262476,0.8119620094881245,-1.8437791381091322,-0.1018624478625274,-0.14622361376144355
