time_ms,ax,ay,az,gx,gy,gz
0,-0.7520819374437694,0.7867335355020899,0.6130434019575409,2.46647031535296,-0.6178879694724799,-3.928305336467078
10,-0.7750457013713841,0.7539107113493442,0.5832381188453855,8.851974864446717,-2.9330443150788437,-2.2585294120186727
20,-0.7228532921840803,0.7974505076278182,0.6387802359373959,6.586951110176619,-2.4894004459657313,-1.214884409142427
30,-0.7333568657380722,0.8232403040952635,0.6301643515057724,3.026718525468563,-3.516374368107421,-5.624304738824904
40,-0.7374030825599132,0.8090070680099117,0.633190232170093,-5.7003844349224355,-4.308306333419472,-11.575411865364877
50,-0.7615045297505512,0.7691278573096834,0.6125787669494496,4.170950811487161,1.863105026668836,2.570084813368498
60,-0.7494155110662115,0.7829006885663847,0.6145815539341255,7.955560017380942,4.449120540714675,7.805192938281147
70,-0.7394926897750489,0.804414717640491,0.6288202582974238,3.423581228691184,2.469424496555926,4.3279417022098965
80,-0.7672595433716844,0.7784563970365873,0.6031214798856447,4.64061123893336,3.851451138978785,4.592456236888046
90,-0.7457340928443913,0.7964050893917837,0.6118308163028023,2.636220583912282,3.019778006395372,1.2982079067152852
100,-0.7663514602628928,0.7806129730629792,0.5999458058234625,-0.9791657330879571,0.3034918762782848,-2.0907948737374644
110,-0.7523831111215922,0.7885928589037615,0.616246099204461,-0.30180253423980774,-0.5708719308122974,0.07140813723109418
120,-0.7579470829305294,0.7841342836072334,0.6131906267448199,3.1016778716285263,0.7955806352082775,4.417047555005189
130,-0.7669732938910881,0.7673552354133544,0.5940287350153276,3.2686163200585816,-0.6754854780253758,5.832574162542376
140,-0.7578963837547165,0.7996605591007676,0.6161525342301534,5.563056953910461,0.02058421929956089,7.905389240907626
150,-0.7694596768490284,0.8029879220112252,0.6102697385859779,-3.908691466632457,-2.657859197004988,2.9518559463476692
160,-0.7749871916490317,0.814998416583457,0.6123103400051805,-18.026108325547398,-5.099742861665044,-0.6228320294199496
170,-1.2113321716504752,0.9762962014679194,0.8458654978036395,-41.030791414074265,-21.702983321602435,71.15025789786078
180,-1.1661297273955387,1.0570649935612209,0.7526940507863533,-54.484459339850794,-61.19216718561459,112.46520240993549
190,-0.8920955701256583,0.8785915488018418,0.6146720716027757,-42.22267852721573,-75.85164574225824,138.15380210779216
200,-0.5844972160852083,0.8349455959327313,0.4656994691830196,-28.19790917476199,-64.06732360898319,147.15307874227435
210,-0.3918694620755429,0.7651549081306389,0.4334477706696768,-23.510479715653265,-39.37777636500968,139.08504563505917
220,-0.2146789511803524,0.8438341237096226,0.42597703527456976,-26.481662294663018,4.143712869080744,112.09466970047377
230,-0.3742142524628492,0.8092738550439545,0.5877738480482402,-44.14219615352091,75.67425684357335,33.41777275004577
240,-0.5101358935756033,0.6876986184760975,0.5864694315928017,-51.764681037660154,115.92736525747496,-18.171451967125567
250,-0.6067030548713287,0.5879757007082702,0.5548258740265852,-45.64305860542489,131.31857433962034,-54.133943324337075
260,-1.1137317445358599,0.6873464794674387,1.0460971091910443,-22.68819746794829,126.16787773173336,-79.6588956066739
270,-1.1959982496141988,0.32372504023221765,0.42911478437757217,-54.032396780424264,59.46193157700384,-77.76800775689215
280,-0.8632092152848476,0.5267974931120163,0.26527135897403564,2.7293563873147537,27.763263671122083,-19.20000669719665
290,-0.8000934154236982,0.6661546912174194,0.7483398405990141,49.91593778681965,4.732608478213492,16.436510426765622
300,-0.6283665679107024,0.8570247999780024,0.7903399329880378,78.84540686208095,-39.414964342234,-23.206597230798373
310,-0.8052922337893694,0.49471535865926564,0.6920018493343539,56.692757479130044,-50.0725707123218,-79.6197116333121
320,-0.8742152413010567,-0.12439958672076382,1.2183252625971606,-19.729261423501924,-55.995499273115705,-115.50738812904356
330,-0.5935194332292182,0.3847899815919472,1.3198992974327184,-56.92307081519326,-84.74967242397179,-138.86105494948384
340,-0.4248273681094337,0.881335275644677,0.7858709271051163,-81.40381456242812,-107.08780080907665,-148.9031571560622
350,-0.5595180623638321,1.1953007635107682,0.42335612438029213,-23.038131566580635,-96.4068317062859,-102.29600233253703
360,-0.7833530173624924,1.0560038300777193,0.4693941367470191,41.49113556275939,-53.13328851065674,-46.27694792171515
370,-0.7597851086803868,0.849050038223768,0.6505196604037282,25.124497946945592,-19.111442862170435,-32.9062856699851
380,-0.774337501922662,0.9816872923794552,0.5402976359903061,-0.9865457666220512,-3.3957635120400096,-30.54723759242139
390,-0.8122879186028162,0.834082420970938,0.48479919415286055,-45.21669156719811,-0.07508290556475206,-47.468796295144465
400,-0.874507127476058,0.6509987141617731,0.49112441022645265,-68.11980008104906,8.932930050167922,-76.66941346077581
410,-0.7226572653706204,0.7521571716934495,0.9942121755526607,-43.73158117390624,56.99003691782596,-44.79599499005376
420,-0.49323108809588273,1.0837138031447855,1.0750945185384073,21.220933768095207,107.21477759700714,28.37977721294005
430,-0.6324435749887216,0.7795829459709327,0.6163947736642917,57.13408392828475,103.72899936098011,22.685459279383902
440,-0.7054963253284794,0.21581714275449287,1.4600718240701522,26.232183669877074,63.13204344633641,-11.593360995410226
450,-0.6963870587640141,0.4983754741701961,1.656473625176674,17.667955654255188,44.25499279638807,2.7788364726219483
460,-0.7671448331328552,0.7094011823738284,0.9838452297816035,6.073214632035556,43.617260260815634,17.203496526781322
470,-0.7764537063418614,0.6043840016065966,0.7794254634466575,7.232938312499675,23.201046762984713,22.846618116055662
480,-0.7522662574967894,0.8152304801880393,0.6623141072699484,-1.1988484085504634,4.827137199601669,16.022238998049264
490,-0.7848215617798445,0.7696653630477291,0.7108771436381971,6.453297665230572,10.32891583622568,30.51235241964904
500,-0.9507889812171594,0.8625721913386777,0.9554231888656152,-0.38035250652122354,-16.77699602369892,53.94966894685698
510,-1.1837858921843945,1.0262325465370836,1.0310463780735504,-19.66733894940349,-102.65043759171819,95.82728437751629
520,-0.9966229941853063,0.9699549049252385,0.6726163030187077,-25.04362607997234,-144.01414930947084,131.96347924567357
530,-0.5415956200376988,0.9857468322901234,0.3672325545804112,-49.83838974404414,-100.14908642451294,110.08191628909181
540,-0.1445919993640308,0.9022034183779298,0.4233123770102807,-52.71010905432526,3.5315468470920974,60.022422354586425
550,-0.09728517086862534,0.8201228296049211,0.3737029730711935,-53.15762065709339,48.09559364940335,22.033847417503235
560,-0.10857734143218031,0.7223751493792118,0.3150387311400541,-72.41262200766785,95.75180930601807,-30.731706257927062
570,-0.6606957219085351,0.7500655670828495,0.5034999348662594,-92.62552600454063,94.84264137073389,-82.35197982177607
580,-1.7508456298161696,1.011770928146211,1.5598743403753794,14.91079605728061,-50.031759579066986,-66.92888660484041
590,-0.9324613259164207,-0.31018207393678887,0.36265515424133027,129.71673596520816,37.23679371497805,-34.84138852252081
600,-1.1973154714386753,-0.05996730998117912,0.5190990052994248,29.25813957672833,16.236962174174675,-51.90409591584801
610,-1.0438351310847178,0.3709885456910766,0.46973879573427435,104.95553728860621,21.430477752621798,-97.58037344576377
620,-0.8253080394075641,0.9027046536470084,-0.026995044924914734,110.75821361983373,13.980718494981241,-131.84202842608653
630,-0.5897741328603976,1.0363823910481889,1.0799719069199865,44.491959791947956,6.271105645790225,-131.49827590277644
640,-0.6267905764660422,1.430581594347366,1.0336409339016754,65.64264516167232,-0.5116442035485567,-20.42760656870475
650,-0.5959845169840675,2.01743313769617,0.9441929357466882,146.83417417127527,12.076102945099802,60.44006712102568
660,-0.7740412438614365,0.7697168977394893,0.6232155262029331,-2.0637206575181395,9.1330083382725,-17.815544774399495
670,-0.7603696631202902,0.755265569595913,0.5955956820364009,-7.501267397826748,5.2518768706220005,-22.43089028464147
680,-0.7619916176766767,0.7305628801368153,0.5836061241728416,-9.968902262851019,0.26054705471421713,-15.711146429742794
690,-0.7534147506567807,0.725427918039962,0.6007738746234128,-4.197845425527401,-4.091767529245261,-1.1561500314333557
700,-0.7799842243301587,0.6999910925497667,0.5899341380727657,6.268739920210589,-3.579341247199472,16.599253476303055
710,-0.7423758242394436,0.7392451383611683,0.5994130379816901,5.3969899683691365,-6.672823342624537,21.03386341811601
720,-0.7805765849639319,0.7686749372299257,0.5871060798421711,7.3669162940293935,1.6002217775247811,2.1561113203228213
730,-0.7468525862135709,0.7723556614205791,0.6204613999101768,6.36547731592445,3.5429988796224254,-3.4128484951935167
740,-0.799359421473625,0.7194399188403453,0.5676433519506784,10.106829903042359,4.028124684102153,-0.36600001735217325
750,-0.7231258531203858,0.7784102866471209,0.6222296483257493,9.30613302283434,2.0124365952936922,4.151237975319084
760,-0.7816714138891653,0.7412229567450899,0.5850354789114609,7.980841867180163,-0.21020904694488496,9.457936375012268
770,-0.7257937217474175,0.7920352346107798,0.6264578046539362,13.41631889962737,0.6697126445404455,17.162782188969338
780,-0.7656820410728095,0.7889855634517697,0.5866155057299943,4.181259647778116,0.7961204765824433,1.6585720071456878
790,-0.7587608441718422,0.783031570152941,0.5942249124956982,1.429902344156449,0.0701429755280506,-3.8831733949259473
800,-0.7595523847760126,0.7755771378895906,0.6008040044534306,2.6300147824028306,1.8484147663520103,-2.3516912648028914
810,-0.7376654099134837,0.7925339373950087,0.6242545345993962,-2.5484599745810748,-1.4256137075788546,-3.844147696042527
820,-0.7424398915797862,0.7893940046344793,0.6192161167406967,-2.3938435486965353,0.6279737235200467,-1.092669998125002
830,-0.7526444236018555,0.7726082253362591,0.6030825958824554,-0.9937567829027607,2.2398938654492224,0.7855757481700687
840,-0.7961321638675309,0.7406889019820101,0.5662855667247684,-0.5114614110753645,0.21741644834658447,0.17742244546250924
850,-0.73785258089981,0.7922831676445671,0.628329941204531,-3.767011883273208,-1.0187420258323203,-1.716427775220145
860,-0.7460086264053538,0.7891446512035931,0.6235760888420574,-3.3229824944716935,-1.8265337709211884,-2.123124641245435
870,-0.7474235634604569,0.7838015313983608,0.6103104597489315,-0.4580984639617638,1.5522974212395946,0.9033885545000522
880,-0.7729143891682339,0.7644851439952142,0.5865594589449595,0.940211135896019,2.7983020424100813,1.3930194999170662
890,-0.7484371910831367,0.7862955868791495,0.6099094276505108,-1.9375492934045062,1.4127652105098008,-1.6613916104423991
900,-0.7442638247417434,0.7868732466861862,0.6161362914671905,0.8130618696085031,1.6626264689856431,0.5777955374172812
910,-0.7663791965007348,0.7639100815394824,0.5922423624156443,-1.2318580553791332,-1.4881699291260468,-1.2220556892625436
920,-0.7666401416234996,0.768764862185312,0.5940247526956797,1.5755934636306312,0.8246674987091756,1.115996882902809
930,-0.7793431608448336,0.7582319939495265,0.5814842863259738,-0.9781318043205756,-1.3255670451779364,-1.1186322021205
940,-0.7498176131325395,0.7857830113417804,0.6112237262654333,-0.885062640210754,0.1162914124468547,-1.0884453613575926
950,-0.7574670120456146,0.7793603758993571,0.6021898252437223,-6.402458315700853,-3.8192655768836548,-6.770658339692554
960,-0.7674646222855226,0.7655786137177379,0.5966979290614159,-3.6052976032925574,1.2853076644794452,-2.369380698153658
970,-0.7498609846890258,0.774393031129047,0.6147530401315484,-3.4509688722861562,1.3969963055856567,-2.5522801775479063
980,-0.742080685363016,0.7842675994735363,0.6229643186990199,0.24564871142214884,5.137129141612213,-0.5787252407490144
990,-0.7651197510941776,0.759618922945873,0.597959721820055,-4.909249772633904,0.6799751062523081,-7.323587097125184
1000,-0.7661413834430056,0.7522016873863469,0.5965738847590393,-3.930877325265888,0.6660394126603866,-7.856763836723937
1010,-0.7735140084817886,0.7426547662980968,0.5898270708316491,-5.728660900198905,-1.818745059865975,-9.276750745258335
1020,-0.7839118107317176,0.7351820226895849,0.5833347547688468,0.39369116553389366,1.3397663248952405,1.0197080938505816
1030,-0.7871458144804304,0.7367302856524595,0.5843156205874258,5.150434376551308,2.2150275208931793,6.951070282866064
1040,-0.7365832073914573,0.7825907940504588,0.6278090322192857,7.549422311799702,4.882303558188282,8.678840996256316
1050,-0.7540363975217633,0.7631007432586987,0.6005931477939708,5.716917183988112,3.310011941932528,4.948842021199442
1060,-0.7653629167384541,0.7565760179323195,0.5902369778189615,2.526701991757956,-0.9573663055400723,-1.1448992619511804
1070,-0.7683033648775898,0.7550985544288583,0.5946156242438433,6.341208955588818,3.4725581992893617,2.3291276532554637
1080,-0.7758705103208969,0.7475445285127645,0.5903904722023099,4.92395819678295,1.0463548378558096,2.85532987837774
1090,-0.7426548727824541,0.7845685551896379,0.623729684162266,2.7133550524830166,-0.9854019638415024,3.116256749128719
1100,-0.7525655770895961,0.7714490805375088,0.6220348186536276,1.1616774321935557,-0.4784707365183698,2.1293460107013007
1110,-0.786114552129771,0.7376377061998748,0.5845441555546204,2.6049724303668516,2.2465485259987528,3.2915821535796947
1120,-0.7819837920670165,0.7497862462759967,0.575512618560997,2.178795595219236,2.789966903285123,2.4980140317788795
1130,-0.7655755764554651,0.7665291548723807,0.5927973297988912,-0.5637529062667556,0.003324675739515559,-0.916203451779033
1140,-0.772485831347296,0.7600475244102178,0.5887410144554647,1.0621800416941671,0.9970395700289952,1.063650605338484
1150,-0.7518650951723518,0.7845302912306047,0.6102477167760072,1.9215373684525068,1.0296899432517146,1.711847445387172
1160,-0.7511563522266956,0.7812402420654537,0.6094733674779681,2.9220175854008477,1.5173256729640796,1.9641097999011903
1170,-0.7392730437975996,0.7875077177762515,0.621268766512111,2.2807594922847763,0.2832940130361663,0.7636352496529619
1180,-0.7758692364562255,0.757693593586286,0.5866053049396832,-2.4032396683678585,-3.352853161746856,-3.2093868771660867
1190,-0.7693932018923136,0.7682576711366194,0.5910402515002451,-0.887922110016316,-0.3977004108734495,-0.731346869148958
1200,-0.7663372756915796,0.769048057961199,0.59183374930141,-0.7559637587883021,-0.5202770541319947,-1.4036380249808602
1210,-0.7536203953455387,0.7803661225112295,0.6048200967219858,-5.426943087396289,-5.148735572619576,-6.310047719762448
1220,-0.7581150275269183,0.7691481380100785,0.5986516300181225,-0.5507268977618744,0.4015512716080809,-0.10544628751328089
1230,-0.7638374359817046,0.7614493914945851,0.5949321401798503,-2.9062431053972255,0.2499008735743823,-0.26870891363326554
1240,-0.778216021327795,0.7491363276356282,0.5815315304540959,-0.6122374509904631,1.2036791210117794,1.4482292156459153
1250,-0.7680982466518277,0.7582762229676289,0.591263726920144,-4.081690144783981,-2.1291042694261617,-2.2895876047937653
1260,-0.7643733324395945,0.7674906907690432,0.5934360769722549,0.9197598983312474,1.54222888445363,1.3172621519268466
1270,-0.770514410866042,0.7575990212476995,0.5837829829948206,2.897698773234785,2.133599819286624,2.0851171095495222
1280,-0.7653852721680761,0.759056529763844,0.5906553966644232,2.9830046420011476,1.6794150093294293,2.004026434782622
1290,-0.7762860921456943,0.7556711408556696,0.5869253059897641,-2.0408753817238856,-0.9046752994951691,-2.2864906304915418
1300,-0.7259490021764069,0.8046558792708295,0.6353998654119977,2.461426329438873,2.3682202717149514,0.02461786850236858
1310,-0.7582205538080085,0.7693273728085093,0.5996933352619771,1.2259475010036083,1.580903447262897,-1.6918827708474726
1320,-0.7732972071410831,0.7555654145928752,0.5805834398313034,4.52348841231603,2.541759681524817,0.5950745917615515
1330,-0.7619908793617849,0.7707253127393829,0.5955665643964274,2.6247525500963382,0.052786627559863075,2.3668550065903347
1340,-0.7571104227338633,0.775396556602484,0.5997405370572289,4.206343793822236,2.727910946201755,3.693217066418933
1350,-0.751598170016169,0.7790971179398276,0.6049437253096084,3.5093523058819156,1.6212409915159678,1.7556012927947282
1360,-0.729727624785193,0.8018147343283782,0.6276805603165928,0.26855938522710066,-0.2490390526708678,-0.975012430529034
1370,-0.7944259413691179,0.7379559355419403,0.5590230211001452,-0.555451823848899,-1.8956338303255802,-1.3688724134757715
1380,-0.7689784178288419,0.7643482973252561,0.590204979685231,2.056676623530821,0.7633891657313667,2.5397432523536514
1390,-0.7397840232648484,0.7998423388557531,0.6159107809784655,2.5321567294002354,1.672413891662163,2.50837645057887
1400,-0.747930549042715,0.7919869476975684,0.6119790867232763,0.03399303164671668,0.39255233581497867,-0.0015237829651645121
1410,-0.7803717218858447,0.7555308957775706,0.5829225931553302,-3.371904191932477,-1.3676977591187989,-2.953817464800447
1420,-0.7626447828167804,0.7694114328984138,0.5934890142254322,-1.9161643645935265,-0.3374619901658144,-2.26049715355793
1430,-0.7723398227132324,0.7683389164987993,0.5877824686213848,-0.7437053252248051,0.6557810280499402,-2.0704649567420397
1440,-0.7347772187918675,0.7946793525502056,0.6263016893556558,-0.28643508784355576,0.5811613083816501,-2.1527840917009007
1450,-0.7599669576386847,0.7640259137377086,0.5971377975345666,1.628992890100478,-0.5711492275039618,0.6866981186135922
1460,-0.7802824114957772,0.7619086543294369,0.5820792068367738,0.7376676717049696,0.01888694858403729,0.9123937741419458
1470,-0.775492996318725,0.7643474567080389,0.5762608919854025,0.8767968332334591,-0.23260040908002033,-1.4982708777825358
1480,-0.7386095184823841,0.7999393520051846,0.6164508110841928,-1.123592675781541,-1.7430943060097486,-6.458031976318953
1490,-0.7582947490354466,0.7705981305464633,0.6043702008949869,-0.010339026268411544,-2.2288541809300715,-7.102411380532942
1500,-0.7443231278475057,0.7866104821208643,0.6069650375653667,0.8862838109833497,1.3660031275885003,-3.6838584486752906
1510,-0.7774956461846536,0.7588793641125414,0.5802516134486921,3.2809444629069495,0.02826586307025858,-0.2360460065773382
1520,-0.7623481675023611,0.7745648151943044,0.5917051314474563,5.9797771191404365,3.8253716771735244,3.018848220859274
1530,-0.7437980636916741,0.7807242465318093,0.5972211701122041,4.474967695410587,-0.36613766830656624,-0.09306157959055161
1540,-0.746161368042151,0.7932027339051961,0.6099539282952803,1.1760559028766806,0.8724544822179903,0.24823197025466204
1550,-0.7521052968132209,0.7834355779974762,0.6009144456506923,1.9257347799082292,1.541681334405692,1.607648309602074
1560,-0.7972676445396935,0.7367289416174885,0.5578793198618393,-0.7837453881941849,0.18421771672405185,0.6681514433287147
1570,-0.774908750438225,0.766720115655695,0.5870767271913295,1.6574988459439521,-0.109260282855835,-0.4078364439857737
1580,-0.7680868062273135,0.772651794814873,0.5908808739433232,-1.9306539247203567,-2.899391840339118,-3.782667428541417
1590,-0.7778269925513834,0.7581244191048283,0.5845563502323023,2.346664002109067,2.542347144669203,1.1868744612287556
1600,-0.7340939970603817,0.8038730371988064,0.6212844656149393,-0.29504729199196233,0.44688501994077146,-1.5943219150365766
1610,-0.7683733693283044,0.762276910758369,0.5873963849800068,-0.308744165646764,-0.587590644135191,-2.0342569285293908
1620,-0.7717283210078519,0.763027991357921,0.5815198850963754,2.7701384643773532,2.989246037243651,1.9886163193503332
1630,-0.7524543388945255,0.7818043821077132,0.595389299708621,3.7634198520789246,1.8558755435858767,3.2361199794741307
1640,-0.7417437573852387,0.7917655788476992,0.6110610086685307,3.222136598396908,1.8903402652089913,4.359119241959548
1650,-0.7739920157154339,0.7660821669037826,0.5845513795959678,-0.8448413322549275,-2.0827479242724576,0.34740141090757337
1660,-0.7595827712489489,0.7818112561440924,0.5957795703108294,4.09017105358107,2.0613043122268637,4.005346994987533
1670,-0.7544442825847756,0.7852749299223122,0.6002228444839434,2.5200864198510504,0.04283249041901733,1.2291018834620095
1680,-0.7736036813269203,0.7612432184852068,0.5815383414970106,2.297252148512338,1.1551369020798443,0.8432094329183497
1690,-0.7406577885203349,0.7901480090534931,0.6123950453667578,1.3282817452903342,1.4585618695981177,2.1424839882058166
1700,-0.7905629620896362,0.7485355075004798,0.5600556172514957,-1.5714648634227268,-2.611728412297546,0.22708739059511185
1710,-0.7685609058237878,0.7697844379475796,0.5790974845860506,0.9208024362924017,-1.3474928784800797,3.2490334982093927
1720,-0.7980528487905576,0.744993505650264,0.5561213850999304,0.8957502428898068,-0.49011045713691215,4.325535045368788
1730,-0.7769958391005967,0.7671129881748613,0.5772606759552735,-1.6880991364050693,-1.1852410462887568,1.5297142234178283
1740,-0.7510128027120218,0.7958516037796968,0.6081278139501477,-4.991196662329692,-2.223160359866757,-3.6987072542069717
1750,-0.7557416902728039,0.7804346421963033,0.5970087510115558,-5.750321366344583,-0.46964687792383997,-5.110653838571855
1760,-0.7570734980030269,0.7672405308315746,0.5934379097464778,-3.1961991467688304,1.1452066469992324,-2.1904084703849143
1770,-0.758732702605382,0.7665793053545708,0.5958579368728035,-5.453626844892761,-3.859761004416303,-4.24447904094294
1780,-0.7664503488128871,0.7641353336091707,0.5927442867086246,3.438524557682531,4.14378908695878,4.431530811344938
1790,-0.7382628102950987,0.7962098440066909,0.6205616039794963,4.52743595421193,4.12046739468348,3.419827399734086
1800,-0.7757006781047262,0.759551481718705,0.5803337018504056,4.852154459562015,2.0636451423133755,0.17075320173350922
1810,-0.7686915660552991,0.7635126942781139,0.5852551631894822,2.066453549315672,0.4898682371616534,-2.127223466532073
1820,-0.7714931167055062,0.755188437961528,0.5847199791781051,4.330562795475851,3.8063694507922623,3.362880311023656
1830,-0.7827217936998595,0.7439120948579068,0.5749148613373133,-1.4955105592504028,-2.634172845765844,-0.20011658654656328
1840,-0.7416580750393122,0.7925765481673918,0.6147651996140172,2.5447850872640148,0.8253059241219511,3.4639231469958998
1850,-0.7827251923161672,0.7563311572461613,0.5739829532359225,5.612332824657227,2.908899890252839,4.00167155014767
1860,-0.7697337982400442,0.7733463898259332,0.5850138103336039,6.495561075366547,3.5120638128191626,2.578491389426747
1870,-0.7645021032600479,0.777549582633722,0.5875020516058339,2.4502045508731003,1.1409171303653307,0.13261594611248864
1880,-0.7889047004312937,0.7469059857678142,0.5633457964682087,0.42369652714206474,0.6841473604699455,1.5899077363787923
1890,-0.7731962495283001,0.7652766805314882,0.5821691884893055,-0.8563973493135515,-1.2816400431077377,0.8470986675000103
1900,-0.7671528962078512,0.7736910192924599,0.5872016241516824,-0.08133737355214607,-0.15946746135281764,2.5606246670800155
1910,-0.7688444760267525,0.7735192693776477,0.582377679143103,2.7114366977632587,1.3870852213392122,3.7992666118989242
1920,-0.7613082554207746,0.7832259542907939,0.5903098325032673,1.961357964739324,0.5102834423816773,0.3415483600404706
1930,-0.7460352612727488,0.7942006615848192,0.606356934202019,-0.46666986281422174,-0.017787998969020613,-2.693002580423718
1940,-0.7511207720717941,0.7855155871925319,0.6019159211149352,1.1798047173724855,0.7947724570285135,-1.300541741531431
1950,-0.7790534511590098,0.7629867902117151,0.5791115367352561,0.18357394806595684,-1.0832768559276933,-2.552177519850428
1960,-0.7882698347707285,0.7512939734168911,0.5699951451057724,0.2183257914270248,-0.492164510177285,-2.323094148676305
1970,-0.7545367290530495,0.7857213937831455,0.6012225455185781,1.9105845761118743,1.616060043108467,-0.038164414232277455
1980,-0.7570680413051636,0.7829476869373585,0.5973632970370096,-0.5574397222817021,0.009121284612330319,-1.5462540302100662
1990,-0.7666744160815451,0.7656827046670105,0.5823650467899348,-2.453823266996013,-3.153298958106128,-3.646003698244792
2000,-0.761172563725422,0.7707575390981791,0.589739329496964,1.5753434135540598,-0.966355549075427,-0.6810735638367494
2010,-0.7565458724130496,0.780965406957795,0.6004955935476621,1.9046586032576942,0.9474775559089144,0.3787051691078115
2020,-0.7547120791717269,0.7795178129959062,0.5975561851948905,-0.36281492900607826,0.8028468794463098,-0.5536094934214709
2030,-0.7909461647357864,0.7403265120338671,0.5570390619378132,1.5018952302961093,1.6976312909960247,1.612522858939864
2040,-0.7832506233768586,0.7504790169883646,0.5697933940560408,-0.4146258678691682,-0.23741094900454995,0.929134336317178
2050,-0.7607771510660098,0.7723185631614253,0.5954190883723288,-0.5403822455507942,-0.2016307882431178,0.8592443577286251
2060,-0.7883949630798583,0.7519935570475847,0.5691255559171637,0.05318655229314384,1.491120374052333,-0.31510069836422183
2070,-0.8029983778369938,0.7340948129153987,0.5489016547542938,-1.6376934207651377,-0.36425026440652497,-1.5235197379797192
2080,-0.7883830572204001,0.752638868534434,0.5671998112110873,0.2631177597793477,0.02148655418135212,0.6332691344989284
2090,-0.7345120243452271,0.801703423668816,0.6192561874543109,-0.29425684175594613,-1.6439282105933626,0.5389506015905106
2100,-0.7652050752923507,0.7715131979108896,0.5923640809309048,0.33450764247149756,-0.5963835795040839,1.8105032962874212
2110,-0.744308229889524,0.7931683480945286,0.6075141015341753,2.3272865503387976,1.313239136275978,2.4549089361468095
2120,-0.7412437948671751,0.7899523879914611,0.6109287781803845,-0.15700466333385604,0.7633743512587317,-1.2554519852591715
2130,-0.7374931579249288,0.7931003952083209,0.6095087743001013,2.0903954518231354,1.5516620046207814,2.8494541202052712
2140,-0.7716903533412399,0.7621804724151615,0.5791376592227173,2.4380375814734307,0.19685447390796673,4.310197031703989
2150,-0.7641854399589334,0.7813655706421727,0.588505724905758,2.316108858177202,0.15105951974648302,4.3896392049864295
2160,-0.7610076018588883,0.7848515266092899,0.6022424069655213,1.6578874620719795,0.429655930964366,1.8942884311915567
2170,-0.7548262458440513,0.7887575659401755,0.6047018501025178,-0.2548573658702264,1.0334306095632593,-1.066203456776144
2180,-0.7730085522092182,0.7649694923067496,0.5792963280615613,-0.20069847871751056,0.42420630604521525,0.3812643856081599
2190,-0.7815293346452123,0.757096913771286,0.5731769721379648,2.088616832858781,0.9167331470684554,3.860712060600429
2200,-0.7600376634405677,0.7818945928224043,0.5983491667324742,0.5369315434610045,-0.37284644847782533,2.199815026621997
