time_ms,ax,ay,az,gx,gy,gz
0,-0.5388832447469857,0.7735326722879545,0.8345809917096958,-0.13137535633919373,1.5621238108199607,-0.3354758475103359
10,-0.5339189658778078,0.7658573520350551,0.8321633085923298,3.4168724547125207,4.453343463533414,3.3732005264644487
20,-0.5491904246049941,0.7532139277191243,0.8186791199731814,-2.5497835114846135,-1.0463337336509886,-3.407751573981858
30,-0.5715331514888412,0.7338142510037075,0.7944256978758295,-0.16456804541522807,2.841316535660982,-0.1025351806296273
40,-0.5629299430718622,0.7426823861751491,0.8037594628167771,-2.8456957209460145,0.9630738972637554,-1.6210979278022597
50,-0.553123784348957,0.7512628957186126,0.8207790609672424,-4.178246450132431,-1.524416135296332,-3.2643892503715133
60,-0.5471830178622041,0.7533763545433118,0.8250496576552165,-0.9348283193576395,-0.3828569412941427,-0.45960207702709466
70,-0.5576274376645078,0.7408922846478728,0.8127773939867479,-2.848991969419868,-1.4842797111251997,-1.0604517265428923
80,-0.5160111693471799,0.7862746609910573,0.8499488993119361,-0.3041052449526292,0.3842560805734145,1.2272918086029698
90,-0.5171040213789054,0.7853239308093029,0.8491351044983254,2.8903443402333413,3.6172755464160327,3.265392682504157
100,-0.5362452085513075,0.7644977331413468,0.8323337005870646,1.7556928048692513,2.3131333730574464,0.9768535996543724
110,-0.546326183680261,0.7539772635334683,0.8233667467602419,-1.3073250840216537,-1.845711354388789,-2.7126666271901687
120,-0.5331806528361129,0.7671858107603119,0.8371425697550465,0.6899183137967818,-0.5743758421777531,-0.8909960753657179
130,-0.5453784527789007,0.7583008458132204,0.8198401678521435,0.10936815612487305,1.211574503439604,0.6092658893644133
140,-0.5483737428314689,0.7546119593578704,0.8227022149746929,-3.802612806431513,-0.6782766583257251,-1.3968759257596477
150,-0.5439481889412748,0.7612335970318841,0.8288881898849354,-1.0006375338255435,2.8287446480978655,1.7879248478104035
160,-0.5470067477302647,0.767125067413944,0.8289977502268733,-3.4078177895231003,-0.3643259335499877,-0.4239761184553861
170,-0.5596592522965935,0.7683932687740537,0.8256802597266332,0.4582679620314485,2.8199329123509598,5.168222002285582
180,-0.5112945947475116,0.8281146132377846,0.8838301261201333,-4.772258026553403,0.3503542796425747,4.298412013949909
190,-0.5307833377900514,0.8098786101276902,0.843070635378035,-18.469339087991962,-3.4791587647685884,-1.6792583320582668
200,-0.54962782385288,0.7878345812596116,0.8305740055623045,-31.930428934249132,-7.205414562787677,-5.546754130937064
210,-0.6706184283370361,0.909006270792417,0.7100418225717695,-29.775907545237363,2.064165836907932,5.977172877455048
220,-0.6874436838111027,0.9285759620547337,0.667263467806097,-22.203856338689647,21.001189102839845,31.965975510501185
230,-0.5465423427756013,0.8046958693654346,0.7492884342761001,-12.266549310414849,18.08550876060517,64.40667470090179
240,-0.4391416915952716,0.6975669584646811,0.7561072561014783,14.296573726262686,-26.654007044481837,98.48813010772574
250,-0.2926041533020295,0.6497834985936125,0.6538389162243115,15.102446872466501,-7.6438298093644335,85.03967784081375
260,-0.26419238114420573,0.625137364575475,0.6015018479487536,10.92834016266152,13.869394315847602,59.786752732318284
270,-0.27680778857920285,0.7362517245328384,0.6274874673849368,5.059610321467418,40.12829473513448,44.10422492620432
280,-0.3443537635912362,0.8015153948827991,0.7316440485173954,-16.733878299928772,55.10600725730925,26.506570840064235
290,-0.4636760310648241,0.7311770908317606,0.8186321391626353,-34.43908279105683,63.61317695874405,10.535420895107183
300,-0.5346857200723547,0.6416927817239216,0.8354654419162182,-24.326662866467444,62.79881265032145,-4.096745126160599
310,-0.5667642149118657,0.5955711586220199,0.7876816635170624,2.1486896475663118,6.7119120269439545,-28.126173740499695
320,-0.5406544870732659,0.692565355195262,0.8099917916363674,37.08485918499951,8.324040664366144,0.5448553156189138
330,-0.5238581146097183,0.775068551661975,0.8316983478339846,58.539135942163135,9.781176052655875,23.150581036657275
340,-0.5607592569978228,0.7882399537416033,0.8031839399875724,52.69519319433973,11.940921525404248,34.60012264351512
350,-0.522032131742696,0.8017121614937477,0.9047171187812699,33.56187987256744,10.79858612985403,33.086217183003725
360,-0.5039360446518368,0.6992136043781035,1.0271734942651398,30.703385497251478,-6.513700542671386,11.689490029891601
370,-0.5060725078339084,0.7044829007999862,0.830418748521628,58.06348918840939,-66.74810797389871,-57.86137041890373
380,-0.6316902153181235,1.1548918315565624,0.6457543131062555,-69.59962079351557,-81.68557710865645,-89.54113044576654
390,-0.8855821781183252,1.226606414914909,0.538192490871762,-62.684821322963145,-64.49992505038404,-79.65702346028607
400,-0.8987897321013145,1.3023574941574387,0.33343263887151436,-1.8143748237434738,-55.32777416006725,-63.44316426698644
410,-0.6044446959736829,1.1943361901471117,0.5027964345437407,55.946968687499336,-41.92045515088188,-38.947676410366384
420,-0.3747539569042724,0.6983466060201606,1.085679369379524,43.194580230961066,-43.46193986506826,-37.50727176994141
430,-0.8306722861586184,0.7850117843399251,0.5081495893800534,16.315098219628144,-21.619598400706852,-16.803113843388555
440,-0.6655693934534793,0.8885067477245256,0.7098532642600474,10.204743468033275,-9.012191042326712,-7.461445075330505
450,-0.7209659384371988,0.7059468902159076,0.672310946719127,13.488771361833631,13.76539254258138,-18.975371529592934
460,-0.7191701476198483,0.7641514896936028,0.6674335652952067,15.514650278630658,31.83512846645737,-12.792797398759811
470,-0.723410249759196,0.8781436863499169,0.5111151856629689,27.110141829478323,48.20912277036333,-0.4841334794680694
480,-0.6506797942995542,0.9193146905243195,0.3499687393217325,52.04685630533191,67.98588843163395,2.0031617303556106
490,-0.5426101444566543,0.8153325185627407,0.6424565363237278,43.26513431107599,64.573149309408,-1.637427908140419
500,-0.40358472015651775,0.620334057308924,1.271995886655231,43.27284975638729,59.99728060830271,-9.525974587832915
510,-0.4953032654846118,0.8776862137853927,0.8489365632839779,70.01374574576747,49.29970944235267,-16.431885603106746
520,-0.5774608943672914,0.868399988381873,0.5321317528890359,18.368680076521358,39.92346170912997,-20.561341859416473
530,-0.5751840336964217,0.7443410757737585,0.6011211015776968,-38.0742391487672,29.95306035821963,-11.442119540738839
540,-0.5279265453245938,0.7515573184543285,0.8421767392211454,-35.82411984955814,14.669885673773974,6.174038294193678
550,-0.5483255531008965,0.7527014086592361,0.8388458463599099,-16.34856858548166,9.258812057424937,19.384953319896322
560,-0.5194137824180098,0.7862583461356347,0.8693519811592912,-9.47220266428401,1.1517718212288437,19.198808876844737
570,-0.5649331912193042,0.7364614358710696,0.8158198733997489,2.46041896999166,5.726761643986797,24.047356316150807
580,-0.4985397500436273,0.7803638928207517,0.9029308286775484,13.212589799198778,2.6709224225479558,26.4727196141826
590,-0.4827367281506296,0.8240278521394603,0.8532328488869544,27.353642015857776,-25.111068381283616,39.69272449934869
600,-0.492579344829006,0.8432061548604564,0.6391567826581415,36.90052526610222,-57.022451086125,56.986295723459655
610,-0.38396415802800304,0.8012675220744058,0.5085007721836027,20.291073130354143,-33.3859093325183,47.438145564844945
620,-0.32782052726951066,0.8260954909468077,0.5473589116265896,-25.428160428595227,-5.866930785333732,28.31677008803585
630,-0.346418865218808,0.827604217439184,0.6123557627573443,-44.979191460395725,17.412114859001473,10.038478458701679
640,-0.44640723772040625,0.7844961536460658,0.7920058756233845,-69.30188171269641,39.05225369116601,-11.536587649218736
650,-0.6944187665092838,0.6851086324408159,0.8240027458164703,-89.31728960204347,20.786374732990794,-16.752415606220236
660,-0.8551873827127865,0.6152242820826799,0.7306480332212942,-82.15870477425881,-25.35759649309097,-13.14654551369491
670,-0.5364037920273758,0.7146024205948487,0.8409852874568841,4.236776493255626,2.0575738174990397,7.041840901240189
680,-0.5418627669802222,0.7583202623094932,0.842202391829214,15.360600216457449,8.610207636724446,13.18804290805548
690,-0.5740712664633181,0.744596822103914,0.8159323648313728,22.472290231169147,10.048480956447511,10.615482263662754
700,-0.5144613088472563,0.5106648138487333,0.9255420812883907,42.38243798055633,3.6873121726026343,-27.66233213307173
710,-0.4790477548366783,0.5540027805626466,0.9175838086531836,68.19363940100594,-3.4916921318133083,-55.47640941125594
720,-0.5087369184994126,0.8226168919131953,0.8467001255184122,65.24194066901309,-3.5589130100539466,-49.77245759437245
730,-0.6295951365615406,0.756160784164408,0.8722082165621274,3.1196418728568083,-0.3187561090758948,-29.22344229207257
740,-0.5069978563714802,0.9667630516667592,0.8342122563690488,11.854050315743486,-2.223579187959485,-7.017182323911154
750,-0.5540100203561928,0.8042551059519052,0.7986482697768796,-3.48318612599789,-0.7676243302269421,-5.632653973744378
760,-0.5470765017020776,0.7606256457142153,0.8176718499784439,-5.888850095441414,-0.6804113513175255,-7.465613219723153
770,-0.5262783560034919,0.7672239406746595,0.8434121249121147,-4.56986366487484,-0.9668768065740202,-7.761777470166895
780,-0.5281184183203536,0.7584373602138794,0.8445383964593953,-2.1893986126566136,-0.10371566696325596,-4.8612720534705876
790,-0.5652144337278353,0.7182790596120583,0.8099665374850552,2.9348140388140522,1.0940963685520622,-0.9465167923120381
800,-0.5343622504258172,0.756865138642629,0.8378830011688088,2.341199147292953,-1.2967618949520299,-1.2455862958779824
810,-0.545678695170125,0.7493211535364107,0.8314802832222046,2.405788411957177,1.4571593117144725,0.5289515288051517
820,-0.5296797980808087,0.764362442517105,0.8505361792270252,3.4208563994678256,2.028091270175279,0.6671677505128091
830,-0.5603638470477652,0.7299560146710353,0.8169779617894257,5.026089319766167,2.5908228918369645,1.1217910459767935
840,-0.5640999803259131,0.7258933128198447,0.8086647082956018,7.404025057838395,3.280081386428737,2.3923741138568944
850,-0.5267720538172752,0.7695242567369056,0.8458104785899517,10.085248864616759,3.2735355797554133,4.12258656528192
860,-0.5562642849797654,0.7424205996117579,0.818458092801846,6.203520515354066,-0.15040582192843882,3.040764468250505
870,-0.5441957336768277,0.756048091687368,0.8278833352484675,5.335149984882721,-0.13526746023780611,3.3119141970883788
880,-0.5609882480940731,0.7458472117011731,0.8124031620647106,6.1405899071570955,2.522024436339766,1.942418931614954
890,-0.57620166683697,0.726957999823967,0.7974229345390579,3.6378519530250584,0.8991235296241736,-1.1059095857859964
900,-0.5460933625910013,0.7522474279081777,0.8247983959555547,0.3413607142767905,-2.051896246217425,-3.0164968388231044
910,-0.5305417206402488,0.7719010823533445,0.8372815065624609,3.207756727955927,1.4495009791157927,1.3758039465950185
920,-0.571180576241859,0.7298484669351109,0.8009606835053238,0.9488634021092897,-0.8830675002052503,-0.03481752688768469
930,-0.5202995604478419,0.782217064603323,0.852538427260135,1.6362556656383604,-0.6678789796898273,-0.1629604524133369
940,-0.5241427354743119,0.7814789359688742,0.8429863406119326,-3.329019305198541,-4.5372829327352795,-5.098905883184997
950,-0.5288116531624214,0.7725902199258072,0.838095571447758,2.806960689217737,2.6312493579052303,3.303510968958302
960,-0.5488732712530681,0.7514254588823334,0.8241610763878334,3.5994144360057065,3.281698720139593,5.350560005696707
970,-0.565067745444839,0.7415006514280841,0.8132223375980697,3.4678823372710266,2.280498888449664,3.4944767439928093
980,-0.5700477294065083,0.7327237866846912,0.8010430361406345,0.5712094282564077,0.24050739260734222,-0.7714645557265012
990,-0.5593197060966002,0.7614954953533872,0.8014792336277411,3.8803581486170104,4.721110297169563,2.5010241538384363
1000,-0.5316388133125746,0.7889769999628553,0.833659532853331,-1.617468807139016,0.02870464634395975,-3.1189063264267194
1010,-0.5869702670323789,0.7241810936252708,0.7827730624917681,-1.829997087744729,0.10377328759473659,-3.0167021707991024
1020,-0.542872074608983,0.759596997508859,0.8283121239421845,-2.4870715291418173,-1.5917428119333166,-3.0800955052348877
1030,-0.5559387094898748,0.7444169679379874,0.813832660892127,-0.8117582974509769,-1.3524969483869411,-0.9715337535934284
1040,-0.5528456010136856,0.7496899419596014,0.8127557666792967,0.5614171015910409,1.1262327370688217,0.22554726697891236
1050,-0.5449019719211098,0.7481185080532843,0.823234518464232,1.0419725142539797,1.0360671464086526,-0.02244311162905488
1060,-0.5392169660299303,0.7639022544306446,0.8293455095934371,0.031804387618898255,-1.1271252408540349,-1.6343710018602617
1070,-0.5608638880500758,0.7457051726631281,0.8099202508002954,1.9909826044809638,0.7051680056135081,1.073083703686082
1080,-0.5332695559875436,0.7663855159702615,0.8380745429761065,1.0119017058383382,-1.1274394073280787,0.3452015539462796
1090,-0.5249338144844004,0.7681768905424947,0.843757321246789,3.51804114174399,0.7820904300819089,2.0289008464484253
1100,-0.5326980593030622,0.7695623342091701,0.8328095993330609,-0.9330534962680792,-0.36949115231129753,-2.6418244947293847
1110,-0.5143999988658248,0.7876404671398524,0.8495118994889764,-0.22875611962837739,0.900312320883161,-0.5695516445424647
1120,-0.5096879751785504,0.7793078134156649,0.850512874890672,-4.423379973895491,-3.6975656443189573,-3.692161278197321
1130,-0.5325931720243418,0.7660958762822643,0.835684831833731,-2.907577869097231,-2.720625733886374,-1.630234468072929
1140,-0.5400660069939189,0.7696762794146849,0.8332204666664442,-0.004161906728857856,-0.1304955061380889,1.2175706730775882
1150,-0.5687219297642513,0.7411031854621464,0.8018284909673727,0.8416445030496433,0.5096282667641376,1.3838415991303838
1160,-0.5823821909329847,0.723599147870339,0.7869688677442515,0.3770156613341522,-0.4801361025332731,-0.2096777786956916
1170,-0.5381174852033388,0.768923742141047,0.8356665609975816,1.9768619540642134,0.2404539304876735,0.9230853972033906
1180,-0.5239118632316199,0.7826950261742232,0.847562274968133,0.31666225653218993,-1.0225261603332516,-1.1415599750441643
1190,-0.5445829657366784,0.7631881423377682,0.8230594601473223,4.5501253698008135,2.360731492271864,2.3256824455681775
1200,-0.5371395726068624,0.7707048027180355,0.8322335859375869,3.7330957501595323,1.3835723843857877,1.55028103014439
1210,-0.5144030124786517,0.7910092714420014,0.8581259199736552,0.5066309061643152,-0.7635193304424589,-0.5235947498088341
1220,-0.550137373873958,0.7528704891441653,0.8189878654823772,-0.5591379320721294,-0.4153000864090081,-0.04585241814875873
1230,-0.5265440149087942,0.7857699774472592,0.8449008762860309,0.01528135850510326,1.4900728627287168,1.154669684051444
1240,-0.5482763199171045,0.7637970841525092,0.818359877640806,2.4920018786270353,1.3789033390346566,1.519236361528209
1250,-0.5373904082505349,0.774433710231849,0.829165038096418,3.0679120575035244,1.1513024697661687,1.2037324542368966
1260,-0.540485433916089,0.77236761567079,0.8292664375163372,3.959257765795806,1.9462526167296244,1.473215920430012
1270,-0.5540859777497716,0.7584468350253988,0.8156816227730974,1.5520668656549887,-0.12797582269378682,-0.837754260321131
1280,-0.5323700396581784,0.7764370129128313,0.8315680310440232,-0.31505588932636125,-0.9522910726760783,-1.1276234641047167
1290,-0.5513599555510545,0.7562120954004505,0.8164141749043067,2.1324055758029017,2.643166240248214,2.7226553410298466
1300,-0.5334740723703455,0.7780387606392148,0.8389553004368935,1.0020957298007898,1.1286426225813715,0.9764752191078843
1310,-0.5600627937472982,0.7521229081812605,0.8129412305458776,-0.9407424698066084,-0.32041601425210997,-0.03709058546015176
1320,-0.513837130366355,0.7941300102614731,0.8569311230009403,2.7015237138019312,3.3028715764621994,3.9261563105928143
1330,-0.5709144342031046,0.7351034092387461,0.7986300151717777,2.625445743154468,2.4716650253980763,2.7938777651593263
1340,-0.5562137855199902,0.7556376221857859,0.8143710535642347,0.05983563883367626,-1.032855749188807,-1.5902975770749792
1350,-0.5785876959289884,0.7384493211021382,0.7882410896759131,1.9911378697835953,0.39888025784753633,-0.6075375395761453
