time_ms,ax,ay,az,gx,gy,gz
0,-0.8063484944226171,0.44142035512380273,0.3929953298001324,0.07931109477103115,0.14957384735189716,0.05441491044374336
10,-0.8180546137354672,0.4277019387187665,0.36945974575136414,-0.8850770497971967,-0.06558170697678051,-2.290913062648604
20,-0.799115787438867,0.44343759083444667,0.39062330555277514,-0.8221915247996249,0.08102971765722783,-3.168933152071294
30,-0.8112098166584001,0.41928426961891957,0.3802371401208248,-2.0840347701724022,-1.5605315894248122,-0.9370858292870161
40,-0.7774915766798869,0.4579267228020597,0.41941504666567186,-2.3735623588706005,-2.9438096502517235,0.29926401145951953
50,-0.8212916922497898,0.4213384007151598,0.37948587628381275,-1.7667888972473411,-2.03175098409892,0.5411633192526484
60,-0.8151863850832637,0.43193319938808517,0.3800551300498019,-0.03590061964960212,0.1230506074563415,0.19187820140615475
70,-0.8335121831502916,0.41243493512057083,0.3571158276744954,-0.01034846688565666,0.6852956101889056,-2.1207354135772474
80,-0.8099576574857972,0.43151894419595666,0.38788154962176413,-0.9303374939130955,1.0675504462592909,-3.437221212187012
90,-0.7820396963009422,0.45744169596490225,0.4136162373104671,-0.9960672923969672,0.13238481213742048,0.763975987582274
100,-0.8124521087057681,0.42089263706311886,0.38324539777620387,-1.721705861467269,-2.045245735484661,0.8858486313060319
110,-0.8260444147673908,0.4140108586939458,0.37269068667919264,-0.8979285843570728,-2.0563677676637178,1.7121002082845953
120,-0.8093699275865399,0.43364048664675303,0.3938092148231711,0.843366989897884,-1.362249022856832,2.9150727747672125
130,-0.808983484316972,0.43724970582479017,0.4036714542085422,3.4733279214311366,0.396411188417894,5.15659007129479
140,-0.841589478623078,0.4834814725742078,0.39706743395599936,2.924505509831386,-0.5319065913181544,9.317314453908914
150,-0.8783263728676386,0.7291714405379767,0.5505533144504713,-12.27927426095747,-8.697514902869871,21.122492762996245
160,-0.9623418041527909,0.3958598163728187,0.5505707220442274,-15.946951463051903,-22.366308979142172,23.43911963751819
170,-0.8061357722552792,0.3524273508723259,0.3961501588036954,-11.966897903439868,-30.48990585073133,16.902856819328022
180,-0.7576871312507141,0.28113139820295013,0.3818486910670883,-7.9334529984820685,-29.181071320000957,10.570730633828838
190,-0.7070293509363577,0.3199401894720655,0.4098832897394705,-0.26492051319382637,-23.21528340701829,9.665262464716653
200,-0.7054907154465723,0.386318981844846,0.4186518794161337,8.278763477751149,-16.227470932399505,5.504961108624795
210,-0.7059541593873876,0.5134829662411443,0.3518858087455792,8.704026864529288,0.7443038951297726,-6.452462181497531
220,-1.15992222719474,0.4638489627900148,0.57144098311671,-17.96444893564391,9.30624137234495,-22.4423436850165
230,-1.638152614217101,0.39899290555459377,0.9659473813429836,-40.30254448178698,2.8155462579393915,-31.947086429104665
240,-0.8075613787026167,0.5167339147401132,0.32998486090184326,-11.388754802561365,2.556539514796884,-7.482588821097533
250,-0.8288615933546738,0.53530073819362,0.21857206035892873,-26.158595036822092,13.44833552709037,-6.173678191696901
260,-0.9872323019854817,0.4045768399509276,0.5024158234317901,-9.008561237907774,36.587386155622134,23.019171227953237
270,-1.0981449413364648,0.38004114003643014,0.6309843580248309,28.787660332561842,70.656537158728,49.657822007081855
280,-0.6123451942923223,0.7408712549723021,-0.21714980299380368,47.91413849413061,62.00988591693071,36.94706773592653
290,-0.6225638142826514,0.5082438846240818,0.4914079708607956,49.51022491059936,42.45654472823832,29.95410874041605
300,-0.7708341784918413,0.5644318092983422,1.059066451950161,18.828523538486788,35.750988747628604,22.41075011346297
310,-0.7531188479555526,0.5209074929736569,0.43837886244605195,15.35815965011646,15.191727274226729,16.93152172409263
320,-0.7976264186668048,0.30873397868042707,0.608599970775007,0.480301335619403,-4.479212896410104,6.274526062735431
330,-0.8756671738482723,0.42229410162214503,0.4442531890275441,-10.909290699015395,-51.89457748104105,-5.002129386451155
340,-1.0932358035474443,0.4723597797701075,0.07333996206087696,-18.533820187685055,-99.72808773229576,-24.995935677691886
350,-1.047023421287054,0.4286650349999253,0.2286976138526125,3.652360761764765,-109.90485989962045,-25.5314500292814
360,-0.2900787350041081,0.5211456067038851,0.5766948523363129,36.70710920159908,-97.31157211784749,-29.2852636172831
370,-0.3153668953505037,0.4007137986167267,0.37554273013131334,56.17879328761184,-69.19358837030263,-37.073112101151516
380,-0.9483617231321881,0.5459017001014638,0.13566590522028293,35.874765231650166,-34.71789358057049,-25.149231069809183
390,-0.9070165567628976,0.627119224748863,0.3109618309966743,4.778458724155357,-2.236868962832904,-3.794022251875935
400,-0.8360038345423104,0.5642358978641167,0.42859592086905596,-12.521847415995614,7.49057803149804,-6.294721371588619
410,-0.8251996712817257,0.561965510766282,0.5595392351531527,-7.405820500889202,29.885990341462144,-11.345377467536613
420,-0.8891935020780256,0.5803433830493373,0.2894741265391721,-10.322252208341638,45.20224195581708,-19.07669390955879
430,-0.8171177602543124,0.44720596652519023,0.13754727493375768,-31.299575373710784,59.50573101784012,-22.927216874382296
440,-0.7153344438989654,0.4217136597271969,0.460972231089733,21.835359473753872,71.86802534873557,-0.6910240541321158
450,-0.7812776789568968,0.4719030545502926,0.69208357805608,50.32003071707938,64.63792418867136,21.61512919232934
460,-0.8578453193683433,0.3849348368145423,0.31713975026960173,10.805610619653303,52.054137720835364,18.53342759931012
470,-0.7610978510575248,0.25255019229989595,-0.004498149851440777,2.4502114527804446,36.53877607236344,21.804771676059957
480,-0.7725750565937252,0.37426047014650043,0.44031104728112747,8.145906990018656,19.257042987038023,13.746239384763635
490,-0.8962314576298605,0.3814583108159636,0.4134471011406888,-18.02126546382547,26.39354866438196,8.074108691161436
500,-0.8621017722946157,0.422028829590501,0.3073477937720504,-13.383095685327124,10.569332391854022,3.060671207418906
510,-0.8200298188941803,0.4759714501012939,0.3396567215265074,-5.887662098346924,-3.790473200690444,-3.6376838542346634
520,-0.8623298987515513,0.5318978484100568,0.6709119426193648,-10.28745071839317,-17.507339019464744,-4.1138257377073195
530,-0.8350140681497591,0.6132347320157369,0.6130672708525787,-30.296871157177065,-49.1157481515509,11.34474737553132
540,-0.9262596476543066,0.5046485189325399,0.41034894441010145,-42.570450041061534,-65.0668387706794,4.227277905892949
550,-0.9022321888031003,0.4903058194930671,0.22874589581419924,-32.293861928913834,-57.51052862470005,4.582720306490717
560,-0.6979177129522462,0.4662871360916626,0.2534398466036307,-16.652760611022014,-7.789797802591275,3.5552693570852822
570,-0.6805546207404489,0.43372356499313147,0.2773427740202275,-18.6925159580109,19.947469984249462,-2.5589890020768467
580,-0.7692336680328551,0.3213169961889403,0.32873466645703087,-8.636283473528922,-4.644783777376169,-24.794186548077075
590,-0.7939766346286018,0.40438782388895755,0.3800223946674783,-5.037204214372138,-0.03626719188921457,-18.416027939260346
600,-0.8144908628298505,0.4049746789204804,0.36354215061578765,1.0676575306569656,3.415934396727511,-1.1829586994881094
610,-0.8103557773427777,0.407558362511655,0.36303984103464215,5.414149777283229,6.000407197959641,11.418086533056737
620,-0.7314001684395118,-0.19135052451429205,0.3296539903778851,41.52753749586757,-0.9192511701329409,-24.86118743110581
630,-1.049877157979546,0.7174681631904137,0.27145774319413973,49.91546458246988,-5.042698224906357,-0.24696210431594623
640,-0.5141172554474713,0.8212076680333228,0.024182165241946278,-9.647311823728412,2.636058087608359,-7.735341513610177
650,-1.038405477184409,0.36978853519175675,-0.0010891358780494263,44.4857323797279,5.609603423436841,-26.72113180545596
660,-1.1014053747416395,0.7608555406359649,0.643147802255363,40.62039567040179,-0.019314763067095342,-27.109274124292792
670,-0.8654070652983579,0.781515522215333,0.4531114407845696,0.3955184324760519,4.287701935426179,2.724132803596418
680,-0.8332722731515901,0.4518565575759117,0.34418286889094835,-6.757577654790352,-0.4752437087507666,-5.6546092475786525
690,-0.7892774637852563,0.4672255870934861,0.39666614598070477,-3.1536320228290644,-0.3760089522903707,-2.5678500167273897
700,-0.7906739412823888,0.4659834243089121,0.38663363007838014,-6.841508554330099,-2.1069326786180707,-4.858292361266534
710,-0.7558733371008787,0.4916138505292667,0.42739931713251045,-4.45999536715656,1.3445904494248895,-1.2092572899680993
720,-0.8073920673292977,0.43903223163258726,0.37795130242478864,-4.287663665629289,1.3985421109574223,-1.2499683206168717
730,-0.8073724726450401,0.4467618061620219,0.3753419104149243,-1.5599789227076672,3.2031924963138207,0.5949100303451975
740,-0.810653851859502,0.44014550433085586,0.36619709798863875,3.4260757604475645,1.6607653524038868,-0.7860186097179996
750,-0.8033595162955681,0.4411855662995348,0.36491780012406067,5.995209583821781,0.1223937158811953,0.3516489156414847
760,-0.8212094318195461,0.4403043246994396,0.3491600057265876,-5.931846192087487,-0.5373171908940364,-7.86791948222392
770,-0.8051024400456689,0.4464977113090871,0.37791684728196384,-4.939662184503518,-0.03994496182737306,-6.640065012347859
780,-0.8038692104081949,0.4350149970689053,0.3758056078274276,-0.4980888103577059,2.176905337505759,-0.565973462187209
790,-0.8044926515537538,0.43583324051715433,0.3647069187600591,-0.21506385730248445,0.1623097309588955,0.3731811243574571
800,-0.8035138740742094,0.4380755617404148,0.37015817996948325,-0.02851916010314315,-2.8642768323756496,-0.93450868516859
810,-0.7937570117265594,0.45456060076158605,0.3820003290639971,-3.125321001903596,-0.28063262605346756,-2.6463453609058796
820,-0.8220526567248042,0.4271664734466449,0.355733555392634,-2.5637878127497853,-0.4151365928210052,-2.9953308741054263
830,-0.8004920629944683,0.44052827243409953,0.37219382991098154,-3.144185469034067,-0.47525001306364634,-3.3966433040405644
840,-0.8092513619159353,0.4299195923944477,0.36916051908862335,0.815886565136751,1.5761181376553786,0.4778899091596577
850,-0.8000656206256617,0.4450822792517042,0.3750869087761743,-1.2634252963092767,-0.6018696763391108,-1.8381243925953659
860,-0.8184395303511436,0.42240800098580555,0.3574905058601687,-1.93716607665195,1.7775151108110938,-1.5951703459249669
870,-0.8052262786956318,0.43293382610712455,0.3696118712879599,-0.9893348576780467,2.3528164855196483,-0.09866610997969882
880,-0.7822507633157358,0.45322759038975935,0.38865490615701054,-1.9406718074405034,0.626111496204956,-0.06134586394725178
890,-0.7976743316231394,0.43954576806060475,0.3715594474167163,-1.1912317627800613,-0.22194815199542747,0.19308135294181072
900,-0.7943133104666268,0.44724688081981095,0.37393656304085343,-1.6510951802317404,-0.9195687602428069,-1.549897431603759
910,-0.8330110934458602,0.4081052664897066,0.33961477779212945,-0.3537915057950505,1.5741882135918894,-0.700905168935569
920,-0.8366682250693126,0.3957865893700309,0.3282134937459083,-1.7254424201794096,-1.3940612792671865,-3.4814156714296747
930,-0.7995625446034597,0.4389387189752078,0.37979446932270083,-0.828211918442723,0.5664051885644845,-0.5207522427363335
940,-0.8014353782347674,0.4326550156909492,0.3696577332903035,0.1899012877786222,0.8853311222332385,1.2403150777739742
950,-0.8257898595182112,0.414640679557661,0.34447635055563836,0.4627367525365278,0.242273045708683,1.3391393995909793
960,-0.8038738043455624,0.4389534446736393,0.36649125814041866,0.09277448079937622,1.6413661431323225,1.2367417722216327
970,-0.8061836343636286,0.43050302162014864,0.36371000238180673,-2.291404596161839,-0.7825392246317748,-2.2851020439215843
980,-0.8196010778870144,0.4142733364788896,0.3583634197151126,-0.8283771383566648,-0.5081371717712646,-1.5191484636586634
990,-0.7931643742776987,0.4377380554371144,0.3792041715025895,3.5770184380045666,3.5891600215142785,2.486474411846335
1000,-0.8008272442351019,0.427971249672061,0.36583962715503804,3.6827433223373967,4.4398657886342985,2.577169317186179
1010,-0.7982240045919997,0.43343678707801925,0.36750687254400677,-3.456301008424845,-0.9202867555335005,-4.02218041976468
1020,-0.8043178062024539,0.4301242050255197,0.3682957340124408,-1.2939779508611708,1.604247742730751,-2.340978859784851
1030,-0.8179236378421284,0.41287867378565274,0.3559613332899258,-3.066187816134488,-0.7750828821218443,-3.340184848766227
1040,-0.7961209814967272,0.4267735206258359,0.3782396000939868,-0.09822171346281139,-0.5117843875486281,1.1002614963447324
1050,-0.8137820660845402,0.41410939042143763,0.3557562609512778,3.0306604894738562,1.5170374042154287,4.309814066853351
1060,-0.8021778719255864,0.4337071733609758,0.36751200084563707,1.4427144109883194,0.6488619270298055,2.24773319558685
1070,-0.8070836849743065,0.4316653479413863,0.3616997693045965,-0.21392158541709969,0.1206491624860139,-0.3242293282657907
1080,-0.8487129281786189,0.3848188437871862,0.31992053777882734,-2.803986771900714,-0.8987978712960181,-3.708281815327702
1090,-0.8115017145545355,0.41539605862037576,0.3551672111538323,-3.410537628192787,-2.978305262608523,-4.505479186344531
1100,-0.8033884882900726,0.4212364701006538,0.36493246325282375,-1.0484451302188111,-3.002023311760275,-1.2803256957914013
1110,-0.800917521050065,0.43056791099133224,0.37052135649209783,0.7172700248135087,0.07591104452208232,1.584068549793057
1120,-0.8354905084920256,0.40266230985538004,0.3351884816888014,-1.886104540786743,-0.27741314952342655,-1.2678996265568259
1130,-0.795424530140209,0.44061639882103976,0.37674739960990783,-2.3615001804414413,0.03171861792914743,-3.3430768127097172
1140,-0.8264216640555799,0.4006473959639843,0.34732749291440135,-2.9893703674848093,-1.0518372303378092,-5.068752058618406
1150,-0.830567749943276,0.3910205630020718,0.34270650171453,0.28928026427885833,0.2760565453433256,-0.4313879065844932
1160,-0.8038868166460643,0.41884165976640997,0.369191450101406,2.075718308405816,1.723606472098211,3.407657459461748
1170,-0.7920422627660703,0.4376235036649551,0.3783097431765898,-2.991433062464251,-2.433457413128792,-1.5946946428281792
1180,-0.8075726483136698,0.42113128178373743,0.35957645372170743,2.8049004298090914,3.5733880645084,3.6092706252935622
1190,-0.8062441763044201,0.4193733598859356,0.36138012225017146,-2.2340498249877507,-1.6109661420413932,-1.9695908922407095
1200,-0.8059193669349745,0.4203864738946463,0.3651291483760896,-0.4968654074324519,0.06571613417927069,-0.8304295001549045
1210,-0.8155473923225324,0.4087422145090689,0.3569356902311261,1.780573575939059,2.363461830792237,2.706154031121576
1220,-0.7856075653567484,0.4399063024592233,0.38713650757353646,0.8727790415717926,1.5276356415975587,2.091692331911045
1230,-0.8342105048083345,0.39708648911849065,0.3397381022207283,0.05336369366626592,0.9968707596760058,-0.38117310425851575
1240,-0.7958131735423761,0.437726905616268,0.37914499592511136,-0.5337196316328704,0.8708808735498074,-2.1226522189742454
1250,-0.8121402119729623,0.41244412342240294,0.35522022938688325,-2.846068240604729,-1.5543535161826345,-5.0488817509677695
1260,-0.8171077451708864,0.4023553923873268,0.3465418058252111,-1.2530993585940569,-0.00832058884070358,-3.06759118050112
1270,-0.7841003380294114,0.44206815323100696,0.38406860812020416,-0.824232455619087,-0.6412927212883728,-0.9986275645215812
1280,-0.8210236653538914,0.4102172526926755,0.34383285273587283,-2.636940967029883,-2.2486730979286103,-2.5202055620800827
1290,-0.8189102658749352,0.40778052477986043,0.34899350814346997,-1.0735130538331328,-1.038725106934411,-1.7958762183909105
1300,-0.7936837742332391,0.4314282616674667,0.37509483239841535,1.3037133113692005,0.6459591154369808,0.1544503656148749
1310,-0.7887972113474935,0.4312177614059842,0.38074528600735164,1.281854445728028,0.2366682207179142,0.5884843681862537
1320,-0.8136736021827805,0.4089189919443114,0.35464839493314926,1.4806228861868729,1.303080458439974,2.1482692464101225
1330,-0.8035576451865355,0.4190471819059909,0.3655828918788638,-1.2829875262436858,-0.774599934388392,-1.062196825555369
1340,-0.8147793943091935,0.40819847501962075,0.3523610361611118,0.7718360207998223,0.6122753674050834,0.22105700403583078
1350,-0.8157278454596437,0.4155592595018277,0.35400637306603056,1.9209799372925969,0.5304242637207894,0.5186168975503208
1360,-0.8086423565311885,0.4241675266486978,0.3610815107730143,-0.36449583088230364,2.0208414851205427,-0.17110854100536388
1370,-0.7863795257097971,0.4390088089744826,0.37592113561350793,-3.9370981278619546,-1.021507074227393,-3.4491505841071195
1380,-0.8281652011574441,0.39187141888906524,0.3382707033502452,-3.472326829910713,-0.7582310127281744,-3.5471587499976303
1390,-0.7869103055172411,0.4356685636859343,0.38361485202676693,-0.3717681240539317,-0.876924653989374,-0.7106150468411352
1400,-0.8168249998598167,0.40877915732114634,0.3564793239979223,0.8281684844474578,-0.23977034162503028,0.19675763984898026
1410,-0.8154063253161199,0.41287672550588445,0.3562503939756291,-1.0156198516810886,0.37458549472389224,-1.4925552143430267
1420,-0.8163638795588174,0.40576072772075006,0.3578683448972735,0.016017791696857103,1.1035734545159972,-0.7029982004734631
1430,-0.7986063159637584,0.4270562892342558,0.36902341862681476,-2.152414700377911,0.16467566465061767,-2.745330964422823
1440,-0.8044075465040723,0.4143786484673107,0.3608410338707283,-2.855832795221514,0.7803734921204466,-3.140974139767435
1450,-0.7723554402322365,0.4431794817878898,0.3987455169626348,-2.6262320901887106,-2.789629006214276,-3.2969802415194773
1460,-0.7890154059110763,0.4273771510384866,0.3777766928491525,0.24456511907139877,-1.2431009231239099,-0.4975050941157947
1470,-0.8104729478376645,0.40699175964157863,0.3613930802875525,1.4393719810309018,-0.3934036557082047,0.46083082880225923
1480,-0.784564845824873,0.44020165798158534,0.3783974676821375,0.9434186647037045,2.2125909807273407,0.985222770331967
1490,-0.8124106107269972,0.4053384604853227,0.3558213590798692,-2.3572407251670393,0.5511051627865735,-1.846604895098917
1500,-0.8110646412754453,0.40362102180005593,0.35818576431251314,0.7557012406312824,1.6082925355504467,1.0172133356131443
1510,-0.8006054427973527,0.42040468726971586,0.3665722505718262,0.28216253492203314,0.6548651781159667,-0.9301534244292751
1520,-0.8120970886975648,0.4026977711516162,0.3560042718936883,1.0021010732374,0.7882153890788582,0.06423392236644454
