time_ms,ax,ay,az,gx,gy,gz
0,-0.5160654945574281,0.8461914262489914,0.90227871016648,2.6624815947361835,1.4577320017596287,2.0292961939410947
10,-0.5089902540710388,0.8520438513907259,0.9103390414856831,1.0982555531135212,1.2672516424723432,1.3383568994186856
20,-0.48718307709247943,0.8670250165660254,0.9325058637463799,0.6469389594633085,0.528925519783039,0.18635651800794956
30,-0.5059361738384294,0.8441068424102054,0.9118750405577098,-0.9329470734032228,-1.780365373676511,-1.5669127026289562
40,-0.4913775130239643,0.8593133010425281,0.9225189556619915,3.469030945706473,1.3020164632724418,1.233700871836914
50,-0.49504968696873086,0.8574166126036871,0.9205382381439281,2.7789401998950036,1.1022366008959756,0.5902244295389134
60,-0.48530696402149026,0.8710367201059909,0.934680171990727,1.7351053452512564,1.293068696876741,0.27008649402531326
70,-0.4957151723952334,0.864043534610968,0.9258379233705387,1.917619842681999,1.080672965452674,-0.5785884135120806
80,-0.4796684864557219,0.8773420792332426,0.9390898748318237,2.864197032137368,1.4483057974230942,0.3567620227616878
90,-0.4851832651401313,0.8696082458162312,0.9328578691602629,2.283641724687246,1.3125174813375713,1.628760138694424
100,-0.5020153640581084,0.8516833820296328,0.9126007347029229,-0.4815457408923447,-1.3776467711059195,-0.6034326313366596
110,-0.4954174537356683,0.8629001800400097,0.9226388902141148,-0.15240367207830685,-1.0978186655833013,-0.701529099028608
120,-0.5265536927291706,0.8425590943116896,0.898835652021616,2.5171234527534794,1.5038589177536803,1.4999963288611957
130,-0.5066482818783239,0.8883915202775573,0.935037031776953,-4.558696545859156,-0.45143176914785865,-0.9248556918908288
140,-0.5223560714223622,0.9107333973183236,0.9356668647018356,-19.649645147564236,-2.433362388491199,-4.333917614059397
150,-0.5403903230451658,0.9874788601851916,1.0848153381207244,-24.688209488880208,1.7904276796135272,19.96377510280154
160,-0.6249813308064622,1.0577185103145925,1.277079788212122,-19.051358225417612,-1.9823834066076644,78.65151181488534
170,-0.660745294187345,0.9920695233934226,0.9830605901736703,-23.09130319780878,-33.160759277286814,93.86562201961358
180,-0.4562871160321489,1.0282626449369774,0.8629985778361282,-8.151804934194118,-28.86361023513357,99.80303981698957
190,-0.2123565821836955,0.8972508971578558,0.5755037252207121,-3.7129291737731798,-8.680383370241012,106.44654051872534
200,-0.01590289194803841,0.5199906078105085,0.3515859814998956,3.803183172013662,34.266885272930026,81.09286815818727
210,-0.0718167930051955,0.32269115631535145,0.43790497546721086,0.2874160806410855,76.17493119472071,28.138611929429747
220,-0.4714627175920377,0.8144281634458465,0.9675583298473294,78.98191616710673,33.724662867737365,-8.335269992197267
230,-0.4967804018703274,0.6894915701442723,0.9918684218134666,13.210620088691376,-6.386398769520995,-0.7767171777490692
240,-0.642297090400553,0.6654313619597614,1.04928887614242,66.60169186554846,-25.042899846837855,-20.97902932912284
250,-0.07795785694893431,-0.00015443035634175525,1.3105701290906473,-12.81529258596112,-60.18054442915006,-64.76186482300842
260,-0.025996856029050698,0.25483737197840217,1.823391454872494,-68.18046613459242,-61.646941609668204,-74.71223787282186
270,-0.3055420619701861,0.278215591128265,1.4594611453986477,-34.86364900694105,-55.78396972873574,-82.1805040542153
280,-0.5086790467790905,0.8011135152960365,0.9815777111230284,48.825806344086125,-5.727453977667625,-19.90427955167031
290,-0.5583487433521813,0.9356680282720852,0.8977348504519188,36.15983631006265,3.7697178405392564,-7.43833173184956
300,-0.5115737418953981,0.9061297612138024,0.9361898493906151,-2.110408184241816,-6.8056832711533835,-14.133220934985298
310,-0.531742737882917,0.8509900333537181,0.918413484410145,-28.484326166788133,-16.636388341247113,-19.52326586885853
320,-0.6223738996639256,0.8354713244618703,0.812718668762758,-46.97730204555849,-17.272342145549633,-24.25554421141076
330,-1.0592484771785113,0.7521628543111305,0.2997683754847582,-27.962606743760848,6.246276080771538,-22.75883513546748
340,-1.2900062530057343,0.49618206443558355,-0.5063033094815123,-13.442868641936052,49.63913429363245,-1.7180414603193206
350,-0.8715251972624138,0.6176940495300787,-0.0720767922423935,-3.418530845367619,62.553882917801744,12.884048612648275
360,-0.3744177968737699,1.0529845042954051,1.136195122289739,45.47576787736524,46.883606544057756,8.80607199660274
370,-0.30909625506976146,1.0000865999594433,1.1736194497464445,51.329522150965865,36.92824329026108,8.75357162994197
380,-0.37767134781561745,0.9569798659946439,1.0889367452701317,13.71000970710891,24.45202147036762,13.64365105127288
390,-0.2989571678297621,1.0915102067710063,1.1271181839256594,29.57050076196301,12.574692658045658,7.114153667437036
400,-0.49286651340553667,0.939541169032352,1.0212394956770103,28.245724653775945,-1.4846181518209232,16.568760178118406
410,-0.45186005977357524,1.2131066010639586,1.2322011366684211,31.82232997051576,-36.247024902294015,60.512774289015134
420,-0.5103517597506739,1.062002865847304,1.0653155413658355,23.679528622349576,-67.67721753145604,79.89317994935772
430,-0.39717453063665326,1.0057102183772937,0.754761921620581,9.81831745979135,-61.45936302655835,74.64576662611174
440,-0.32194989476657343,0.97703871068419,0.3963324799742251,-21.332343811878115,-31.73309951383679,61.188488194941236
450,-0.12505321997184704,0.8521967774893234,0.41266997212590634,-39.53189823901299,11.599668502915405,48.20801709308405
460,-0.1464422059834521,0.6007032104500487,0.3796185047811692,-47.002004130484316,50.63147809712084,11.30428205545071
470,-0.44702339458524354,0.8152840748865363,0.8518947802916574,-8.339874927848223,16.746544714559462,-6.364128760774117
480,-0.4936358371370641,0.7553571885623237,0.9214861312707825,-12.873122119611512,3.02835742842834,1.6304755335914844
490,-0.5855820333855302,0.6365805384492617,0.8985851770906793,23.354030336786334,11.16435868643061,-0.01362200161092153
500,-0.5390343089130158,0.16742086500328476,1.1708528273657801,48.23845168584761,11.598967420947016,-38.23810009724193
510,-0.26554021585018456,0.719347329988194,1.1664291699897307,-28.47129080367277,-3.069957691061125,-72.52681536242854
520,-0.31637621780012254,0.2319373370311688,1.3634009600584212,-93.11166862195249,-13.14723884202821,-75.6752563314271
530,-0.39422487162414477,0.7263778426892568,1.048767356827545,-11.535205877950947,-2.6716058592048206,-25.03488882957112
540,-0.45879940576092865,0.9980128890569175,0.879879831905294,16.803369413238023,1.8706118085344468,0.7755286615517689
550,-0.4848243183167496,0.8530033016794936,0.9496129032840385,-1.5862744948526535,3.1661841364401617,0.7154180948443691
560,-0.51849049143831,0.8106596531838495,0.9145158721867318,-8.256486530595241,-0.4512639375799131,-4.945458011669941
570,-0.4836846067658419,0.836796186199265,0.9445166412816286,-7.329658704498457,-0.12054255372206923,-4.245947778985002
580,-0.5051889315236863,0.8104990940996397,0.9213646238403713,-3.3829866036486727,1.5168493694697947,-1.7241032361063025
590,-0.5110768286158363,0.8123653232934568,0.9139922557934633,-2.0509988887762587,-2.1455745999996902,-2.46069608347982
600,-0.49379884928023526,0.8236326029509118,0.9375459259425245,8.22502364879338,1.0416667062096228,4.950444893844692
610,-0.503910997147735,0.8279565500578961,0.9253163696337258,6.991628587429331,0.9627159201344662,3.4770873402871807
620,-0.4918462155305187,0.8401960724399148,0.9278038581982555,-1.106093518206326,-1.5323623703862568,-0.1898869818349238
630,-0.4868890151482184,0.8418988507491506,0.9418698909817759,-0.04770313431885688,0.01387838855668358,0.5768544396220223
640,-0.5172774452547273,0.8060609928670347,0.9107553865861998,4.20798969502238,1.6475189831030037,1.8801678534079773
650,-0.4979592022570726,0.8270183087132712,0.9270013111313081,3.4373114027713365,0.5608806916946254,1.3537857774636455
660,-0.5023368662512737,0.8234729904912856,0.9191060867146661,4.842923517391823,2.1329772260243764,3.6349323259298174
670,-0.496491493533772,0.8375282632485797,0.9282275335825574,1.5276751382892604,-1.543924181941684,-0.0009469164990174583
680,-0.49798780844500473,0.825387233375519,0.9315453168711137,1.6515215061403543,1.0108441663139252,2.9630425165611367
690,-0.5085088504297848,0.8202330166025154,0.911808748101461,0.9901592568049098,-0.7246342265532676,0.5589294867691037
700,-0.49951586602756354,0.8249828292625324,0.9197029211436805,2.840553205480599,0.6304891950258659,1.0889771971374518
710,-0.4970948825695541,0.8411053383198303,0.9256966616916342,3.6844986526991512,2.0656825147573303,0.46177511859631526
720,-0.48429285132205313,0.8398210406427208,0.9363427216894951,-0.09423417948275992,-1.392356155250756,-1.3725032522433187
730,-0.5050161824132661,0.8179846478570045,0.9212337161657763,4.197682825254093,-0.4533712097132717,1.298828260410887
740,-0.49397615505792786,0.831661372851669,0.92854897358786,7.816801752246783,1.0303966951917687,3.7551768077280987
750,-0.5013083867088778,0.8285645223007323,0.9195968578067287,7.468154870837456,0.8618440653946579,4.2247288898105975
760,-0.5053486243153061,0.8319805067998973,0.9201373780576918,8.480964732990506,2.692914600969978,5.4769966268744
770,-0.4934516732393335,0.8568134675865261,0.9317081249275238,7.311865955593037,1.1537948090375014,2.322203676173534
780,-0.48022660116708027,0.8742114815683533,0.9464530742909278,-1.7367242420036086,-2.263430933814986,-1.2808664036023125
790,-0.5010365397796999,0.8448130093783014,0.9235907839205776,-2.7252705606402294,1.0581635999794983,3.586306393265815
800,-0.49032128547984544,0.8465821523446233,0.9313413166951082,-1.2379510355792356,0.08987622773300874,4.169487871958915
810,-0.4662356768671315,0.8687847550268263,0.955061927076401,-1.9015849045243982,-2.73749773437663,2.8021961281793057
820,-0.5141463399569194,0.8254762338562744,0.9020987158919568,1.728802434981838,-0.329924976408851,6.05895930103566
830,-0.5226394815693601,0.8229398455779696,0.8983067719638856,1.2136457121548325,0.17579604564291829,4.396369771104041
840,-0.5040220659884395,0.8421912626652012,0.9200278510597577,1.6628208340124895,2.60565700673289,2.367777747924082
850,-0.48927926524242404,0.8488246984876762,0.9340395233769389,-1.0739113180059543,-0.6024322687471713,-3.1179829184058
860,-0.47276488161546243,0.870424946404372,0.9469165591446279,4.85480488931289,2.5114220363261683,2.687832735886065
870,-0.49672411697765023,0.8526447288635871,0.9238356383253726,3.6945510027591264,-0.12215381333509656,1.7300043597980617
880,-0.5087121931634879,0.8366905574134236,0.91697178238212,1.6557337084662722,-0.19956147842298255,2.1137878849437275
890,-0.5062571389443752,0.8442848577101615,0.9181096412669338,1.149025318674769,-0.5105279292230893,0.7143313477418831
900,-0.4917440376209945,0.8598467229719079,0.9307467571252989,0.542095142587544,1.8462140230144712,1.8160632556537026
910,-0.4651530506555812,0.8822619884937771,0.9531549961821378,0.23387815209210683,1.1824848525955658,0.5961209802482519
920,-0.507409425868958,0.8325871071707791,0.9119477087742712,0.07217799316656401,0.7742521967394238,-0.6384001290312672
930,-0.5296652520535796,0.8241715409014836,0.8944948401090067,-2.123794368616724,-0.42524364043741725,0.13493383112846452
940,-0.4939811752293884,0.8579162402234283,0.9285538793127244,-4.379118295386198,-1.3989429400681832,-0.48907590749765784
950,-0.4933997428147764,0.8506135072037584,0.9296010385617927,-5.575001308626071,-0.4679492311322486,0.7948253659918709
960,-0.4816881372204671,0.8628430985553132,0.9391505805475459,-5.974155911106439,-0.31113082277712045,0.770172255202156
970,-0.5022010239578665,0.8426412402885176,0.9218340222864584,-3.0029294106274036,0.8569357956044195,-1.4534107135339716
980,-0.4946258672204113,0.8485262323142821,0.927119262746446,0.4676100744378764,2.9996773132142636,-0.2914433570519357
990,-0.5179921171396109,0.8201084205711218,0.9035511233945501,-0.9700264218318715,2.307992712958007,0.1481652030610099
1000,-0.5364292160483348,0.7998329535236831,0.8843528834401304,-0.5177115387538453,0.875832069246458,0.12254812521867009
1010,-0.5012171267496485,0.837752521924201,0.9183987983601186,3.7599008214124066,2.535031442818309,2.604304415335496
1020,-0.4803932680105524,0.857807566225361,0.9419298160206304,3.4785635244456024,1.791750207378207,1.7314965154993787
1030,-0.48344235844628763,0.8506959985610003,0.9399137357809293,1.9139180428657108,-0.3794530162319004,-0.7093939578324812
1040,-0.49144333045201183,0.8466278960473546,0.9315065435804063,0.4101293256723775,-1.3874822042092245,-1.6176452496550522
1050,-0.4920700307157134,0.8524275311738849,0.9324890901057291,-2.644830843557364,-1.4249823047666215,-1.5101756733617142
1060,-0.489031483343444,0.8490125100472284,0.9348921983429828,-1.4401718911920627,0.6042208318245287,0.49356033191535315
1070,-0.4969288312886986,0.8391334314714274,0.9285680955162697,1.3279364238512743,0.9576425666660631,0.9176516745330549
1080,-0.4997765476362748,0.8296099053192006,0.9228491478913775,2.4744439670329967,0.5170751242564644,0.7974573354353524
1090,-0.47895521769894217,0.8587891262039482,0.9414937262502053,2.344941893940309,-0.5730641144611635,-0.6189100016614084
1100,-0.4972685538530304,0.8508936722110937,0.9203185770393318,1.0257138648162587,-3.1354744285605376,-5.211586764019971
1110,-0.5305788283053956,0.8143210638138562,0.8920747626730632,-0.3917483215238664,-0.6090076825300282,-0.5376988959082706
1120,-0.5105352488745614,0.8369657291825985,0.9123620132300186,0.1823127188484069,-0.6034400431119525,0.06481500407065915
1130,-0.5024700044209449,0.8350013906183574,0.9156631175447631,0.2638505330964903,0.19839725398967017,0.9883629467957855
1140,-0.5158946388148961,0.8229680662926776,0.9059742108086641,1.7495415560728667,0.7179959271129175,1.6799595737488913
1150,-0.479653455234517,0.8574231644527961,0.9404441031217613,6.105011411410062,2.3664053199925017,2.836668648161265
1160,-0.5062616399074235,0.8347592348915047,0.9140038205490166,-1.1466862338322432,-2.5915857425091655,-2.4616851848949652
1170,-0.4953006798211662,0.8534511217267239,0.9267003904936016,0.21696145112055532,1.0223519136332093,0.3918488884724819
1180,-0.5037785310176852,0.8422525215748353,0.9214716053836626,-0.7375329708817929,0.7156713304956506,-0.3289079563515267
1190,-0.5268913222035422,0.8129771114851886,0.8963045862242693,2.716287260633072,2.697064110115083,2.2797803830289456
1200,-0.49821594942115527,0.8395827585828288,0.9218778096022263,3.375847603479585,2.1544058909581305,2.5020866745235755
1210,-0.49882452905769004,0.8423567664119346,0.9238658803664817,0.958834313031838,-1.353647797380338,-0.21585766950809748
1220,-0.49563608672327186,0.8460785916002127,0.9294599586709141,-1.710781371991516,-2.447151757897276,-2.117012084745722
1230,-0.47997278294095047,0.8581220471632569,0.9435991606587218,-0.16323227892455638,-1.2764285967841678,-1.8719627466291269
1240,-0.4933317935977594,0.84862351054217,0.9256269039407933,3.8019023569564077,1.768790881008486,0.9965505492148706
1250,-0.4584907299703037,0.8876408330261008,0.9593916328427473,-2.6588498462601224,-2.650376341269021,-3.1846183562971784
1260,-0.49422276855278957,0.8465594632626458,0.9264761281723785,-0.6900956992249658,-0.19886213252649537,0.1621363561785234
1270,-0.4975334852589526,0.8443305619498792,0.9233882736598615,1.7642865180866498,0.34479358967596674,1.0225539417177183
1280,-0.5197414842016632,0.8311622381384431,0.9011399352051508,5.706372040594186,3.5141146088717283,3.6462907960492505
1290,-0.4850145981954605,0.8660352174457764,0.9333574105542842,1.2315328521525437,0.4266921557692604,0.14520217041533157
1300,-0.5025461810585793,0.8410521278462487,0.9208645083842497,0.3285900308420046,-0.2165647386925075,-0.587437913418832
1310,-0.5034665401290184,0.8358301503518802,0.9170282243017321,1.3098082950916745,-0.8367676918935633,-0.14553653090857466
1320,-0.5206099894879398,0.829594000320152,0.9021968407147273,3.4577398695684023,-0.356321436111807,0.6917338837477247
1330,-0.49621306815872385,0.8525147957169551,0.9228162004078281,3.7541241497903783,2.4027875178334193,2.313382539080875
1340,-0.48848697986624323,0.8584254913501894,0.9349809219126045,0.8495253580728976,0.3677677980819581,0.05222857711372342
1350,-0.503854718167741,0.8491656234744596,0.9131944546642359,-0.5664614571768355,0.043299841838227104,-0.07263451992612269
1360,-0.5033526538342428,0.8453927616814512,0.9122150750128732,1.5821736073749033,0.32227265891794393,0.4933503274177419
1370,-0.5113041143392503,0.8324244449674301,0.9056085775297108,-0.24057720600424404,-1.3955278850370103,-1.2529844366842466
1380,-0.5172113108833424,0.8349105607452515,0.9026524400208794,1.7065378021996822,1.4606239507736203,1.5751191286903485
1390,-0.5113206206793688,0.8392351760880319,0.9018582759342066,-1.8254603465628911,-0.7200783939946579,-0.6300069218271074
1400,-0.5144184392518715,0.8349536698029502,0.9078557799127681,0.5877628239392405,1.317268606377059,1.1083231914400087
1410,-0.5110644251559039,0.8413670394095958,0.9095489871726276,0.1823436995136438,0.35279481719244643,-0.17539522780752423
1420,-0.5001439284602305,0.8482674156969465,0.9202130753769346,0.43067372573442186,0.4311868608098963,0.0026957941601354896
1430,-0.507212918934568,0.8397750098921559,0.9143327822737082,-0.1734262221993027,0.048642898171383335,-0.08056317007894219
1440,-0.5071713125540619,0.8449603602536785,0.9165294790428824,3.752326127161565,3.5477325642364743,3.1897299981058334
1450,-0.5010641302746264,0.8516823917563886,0.9231490765030265,-0.514244827256392,-1.341667256088245,-2.3992272429245523
1460,-0.4909536358763188,0.8566049691547949,0.9292413700710878,1.9875817416774255,0.8760207887634446,-0.1863644141886326
1470,-0.48998061603377846,0.8553719559783539,0.929057984059841,5.387667333818753,5.05009177189129,4.974455610513276
1480,-0.5134825459361363,0.8322276870897505,0.9092914024858834,-0.844130274771402,-0.04348572575589593,0.4681793419321094
1490,-0.5050758741271003,0.8388332737868028,0.9163664602582184,0.8730788778707705,1.1225751382094318,1.468705972766063
1500,-0.47532470600273863,0.8699671004372752,0.9423562050010325,1.135112921133675,0.06556255726098437,0.3621670921816335
1510,-0.4970972641572965,0.8540274880959434,0.9219207483920401,0.4400010330195354,-0.9010797118976672,-0.9906043246510919
1520,-0.489247863252898,0.8626753921019231,0.9265455798229202,0.7514776291888281,1.028990989208852,0.6131759527335419
1530,-0.510370666938648,0.8440406317604306,0.910930698409085,-5.7856072016985065,-1.9127534399663086,-2.711299666760393
1540,-0.5052744082208983,0.8353525684146627,0.9184174948824219,-4.898239449424867,-3.1515859853883548,-3.1143293691782232
1550,-0.5126011536280833,0.8251637299210236,0.9124418620896918,1.9651693048780046,0.4402048333208075,1.4120771786364525
1560,-0.5014069725388246,0.8435066675648317,0.9198494784334377,-2.895663860983723,-1.7093207844255631,-0.36304883581741487
1570,-0.5023201920317107,0.8453973173890612,0.9190587060493184,-4.779239234255002,-1.13440111641363,-0.18982313494256442
