time_ms,ax,ay,az,gx,gy,gz
0,-0.5850967890777798,0.44288036511852225,0.6253300933368825,-1.4851830241431925,-1.1836454494195743,-2.5862306428921533
10,-0.571122832632461,0.45232806455330854,0.6436373063151264,2.672683969928772,1.492934891824837,1.058588445585206
20,-0.5944163766910796,0.4278281831636301,0.6206983965929148,-0.32424139833512056,-1.5542780059043166,-0.8273512774127594
30,-0.5791219311312314,0.4445456689732454,0.6362735502785404,2.2615927435286087,1.5527890669635276,2.278879290062126
40,-0.5806349477797922,0.4471474050158597,0.6297915514195982,0.7581797709765414,1.2708107005335951,0.8072304312005338
50,-0.5896552642334871,0.4347922703068593,0.6149870464569097,1.7036344175584577,0.7944338589274583,0.6549606685132053
60,-0.6039621540380284,0.4194600899073245,0.6083947485645717,-1.0718947416536901,-2.662122124033554,-2.331817204574188
70,-0.5881272964525811,0.43697618233674307,0.6238557206446155,3.1030700853550366,1.7064134141354432,2.5166840037125016
80,-0.5697801710919015,0.45481398335749257,0.6438655889723123,0.8754043577632868,1.0464423317691556,1.8357281977067434
90,-0.5805013013766338,0.4442043421520044,0.6356278078653839,-1.549790210449558,-0.49507424354093543,-1.0120422428287421
100,-0.5932270322766323,0.4241466285238481,0.6161477852081156,0.40026385695779754,0.8333622162131294,-0.558013898608588
110,-0.571417652058485,0.450250234909618,0.6425443639560411,0.5234447458140082,0.29939887440983765,-0.17919366487434352
120,-0.5630895849058495,0.46167554538424943,0.6520804749511798,1.0449340515040937,0.5396765842091855,1.0942821574075128
130,-0.565452673387873,0.4589314568897781,0.6456415332861937,0.16136517646292098,-0.1853175972565434,0.383458523361111
140,-0.5901718527037244,0.43749330399492814,0.6245173665562753,-1.0643527350539206,-1.1618853954384725,-1.0647509372734358
150,-0.5963848342640056,0.4326848777931035,0.621588470347584,-1.5870412438727313,-2.2164649853206178,-2.597998797232942
160,-0.6109133878888456,0.4144005716584405,0.6048344688146624,3.7595614138984486,1.974019820577805,1.0096831370947796
170,-0.5635018166484432,0.459632329064113,0.6463419475403739,6.662534813153117,4.41952137684323,3.888128282258053
180,-0.5841290251512531,0.44006622095583053,0.6278033422767831,1.9602261342993939,-0.07805047609231042,0.09971958397009084
190,-0.5914590909195862,0.4375845840910025,0.6308356030373334,4.392460582723016,3.7400398225451172,4.347855707460882
200,-0.5740792338806248,0.45837199543355645,0.6529208214951163,3.2861028522818447,3.853175823342414,4.785931444956209
210,-0.6380008027512725,0.46377027991946906,0.7544403174638324,11.198544954876137,-17.852022195602412,9.616548428851093
220,-0.6992146577762337,0.4523373614143112,0.6887147274432673,15.895207917780162,-32.11626165366467,20.719732857865075
230,-0.6355103075200491,0.4719244284324264,0.6432133606281827,16.019636718236978,-37.133549325160125,22.440060768972454
240,-0.5550798166380063,0.4898835765833048,0.6024495812274884,15.659641435631482,-33.45892423153475,28.040648287220556
250,-0.49483065123605674,0.5119408697713093,0.5871966506005107,12.326890370934752,-29.35278694352337,29.85709346753582
260,-0.4795782985959699,0.5256486889878981,0.5920056541995447,7.315474982153477,-19.908923399128085,30.91352848778963
270,-0.5169512810768113,0.578203329840984,0.6337642669283209,-21.89260258817215,-10.370263359426692,30.834096788285567
280,-0.49575259501401936,0.5528045980771152,0.660173576022447,-31.22547573276319,-0.32921980596197564,29.894462324757637
290,-0.45317775305697566,0.5159202622878502,0.6504959955928882,-28.65799537819556,9.634663061440934,26.383573556213513
300,-0.5036102069794702,0.41880789351567693,0.5980045703650884,-29.482377453020383,18.39341117935222,15.62210010286311
310,-0.5079095309933487,0.4757201246009334,0.6578050949213344,-33.53416036977528,23.73088556022016,8.66684181798077
320,-0.5543508709468526,0.4665734795572364,0.7107300846527967,-32.37765890949406,21.835631271660798,3.6793297469195405
330,-0.5941791142423114,0.41421543174858866,0.6364715266062005,-7.289966009104191,13.008704359702778,11.139236172887847
340,-0.5772052207702904,0.41578183893505066,0.5956952256177154,-9.689635775227464,9.423315589316266,6.726935174735177
350,-0.573072994627711,0.46832601920633754,0.5994031126988477,-12.099882492202642,10.136718851117234,3.975081670147903
360,-0.5827274136989012,0.4652511266405238,0.5670329439823621,-13.976501566097014,16.1776055363782,5.2938121973181955
370,-0.552150456344159,0.5097685254483362,0.6236605611449973,-15.974432237427871,19.78365483490611,3.262881413353689
380,-0.5765222431642177,0.4977120071535111,0.621651196145575,-19.17954170975968,20.054473071771977,-3.015322706060198
390,-0.8633713133578618,0.30371136666214144,0.9168827608999721,1.0831527792445068,-15.364133297715938,-21.613574760557892
400,-0.597058840553447,0.42269276433360903,0.6227223106226806,0.4689380480493548,1.681437066167085,-16.844955480771404
410,-0.5515159317922341,0.46611707062162405,0.6372891600219951,12.330575261988184,6.107294447292579,2.7943606592498553
420,-0.5632448396091881,0.4676231444866477,0.6475448480521991,16.49392819997364,-2.1938179390430332,6.872721584749208
430,-0.6144421285816327,0.4201118122720359,0.5968624035714098,20.908392630930503,-1.432384770037572,10.7553623930035
440,-0.5492236709767473,0.4807064450776961,0.6727181485652143,19.278650060736602,-0.22186970478889573,4.334438308160831
450,-0.485263887393501,0.3992019629217932,0.6614912881541962,16.17669213603906,-2.403539397548435,-13.181032082099406
460,-0.3029539044051366,0.25754191828003076,0.7041622659117549,7.800278649951946,-16.24106033703517,-45.51935827945501
470,-0.38552349322772267,0.5437241930560432,0.9049231035932582,27.06419125322889,-13.104195708803253,-18.77586863101352
480,-0.34378900756461117,0.4366297974628057,0.9524327764529348,11.343242539385672,-23.88186863832202,-31.416840721243084
490,-0.4158577642103922,0.34041937522118687,0.7671802671041134,17.98516341611974,-35.02349546824274,-54.56642509001148
500,-0.5021836233011137,0.30404553641457893,0.6186482113362709,24.50096435632433,-33.287803632452935,-54.04757016111937
510,-0.525423441383025,0.288743623230717,0.5111162445921998,17.343377754420217,-23.1002667026293,-40.60543462113937
520,-0.3031507184162574,0.27599289780851427,0.5404090083514156,5.757927943778533,-14.543458525736973,-44.55529251492364
530,-0.4788390537487711,0.33061002648134163,0.4724081170040213,8.385646264143794,-12.119153243015973,-32.45343275841521
540,-0.6727204095152405,0.46172197260469966,0.5163271276237978,18.309452818553336,-7.127431664889337,-8.523569495261432
550,-0.5928447331355609,0.5255367127158069,0.6220742321626178,8.757673545822623,-7.091136924677972,-12.020998057096472
560,-0.5556244514128564,0.520386677489452,0.658280766356046,2.3141873516502436,-4.981834783138965,-7.739320214899121
570,-0.5341681121187404,0.48305747620482686,0.6883964807083814,1.569963380924273,-1.9341119018626258,-2.8077693845119907
580,-0.5667054629022825,0.4392034375994133,0.657037317776722,-1.5766040462593858,0.24909874750055105,-2.513065104138976
590,-0.5498882797064534,0.4328615777088167,0.6495966082010054,-24.174309412230514,-5.330197612533842,-19.581636729994386
600,-0.5392121666639567,0.47058641826431397,0.6949818025401527,-29.39421511068524,-2.45329611417073,-13.03106135405714
610,-0.602376256742822,0.4259811925509123,0.6259186084475898,-31.438540346276408,-2.791346662758726,-11.42143746594041
620,-0.6356933064797251,0.4822332056777811,0.47342752970577745,-4.373966993918213,15.573446548170805,5.155059512156177
630,-0.625368280360829,0.4681954386198376,0.5679326022311117,4.975980728142094,15.19217040406192,9.562643191201637
640,-0.7047386388594626,0.3852320251777274,0.455533382877043,13.11059902923636,34.97991844753783,17.36598135815305
650,-0.7735494392063088,0.5014166589848106,0.14355448896278816,6.017641410975355,38.65461144385406,22.079476902322867
660,-0.6902863845918422,0.5759195498675728,0.08929045197444141,20.119596519635227,39.993431005006926,25.16105475679548
670,-0.6224342030461417,0.5159698824462331,0.35011659147645313,12.913117719143086,40.14203055855293,24.549915852867255
680,-0.5645994512120462,0.3952379548145207,0.810002410587342,-4.722444490357898,22.55867465136823,17.726816697258176
690,-0.4336209044309815,0.6545961085325205,0.852902218274267,10.418366355612838,24.929219069888504,16.757455479012577
700,-0.5092724706987909,0.4544918528814248,0.7200350550265269,-1.630844894418973,9.567387209953026,-3.6318912125400344
710,-0.5693690533847098,0.4493636967812543,0.6786800779933951,0.7560658468440258,8.277186309526392,0.5992410639578709
720,-0.5559834084058529,0.4443134898799795,0.6585579770363232,-1.3354408218380724,1.0681640964664543,-1.3948923046554462
730,-0.5643547027000408,0.46523570934476827,0.6480232455446332,-2.0931051904157334,0.16380791443254905,-2.600572754820128
740,-0.578949983471252,0.4755399349733081,0.6378433558004358,4.619110006477777,6.393464399332097,7.764402437751838
750,-0.5964068414039889,0.4737308917481785,0.6417328673522339,-5.655392158664672,2.794020414445141,4.8312576064622705
760,-0.5656566121806605,0.4916863205653937,0.6649629084915232,-6.5862258357738686,-0.17886002484718805,6.149582028131879
770,-0.6084240599175209,0.4804736129199347,0.6545241248886449,-5.537007364791884,-8.30312676957386,7.3081173000860815
780,-0.6490681595283179,0.49962407012231147,0.6679252510370748,2.0712754995051617,-13.931652487391279,13.355723246960729
790,-0.6392987117998641,0.4500582532747538,0.6458035400557335,2.6723624861058033,-25.726129223997823,13.029701402986491
800,-0.5263532139878078,0.45184050208912524,0.5905730851996571,13.159300088600533,-23.196029649829388,14.209477764780942
810,-0.49431113807755545,0.48466538769145845,0.5991450811738349,4.615376915707428,-21.782970446794046,5.700497554545574
820,-0.49547405724968197,0.49317527800450006,0.6045712289454678,-0.6414013776458767,-12.784897586976161,5.136826934067077
830,-0.5027658157749589,0.5031879109790538,0.6266462002351697,-7.452093157878274,-7.218345972684565,1.7446380929665914
840,-0.5371612827688971,0.4930536295426492,0.6300074947798339,-7.659444988470625,-0.7261996338224272,2.6127198518594024
850,-0.5118907129889223,0.521685018185802,0.647685582777358,-14.635985723845478,7.7710121381310575,-5.047840328219081
860,-0.590844541077628,0.4573369111578013,0.6999564327247162,-23.958795156502095,17.013113739460184,-17.168133048380056
870,-0.6679027867285459,0.4546948586030416,0.6657517929171769,-26.67581696208617,-0.32801096305802346,-29.3535328197009
880,-0.639931368321066,0.46341061279279105,0.5488068693952681,-13.97876324996258,-3.001470595241984,-20.00506896635735
890,-0.5454844721731542,0.45614126460763393,0.6458150847044881,-10.93694163173371,-0.07881827827192978,-13.235055469544822
900,-0.5575890384930083,0.4146390771883468,0.6538143877032219,-3.2203113164445996,0.6311697645869451,-8.012093034102591
910,-0.5822460633391491,0.3617372872622569,0.6318538392052543,5.792163282788737,2.8531666439950594,-0.9770798540967327
920,-0.5587619391035277,0.3481834329866074,0.6207749679240344,9.177890942911826,7.499463612798269,-6.5450021668823295
930,-0.5110718441360315,0.4241287193200102,0.6572593726259064,12.736819469217538,4.434870260210576,-19.750745204738372
940,-0.596411051683013,0.45555815002144345,0.7931001571649552,29.218413891290194,1.7005272284344073,-14.937068473466633
950,-0.4628636202053352,0.2700720806697667,0.3954679836774091,-0.9471815697813384,6.162119586509393,-18.141233144581207
960,-0.5581339705448163,0.3846473238015254,0.5366927398174166,2.077868610594315,5.433927882426242,9.66331765850901
970,-0.5941842071588388,0.4545666221373068,0.6247581028283462,6.7170003357148005,4.47818400291429,3.079717336465559
980,-0.5710562639712293,0.4597023446075124,0.6462929945386835,-2.1875201788034264,1.3091744831294736,-5.634630117652085
990,-0.5421219494437831,0.47435820862589784,0.6696843524959901,-6.513877223434186,-1.3246120712201306,-6.631866717894807
1000,-0.5574456203386753,0.45557876987937557,0.6551648026705887,-6.9135117267914294,-2.726909088899206,-4.629972228950919
1010,-0.5513487434901748,0.4646614492201016,0.6620213895511905,-3.175393811641881,-1.282973855320213,-0.8679433700837222
1020,-0.5974126120558444,0.42192165686597444,0.6183889325875264,-2.485740820747514,-2.800802082010039,-2.0625088062612273
1030,-0.5794449729604668,0.43616669215706827,0.6370464731897012,-0.45832418970888567,1.0059400107086436,0.23099274181142027
1040,-0.6008896495003081,0.41206735141959894,0.6153880962511538,-1.6098564706752385,-0.8524408830263857,-0.6795607992876094
1050,-0.5761008937478049,0.43830174848011666,0.6358912984359347,5.027788708957335,4.432295531812713,5.155014623994866
1060,-0.5578776270322173,0.4573427854121117,0.6585089536612436,4.382716643659851,2.440661660346424,4.11728131627626
1070,-0.5610820851102641,0.45964204596271047,0.6505146804091612,2.121799344053816,1.2794499867058908,2.3666122641245027
1080,-0.6022230046723124,0.41824778219690856,0.6086473588570236,2.776606259471401,2.584405799118353,2.99047333767866
1090,-0.5458933256574975,0.47011698499067733,0.6654869129246362,0.004201330752603649,2.2124716296701674,-1.4596635677021463
1100,-0.5786471859141917,0.43408479591465005,0.6353849964456214,-0.4322779339687471,0.3967243311984232,-2.814713282826579
1110,-0.5820787377856051,0.435173904619233,0.6303087824323135,-2.9261997106719795,-1.6838840894072535,-3.937927404720975
1120,-0.5408217768835444,0.476868081999127,0.6685185277004521,1.5772776078759723,2.3012047358105443,0.7479410313173401
1130,-0.5881125258035899,0.4316856760448186,0.6209159013445372,1.8491091012177494,1.9616457722298408,1.008935815377102
1140,-0.5913282807328433,0.42798865051528473,0.6183026779180371,4.220967353874403,4.749816009596589,3.929182796367663
1150,-0.5706157361239586,0.44853730019094723,0.6467296143573414,-0.6090737562459059,1.0134022650509817,-0.6618869266694136
1160,-0.5526019194594858,0.4607388934365127,0.6607223637616841,-2.975321634621916,-1.7042131499482798,-3.2230992971015526
1170,-0.5728268520879494,0.43603071098203694,0.6381240431147318,-0.3091748688225252,0.8540002102930357,-0.5484815051941291
1180,-0.5751492179570097,0.43646966598203185,0.639257807082054,-2.5478455467575887,-1.9972648507710191,-3.144988340324204
1190,-0.5921920060875301,0.4249069485778285,0.6244915847395164,4.236438595400292,3.8217437266843253,2.99945205497915
1200,-0.593829642970563,0.42471127330739333,0.6235308202052796,0.16252582717880798,0.92551567190993,0.2247040241805126
1210,-0.5934228000504567,0.4188632354176819,0.6217099332190307,-3.90368438408934,-1.6732717807034292,-2.6772755038767366
1220,-0.5787240169137232,0.428425016541986,0.6334603156139459,-3.673425210645941,-2.206927945239647,-2.7449707155418555
1230,-0.5834329720477577,0.42496073900176123,0.6297716431479665,-0.6633391642500014,-0.24768638267618648,-0.1932115297697189
1240,-0.5861639396601298,0.4240462639526651,0.6264414217428015,0.3332641897195987,-0.12676905780869197,-0.22527212014463227
1250,-0.5840777280083829,0.4276829508852587,0.6273813559615389,0.19502581270645303,-1.1482378355435454,-1.2515377709219537
1260,-0.5478224990381222,0.4652724624859867,0.6642945236283133,-2.8400780476124794,-0.6324790206920489,-2.076034551869475
1270,-0.6004364588347844,0.4083013323520898,0.6073365134816837,-4.403457058480427,-1.044874609375869,-2.932876286109853
1280,-0.5972067443920102,0.40962152124018175,0.6157864876099485,0.10034816013853443,1.106647320026903,0.5146615333496216
1290,-0.6109729876444913,0.40123074414823034,0.6053238147285938,2.2477105285001153,1.362136126203773,1.6436267805055484
1300,-0.5845892608211355,0.43431826470411694,0.6309938839158208,2.241810821664986,-0.15628450791810578,0.6104462680432272
1310,-0.5600233915468197,0.4547302175998313,0.6531876913796772,2.731547439150619,0.050398450263580585,0.5920077383472929
1320,-0.5668014303360009,0.4478329847510452,0.6435343194245251,-1.4651784773220016,-0.8898909045091472,-0.6072176487485162
1330,-0.5812206941171822,0.4413880964643465,0.6354320647406017,-2.846975368659795,-2.2637493828543342,-1.7108315005979635
1340,-0.576443260719663,0.44375701480892943,0.638468035901689,-0.8561125716585889,-1.453848545688362,-1.0745152053611087
1350,-0.5724619047395073,0.44040795007946415,0.6340255468247565,-0.4053441217459569,-1.8649400271297991,-1.5976110271952346
1360,-0.5774654358357846,0.4383076574198542,0.6294481769333824,2.3762146164872884,1.3280788829335588,0.5048805132975946
1370,-0.5969121140659057,0.4218614504599684,0.6135699563827266,0.8924649695285053,1.2882099907463211,-0.3609032295565042
1380,-0.5789276792348474,0.4403395690276781,0.6407595623167827,-3.5274649600360743,-1.2271080004322796,-1.291476198600918
1390,-0.5822610320731584,0.43534066893681345,0.6314164389288754,-1.954457751913655,-0.6223929814106269,-0.7348774694416088
