time_ms,ax,ay,az,gx,gy,gz
0,-0.6917372339700292,0.9051815443638923,0.7392358792131806,-0.8869244565345541,-0.6183231032959753,-1.1013587705593773
10,-0.6763563743294273,0.9181082805873162,0.7577161901080308,-0.10603760391074069,0.6930909694634202,0.6626309736919185
20,-0.6928841154418357,0.895772196165235,0.7343613185825432,0.7806273786729396,0.5527236646529397,1.3133132151735656
30,-0.6857504577285587,0.9074018710370252,0.7429607800813222,1.486203576830844,2.303772479434793,2.240507823592091
40,-0.6631308725233502,0.9305601393511654,0.7640248814820689,-1.9081117224330046,0.7682787020716435,-0.9411482376340037
50,-0.685969344351115,0.9049155690616708,0.7476112385292941,0.012331259901697145,0.7298478996687582,-0.1349320288836422
60,-0.6947808484725025,0.8995381916389487,0.7354810515105621,3.8401240868960533,2.338923588573149,2.5765624423386084
70,-0.6617155902334865,0.9295171934392586,0.764752642845279,3.5140877910697883,1.8927981891937116,3.194946292823907
80,-0.6749953940511954,0.9201644326951433,0.7577228342967314,3.6414255170301786,2.6022033389408192,3.7386414687770686
90,-0.6933050951743713,0.9007819187964536,0.7411462028138587,1.9766924156476549,0.721793043912203,0.4369850113223205
100,-0.7041945673374002,0.9074276742833551,0.750840056098959,3.7749846495138444,-1.9550654465345154,-0.41128194460382606
110,-0.8139978093659691,0.8832146007178914,0.7569947533812084,10.257258971395649,-2.6279234900916326,3.0903568959909538
120,-1.0670147184545435,0.966896347938625,0.8970140484937764,11.318417827715061,-17.647472458485264,0.4678310936724321
130,-1.1325190481752234,1.0911783408642697,0.7346425555383888,9.269598405673106,-37.45231044357593,2.756212480996659
140,-0.941295817761323,1.5653572492500727,0.2614049814624167,12.149830446991789,25.72367286506186,106.91262803996602
150,-0.23352801300487605,1.2319126262536462,0.5498368601319119,-38.795845026759416,44.90782416140166,113.30109907418814
160,-0.13381736842219058,0.6871651421834908,0.5171516325711655,-52.07480035804819,68.65997710921366,95.65796926021754
170,-0.226828017742876,0.5316539924704136,0.642638809262344,-45.10873109227453,78.11024461755505,38.865050981487414
180,-0.3225577790251358,0.9825505481976747,0.6742591913324836,-39.20269896759679,89.63588388860877,13.562163832219222
190,-0.8639963878457305,0.7150597475961216,1.1238863901494651,-102.80453922103585,99.54529846737572,-14.465935081291295
200,-1.6986612039904632,0.6576375064459633,1.4441586531408614,-111.96344213888794,-9.341083966210272,-69.59050190261944
210,-0.8605126149017543,0.7105425964350223,1.021388855231152,-7.318891445468029,-26.106134637339267,-24.08193232431132
220,-0.5895518558208956,0.5331218689550836,0.8434208461218984,16.585537091524905,-33.861593963274565,-9.351344036397961
230,-0.6762123738071034,0.6392946374116741,0.7155032753569285,31.006557986966538,-65.18889626107615,-29.97866408399919
240,-0.48881257121992794,1.0704610384837114,0.7988203792331291,-42.485905897771545,-46.613960333785805,-35.76090874405832
250,-0.8162788971815018,1.0588260732579244,0.34311330865180667,21.51207905124052,-7.6790677975453985,28.035907158676466
260,-0.7557711421083199,0.929254845222396,0.7893781332041174,-12.129271891974872,-5.6899274681936465,15.575269246057923
270,-0.830298486572342,0.9495932558339367,0.5238608888671656,-6.863874709806299,-1.1241898544788234,12.207501047661713
280,-0.7797490452814883,0.9795377282728559,0.5244504917359035,-18.176321446482074,-0.711322680700236,-5.117375299254387
290,-0.5954284768835849,1.2266744730070664,1.0882755767243537,54.08429488684042,36.23200030279403,4.236273273784244
300,-0.703192509591595,0.856220018656053,0.6370859592001116,39.78336723943275,46.847536940620486,-10.634679580782969
310,-0.5486836030774299,1.1311232094580506,0.9032675851709937,54.406423974727915,38.36853799898069,2.5842905916564347
320,-0.6225947353649954,1.0312857629898886,0.8499371288510804,22.469943139862366,22.1682389967187,0.828166160169304
330,-0.6260310055972617,0.9014064043693237,0.7730085209381068,8.234007721368206,12.518155358855788,-1.9216783343533796
340,-0.7495948250657476,1.0441679825068853,0.7879317201701125,4.157598084430195,-9.009737834062474,-4.646764292448208
350,-0.7352367720227704,1.237388469726566,0.7440454055295648,-25.606151551177263,-26.74908023986681,-12.456783549469097
360,-0.7437540982239501,1.261767187910955,0.7538100953249208,-43.30805993271737,-26.265198280625746,12.37851468732925
370,-0.6518912213958531,1.2940310014073486,0.6525224988743434,-51.82492076849327,-33.05804550017851,36.66588957473657
380,-0.3991549197857227,1.0562567982059257,0.49377875269617527,-57.67301444886233,-14.66218541651481,39.26510403366744
390,-0.4542263280705046,0.947819176865229,0.5826613532333386,-52.90676126258139,3.0451089806221026,9.447991778693563
400,-1.014956012315396,0.720499825912066,0.7781349463649019,20.07815475091144,5.838006192154302,-14.145662210119594
410,-0.782949887253537,0.6026187546842268,0.6477076571859588,36.82836867610271,2.121664568195153,-6.787761052125468
420,-0.9189793254317602,0.4528051020365712,0.5814430784531709,58.81052796644114,-2.1878815602608435,-9.096014081107837
430,-0.7977199669793673,1.134427947907778,0.48905770656541886,61.74126500232614,-2.1910150757060327,3.177527490523126
440,-0.8699905920400512,1.325512710941566,0.9235339091221628,3.6564074453110704,3.598345617825054,-1.5172103885882744
450,-0.6575333765468776,1.1667631183980356,0.6604367061852771,9.823993793851837,5.8350837429961295,3.3972864060479298
460,-0.7392618092170002,0.9859568322280133,0.6939733177848819,1.2624008550252774,-1.1801430591152309,-13.933571150339102
470,-0.7114535562070734,0.9434554778239544,0.6780183430521852,1.238842468371731,-2.3933150731104247,-10.857030090721151
480,-0.7065290539866768,0.9269419543199964,0.6626411106112163,4.518244174126755,0.983550477658737,2.56288468207118
490,-0.6861940721727985,0.9635121704886771,0.6987518924606805,5.031644609771147,2.186482250602172,12.246301263279406
500,-0.6845669008002833,0.9723300468833141,0.6795491745939504,-16.527594926993107,-2.8768102793327084,6.86470342217704
510,-0.6854762949754294,0.9879690129317175,0.6842056971160977,-10.855382839192258,-3.9194524423930766,0.3654450403755489
520,-0.6821718298686636,0.9929046838203034,0.7015279115980211,-6.005855291757778,-1.3885092802961707,-4.681514258051063
530,-0.6966185035795072,0.9624666424479442,0.6815562829545785,-5.3992235841592855,-1.4150712040610003,-8.32904258156822
540,-0.6935716543900815,0.9627510232673032,0.6898424972864677,-11.692626723040538,-2.754887798236229,-9.016325630228918
550,-0.7324374631681695,0.9396404428188716,0.6801927314884632,-7.605478082782884,0.16335817962185423,5.9675175837621035
560,-0.6753736531516511,0.968173045236139,0.6989113118204636,-4.120431544266056,-1.387272846668642,10.188287571305985
570,-0.7248174855690815,0.9607331757595091,0.6672142408958294,-1.2929392660640993,-0.131255309846957,7.427116874270073
580,-0.6745712434225516,0.995212838628676,0.7049479749056357,3.2333472706574433,0.0957098215838399,3.4801504203421008
590,-0.6724070692606833,1.003615381147028,0.7040135402725434,4.812939392043945,1.9724288042918126,0.3599777546048968
600,-0.7031144869914259,0.9550611375017612,0.683760387991919,-0.6478757585065313,1.1419347652667335,0.5230131114358523
610,-0.6765320688016615,0.9632681690375006,0.7081675214085693,-7.682765752231808,-2.5360415810953,0.918112726995657
620,-0.6733009646437528,0.9711217730378131,0.7128176918012403,2.5592432972430186,0.41409192033450926,9.402019529924509
630,-0.675172689244924,0.9907905379072351,0.6921962619737042,5.327975543869618,0.3770935453720696,7.122746894478472
640,-0.6883962913675109,0.9937874919786212,0.7001606304682727,2.79383696504532,3.168941451439489,2.0201465626860555
650,-0.7009770232261011,0.9675114033756319,0.6921419957873811,-1.3788893987102744,-0.14342305031409913,-2.4063581949212227
660,-0.6791843079741485,0.9867982620364303,0.7178602539913073,0.9051111480464381,0.48355952830440685,1.6578103098772332
670,-0.6905162182486567,0.9706115254812918,0.6978630148747993,1.0978240346486883,-0.37297107113329275,1.7067968148299453
680,-0.708476443129988,0.962037638555678,0.6699069504796649,2.6495877873308826,-0.23243678625824232,1.9352807758977741
690,-0.6888571909154148,0.9889439516518771,0.6957888698391155,-1.7716526473985257,-1.3356801779029974,-1.3166817501080788
700,-0.6957952595296816,0.9795646792594215,0.6955159256658086,-7.464373994886548,-1.6059013274335825,-3.9952652912005586
710,-0.6775481794448962,0.9684393049707308,0.7135983126724431,2.1944550786429735,3.002046670248963,3.403874750829148
720,-0.6836791970832968,0.9690883510037989,0.7028759782975443,1.9206503900853285,0.5198529240962536,2.4114770817712006
730,-0.7100404482803158,0.944014007921694,0.6684561249573923,1.569608495114425,0.3598424296239532,2.4091909500901787
740,-0.7416042819081385,0.923657910619599,0.643895292440978,-1.2585403831423223,-0.5012422563083391,-0.04933315033724417
750,-0.7067786161999733,0.960291084179493,0.6877481360606078,-2.290003157779503,0.6462266716538025,-1.2647029797773413
760,-0.6786588025041027,0.9786082992019615,0.7105050693694749,-1.3920570719982033,-1.8101090544471456,-1.821548126912906
770,-0.699527871001902,0.9488600282567625,0.6891784594980915,1.1824233053703637,-0.7600376446319095,0.9849969717646345
780,-0.6778411362227129,0.9762515165139389,0.702421938168841,2.0840722908882996,1.3982068223307593,2.4332360478221524
790,-0.6538150765527149,1.005204750715115,0.7242211386082643,-1.854258780272563,0.2377300168405876,-0.9860121642539459
800,-0.7260258895708128,0.9304688784290365,0.6630971919782885,-4.577938661029421,-0.13579957162956768,-2.419943883296829
810,-0.6783541976154022,0.9663448771090644,0.7075040202729311,-3.7136715263238234,-2.6025753188908505,-5.729220548819134
820,-0.6869602466017598,0.9501821605331148,0.7008955775233897,-1.144718850683749,-3.4394881644570865,-5.820959567035183
830,-0.7171110193353177,0.9353043061522114,0.6730923555261142,-0.14368278281498298,0.029314498872618444,-3.5877895001250244
840,-0.6860939683309567,0.9552788600273794,0.7023430621759806,-2.107030043391249,-2.0986405099789196,-3.954184106051199
850,-0.68798849968275,0.9514950718183698,0.7060862486818559,0.7219445466189178,-0.6165468041366674,-0.7507622485116641
860,-0.662238292166424,0.98409408179362,0.7321133303454103,3.1299168507133626,0.8601230181708344,1.5114156200424806
870,-0.6912674450158242,0.9571607480668602,0.6953550668166005,3.3598123200451333,0.7682944135861052,0.705334668407456
880,-0.6777705014078117,0.9751327298709531,0.7146290569640593,5.526498589212225,1.0799930724328046,1.2839186843183577
890,-0.7019886028356227,0.9548131079790506,0.6909161585396247,0.13325169800494252,-0.7275362494055373,-0.8398613821912593
900,-0.6904843206231217,0.965321433406765,0.7050828107530337,0.47521369179918493,2.255680197292646,2.415002276209358
910,-0.7087807671365749,0.9403186406230932,0.6806841293783885,-1.9106520172714625,-2.159387906133115,-1.4812589780651977
920,-0.6839255234486534,0.9706249940356018,0.7043463863526425,-3.939755471116641,-3.0724606440836384,-3.712924789436926
930,-0.7076162653915236,0.9466161455653161,0.6859265180112237,-2.4554789000043775,1.107594044016143,-0.49968723535224235
940,-0.6992316698184966,0.9543119966494432,0.6988038652590912,-4.022773256045882,-0.46676392511385334,-1.4037794288141814
950,-0.6771115465785748,0.9718925457229864,0.719492425961639,-2.0246097153936264,-0.5756604045643131,-0.2724272717474222
960,-0.6928698674558442,0.9542950085989074,0.7011238161294459,2.2938090055900267,2.9029459012774113,3.591507523058757
970,-0.6915519219183246,0.9557910510025873,0.7008527567563048,-2.8666708399478873,-1.8868219308451915,-1.6033208639077186
980,-0.6888052728030127,0.9550815487855049,0.7042366647588276,0.4360223800488717,-0.4575120130836158,1.01800096586398
990,-0.6994364703523015,0.952715600674787,0.697603000130009,-0.38764669969196786,-1.7286781823536341,0.1643347188466433
1000,-0.685667379316218,0.961942084349781,0.7046806539339985,0.17182672405526322,-0.5923760309180006,-0.1417404576022897
1010,-0.6848249411563697,0.9634114108912716,0.7022842390218808,-0.04417266680278354,0.12370300484984154,-1.2422874032473803
1020,-0.7187941207032815,0.9304396216099649,0.665090202011752,-7.126565206342621,-1.759583348854111,-2.8574370381483067
1030,-0.7168542685420606,0.931870298783134,0.6832448191628436,-4.346031950289703,-0.5436114757460973,-0.04648613421470282
1040,-0.6937288767062081,0.9461349134941752,0.7008441324236562,-1.3871478038246812,0.02370647327572497,1.641798411034437
1050,-0.7029802898841248,0.9387226146823302,0.6893745293403858,2.1346960778487727,1.3806470308519097,2.65023462815327
1060,-0.6884679273539669,0.9624869610722343,0.7113054966196062,4.918348896039004,1.8376201136665937,2.850378158247201
1070,-0.7200036586154775,0.9254953236267083,0.6789602676611395,-3.5921850883834034,0.6905580443816013,-1.2956673295054348
1080,-0.6853848201285864,0.9479267285964694,0.7011699491808928,0.7839427845335849,0.5245118387564077,1.1512302309238918
1090,-0.692544537341386,0.9519839936985874,0.6987781255613578,0.48454876863943264,0.28384925204046235,1.772250951879937
1100,-0.7177800764150112,0.9271859484350026,0.6782610711324657,1.1112527211427012,1.9173779832370217,2.9977341398816213
1110,-0.6674369733643825,0.9813925723558893,0.727796336919768,-3.4322555330867512,-0.9217095537227783,-1.6034287648620222
1120,-0.6900327040088284,0.9518518536875317,0.7073836216928063,-7.226580581687541,-2.525070871387353,-4.07842368849389
1130,-0.6971793735659036,0.9500164788706276,0.7071749639304787,-5.874371029467484,-1.013532965405405,-1.75519537264872
1140,-0.6655979286286271,0.9787667787867312,0.7275780425266724,-4.004711818807668,-1.428633346901833,-0.8554837373232527
1150,-0.6892127676983134,0.9547926512181352,0.7032734913486585,-4.826525045653302,-2.1578581491482884,-2.2388567762227427
1160,-0.7008369676637232,0.9540209217941816,0.700254676627268,-1.584603201755527,0.7736865106514401,-0.9021649427447483
1170,-0.6792038935514366,0.9612483264313381,0.7171651408852731,2.2786521545736793,1.0054664515346257,0.8476517396244888
1180,-0.7029164577697535,0.9343834079327312,0.6892721989314393,0.6510587998976112,0.14717326772973727,1.5563750177894984
1190,-0.6819780028894029,0.964584946435998,0.7201549104819346,1.9441308475813583,0.7757232884026659,2.7112430933783718
1200,-0.6805168254754395,0.9661667232990122,0.7057918531159818,2.2523195620824588,1.571346807496027,2.6462370486622167
1210,-0.6877079578041948,0.9599165637321162,0.7063415355067192,-3.9432278887431704,-1.5983128520327614,-2.7036334786408824
1220,-0.6855650967701993,0.963579421149693,0.7100015294004857,-0.5202711183993753,1.1326876394737282,0.6467569802712767
1230,-0.6707641237310922,0.9759379112537859,0.7272619375488149,-1.040294545082466,-1.3697334983554836,-0.1924224787311738
1240,-0.7228318291123623,0.9182803687302753,0.6688542867834882,-2.28449128225583,-1.4360164265207656,-1.123773095965074
1250,-0.6745589132512809,0.9634702004965422,0.7203672030466337,-1.574515519918032,-1.4098659157242035,-1.736612678237456
1260,-0.7046904747240723,0.9402230589584866,0.6843228245194989,-1.4691239858369314,-1.763298008974561,-1.0453088608751826
1270,-0.6815653811963067,0.966383061963113,0.7135774275799616,0.4251640422544727,1.6404180825415837,1.4065613374230947
1280,-0.7055418748876905,0.9275820972198567,0.687870469968864,-3.47588933382536,-0.2757897746654112,-1.343584718216923
1290,-0.6627822263363391,0.9708193827643341,0.7347308559544077,-3.3351930409555797,-1.5220064929362997,-2.4292894163018204
1300,-0.7100753734262844,0.9301751712891813,0.6924122404864778,-3.939759152802962,-2.8283080214954226,-3.4527020766153713
1310,-0.6752714484269035,0.9630773584654609,0.7191728051716128,-2.5808675018226244,-0.8494031745706947,-1.3412367686948428
1320,-0.6707839424310863,0.9753362939435465,0.7280896568856671,-8.3671410604281,-2.72447503072936,-4.394209274659375
1330,-0.6985292555145424,0.9407691888537347,0.6988543109357573,0.6817334232127754,1.0518301955709086,0.37003681674631095
1340,-0.6976646464606288,0.9432833534296594,0.7035362932811235,1.0544042960603701,1.6296726789133404,1.2780633510218822
1350,-0.730945346192101,0.9111337003400113,0.6692861428902112,1.8623382606192993,2.606454017648504,2.636653614715918
1360,-0.6972093840760768,0.9449533732130683,0.7062472860163882,-0.30175856739813334,1.2850748737937556,0.7632016546945054
1370,-0.6854969869056939,0.9484466717505317,0.7156413195123825,-2.156481651751025,-0.145956773736787,-0.9053963408418362
1380,-0.6974362974501473,0.9348262573784739,0.6967497870998387,3.4548722084189696,1.035926555808948,2.7617446004947
1390,-0.6848058062354795,0.9581842618289492,0.7070535129538803,-3.4650642450347893,-2.446940262839463,-2.051193533275264
1400,-0.7007538516319768,0.9377576684552971,0.6959564493552389,0.015096361876451247,2.4626386161848792,1.828401684695618
1410,-0.6968408969614809,0.9346647148036448,0.7020278820907755,0.10589866545338589,0.993518011296553,0.5090064993719059
1420,-0.6827049790052813,0.9530492677642867,0.7210922046408886,1.0016895079552677,0.0873931343764841,0.2620615358405385
1430,-0.6725845648283574,0.9629276184065811,0.7251835519297446,-1.2876475923045383,-0.27246475233448775,-0.005916985192507218
1440,-0.6769922405930572,0.9586557495101008,0.7224724567679318,-3.8467341064327827,-2.2563180956298945,-1.5923267734315865
1450,-0.6727231886054319,0.9565120427957894,0.7065186209223924,-3.896557429893226,-0.663063347290078,-0.7015499566157939
1460,-0.6973528214945737,0.9464198650479012,0.7040609889549279,-5.3479724852535515,-1.0021460442313854,-3.44247956457454
1470,-0.7104823072796373,0.9323975977366453,0.6924767198011481,-2.224001416788853,2.4106419992798775,-0.9176940093738057
1480,-0.6943752262326416,0.9336810333757507,0.7047085732076299,-4.934366463260464,0.8787610948074653,-1.2306015419577363
1490,-0.6712580928904512,0.9469299284399088,0.7314370560352493,-2.826431822553966,2.1642342713630898,1.4916919861183313
1500,-0.6891374452421608,0.9389104478850997,0.7139464129832215,-1.4421881497410372,0.01622859929286191,0.9026870377678048
1510,-0.6960458661988269,0.9369396431616962,0.708931899371057,3.4422212426900485,3.2396871536663445,3.5183357174597347
1520,-0.6943220228465006,0.945932949020539,0.7066789953250103,0.1524780524237732,-0.359598201800829,-1.5274564902889296
1530,-0.6623253458184418,0.9749604909480731,0.7391422662816814,2.2580359898570435,1.5973805301119186,1.2125821455928332
1540,-0.6849524433624806,0.9506595837043479,0.712411318262134,0.651016208783423,0.1709253665939815,1.7010445862156203
1550,-0.7376203945945877,0.9028717815373605,0.6673712246631025,0.9267673522240973,1.286378914539144,1.7431065296644292
1560,-0.7077619247167859,0.9278188445522646,0.702995614779644,4.879684011140804,3.5275384083733456,4.537777081318444
1570,-0.695276592496135,0.9392721960491168,0.708046762485137,0.5481553361473994,-0.1899613476123092,0.7873169123758041
1580,-0.7168304740310387,0.921537361499169,0.6810669808791497,3.187344680901342,2.9660202570856233,2.665060727300529
1590,-0.7142419381714055,0.9143633053531517,0.6791417374128943,-1.8681134358145473,0.5701917090678481,-1.1124097337310794
1600,-0.7205198427711907,0.9091012250231052,0.6862609030905361,-0.648861639378294,0.7078561491536199,1.0456844498057056
1610,-0.7163796965007803,0.9146593882549398,0.6871164491876309,0.6118274704424855,0.12384914880921793,2.056771551416931
1620,-0.7034625339412939,0.9272158698321844,0.696934025884224,2.5871018003115727,0.9905856739229895,3.080291795487509
1630,-0.6982320458315818,0.9410751224308125,0.6938661986126895,2.250319624288589,0.9747113513319199,1.6137115725931945
1640,-0.7127479519457937,0.9226120209485817,0.6779561325045085,-3.455781918821826,-1.8256240547002607,-3.8175937444490207
1650,-0.684142226196912,0.94777352363618,0.7166635445824832,-2.18712504913927,-0.21326906269829038,-0.24581731886868796
1660,-0.7262787220477889,0.9042895233313555,0.6796282530697039,1.201543658125431,1.3042564398263083,2.9607562900485824
1670,-0.714155995950619,0.9194923108685299,0.6869358694664149,1.799169131465253,0.9721212987934592,2.991042299298068
1680,-0.6820851193406327,0.9563790377132829,0.720157737860762,5.327895831623523,4.700537676008179,4.995476351189249
1690,-0.6906644265659598,0.9457826184492828,0.7170703330049714,2.4409727347368,2.0942534654802656,1.306868656440596
1700,-0.7002007792852798,0.9360057455613578,0.6965510321032566,-1.5249749645763613,0.20529755279133566,-0.42407543572068995
1710,-0.6887590759509662,0.9434471216688256,0.7163768993141933,-1.7495215761987715,-0.6237765840038054,-0.4002446957809784
1720,-0.6867390225084704,0.945138921647995,0.7204433366931006,0.6054335238620787,-0.5965064788704235,0.5761209832536232
1730,-0.6947291213093701,0.9396266219268964,0.7054311297273477,3.8339357125689646,2.0805097832765056,2.7442226472697593
1740,-0.7069964759788256,0.9285048258155857,0.6916612957536354,-1.2641935305189074,-1.5575662979969958,-2.2915397145057472
1750,-0.6807562586520235,0.9486527652975458,0.7204882544489178,-1.3953229114368986,-1.2729920251796054,-1.5972312391028916
1760,-0.7059834940053454,0.9205076950813535,0.6959297332999475,1.742912953157462,0.786401872545313,1.4193800703535786
1770,-0.6670967211604766,0.9653560273587816,0.7355113992638607,-1.3687693040456261,-2.5799891515991105,-1.557180110998058
1780,-0.6907148638252525,0.9472898640281397,0.714245657346936,2.4904414151890686,0.6562783474920646,1.1319887207758605
1790,-0.6936182827434,0.9441848875194949,0.7112923031742514,0.2664623785451521,-1.1063946860167129,-1.161425072999012
1800,-0.7070561719529312,0.9275196437467998,0.6900818079922374,0.048019507116047376,-0.09951886374483396,0.22081466235747374
1810,-0.6885758142628075,0.9458285545978733,0.7109747693623348,-3.6454862123087026,-2.9684942224488853,-2.7727957110381083
1820,-0.6941507380043912,0.943855066146132,0.7026384602355804,-0.518248559405708,0.12273839126995723,-0.0035360542355795666
1830,-0.6858209056429304,0.9522378309575374,0.7127648790498516,1.549341822691827,2.49715889061986,2.493802899679481
1840,-0.6737155987823574,0.9633034034145889,0.723224651555262,0.021321830464008595,1.0528818908920246,0.7560333389291767
1850,-0.7014028517859509,0.9319705751013776,0.6956505932533867,-1.1563906891043714,-0.47075627798198755,-0.7013770707882031
1860,-0.672268611901967,0.9583835043757949,0.72523503509208,0.7296217849004907,2.1405420685691303,1.8401844401814036
1870,-0.6947209889695262,0.9378045677371277,0.7056969388361151,-0.05132183780719084,0.6661688564500725,0.3156739969199554
1880,-0.6768453885752668,0.9601144765433643,0.7271018261910709,2.125919354279436,1.6948315837886014,1.271707744348184
1890,-0.6712400784699016,0.9715272535874655,0.7332220584156004,1.9886015402527994,0.8308855109534614,0.5920207677025113
1900,-0.7139019502495344,0.9173214055613166,0.6893376133951538,-3.319547924853229,-1.342045590297832,-1.375589583493686
1910,-0.6700459643943083,0.9591299171296754,0.7292670310253279,1.0896856927568432,0.5082794011550728,1.1122178285592352
1920,-0.7048822172839647,0.9269592367823772,0.6967986585392364,2.8372897754077417,1.0451685317536832,1.4968923250501756
1930,-0.7084086598766431,0.9312166008384992,0.692817824797304,-0.8679763864797616,-2.318551781445227,-2.915788375390955
1940,-0.6948549975100237,0.941188246706277,0.7019484118771903,2.080860528725217,1.1399001141235572,0.7824700047332077
1950,-0.7086038697409317,0.9262704737173776,0.6973894846850676,-0.23786183563424323,1.2037107099656608,1.129251851194762
