time_ms,ax,ay,az,gx,gy,gz
42,0.0244,-0.0237,1.0923,2.3955,-0.0757,1.8983
54,0.0278,-0.0284,1.0898,1.5558,-0.1673,2.0662
65,0.0241,-0.0198,1.0903,1.4489,-0.1215,0.9059
77,0.0244,-0.0237,1.0952,-0.5969,-0.3505,-0.804
90,0.0295,-0.0345,1.0913,0.5634,-0.6558,-0.9109
102,0.0251,-0.0301,1.093,1.3726,-0.5642,-0.346
143,0.0275,-0.0232,1.0954,-0.49,-0.3047,-0.2086
156,0.0273,-0.023,1.0986,-0.9175,-0.0757,-1.3536
168,0.0251,-0.0249,1.093,-0.6885,0.0465,-1.1246
179,0.0214,-0.0276,1.0957,0.6397,0.4434,0.1273
191,0.0297,-0.0242,1.0866,1.8,0.5961,1.486
203,0.0222,-0.0213,1.0935,0.1817,0.245,0.7532
245,0.0229,-0.0328,1.0937,0.7619,-0.3657,0.5395
257,0.0246,-0.0247,1.0974,2.5023,0.2755,2.3715
269,0.0204,-0.0291,1.103,1.6932,0.0617,2.2799
281,0.0173,-0.0154,1.0913,1.4184,0.8098,2.3715
293,0.0185,-0.0118,1.0886,-1.4061,0.4282,1.1807
305,0.0141,-0.0193,1.0954,-3.6351,-0.1215,-0.1475
348,-0.1339,0.0954,1.1592,-37.4824,-11.2512,-33.9338
360,-0.5933,0.7001,2.2527,-51.803,-61.0222,-10.743
372,-0.7003,0.5703,1.7546,-43.6809,-149.343,27.3944
383,0.0129,0.0676,1.4905,-23.7114,-179.984,56.5395
396,0.8027,-0.1717,0.792,-28.1694,-170.976,53.0738
408,1.1017,-0.4517,0.8105,-25.9252,-124.091,28.7532
450,0.2057,-0.199,0.6855,3.4642,66.6724,2.6616
461,0.0639,-0.2591,0.9939,-19.8946,90.1533,-4.0101
473,-0.0479,-0.2915,1.1589,-35.5129,92.7946,-14.5598
485,-0.2027,-0.2464,1.1643,-31.116,94.4129,-25.3384
498,-0.691,0.3232,1.8767,-29.5282,68.2907,-20.743
509,-0.442,0.0759,1.1147,-31.2229,7.8785,12.0204
551,0.0097,-0.0389,1.2231,15.4794,11.8633,27.5166
564,-0.0252,-0.0435,1.2556,26.7008,12.4892,31.2112
575,0.0576,-0.4642,1.7285,1.2809,-5.6787,-1.6895
588,-0.0565,0.008,1.0447,-17.3145,-25.4344,-32.7124
599,0.4855,0.3049,1.3471,-16.49,-45.5718,-55.1399
612,0.1225,-0.1932,1.9929,23.4794,-83.4497,-80.7888
653,0.0222,0.0234,0.8069,15.5252,-4.2131,0.8754
665,-0.0294,-0.0564,1.1643,-16.3526,-3.8161,-5.8727
677,0.0212,-0.0081,1.1877,-47.2992,-13.9841,-14.5445
690,-0.126,0.0314,0.6313,-65.116,2.0312,-16.0865
701,0.0722,0.1333,0.8545,4.5939,36.0159,15.3028
714,-0.2933,-0.272,1.7622,12.3344,62.9014,29.3486
755,0.1171,0.092,0.5083,94.9603,82.6266,51.9288
768,0.133,0.0759,2.2275,82.0138,72.993,39.9593
780,-0.0928,-0.0562,0.0827,68.5329,60.3824,41.5624
791,0.1628,0.0214,1.154,39.571,57.4969,33.9135
803,-0.0135,-0.0625,1.7312,50.5023,37.2984,29.3792
816,0.0014,-0.1949,1.0869,27.51,25.0388,10.9059
858,0.1242,0.146,1.0937,-42.8259,0.9778,-13.6132
870,0.0251,-0.1902,1.2048,-67.0855,0.5808,-6.346
881,-0.087,-0.1595,1.3845,-80.7038,3.4816,5.5013
894,0.3303,0.1289,0.738,-64.8565,28.8251,52.6616
906,0.1201,0.271,1.0752,-98.2763,27.848,41.5013
917,0.0446,-0.4617,1.4348,-93.4061,-5.3276,-2.7735
960,0.0441,-0.1353,1.0522,39.0367,6.0617,34.738
972,-0.0113,-0.1717,1.0429,48.655,14.7946,35.4555
984,-0.1815,-0.5613,1.1858,25.4947,6.2449,-23.888
995,-0.2977,-0.7012,1.5678,39.9832,-4.1825,-32.2239
1008,-0.0501,-0.0384,0.8979,38.4565,-31.4039,-89.4758
1020,0.1782,0.7944,0.688,81.4794,-15.4039,-58.4376
1061,0.9811,1.7313,0.8594,151.281,10.077,52.967
1074,0.1591,0.302,1.0581,3.51,3.7717,13.425
1086,0.0038,0.0788,1.0866,-1.7114,1.9243,-15.8269
1097,-0.0645,0.0014,1.147,-12.4137,-4.5489,-26.117
1110,0.0241,-0.0013,1.081,-14.7649,-8.7321,-20.8498
1122,0.0493,-0.0603,1.0881,-13.8641,-9.3581,-11.4147
1163,0.0195,-0.0091,1.0984,1.4794,-0.4268,7.7303
1176,0.0309,-0.0059,1.0871,2.4107,0.474,0.9822
1188,0.0334,-0.024,1.0859,2.1359,0.7335,-3.9949
1199,0.018,-0.0425,1.0942,3.7848,2.1228,-2.4987
1211,0.0099,-0.0323,1.0869,5.5863,2.8556,0.7227
1224,0.019,-0.0313,1.084,8.258,2.8404,3.2112
1265,0.0165,-0.0144,1.0835,5.2199,0.6114,3.4555
1277,0.0217,-0.0147,1.0788,4.0443,0.0312,1.9593
1289,0.0236,-0.0052,1.0781,3.2962,0.0312,0.341
1302,0.0278,-0,1.0805,-0.9481,-1.0986,-3.1246
1313,0.0239,-0.0147,1.0842,-0.9175,-0.7016,-1.4758
1326,0.0248,-0.0203,1.0808,2.3496,-0.1215,2.8906
1367,0.0231,-0.0137,1.0805,-0.9786,-0.0909,-2.575
1380,0.0251,-0.0152,1.0847,-0.49,0.306,-2.2239
1392,0.0263,-0.0074,1.0849,-1.5893,0.6419,-1.0636
1403,0.0285,-0.0147,1.0776,0.5939,-0.2131,0.6464
1415,0.0241,-0.0115,1.0849,-0.4748,0.3213,1.6998
1427,0.0134,-0.0071,1.0818,-0.0626,0.7946,1.425
1469,0.0121,-0.0091,1.0852,-1.0397,-0.61,-0.7735
1481,0.0226,-0.0132,1.0818,0.1054,-0.4421,1.2112
1493,0.0273,-0.0096,1.0744,2.4871,-0.0299,1.8983
1506,0.0209,-0.0101,1.0815,-0.9328,-0.6711,0.3105
1517,0.0187,-0.013,1.0915,-0.658,-0.0146,0.7074
1529,0.027,-0.0174,1.0781,2.6397,1.3595,3.7609
1572,0.0222,-0.0003,1.0818,0.0901,-0.2589,-0.3765
1583,0.0278,-0.0123,1.0788,-0.3374,-0.2589,-0.4987
1595,0.028,-0.0088,1.0769,0.0138,-0.1673,0.3563
1607,0.0285,-0.0096,1.0786,0.7313,-0.0909,0.9822
1620,0.0219,-0.0054,1.0769,-0.3068,-0.0451,1.1654
1631,0.0253,-0.0049,1.0749,-0.032,0.0159,3.2265
1673,0.0266,-0.0052,1.082,-7.2381,0.7793,-0.3307
1686,0.0239,-0.0071,1.0793,-6.8412,0.8556,-0.2544
1698,0.0204,-0.0057,1.0779,-8.0168,1.0236,-0.1628
1709,0.029,-0.024,1.0752,-1.8641,1.4358,2.3715
1721,0.0251,-0.0093,1.0803,-0.4442,1.7411,1.1349
1733,0.02,-0.0042,1.0769,0.1664,0.5656,-0.9262
1775,0.0253,-0.0071,1.0776,2.7008,-1.8772,0.7227
1787,0.0273,-0.0098,1.083,0.6855,-1.4192,0.9517
1799,0.0244,-0.0103,1.0779,0.0596,-1.2512,1.7303
1812,0.028,-0.0003,1.0752,0.9909,-0.9154,2.1273
1823,0.0204,-0.0076,1.084,-0.261,0.1075,1.4402
1835,0.0234,0.0068,1.0871,0.2275,0.474,1.2418
1878,0.0209,0.0019,1.0869,1.4031,0.5198,2.7532
1889,0.0253,-0.0044,1.073,0.3496,0.2144,2.8296
1901,0.0305,-0.0047,1.0791,1.6779,0.8404,2.8296
1914,0.0263,-0.0025,1.0803,0.3802,0.6724,2.57
1927,0.0278,-0.004,1.0771,-0.0931,0.4282,2.3105
1938,0.0251,0.0031,1.0764,-0.1236,0.1991,1.0128
1981,0.0226,0,1.0803,-1.8336,-0.839,-0.8346
1993,0.0344,-0.011,1.0803,-2.1236,-0.8543,-0.743
2004,0.0322,-0.004,1.084,-0.9023,0.0617,0.3868
2016,0.0187,-0.0018,1.0769,0.0596,0.6419,0.4021
2028,0.0244,-0.001,1.0793,-0.2916,0.6724,0.2647
2040,0.0317,-0.0042,1.0776,0.2275,1.1915,0.8601
2082,0.0253,0.0061,1.0805,-1.0549,-0.3657,0.6311
2094,0.0266,0.0114,1.0815,-2.5664,-0.839,-0.7124
2106,0.0292,0.0065,1.0732,-2.8107,-0.9917,-1.43
2119,0.0297,-0.003,1.0761,-2.7191,-1.0986,-2.4834
2131,0.0405,-0.004,1.0722,-3.9252,-1.0986,-3.3842
2142,0.0302,0.0004,1.0823,-4.6274,-1.1902,-4.1628
2185,0.0314,-0.0042,1.0837,-2.7343,1.0541,-2.4682
2197,0.0204,-0.0025,1.0752,-2.1694,1.2068,-1.5827
2208,0.0263,-0.0044,1.0805,-2.1694,1.5579,-1.5063
2221,0.0217,-0.0081,1.0771,-2.3068,0.8862,-1.6285
2233,0.0229,-0.0098,1.0769,-3.5435,0.7488,-1.7811
2245,0.0239,-0.0149,1.0818,-2.4442,0.1228,-0.4376
2287,0.0253,-0.003,1.084,-3.7267,-0.7321,-2.2391
2299,0.0239,-0.0081,1.0771,-4.1847,-1.0986,-3.5521
2311,0.0258,-0.0076,1.0859,-5.0549,-2.0146,-4.2544
2324,0.029,-0.0162,1.0832,-3.0549,-1.297,-3.201
2336,0.0339,-0.0154,1.0815,-1.2076,-0.8238,-1.7048
2347,0.0373,-0.0147,1.0842,0.9145,0.3518,0.112
2389,0.029,-0.0125,1.0847,1.8916,2.9167,0.57
2401,0.0266,-0.003,1.0803,0.5787,3.0694,-0.743
2414,0.0168,-0.0027,1.0798,1.1741,2.4434,-1.4758
2426,0.0256,-0.0061,1.0757,-0.2916,1.9091,-1.7353
2437,0.0156,-0.0098,1.082,1.3726,1.5121,-1.0025
2449,0.018,-0.0132,1.0783,1.3267,0.5656,-1.3994
2491,0.019,-0.0074,1.0827,2.197,1.39,-1.1704
2503,0.027,-0.0127,1.0703,3.4031,1.2984,-0.1017
2515,0.0251,-0.0101,1.0732,3.51,1.4358,0.6311
2528,0.0275,-0.002,1.0708,1.8764,0.2908,-0.3002
2540,0.0202,-0.0074,1.0747,0.5634,-0.1215,-1.201
2552,0.0195,-0.0147,1.0754,1.7084,-0.2589,-0.7735
2595,0.0234,-0.0142,1.0749,0.9298,0.2755,-0.4987
2606,0.0239,-0.0123,1.0754,0.8382,0.2602,0.341
2618,0.0248,-0.0098,1.074,1.0519,0.3671,0.9212
2630,0.0192,-0.0035,1.081,0.2428,0.3671,0.7685
2643,0.0246,-0.0096,1.0742,-0.887,0.1381,-0.0407
2654,0.0273,-0.0081,1.0703,1.1283,0.4587,-0.3002
2697,0.0261,-0.0171,1.0754,-1.4519,0.3976,-1.3689
2708,0.0239,-0.0127,1.0781,-0.7801,0.6114,0.3563
2721,0.0192,-0.0083,1.074,1.6168,0.8251,1.6998
2734,0.0246,-0.0037,1.07,2.7924,1.0846,1.486
2745,0.0226,0.0056,1.0639,-1.6045,0.3518,-0.743
2757,0.0197,-0.0047,1.0708,-3.1313,-0.2894,-2.7124
2800,0.0268,-0.0142,1.0639,-1.7725,-2.0604,-0.8498
2811,0.0209,-0.0105,1.0761,-1.1007,-1.3581,-0.7124
2824,0.0239,-0.0086,1.0759,-2.3526,-1.526,-2.1017
2835,0.0246,-0.0157,1.0725,-2.3068,-0.61,-2.8804
2848,0.0239,-0.0083,1.0725,-3.5435,-0.4421,-3.4453
2859,0.0253,-0.0108,1.0703,-2.7801,-0.3199,-2.2239
2902,0.0305,-0.0142,1.0752,-0.2152,-0.2589,-0.8498
2913,0.0214,-0.0088,1.0722,-3.2229,-1.8925,-2.2849
2926,0.0175,-0.0076,1.0818,-3.0244,-1.755,-2.9567
2937,0.0212,-0.0032,1.081,-4.5053,-2.4879,-3.4758
2950,0.0307,-0.0184,1.0725,-3.3603,-1.694,-3.2773
2961,0.0307,-0.0193,1.082,-3.6504,-1.4344,-2.8346
3003,0.0214,-0.0149,1.0769,-0.7954,0.8556,-1.3536
3015,0.0273,-0.0213,1.0779,-6.1847,0.8098,-2.7124
3028,0.0153,-0.0181,1.0761,-0.3832,0.8556,-0.8804
3041,0.0163,-0.0252,1.0803,-0.6122,0.0159,-0.1475
3053,0.0305,-0.024,1.0705,-3.0397,-0.5489,-1.1552
3064,0.0202,-0.0186,1.0744,-3.5893,-0.8238,-2.9414
3106,0.0209,-0.0203,1.0761,-0.4748,1.0541,-1.8727
3119,0.0195,-0.0215,1.0803,-1.0397,0.7335,-1.6285
3131,0.0095,-0.0069,1.0845,-3.0091,0.474,-0.9872
3142,0.0156,-0.022,1.0776,-0.2763,0.6266,0.8906
3154,0.0217,-0.0218,1.0798,-0.2305,-0.1673,1.3792
3167,0.0234,-0.0174,1.082,0.7771,0.0465,1.7303
3209,0.0248,-0.0276,1.0779,-0.429,0.1686,-1.7201
3220,0.0173,-0.0235,1.0766,1.0672,0.535,-0.0254
3232,0.0248,-0.0247,1.0732,-0.0168,0.5045,0.7074
3245,0.0175,-0.0259,1.0805,0.3649,0.6877,1.4402
3256,0.0173,-0.023,1.0801,0.1664,0.474,1.7609
3268,0.0219,-0.0206,1.0769,-0.0473,0.8862,1.0891
3311,0.02,-0.0162,1.0771,0.258,-0.0451,-1.0178
3323,0.0268,-0.0201,1.0744,-0.658,-0.6863,-1.5521
3334,0.0195,-0.0206,1.0752,-2.2458,-0.8085,-1.6437
3347,0.0197,-0.0232,1.0766,-1.0549,-0.4573,-0.4682
3358,0.0212,-0.0193,1.0774,-0.5816,0.1075,0.8906
3370,0.0187,-0.0191,1.0808,0.8535,0.7335,1.4402
3412,0.0202,-0.0101,1.0737,0.0443,0.0007,-0.514
3425,0.0195,-0.0169,1.0759,0.0443,-0.0604,-1.0636
3437,0.0241,-0.0159,1.0776,-2.3526,-0.778,-2.2239
3448,0.0278,-0.0213,1.0781,-3.4519,-0.7016,-2.346
3460,0.0212,-0.0262,1.0747,-1.2076,-0.2436,-0.4529
3472,0.0217,-0.0198,1.0769,-0.2916,0.3671,0.7838
3514,0.0202,-0.0103,1.071,2.3344,1.0541,1.0128
3526,0.0219,-0.0098,1.0793,1.51,1.1152,-0.3765
3539,0.0217,-0.0181,1.0722,0.3649,0.8556,-0.8498
3551,0.0224,-0.0159,1.0732,-0.1694,0.306,-0.7582
3562,0.0192,-0.0196,1.0786,-0.3984,0.306,0.1578
3574,0.017,-0.0184,1.0796,-1.7878,-0.2283,0.0357
3617,0.0187,-0.0123,1.0744,0.2122,0.0617,0.2494
3628,0.0226,-0.0066,1.0659,-0.9328,-0.3352,-1.3842
3641,0.0209,-0.0171,1.0803,-1.9099,-0.3047,-2.4529
3653,0.0161,-0.0157,1.0759,-1.0702,-0.1673,-2.0254
3664,0.0204,-0.0118,1.0754,-1.5893,-0.2283,-1.43
3676,0.0234,-0.0201,1.0754,-1.1313,-0.5795,-0.7124
3719,0.0187,-0.0181,1.0742,-0.2458,-0.2436,-0.6361
