time_ms,ax,ay,az,gx,gy,gz
10,-0.873,0.9766,0.6039,0.0225,0.097,1.0012
53,-0.8708,0.98,0.6064,-0.2828,0.8756,0.4821
64,-0.8764,0.9754,0.5954,-0.4508,0.784,0.5737
76,-0.8722,0.98,0.6003,1.0759,0.8603,1.4897
88,-0.8749,0.9854,0.6071,0.7401,0.3871,0.7569
101,-0.8779,0.9773,0.6061,-0.2828,0.2955,0.3447
112,-0.8727,0.9727,0.6015,-0.3286,0.4023,0.6958
155,-0.8739,0.9766,0.601,0.9538,1.242,1.2607
167,-0.8747,0.9834,0.601,-0.0691,0.8909,0.3599
178,-0.8688,0.9778,0.6046,-0.4202,-0.0252,0.4821
190,-0.8747,0.9768,0.5988,0.6637,0.2191,1.963
203,-0.8757,0.9817,0.6029,0.8469,0.4634,1.963
215,-0.8705,0.9878,0.5968,1.3965,1.0588,1.108
256,-0.8791,0.9807,0.5973,1.9156,0.1428,1.6882
269,-0.8722,0.9732,0.6029,2.9233,0.3718,2.8485
280,-0.8786,0.98,0.5949,2.1141,0.2191,2.9096
292,-0.8749,0.9812,0.6076,1.6561,0.6161,3.8561
304,-0.8808,0.9849,0.6098,1.5034,0.4634,4.2989
317,-0.8935,0.9944,0.6034,-1.7027,-0.3916,4.4973
359,-1.1315,1.1323,1.0649,-19.9622,-54.4221,23.6271
371,-1.3583,1.1865,0.9462,-5.1531,-96.0252,42.3752
383,-1.2516,1.1191,0.8947,-26.2676,-137.384,75.047
394,-0.7931,0.8777,0.8483,-4.2676,-151.384,77.8256
407,-0.4198,0.7534,0.6127,-0.4966,-134.086,54.3752
419,-0.082,0.5425,0.2528,41.137,-73.7198,20.6042
461,-1.0927,1.0579,0.7531,-39.1531,54.9367,-23.2889
473,-1.3603,1.0017,0.8766,-16.8783,34.7535,-20.4187
485,-1.1799,0.9666,0.8095,-1.1989,8.9214,-8.4798
497,-0.8288,0.8296,0.653,10.908,0.6771,-3.9301
509,-0.6088,0.9397,0.5556,13.8546,10.5397,-11.0904
520,-0.6242,1.0818,0.5556,1.0454,26.1886,-13.6553
563,-0.9198,1.0308,0.8095,-23.1989,13.1962,-13.9759
575,-0.8971,0.9754,0.758,-19.8859,2.5245,-12.0981
587,-0.7936,0.8982,0.662,-14.9546,1.639,-11.7164
598,-0.8324,0.9951,0.6491,-0.2523,0.5855,-6.7393
610,-0.8696,0.9011,0.6603,-10.5271,3.6084,-10.1897
622,-0.945,1.0369,0.748,6.1446,9.0435,-6.5714
665,-0.8447,0.9473,0.5595,8.0988,-2.1015,3.1233
677,-0.8796,0.9807,0.6562,15.8088,-0.2236,-1.1057
688,-0.8476,0.9578,0.6918,25.7477,2.9825,0.2531
700,-0.8581,0.9441,0.7094,23.9156,7.3947,0.6042
713,-0.8664,0.9692,0.7145,24.7706,11.0741,0.9859
725,-0.8739,0.9119,0.716,19.4576,10.7382,-4.1897
767,-0.7868,1.291,0.3383,12.9691,-41.445,-24.8004
779,-0.4335,1.2637,0.8044,97.2591,-69.3381,-42.9836
791,-0.8373,0.7131,1.3371,65.4271,-34.3305,-7.4111
803,-0.7575,1.5391,-0.0743,78.7095,-43.0328,-15.1362
815,-0.7782,0.8191,1.3524,-30.6645,-20.4679,-13.1057
827,-0.9045,1.0501,0.6671,-30.0233,3.0283,-7.6859
869,-0.8644,0.969,0.7001,-89.6874,-22.1931,-40.8767
881,-0.8893,0.9817,0.5282,-66.405,-16.59,-30.0981
893,-1.0282,0.8308,0.1781,-13.55,-2.5137,-16.2507
905,-0.9523,0.9414,0.5854,25.2591,16.0817,-8.8614
916,-0.8005,1.2561,0.9665,15.7935,55.4405,7.8561
928,-0.8366,0.3789,1.2975,8.0836,42.6161,5.2912
970,-0.9345,0.7554,0.6056,-15.1836,38.4329,20.65
982,-0.8359,0.9949,0.1403,-6.2981,53.8069,29.5202
995,-0.904,1.5071,0.1974,4.4958,36.097,20.3141
1007,-0.8825,0.7671,0.8251,19.4882,7.7306,2.8485
1018,-0.7704,0.8794,1.0949,0.8775,13.4252,2.9248
1031,-0.8896,1.1807,-0.3558,30.0683,32.3871,31.047
1073,-0.8317,0.9378,0.7023,-33.3057,3.5321,-7.808
1084,-0.8547,0.9851,0.6811,-38.5118,7.9901,3.108
1097,-0.83,1.0295,0.7025,-29.8248,9.7764,18.1004
1109,-0.8669,1.0088,0.6706,-42.0996,7.3489,16.8943
1121,-0.8429,1.0706,0.779,-40.2218,0.555,27.9172
1132,-1.0937,0.7847,0.279,-78.863,-6.071,5.1233
1175,-0.9357,0.6629,0.5871,-2.6493,-1.7809,4.5431
1186,-0.8766,0.875,0.6447,25.9309,1.1504,16.4973
1199,-0.8808,0.898,0.6349,48.8317,10.6008,22.9401
1211,-0.883,0.9255,0.6249,44.9538,15.2267,7.0775
1223,-0.8696,0.877,0.673,47.9156,16.9672,-2.6172
1234,-0.9189,0.7476,0.8051,55.8393,11.3489,-12.0217
1277,-0.6347,1.6243,0.2206,114.297,9.41,13.4897
1288,-0.7712,0.6755,0.6906,24.6485,2.7229,-35.9149
1300,-0.789,1.2825,0.6386,74.2515,9.5321,-24.0981
1313,-0.7607,1.228,0.6825,19.3507,0.1428,-4.0217
1325,-0.8522,1.0925,0.6173,3.5034,2.6313,-2.0828
1336,-0.8625,1.0012,0.6203,-1.8248,3.9596,-5.4263
1379,-0.8779,0.9661,0.599,-5.5347,-4.6511,-3.5943
1391,-0.872,0.9683,0.5832,-3.5805,-3.0175,-2.2965
1402,-0.8798,0.9434,0.6068,-2.6035,-3.0481,-1.7927
1414,-0.8813,0.9373,0.6049,0.8775,-1.4755,1.1233
1427,-0.8818,0.9473,0.6017,2.9385,-0.3152,1.4744
1439,-0.8747,0.96,0.6034,3.8546,0.9519,0.3752
1481,-0.8774,0.9507,0.6093,2.8622,-1.674,5.4286
1493,-0.8788,0.9673,0.6088,1.9004,-1.0786,4.7416
1504,-0.8637,0.9729,0.6051,0.3584,0.8603,2.6195
1516,-0.8776,0.9717,0.6061,3.0759,2.4329,0.879
1529,-0.8735,0.971,0.6105,0.9691,-0.1473,-5.6095
1541,-0.8747,0.9512,0.6068,17.8698,-2.071,-7.7164
1582,-0.8791,0.9668,0.6068,2.0378,-1.3381,-3.5943
1595,-0.872,0.9558,0.6042,-2.5118,-1.9336,-5.2736
1607,-0.8761,0.9634,0.6034,-7.7332,-3.0175,-7.9149
1618,-0.8737,0.9346,0.6076,-2.4966,-1.2007,-4.2813
1631,-0.8786,0.9356,0.6127,-7.9622,-1.0175,-2.953
1643,-0.8749,0.937,0.612,-6.7256,-0.0252,-0.3424
1684,-0.8788,0.9458,0.6,-3.947,3.3642,4.879
1697,-0.8754,0.9456,0.611,-8.863,2.4329,4.2073
1709,-0.8783,0.9678,0.6073,-13.4126,0.0054,1.6118
1720,-0.8776,0.9475,0.6125,-16.7256,-1.1549,0.1309
1732,-0.873,0.9612,0.612,-16.3592,-0.7885,1.3065
1745,-0.8842,0.9666,0.6186,-22.5118,-2.5748,-1.1668
1786,-0.8759,0.9443,0.6159,-18.8172,-2.071,-10.2507
1799,-0.8757,0.9287,0.623,-16.1912,-1.9641,-8.6935
1811,-0.8844,0.9268,0.621,-14.9088,-2.9107,-5.1515
1823,-0.881,0.9392,0.6237,-13.9622,-3.8114,-2.7088
1834,-0.8761,0.9375,0.6247,-10.4355,-2.9412,-0.8614
1847,-0.872,0.9216,0.6295,-14.3439,-2.5442,-1.9149
1889,-0.8752,0.9168,0.6198,-14.6951,-0.4984,2.1004
1900,-0.8705,0.9212,0.6237,-9.5806,0.784,4.192
1913,-0.881,0.939,0.6217,-13.5653,-1.6282,-0.4645
1925,-0.8881,0.9236,0.6505,-10.2676,-1.6282,-3.0599
1937,-0.8803,0.9378,0.6198,-8.1607,-1.5366,-2.2355
1948,-0.8818,0.9282,0.6293,-4.0996,-1.6282,-0.0065
1991,-0.8749,0.9463,0.6293,11.0149,1.2878,7.0622
2002,-0.8764,0.9487,0.6283,11.5187,1.6084,1.8561
2014,-0.8732,0.9329,0.6349,11.6103,1.3794,-1.9607
2027,-0.8827,0.9363,0.6264,12.1294,2.326,-1.1515
2039,-0.8742,0.9292,0.6281,11.992,2.7077,3.7951
2050,-0.8813,0.9441,0.6249,11.1981,2.0512,7.3981
2093,-0.8776,0.9448,0.6247,-2.0844,0.6313,0.2073
2104,-0.8732,0.9448,0.6151,-3.8401,-0.0252,-2.8767
2116,-0.8739,0.9404,0.6244,-2.8935,-0.4374,-2.953
2128,-0.8766,0.9321,0.622,0.6179,-0.2389,-0.037
2140,-0.8766,0.9309,0.6286,0.8469,-0.5137,2.2225
2153,-0.8727,0.9395,0.6283,-1.1073,-0.1778,4.192
2194,-0.8678,0.9363,0.6266,2.0988,1.5016,2.2531
2206,-0.8761,0.9514,0.6205,3.9767,1.0588,2.1309
2218,-0.8752,0.9509,0.6193,2.7401,0.2038,1.3981
2231,-0.8786,0.9561,0.6256,1.1675,-0.1626,0.2989
2243,-0.8749,0.9483,0.622,-2.3134,-1.1855,-3.1668
2255,-0.8718,0.9387,0.6264,-0.6035,-1.3992,-5.2126
2296,-0.8827,0.9304,0.6242,4.4195,-0.4068,2.2989
2308,-0.8749,0.9497,0.6227,13.2439,-0.8801,4.2225
2321,-0.8825,0.9475,0.6256,2.4042,-0.2542,1.4439
2333,-0.8691,0.9451,0.6252,2.45,-0.2084,-2.8462
2345,-0.8788,0.9399,0.6173,1.4729,-1.0328,-6.2507
2356,-0.8832,0.9578,0.6186,-3.1836,-4.4679,-8.7851
2399,-0.8776,0.9443,0.6308,0.6637,-2.2084,-3.4263
2411,-0.8747,0.9314,0.6327,3.0301,-0.6816,-2.6477
2423,-0.8783,0.9365,0.6315,4.1446,0.7993,-0.3424
2435,-0.8788,0.9458,0.6198,5.1217,0.5245,2.4973
2446,-0.8791,0.9429,0.6244,4.4195,-0.0252,4.3294
2458,-0.8725,0.9465,0.6261,-0.4813,-0.8343,3.2607
2501,-0.8825,0.937,0.6234,2.7401,-0.0099,0.6347
2512,-0.8764,0.9412,0.6232,2.2973,0.5397,0.6805
2524,-0.8774,0.9458,0.6281,-2.6187,-1.0175,-1.2889
2537,-0.8783,0.9561,0.6212,-0.4355,-0.7885,0.0851
2548,-0.8783,0.937,0.6249,1.0149,-1.6282,0.1004
2560,-0.8742,0.9373,0.6283,1.9462,-0.9259,1.6882
2603,-0.8742,0.938,0.6266,-0.6035,0.0359,0.2836
2615,-0.8752,0.9465,0.6291,-0.5882,-0.0252,0.5737
2627,-0.8722,0.9436,0.6247,-0.8935,-0.8496,0.6347
2639,-0.8769,0.9453,0.6252,0.7706,-0.7885,0.65
2650,-0.8718,0.937,0.6359,1.8546,0.0512,0.2836
2662,-0.8744,0.9546,0.6266,0.7553,-0.4832,-1.3042
2705,-0.8722,0.9392,0.6325,2.8927,0.3871,3.1844
2716,-0.87,0.947,0.6271,0.8469,0.4939,1.9935
2728,-0.8776,0.9509,0.6266,2.053,0.6313,0.6805
2741,-0.871,0.9341,0.6286,3.5492,0.4939,1.505
2752,-0.8749,0.9404,0.6259,5.3507,0.6771,2.6347
2764,-0.872,0.9419,0.6327,5.4729,-0.1931,4.0699
2807,-0.8742,0.9539,0.6283,1.4729,0.6466,3.9935
2818,-0.8715,0.9541,0.6222,-1.1225,0.8451,2.0241
2830,-0.8752,0.9558,0.6308,-3.1989,0.2955,1.5355
2842,-0.8713,0.9512,0.6264,-1.6874,0.5245,2.0088
2855,-0.8759,0.9431,0.6227,-0.405,-0.0404,3.8867
2866,-0.8764,0.9522,0.623,1.4118,0.7687,5.4897
2908,-0.873,0.9629,0.6242,0.8469,0.6619,3.047
2920,-0.8737,0.9497,0.6274,0.9233,0.4787,0.879
2933,-0.8783,0.9517,0.6259,0.6027,1.4863,0.0393
2944,-0.8727,0.9563,0.6242,0.5569,2.2802,0.421
2956,-0.8771,0.9578,0.6203,0.2362,2.1122,1.6118
2968,-0.872,0.9614,0.6254,-0.7256,1.242,1.4744
3010,-0.8725,0.9634,0.6198,-0.0386,-0.4679,-0.1286
3022,-0.8737,0.9639,0.6225,-0.8172,-0.3458,-0.7851
3035,-0.8718,0.9609,0.6274,-2.4355,-0.9107,-0.9988
3047,-0.8771,0.968,0.6227,-6.1302,-1.3229,-1.9759
3059,-0.8713,0.9685,0.6342,-4.2523,-0.529,-0.9225
3071,-0.872,0.9483,0.6264,-1.4584,-0.4679,-0.2049
3112,-0.8715,0.9526,0.6276,-0.8325,1.41,0.4515
3125,-0.8739,0.949,0.6249,-0.2218,0.9825,2.5279
3137,-0.8703,0.9575,0.6225,1.1981,1.5321,4.1615
3148,-0.8757,0.9597,0.6244,1.1523,2.0512,3.9935
3160,-0.8742,0.967,0.623,-0.634,2.4176,1.7035
3173,-0.871,0.9656,0.6203,-0.9546,1.2115,-1.1057
3214,-0.8718,0.9539,0.6288,-0.8019,-2.1168,-2.2965
3227,-0.8769,0.9568,0.6291,-0.1912,-1.8725,-0.6172
3239,-0.8718,0.9529,0.6295,0.3278,-1.1549,0.2378
3251,-0.8737,0.95,0.6293,-0.2218,-0.3152,0.5584
3262,-0.8727,0.9568,0.6264,0.45,1.0893,1.3065
3274,-0.87,0.9529,0.6291,0.6943,2.4787,3.3218
3316,-0.8739,0.9592,0.6166,-0.9851,0.7077,0.4515
3328,-0.8722,0.9661,0.6254,-1.5042,0.0512,-0.3882
3341,-0.8757,0.9717,0.6122,-9.4584,-1.3381,-2.495
3353,-0.8757,0.9631,0.6274,-2.4966,-0.7885,-1.0141
3365,-0.8722,0.9551,0.6298,-1.8554,-0.0404,0.3447
3376,-0.873,0.9517,0.6205,-1.1836,0.5397,1.734
3418,-0.8757,0.958,0.6208,1.4729,2.6008,2.1309
3430,-0.8739,0.9597,0.6169,0.8011,2.6161,2.6347
3442,-0.8722,0.9656,0.6215,-0.1912,1.0893,1.9325
3455,-0.8739,0.9641,0.62,-0.7867,0.6466,1.2454
3466,-0.8705,0.9661,0.6203,0.1446,-0.1626,1.0928
3479,-0.8732,0.9634,0.6134,-0.3744,-0.4526,0.3447
3521,-0.8749,0.9531,0.6239,-0.5729,0.7535,0.3599
3533,-0.8761,0.9617,0.6151,0.2057,0.8451,1.3676
3544,-0.8757,0.9619,0.6281,1.8546,0.5397,1.6576
3556,-0.8747,0.9622,0.6244,1.7477,0.7382,2.0699
3569,-0.8698,0.9649,0.6244,1.366,0.8603,0.5889
3580,-0.8713,0.959,0.6254,0.4195,0.9367,-0.9988
3623,-0.8744,0.9612,0.6169,-1.6722,-1.2618,-1.2278
3634,-0.8739,0.9561,0.6222,-1.5195,-1.2465,-0.2507
3647,-0.8693,0.9539,0.6244,0.9691,-0.4679,0.7569
3658,-0.8732,0.9619,0.6252,1.6408,0.4939,0.1004
3671,-0.8713,0.9619,0.6205,0.5416,0.8603,-1.3042
3683,-0.8747,0.9578,0.6239,0.5874,0.9214,-1.4874
3725,-0.8722,0.9592,0.623,3.2286,0.158,-1.0904
3736,-0.8779,0.9815,0.6225,1.0301,1.0893,-4.892
3749,-0.8681,0.9607,0.6149,4.3736,2.6619,-7.0904
3760,-0.8766,0.9456,0.622,1.2591,1.6084,-6.6019
3773,-0.8818,0.9636,0.6242,1.6408,1.4252,-5.1362
3785,-0.8769,0.9539,0.6183,-1.6264,-0.132,-4.663
3827,-0.8737,0.9585,0.6181,1.1981,0.6466,3.734
3838,-0.87,0.9609,0.6149,0.5874,1.1657,0.5889
3851,-0.8796,0.9551,0.6154,1.4424,1.868,-1.2584
3863,-0.8735,0.9573,0.6161,0.908,1.0435,-0.5408
3874,-0.8759,0.9597,0.6125,-0.0233,0.0054,0.9248
3887,-0.8786,0.9602,0.6188,-0.2981,-1.5977,1.6271
3929,-0.8727,0.958,0.6183,-0.0691,0.1733,-0.4798
3941,-0.871,0.9539,0.6154,-1.2447,-0.4374,0.2836
3952,-0.8732,0.9607,0.6181,0.5874,0.5855,2.8943
3964,-0.8752,0.9624,0.6178,0.3584,0.9672,1.5202
3977,-0.8764,0.9653,0.6244,-1.0615,1.1657,-1.1973
3989,-0.8739,0.9651,0.6188,-0.7256,0.9825,-3.579
4030,-0.8761,0.9585,0.6171,0.5263,-1.0175,0.9248
4042,-0.8722,0.9566,0.6212,1.1981,-0.2542,2.0393
4055,-0.873,0.9563,0.6215,1.6866,0.6771,1.8256
4067,-0.8725,0.9656,0.6198,0.3736,0.8145,-0.2049
4079,-0.8771,0.9605,0.6234,-0.3439,0.4634,-1.4874
4090,-0.8735,0.9597,0.6137,-0.5882,0.2038,-0.6935
4132,-0.8754,0.9646,0.6169,0.679,0.0817,1.6271
4144,-0.8718,0.9641,0.6195,0.6943,0.1122,-0.2965
4156,-0.8749,0.9634,0.6169,-0.1149,0.6008,-1.4569
4169,-0.873,0.9587,0.6186,-0.3286,-0.4526,-1.4569
4180,-0.8786,0.958,0.6217,0.221,-0.8343,0.4057
4192,-0.8757,0.9551,0.6159,0.1752,-0.7733,1.2912
4234,-0.8769,0.9566,0.6198,0.3278,0.4481,-1.2584
4246,-0.8752,0.9617,0.6142,-0.0691,0.4787,-0.9988
4258,-0.8713,0.9553,0.6188,-0.1302,-0.4526,0.0393
4270,-0.8754,0.9558,0.6159,0.4042,-0.59,1.8103
4283,-0.872,0.9587,0.6225,1.0149,-0.2694,2.4515
4295,-0.87,0.9649,0.6198,0.45,0.6619,1.8867
4336,-0.8722,0.9607,0.6129,0.4042,0.6313,1.505
4349,-0.8722,0.9661,0.6176,0.221,-0.2847,0.7264
4361,-0.8742,0.9631,0.6149,0.221,-0.4832,1.0012
4372,-0.8744,0.9609,0.6215,0.4653,-0.2389,1.9477
4384,-0.8791,0.9639,0.623,-0.5576,-0.3,1.7035
4397,-0.8691,0.967,0.6173,-0.5729,0.2344,0.5737
4438,-0.8718,0.9617,0.6173,1.2591,0.1886,-0.7393
4450,-0.8737,0.96,0.6254,1.5798,0.2191,-0.8004
4463,-0.8757,0.9612,0.621,2.3584,0.7229,-1.35
4475,-0.8781,0.9639,0.6225,1.9004,0.0206,-2.3424
