time_ms,ax,ay,az,gx,gy,gz
42,-0.8366,1.0881,0.622,8.2362,0.4634,6.7264
55,-0.8383,1.1043,0.611,10.1752,1.3031,7.566
67,-0.8429,1.1101,0.6147,11.8393,2.555,5.9935
78,-0.8429,1.1082,0.6254,10.053,3.3031,3.0622
121,-0.8381,1.1023,0.6051,1.6408,-0.6206,1.963
133,-0.8327,1.1011,0.6144,3.1217,-1.6893,4.2378
144,-0.8373,1.1067,0.6073,3.2897,-2.5595,5.566
156,-0.8349,1.114,0.6169,3.1217,-2.0252,5.4744
168,-0.832,1.1101,0.6217,-1.9012,-1.8572,1.9172
180,-0.8368,1.1104,0.6176,-2.5118,-0.4832,0.4821
223,-0.8356,1.1047,0.6144,-4.4508,0.3718,0.1462
235,-0.8337,1.0989,0.6137,-6.1149,-0.529,0.0546
246,-0.8329,1.0916,0.6108,-2.6951,-1.1397,1.6118
258,-0.8334,1.1072,0.6064,-0.6035,-0.4526,2.9248
271,-0.8368,1.1052,0.6139,0.7248,0.2802,1.6576
283,-0.8378,1.1089,0.6112,-1.8248,0.4634,0.0699
325,-0.8332,1.1079,0.6142,-0.6187,-0.9259,1.0622
337,-0.8315,1.1069,0.6193,-0.237,-0.5137,1.1386
348,-0.8327,1.1113,0.6217,-1.5958,0.7382,0.7264
360,-0.8346,1.1084,0.621,-2.0844,1.0283,0.5737
372,-0.8407,1.1113,0.6181,-2.2828,1.1657,0.5431
385,-0.8407,1.1111,0.6151,0.1446,1.0893,2.2683
426,-0.8339,1.114,0.6176,-0.6951,0.0359,1.1844
439,-0.8302,1.1162,0.6149,-4.0996,0.0512,-1.0294
451,-0.8373,1.1087,0.6134,-3.8096,-0.1778,-2.3882
463,-0.8324,1.106,0.6188,-4.5729,-0.4526,-2.4187
475,-0.8359,1.103,0.6173,-3.1836,-0.9565,-1.182
486,-0.8381,1.1096,0.6186,-3.0309,-0.9412,-1.1668
529,-0.8368,1.1016,0.6198,-3.2294,-0.9565,-0.5561
541,-0.8361,1.1025,0.6169,-2.2523,-0.8954,-0.2202
553,-0.8324,1.106,0.6198,-2.2065,-1.5213,-0.434
564,-0.8385,1.1074,0.6173,-3.2447,-1.7045,-2.1133
577,-0.8288,1.1118,0.6264,-5.1989,-1.7045,-3.1362
589,-0.8324,1.1055,0.6264,-5.321,-1.7045,-3.7775
631,-0.8354,1.0945,0.6308,-2.2676,-1.4145,-0.5408
643,-0.8361,1.0991,0.6261,-0.3592,-0.9107,1.0164
654,-0.8317,1.0996,0.6242,-0.0844,0.2802,2.5126
667,-0.8324,1.1033,0.6195,-0.5576,1.242,1.5202
679,-0.8344,1.1021,0.6222,-1.6874,0.8145,0.1309
690,-0.8371,1.1145,0.6208,-4.0996,0.9367,-1.121
732,-0.8351,1.1052,0.6234,0.6179,0.326,1.0317
745,-0.8302,1.1021,0.6252,1.4882,0.8603,0.4973
757,-0.8373,1.1038,0.6315,-1.0767,0.0206,-1.0141
769,-0.8322,1.1062,0.6261,-1.1378,0.1886,-1.2736
780,-0.8354,1.1004,0.6247,-0.7103,0.5703,-1.2126
792,-0.8288,1.1013,0.6252,-0.8477,0.3871,-0.0217
834,-0.8373,1.1016,0.6259,1.4729,0.6008,0.6958
847,-0.8354,1.1077,0.6225,0.5111,0.7382,-0.434
859,-0.8356,1.103,0.6264,-0.2218,0.4939,-0.6782
870,-0.831,1.0989,0.6252,-0.176,0.4787,-0.7698
882,-0.8378,1.1013,0.6242,-0.2065,0.0817,-0.1897
894,-0.8361,1.1004,0.6276,-0.9241,0.1886,0.2836
937,-0.8329,1.0989,0.6276,-0.4355,0.7077,0.2989
949,-0.8324,1.1025,0.6181,-0.6187,1.242,0.3141
960,-0.8317,1.1016,0.6181,0.7706,1.0741,0.5737
972,-0.8364,1.1052,0.6237,-0.466,0.8756,0.5279
985,-0.8356,1.1082,0.6308,-0.7409,0.8909,0.818
997,-0.8395,1.1004,0.6254,-1.0462,0.8145,0.9401
1039,-0.8395,1.1087,0.6256,-0.2676,0.7382,1.1233
1051,-0.8312,1.106,0.6217,-0.6493,0.5855,0.1615
1063,-0.8334,1.1025,0.6203,-0.6187,-0.1473,-0.3576
1075,-0.8346,1.1057,0.6215,-1.4279,-0.3916,-0.3882
1086,-0.8327,1.1023,0.6222,-1.0615,-0.3458,-0.434
1099,-0.8393,1.1023,0.6315,-1.3057,-0.5442,-0.2507
1141,-0.8364,1.1047,0.6208,-2.008,-0.5595,-0.9378
1153,-0.8332,1.0952,0.6276,-2.3592,-0.9107,-1.1515
1165,-0.8344,1.1025,0.6232,-2.9546,-1.3992,-0.4645
1176,-0.8364,1.103,0.6247,-2.8325,-0.9107,-0.7698
1188,-0.8351,1.1055,0.6274,-0.5729,0.2649,-0.266
1200,-0.8344,1.063,0.6513,4.7401,1.5168,1.6729
1243,-0.8342,1.094,0.6332,-13.3668,2.5855,-2.266
1255,-0.8315,1.0825,0.6618,-9.9317,-3.2465,-4.1744
1267,-0.7985,1.2214,0.234,-2.0538,-25.9183,-12.0065
1279,-0.8625,0.9583,0.9801,-10.5576,-21.2618,-9.9607
1291,-0.83,1.1475,0.4782,-13.4737,-25.3076,-13.3653
1303,-0.9604,0.6712,1.1545,-18.3439,-28.0557,-19.8843
1345,-0.8405,0.4568,1.8334,-33.3973,-43.5977,-44.9378
1357,-0.925,0.9099,1.017,-0.6187,-13.3687,-8.434
1369,-0.8498,1.0537,0.1264,-9.5195,-39.7962,-32.1133
1380,-0.8407,1.3648,0.4088,-5.3668,-4.2694,7.1691
1393,-0.8256,1.1216,0.5898,12.6027,-4.7733,8.3294
1404,-0.8261,1.1113,0.6667,5.7172,0.1275,7.2912
1446,-0.8361,1.0703,0.6696,6.3431,-2.1626,1.3828
1458,-0.8261,1.0618,0.6825,8.2362,0.2497,2.7264
1470,-0.8327,1.0613,0.6747,5.366,0.9977,2.9859
1483,-0.8288,1.0515,0.6713,5.4882,2.0054,4.2378
1495,-0.8332,1.0733,0.6698,5.5645,2.0206,3.337
1506,-0.8364,1.0649,0.6784,12.8317,3.0588,5.0775
1549,-0.8266,1.0669,0.6679,6.1141,2.2649,-1.3805
1560,-0.8473,1.0945,0.6886,-1.2294,-1.1855,-5.1362
1572,-0.8486,1.0923,0.7045,0.1446,-5.903,-7.2126
1585,-0.8417,0.9951,0.7362,3.0301,-8.5595,-6.4034
1597,-0.913,0.6472,1.289,-29.5653,-37.0481,-38.5714
1608,-0.841,1.0603,0.8048,7.0759,-9.4145,-5.6706
1651,-0.8427,1.1179,0.661,11.6561,1.9138,6.65
1663,-0.8329,1.0857,0.6635,-4.2523,0.5092,4.65
1674,-0.842,1.0564,0.7004,-8.0386,-5.8114,-0.3424
1687,-0.8559,1.0747,0.6244,-16.7867,-5.9641,-5.7469
1699,-0.863,1.0718,0.5876,7.6256,5.929,-0.6172
1711,-0.8451,1.0549,0.6632,-12.7561,12.6924,-5.0446
1752,-0.7963,0.9702,1.132,27.1217,22.2802,5.6118
1765,-0.8847,0.9487,1.016,12.9691,47.3031,16.8332
1777,-0.8002,1.4766,-0.3075,-8.466,70.0512,28.7111
1789,-0.8693,0.7024,1.5475,28.8164,23.6084,9.2149
1800,-0.8163,0.8086,1.1227,29.1217,47.8832,18.3599
1813,-0.7712,1.3745,-0.304,-37.7332,74.8298,18.2225
1854,-0.7636,1.3472,0.4836,-15.3973,49.868,11.1844
1867,-0.8515,1.4983,0.0883,-13.3668,8.6008,-10.5103
1879,-0.7897,0.9434,0.9516,5.5034,48.1428,11.5966
1891,-0.9411,0.8713,0.7924,24.4805,9.471,-4.8156
1903,-0.8249,1.478,-0.6353,-20.0233,48.7535,12.2073
1914,-0.9875,0.3147,2.1156,8.0072,29.1351,11.9935
1957,-0.8786,0.741,1.4086,-35.7485,15.0741,-15.8538
1969,-0.8334,1.1958,0.3468,-15.7027,4.097,-13.6095
1980,-0.8224,1.2959,0.1056,-31.1531,19.7458,-6.3118
1992,-0.872,1.052,0.664,-0.7256,6.6161,-4.9836
2005,-0.8561,0.9905,0.7675,-1.0157,-4.2236,-8.0217
2017,-0.8642,1.0798,0.5995,-0.008,-7.0481,-7.1973
2059,-0.8486,1.1011,0.558,1.0607,-5.9794,-13.0141
2071,-0.8586,1.0759,0.5585,2.221,-6.132,-10.5256
2083,-0.8566,1.0628,0.5614,-1.5347,-4.2847,-6.1439
2095,-0.851,1.0542,0.5497,-0.1607,-3.8267,-0.3424
2106,-0.8627,1.0628,0.5526,-0.8935,-2.59,2.65
2118,-0.8617,1.0708,0.5568,-0.9699,-1.0786,4.1462
2161,-0.8488,1.0996,0.5619,-18.6798,-1.2923,-5.9301
2172,-0.853,1.1033,0.57,-22.8325,-2.6206,-9.3958
2185,-0.8349,1.1011,0.5497,-28.2523,-2.6969,-11.9149
2197,-0.8217,1.1331,0.5841,-27.7485,-5.5519,-7.5179
2209,-0.8969,1.0278,0.5605,-35.1225,-3.5977,-16.9225
2221,-0.8381,1.1965,0.6654,-28.3134,-6.8038,-13.6248
2263,-0.7807,1.1682,0.6808,-5.3973,6.2191,7.5813
2275,-0.8918,1.0366,0.6859,-7.0309,-5.2007,6.6195
2286,-0.8906,1.0198,0.4753,-21.9775,-0.5595,-2.953
2299,-0.8903,0.9988,0.5495,-15.2447,-2.0862,-11.7622
2311,-0.7804,1.2358,0.6269,-0.634,-5.4755,10.1157
2323,-0.6935,1.3418,0.6647,4.2973,-5.0939,27.1691
2365,-0.788,1.1414,0.5861,-6.466,-1.6129,5.3065
2377,-0.7365,1.2996,0.7746,11.7019,-3.4297,9.276
2388,-0.852,1.0227,0.5785,-9.2294,-1.3381,-0.2202
2401,-0.9316,0.7991,0.4992,-11.6569,3.3489,-10.1744
2413,-0.8771,1.0086,0.5663,2.8469,3.3794,-2.3118
2425,-0.8627,0.9976,0.5756,5.9767,0.9825,5.7951
2466,-0.861,1.0349,0.5666,21.6256,0.4481,1.6882
2479,-0.8708,1.0349,0.5685,25.6561,1.7,-1.6401
2491,-0.8844,1.0171,0.5439,29.595,2.9825,-1.9149
2502,-0.8942,0.9866,0.5197,31.1065,2.9672,-5.2736
2515,-0.8447,1.1516,0.6298,44.679,1.0741,-2.5714
2528,-0.9328,0.8433,0.4062,13.0912,2.8603,-28.5714
2569,-0.7743,1.1004,0.914,36.7553,-1.1091,-12.5561
2582,-0.8093,1.5711,1.0741,77.8851,-13.7351,-14.3729
2594,-0.776,1.3425,0.3957,15.1828,-8.8343,-29.7317
2606,-0.8559,1.1294,0.7721,49.5492,3.0283,-32.0065
2618,-0.8298,1.3879,0.4943,73.7477,-3.4297,-5.3653
2629,-0.8476,0.9732,0.6581,5.2591,3.0741,-11.4721
2672,-0.9123,0.9246,0.5321,1.6561,1.5016,-9.3805
2684,-0.7966,1.2024,0.5819,18.8164,2.2191,3.7035
2695,-0.8744,1.0571,0.5426,6.908,2.2344,0.818
2707,-0.863,1.0984,0.5546,7.2439,3.1657,-3.7469
2720,-0.8556,1.0715,0.5395,6.5569,1.9138,2.65
2732,-0.8766,1.0415,0.539,8.2362,1.1046,6.5584
2773,-0.8752,1.0344,0.5353,-1.0462,2.4329,2.2989
2786,-0.881,1.0239,0.5453,-0.0691,0.6313,2.9248
2798,-0.8727,1.0369,0.5295,2.4958,0.9672,6.3141
2809,-0.8759,1.0476,0.529,3.6256,0.555,7.7798
2822,-0.8686,1.0579,0.5312,1.9156,0.1733,5.8256
2835,-0.8742,1.064,0.5368,-1.3363,0.8603,1.7187
2876,-0.8686,1.0474,0.5297,1.3813,-0.4526,2.192
2888,-0.8661,1.0549,0.5353,2.0988,-1.4755,3.108
2901,-0.8688,1.0603,0.538,2.8927,-0.8801,0.5737
2912,-0.8644,1.0559,0.539,1.5034,-0.1015,-1.35
2924,-0.8656,1.0498,0.5395,0.6332,-0.0404,-2.434
2937,-0.8698,1.0447,0.5404,5.9309,0.6771,-1.121
2979,-0.8696,1.0593,0.5277,-0.466,1.9901,-1.0599
2991,-0.8744,1.0554,0.5277,-1.55,2.0664,-2.9225
3003,-0.8698,1.0459,0.5297,-1.9164,1.8527,-3.0141
3015,-0.8752,1.0515,0.5268,-1.9012,1.9596,-2.6782
3027,-0.8739,1.0427,0.526,-1.3973,0.4481,-2.1897
3040,-0.8757,1.0449,0.5309,0.9691,0.0817,-0.037
3082,-0.8691,1.051,0.5292,4.9538,-0.1015,1.2302
3094,-0.8683,1.0537,0.5292,1.763,1.2573,-0.3271
3106,-0.8735,1.0481,0.5265,1.4576,1.7458,0.1615
3117,-0.8713,1.0462,0.5246,3.2897,2.0359,1.5508
3129,-0.8669,1.0586,0.519,3.1065,-0.1015,1.337
3142,-0.8715,1.0584,0.5253,3.1065,-0.4221,0.4515
3183,-0.8683,1.0486,0.5236,-0.176,0.9367,-0.6019
3195,-0.8713,1.0442,0.5255,1.6714,1.0893,1.6729
3207,-0.8696,1.0523,0.5275,2.2668,1.2267,2.2683
3220,-0.8744,1.0642,0.5199,0.9385,1.3489,1.0012
3232,-0.8715,1.0693,0.5187,1.4576,0.6771,-0.0675
3243,-0.8708,1.0527,0.5226,-1.2905,0.2649,-2.953
3286,-0.8722,1.0493,0.5212,1.5492,2.0359,0.7874
3297,-0.8781,1.0571,0.5277,2.4653,2.2955,1.276
3309,-0.8656,1.0505,0.5185,2.0683,2.0054,0.2683
3322,-0.8737,1.0449,0.5255,1.2744,1.1657,0.3447
3335,-0.8722,1.0591,0.519,0.4805,1.4863,0.879
3346,-0.8718,1.0508,0.5221,1.0912,1.6695,2.4973
3389,-0.8691,1.0623,0.5238,-2.0386,0.4939,-6.6019
3401,-0.8669,1.0357,0.5216,1.1675,-0.361,-7.8843
3412,-0.8852,1.0557,0.5292,-5.2905,-2.529,-8.9072
3425,-0.8725,1.0574,0.5126,-5.0157,-1.9336,-7.5943
3437,-0.8722,1.0396,0.518,-1.5195,-2.4526,-6.8767
3449,-0.8273,1.0122,0.5004,6.4195,-1.9488,-6.037
3491,-0.8669,1.0481,0.5212,2.7859,-10.9107,1.4134
3503,-0.8764,1.0496,0.5282,-0.5576,-10.2084,-1.6095
3515,-0.8737,1.0393,0.527,-1.4737,-10.9565,-4.6477
3527,-0.884,1.054,0.537,-4.3897,-11.2923,-7.9759
3539,-0.8735,1.0413,0.5326,-7.9164,-10.529,-8.3882
3551,-0.8737,1.041,0.5356,-12.2676,-9.9183,-9.1362
3593,-0.8698,1.0298,0.5475,-6.5271,-4.8038,7.9935
3605,-0.8752,1.0396,0.5504,-6.008,-3.8878,8.5279
3616,-0.8691,1.0503,0.5529,-6.4202,-2.9259,5.1538
3628,-0.8671,1.0593,0.5544,-8.0386,-2.4526,-0.892
3641,-0.8627,1.0513,0.5448,-12.4355,-4.071,-7.1668
3653,-0.871,1.0413,0.5512,-8.237,-4.9107,-6.8309
3695,-0.8722,1.0227,0.5553,-2.9851,-10.6358,2.8943
3707,-0.8742,1.0398,0.5636,-0.7103,-10.3152,4.421
3719,-0.873,1.043,0.5683,-3.4279,-8.6511,1.1996
3731,-0.8732,1.0413,0.5653,-5.4889,-6.6664,-1.9912
3742,-0.8705,1.0315,0.5697,-6.7256,-4.7274,-2.724
3755,-0.8664,1.0217,0.5651,-3.4431,-4.3763,0.3294
3797,-0.8739,1.0588,0.5683,-4.9393,-5.3992,2.3447
3809,-0.8696,1.0432,0.5722,-5.1378,-4.6358,-0.724
3821,-0.8666,1.0354,0.5732,-3.1378,-3.5519,-1.8233
3833,-0.8652,1.0347,0.5827,-3.092,-3.1091,-3.0904
3845,-0.8613,1.0261,0.5707,-2.6187,-3.3839,-3.4111
3857,-0.8644,1.044,0.5766,-4.4508,-3.0786,-3.7317
3898,-0.8671,1.0339,0.5807,1.1065,-1.7962,4.2073
3910,-0.8642,1.0415,0.5827,0.7248,-0.59,3.963
3923,-0.8637,1.0415,0.5775,-0.6951,-0.1778,1.6424
3935,-0.8661,1.0371,0.5807,-2.4202,-0.5442,0.5889
3947,-0.8637,1.0361,0.58,-1.7332,-0.7885,0.2225
3958,-0.8654,1.0295,0.5797,-2.0233,-1.3381,0.879
4001,-0.8652,1.0383,0.5797,0.8622,0.5703,1.7798
4012,-0.8686,1.0361,0.5746,-0.405,0.8603,0.0088
4025,-0.8691,1.0315,0.5778,0.1599,0.2344,0.0088
4037,-0.863,1.0383,0.5778,-1.5958,-0.3305,-0.0065
4049,-0.8652,1.0369,0.5719,1.1065,-0.4374,2.1309
4060,-0.8678,1.0332,0.5832,1.2439,-0.7733,2.2073
4103,-0.8696,1.043,0.5861,0.5874,-0.0557,1.4744
4115,-0.8642,1.044,0.5817,-1.5958,-0.7427,0.4821
4127,-0.8613,1.043,0.5756,-1.7485,-0.4679,-0.3576
4138,-0.8639,1.0437,0.588,-2.6645,-0.9565,-0.9072
4151,-0.8674,1.041,0.5815,-2.8935,-1.1397,-1.2278
4163,-0.8637,1.0386,0.5854,-2.7256,-1.2771,-1.3347
4204,-0.8627,1.0303,0.5839,-1.092,-1.2618,-2.3271
4217,-0.8664,1.0254,0.5788,0.1141,-0.59,-0.3271
4229,-0.8666,1.0286,0.5844,-0.0844,0.6619,0.6805
4241,-0.8669,1.0266,0.5783,-0.0996,0.7687,1.7035
4252,-0.8632,1.0359,0.5756,0.2362,0.9214,2.4973
4265,-0.8678,1.0359,0.5802,-1.4431,0.3565,0.8332
4307,-0.8686,1.0379,0.589,-2.0844,0.1122,-0.724
4319,-0.8642,1.0403,0.579,-1.7027,0.2344,0.0851
4331,-0.863,1.032,0.5871,-2.2065,-0.361,1.0775
4343,-0.862,1.0335,0.5893,-0.5271,-0.1931,2.65
4354,-0.8625,1.0383,0.5785,-0.4508,0.3413,2.5584
4367,-0.863,1.0437,0.589,-0.2676,0.5703,2.1157
4408,-0.8661,1.0361,0.5885,-1.6569,-0.0099,-1.5332
4421,-0.8649,1.0361,0.5822,-1.3057,-0.2084,-1.7927
4433,-0.8683,1.0322,0.5849,-1.779,-0.7427,-1.7164
4445,-0.8688,1.0305,0.5812,-1.3668,-1.3687,-1.5179
4458,-0.8595,1.0303,0.5827,-1.0004,-0.7427,-1.0294
4469,-0.8718,1.0295,0.5815,-0.3897,-0.8038,-0.892
4512,-0.8656,1.0281,0.5893,-0.8172,0.1733,-2.4034
4523,-0.8632,1.0327,0.5902,-0.7561,-0.2084,-1.2431
4536,-0.8688,1.0315,0.5866,-0.2828,-0.0557,-0.0217
4548,-0.8583,1.0337,0.5832,-0.3134,-0.4679,0.4973
4560,-0.8661,1.0352,0.5866,-0.5118,-0.4984,-0.0675
