time_ms,ax,ay,az,gx,gy,gz
10,-0.8771,0.9492,0.621,0.4347,0.4787,-0.7851
22,-0.8766,0.9524,0.6183,0.3736,-0.0252,-0.2507
34,-0.8737,0.9497,0.62,1.0454,0.2344,0.9554
46,-0.8779,0.9551,0.6108,0.2362,0.3871,1.2454
88,-0.8774,0.9529,0.6215,0.2362,0.3565,-0.9988
100,-0.8766,0.9526,0.6181,0.0836,-0.3305,-0.9225
113,-0.8781,0.9478,0.6181,-0.5271,-1.0175,-0.2355
125,-0.8761,0.9526,0.6164,-1.1225,-1.1397,-0.7393
136,-0.8725,0.9541,0.6169,-1.0615,-0.4679,-0.7546
148,-0.8766,0.9531,0.62,-0.7103,-0.0557,-0.4798
190,-0.8776,0.9507,0.611,0.8622,0.6466,0.8332
202,-0.8805,0.9522,0.6173,1.0607,0.8451,0.3141
214,-0.8742,0.9478,0.6171,0.8622,0.9061,0.6347
226,-0.8757,0.9531,0.6134,1.1828,0.784,0.3141
238,-0.8788,0.9529,0.6132,0.4653,-0.4374,1.1691
250,-0.8862,0.9519,0.6186,-1.7027,-1.1397,1.9325
292,-0.9909,0.9763,0.6769,-12.4813,-18.6664,4.8332
304,-1.1088,1.0718,0.7956,-21.7485,-31.0175,1.108
317,-1.1152,1.1358,0.9276,-38.8477,-72.9259,21.0012
329,-1.3635,1.1209,1.213,-26.405,-116.773,36.1615
340,-0.9614,0.9566,1.0649,-10.3134,-152.788,63.0775
352,-0.3844,0.3962,0.4953,37.7324,-129.949,60.8943
395,-0.3515,1.0991,0.3693,-16.2218,66.8145,-11.2126
406,-0.83,1.0056,0.6913,-33.3973,88.2955,-30.9378
418,-1.1938,1.1406,0.7843,-47.779,80.9061,-38.1133
431,-1.1889,0.8003,0.7692,-42.5729,61.5779,-39.6248
443,-1.3232,0.8999,0.7013,-10.3439,27.1657,-16.9988
454,-1.0192,0.8748,0.6867,13.9156,21.7153,9.6576
497,-0.9504,0.8982,0.6847,-13.947,-6.0099,-35.8691
509,-0.8337,0.7759,0.5985,-20.0996,-23.3992,-62.5103
521,-0.7345,0.2356,1.0041,-27.3973,-37.4145,-84.724
532,-0.4133,1.4268,1.163,6.7248,-31.5671,-31.1057
544,-0.4181,1.5195,1.0656,100.465,-35.2313,-23.9912
557,-1.2421,0.406,0.7101,29.1217,-60.361,-62.3576
598,-0.8608,1.0274,0.5597,-32.6187,5.1809,-17.9759
611,-1.0597,0.9883,0.7179,-55.7485,-12.6969,-39.2431
624,-0.8959,0.9055,0.59,-55.2294,-15.8267,-36.8309
635,-0.9574,0.832,0.3627,-35.7332,9.0435,-10.9836
647,-0.8342,0.9512,1.1181,-0.4202,32.0817,9.1996
659,-0.8237,0.6311,0.8522,10.8775,33.5932,11.5508
702,-0.7953,1.0391,1.3161,-36.4355,30.3718,7.1538
714,-0.8664,1.5642,-0.4864,-5.0309,56.8451,38.6347
725,-0.8573,0.6834,1.2104,-3.2294,-3.1091,4.5889
737,-0.8989,0.9316,1.0175,-15.8706,33.6084,31.1844
750,-0.8134,0.8975,1.2016,-10.008,25.4863,15.047
762,-0.9008,1.0806,0.091,2.5416,22.7382,14.5279
803,-0.8039,1.0264,0.55,-36.176,13.2725,9.7035
816,-0.8759,0.8936,0.8346,-34.8477,-6.3152,-8.0523
827,-0.81,1.0703,0.6603,-41.5347,5.242,24.6195
839,-0.8805,0.8777,0.7406,-49.0767,1.929,23.3218
851,-0.884,0.8865,0.5844,-17.0767,6.4481,32.818
864,-0.9448,0.5718,0.7358,-43.6722,-0.3305,23.566
905,-0.863,0.8921,0.6549,7.992,5.471,9.0622
917,-0.8786,0.8982,0.6488,22.9691,7.5168,13.8714
929,-0.8866,0.8945,0.6393,28.908,11.5168,10.1615
941,-0.9418,0.7337,0.5695,20.6179,15.7153,-2.495
953,-0.8752,0.7727,0.7367,71.8088,10.326,-13.5637
965,-0.8385,0.9109,0.7287,83.5034,3.3184,-31.0599
1007,-0.6799,1.3367,0.694,29.9462,3.7916,-24.1591
1019,-0.7216,1.2168,0.7157,35.1828,6.2038,4.4057
1031,-0.8598,1.041,0.6535,-1.0767,4.9825,-4.7698
1044,-0.8749,0.9653,0.6364,-3.9164,4.9825,-5.8691
1055,-0.8781,0.9251,0.6308,-1.2141,4.6008,0.1004
1067,-0.8813,0.936,0.631,5.0912,5.3642,4.2378
1110,-0.8786,0.9573,0.6166,4.0836,1.2267,-0.9225
1121,-0.8774,0.9404,0.6264,0.221,0.9214,0.2531
1133,-0.8849,0.9417,0.6186,-2.7561,-0.0862,0.3905
1145,-0.8759,0.9475,0.621,-1.3515,1.868,0.6195
1158,-0.8739,0.9246,0.6149,-0.0233,2.2802,-0.2813
1169,-0.8835,0.9343,0.6173,-4.1149,0.2497,-2.7698
1212,-0.8722,0.9419,0.6181,-0.4813,-0.9717,1.3676
1223,-0.8805,0.9453,0.6247,-1.5042,0.0359,1.1691
1235,-0.8735,0.9397,0.6217,-0.5118,0.6924,1.734
1247,-0.8752,0.939,0.6169,2.3431,1.0435,3.2149
1259,-0.8693,0.9446,0.62,4.4805,1.2115,4.1767
1271,-0.884,0.9546,0.6129,4.4195,1.0893,3.0622
1314,-0.871,0.9353,0.6181,0.7706,-0.8191,-0.9683
1326,-0.8744,0.9544,0.6225,-0.0538,0.2497,-1.0294
1337,-0.8737,0.9358,0.6247,-1.6569,1.639,0.5126
1349,-0.8769,0.9363,0.6283,-1.0462,2.9367,3.2607
1361,-0.8754,0.9478,0.6122,-0.9088,3.2115,4.4821
1374,-0.8791,0.9397,0.6159,0.1752,2.9214,4.5889
1415,-0.8881,0.9551,0.6208,-4.5118,1.2726,-10.5561
1428,-0.8732,0.9429,0.6161,-1.4431,2.2802,-12.7088
1439,-0.8761,0.9263,0.6166,-7.1836,1.9901,-12.5714
1451,-0.8862,0.9529,0.6173,-2.3744,2.1122,-8.3576
1463,-0.8747,0.9207,0.6132,-2.2676,2.4329,-2.7393
1476,-0.8818,0.9363,0.6115,-0.2828,1.929,2.3905
1517,-0.8647,0.9204,0.5749,-4.1454,3.4863,-2.2813
1530,-0.9032,0.9605,0.601,-3.7638,3.9748,-1.4416
1542,-0.8757,0.9292,0.6073,-2.4813,1.41,-1.0446
1553,-0.8661,0.919,0.5956,-3.8096,1.1962,0.9706
1565,-0.9074,0.9541,0.6225,13.9309,2.6313,3.5966
1577,-0.871,0.9219,0.62,-0.8325,0.0512,0.421
1619,-0.8739,0.9304,0.6093,1.137,-2.6511,7.9783
1631,-0.8801,0.9602,0.6015,-1.2752,-2.4221,5.9477
1644,-0.8862,0.936,0.6046,-2.3439,-3.8878,-0.1286
1655,-0.8722,0.9771,0.5915,-7.1683,-6.8343,-7.0904
1667,-0.8898,0.9609,0.609,-15.1989,-10.0404,-15.8996
1680,-0.8739,0.9331,0.6142,-6.176,-10.6816,-11.7927
1721,-0.8827,0.9131,0.6308,-4.1912,-7.2923,1.9783
1733,-0.8588,0.9246,0.6313,-1.2447,-3.445,4.2683
1745,-0.8644,0.9192,0.6327,-1.1378,1.3794,4.0088
1758,-0.8693,0.9302,0.6371,-5.8706,3.3489,-2.0828
1769,-0.8732,0.9448,0.6239,-13.9317,3.9443,-7.2584
1781,-0.8866,0.9329,0.6193,-4.8783,4.9061,-4.9378
1824,-0.8708,0.9219,0.6225,-8.3134,-1.9183,6.2683
1835,-0.8796,0.9441,0.6244,-8.9393,-2.6969,1.2607
1847,-0.8783,0.9385,0.6271,-6.237,-1.6282,-1.8233
1860,-0.873,0.9177,0.63,-7.1225,0.5397,-1.5637
1872,-0.8808,0.9241,0.6359,-10.2981,1.1809,1.337
1883,-0.8798,0.9172,0.6305,-8.3592,1.7764,4.65
1926,-0.8866,0.9465,0.6249,-12.008,4.9061,5.963
1937,-0.8771,0.927,0.6195,-14.3286,4.4329,4.3447
1949,-0.8805,0.9338,0.6191,-11.7332,3.7306,3.9325
1961,-0.8837,0.9573,0.6134,-23.5805,-2.0099,-4.5408
1974,-0.8783,0.9409,0.6103,-17.092,-3.9488,-3.1057
1986,-0.872,0.9216,0.623,-23.2905,-7.0633,-5.3958
2027,-0.8798,0.9231,0.6361,-9.4737,-1.0175,-2.495
2040,-0.8801,0.9104,0.6396,-6.9241,0.3718,-0.2049
2051,-0.8737,0.9202,0.6349,-5.6874,0.4176,1.5355
2063,-0.8771,0.9148,0.6364,-7.6874,-0.5442,1.1996
2075,-0.8776,0.9255,0.6256,-4.1149,-0.8954,-0.1591
2088,-0.8791,0.9258,0.63,-5.9928,-1.2923,-3.2431
2129,-0.8769,0.9016,0.6425,-9.4431,-4.7274,-8.037
2142,-0.8705,0.8909,0.6405,-6.6951,-3.445,-4.2813
2154,-0.8754,0.9072,0.6376,-3.2905,-2.8954,-4.2049
2165,-0.8737,0.9024,0.6425,0.5263,-2.0557,-4.953
2177,-0.8735,0.9172,0.6339,-2.0538,-3.4755,-7.35
2190,-0.8823,0.9041,0.64,-5.1531,-4.8343,-7.9301
2231,-0.8742,0.8965,0.6457,5.2591,-2.9107,0.2225
2243,-0.8801,0.8901,0.6527,6.4195,-2.132,0.2378
2256,-0.8805,0.9021,0.6542,3.8393,-1.9946,-0.9072
2267,-0.8747,0.9036,0.6481,3.6866,-0.4526,-0.7546
2279,-0.8647,0.9133,0.6293,3.6866,-1.5519,-1.3958
2291,-0.8671,0.9004,0.6369,6.8469,-0.7274,0.9248
2333,-0.8759,0.9226,0.644,-1.5195,-1.7962,3.9477
2345,-0.8761,0.9431,0.643,2.6332,0.1275,3.7951
2357,-0.8656,0.9109,0.6459,8.053,1.4863,3.047
2370,-0.8744,0.9055,0.6313,3.2591,-0.3916,-0.5561
2381,-0.8747,0.9185,0.6474,1.1828,-0.4221,-0.434
2393,-0.8737,0.9133,0.6437,3.9309,-0.132,1.5813
2436,-0.8708,0.9031,0.6542,3.4424,-0.4526,1.5813
2447,-0.8771,0.9085,0.6449,0.1599,-0.6511,0.2989
2459,-0.8801,0.9048,0.6525,1.3049,-1.0481,1.6882
2471,-0.8774,0.9131,0.6481,0.7859,-0.987,2.1309
2484,-0.8749,0.9185,0.6515,4.1599,-0.2542,3.0775
2495,-0.8788,0.9175,0.6503,2.7095,-0.0862,0.9096
2537,-0.8691,0.9199,0.6471,2.5416,-0.0557,1.6271
2550,-0.8605,0.9187,0.6437,2.9385,0.7077,1.9019
2561,-0.8781,0.918,0.6444,5.1828,1.6848,0.7874
2573,-0.8739,0.9163,0.6486,3.9767,1.7,-0.0217
2585,-0.8681,0.9033,0.6386,4.45,0.0817,0.4057
2597,-0.8718,0.9158,0.642,2.0836,0.2955,1.2454
2639,-0.871,0.9226,0.6354,3.534,0.6008,-1.0446
2651,-0.8703,0.919,0.6352,2.4958,0.6313,-1.6095
2664,-0.8801,0.9343,0.644,0.1141,-0.4068,-1.6706
2677,-0.8761,0.9185,0.644,1.3813,-0.4832,-0.0828
2688,-0.8783,0.9158,0.6444,3.0149,0.1886,0.2378
2700,-0.8766,0.9092,0.6418,2.6943,-0.1778,0.4515
2742,-0.8742,0.9165,0.6425,5.4729,1.8374,1.7798
2754,-0.8761,0.9194,0.641,6.5111,2.0512,2.8943
2766,-0.8718,0.9212,0.6405,4.8927,1.5321,1.7951
2778,-0.8752,0.9277,0.6325,4.0683,0.7229,0.2073
2790,-0.8766,0.9233,0.6391,2.221,-0.2694,-0.5866
2803,-0.87,0.9085,0.6437,0.2362,-0.3305,-0.5103
2844,-0.8708,0.9358,0.6498,1.4271,0.6619,0.4057
2856,-0.8735,0.9221,0.6366,2.5263,1.0588,1.1386
2868,-0.8713,0.9219,0.6444,2.4042,1.3794,1.6576
2880,-0.8686,0.9202,0.6437,2.1752,1.013,1.4286
2892,-0.871,0.927,0.641,1.9004,1.1809,0.2836
2904,-0.8671,0.9275,0.6369,1.4576,-0.0862,-0.3271
2946,-0.8732,0.9072,0.6613,1.366,-1.0023,0.6042
2958,-0.8722,0.9312,0.6427,-4.5729,-0.2389,-0.4034
2970,-0.8722,0.9412,0.6317,2.5569,0.8603,0.5889
2982,-0.8735,0.9253,0.6376,3.3049,1.1046,-0.2813
2994,-0.872,0.9236,0.6227,5.1065,0.7382,0.1309
3006,-0.873,0.9163,0.6415,5.0607,1.0893,1.9477
3048,-0.8664,0.9114,0.643,1.3202,0.9825,2.3752
3061,-0.8725,0.9277,0.64,0.053,-0.4526,1.2149
3073,-0.8769,0.9258,0.6398,0.7553,-0.361,0.7111
3085,-0.8742,0.9302,0.6398,1.2591,-0.2389,0.0699
3097,-0.8713,0.9285,0.643,0.5111,-0.132,-0.6935
3109,-0.8771,0.928,0.643,0.3278,-0.1473,-0.9683
3151,-0.8766,0.9251,0.641,2.8011,1.1504,1.4592
3163,-0.8766,0.9348,0.6325,1.3813,0.9214,0.3905
3175,-0.8737,0.9287,0.6344,0.6637,0.2497,0.5279
3187,-0.8737,0.9343,0.6388,0.6179,-0.1473,0.3141
3199,-0.8727,0.9302,0.6405,1.0149,-0.4374,0.3752
3211,-0.8739,0.9273,0.6413,2.0988,-0.1168,0.7569
3254,-0.871,0.9275,0.6405,-0.1302,0.2038,-0.4492
3265,-0.8759,0.9336,0.6388,0.9538,0.6466,0.9859
3277,-0.873,0.928,0.6398,0.8622,0.2191,0.6805
3289,-0.8735,0.9314,0.6425,-0.3134,-0.5748,0.2683
3301,-0.8747,0.9299,0.6415,0.9843,0.0054,0.4668
3313,-0.8742,0.9295,0.644,0.5721,0.0817,-0.0675
3355,-0.8732,0.9268,0.6386,0.679,-0.2542,0.8638
3368,-0.8698,0.9295,0.6383,1.3965,-0.1778,1.734
3379,-0.87,0.9312,0.643,1.3355,0.7993,0.9706
3391,-0.87,0.936,0.6386,0.9996,0.8451,-0.1286
3403,-0.8747,0.9312,0.6474,0.2515,0.6771,-0.6172
3416,-0.8696,0.9312,0.6396,1.0149,-0.0862,0.3447
3457,-0.8761,0.9255,0.6396,0.0836,0.0817,0.7416
3469,-0.8754,0.9326,0.6359,0.3736,0.1122,0.9096
3481,-0.8744,0.9329,0.6398,0.908,0.6619,0.7722
3493,-0.8727,0.9341,0.6442,0.1904,0.4481,1.0928
3505,-0.8737,0.9346,0.6405,0.2515,0.4176,0.2836
3518,-0.8757,0.9309,0.6396,-0.2218,-0.2847,-0.3729
3559,-0.8705,0.9314,0.6396,-0.2828,-0.2847,0.5279
3571,-0.871,0.9343,0.6357,-0.0386,0.5245,0.7722
3583,-0.8757,0.9429,0.6474,-0.466,0.5703,0.4821
3596,-0.8781,0.9268,0.6369,1.2591,1.1809,0.3294
3607,-0.8708,0.9314,0.6352,2.3736,1.7153,1.2302
3619,-0.8739,0.9365,0.6386,0.2057,0.6771,1.0012
3661,-0.8713,0.9353,0.6369,-0.1912,-0.5595,-0.266
3674,-0.873,0.9375,0.6444,-1.1225,-0.132,-1.7011
3686,-0.8727,0.9295,0.6454,-2.0996,-0.4832,-1.6859
3697,-0.8766,0.9246,0.6427,-1.5958,-0.9107,0.4668
3709,-0.8722,0.9382,0.6444,-1.0615,-0.987,0.9554
