time_ms,ax,ay,az,gx,gy,gz
12,-0.7383,-0.0652,0.5154,0.8037,0.1937,1.4894
25,-0.7417,-0.0518,0.5232,-0.036,-0.0964,0.9245
39,-0.74,-0.0562,0.521,-0.5398,-0.3559,-0.5259
52,-0.7346,-0.0576,0.5154,-3.12,0.3922,-1.8083
91,-0.7336,-0.0571,0.5186,-0.6773,-0.0659,0.1306
105,-0.7363,-0.0606,0.512,2.3914,-0.0201,1.4283
118,-0.7395,-0.0601,0.513,0.5747,0.0257,0.955
131,-0.7383,-0.0571,0.5135,-0.204,-0.0353,0.1611
144,-0.7383,-0.0552,0.5132,-0.5551,0.0868,-0.816
156,-0.7375,-0.0652,0.5171,-0.1734,0.3311,-0.8465
197,-0.739,-0.0579,0.5152,1.1243,-0.0964,0.3901
210,-0.7373,-0.0647,0.5118,2.3151,-0.2185,1.7795
223,-0.738,-0.0559,0.5152,1.1243,-0.0353,1.3825
236,-0.739,-0.0581,0.5176,0.6205,0.3311,0.5428
249,-0.741,-0.0528,0.5137,-0.9215,0.2242,-0.5259
262,-0.7385,-0.0559,0.514,-1.2116,0.2089,-0.7702
302,-0.7556,-0.0696,0.5196,7.6739,-0.7224,5.1688
315,-0.741,-0.0496,0.524,1.9029,-0.6613,7.0466
328,-0.7129,-0.1526,0.5498,10.88,-0.9361,10.0237
341,-0.738,-0.0401,0.5118,13.1395,-0.1575,13.3214
354,-0.7974,-0.1255,0.6958,23.338,-7.8521,7.0314
367,-0.9031,-0.1785,0.532,-7.9444,-21.9285,-6.1289
407,-0.5879,-0.2136,0.5469,33.8571,-62.5086,-24.5259
420,-0.4502,0.0241,0.4363,-30.5857,-54.1117,-30.419
433,-0.5183,0.0085,0.4471,-33.6086,-41.104,-33.0297
446,-0.6025,0.0166,0.4627,-38.2498,-28.5544,-29.1518
460,-0.7141,-0.064,0.4673,-66.7689,-23.5926,-23.5488
472,-0.6931,-0.044,0.5838,-52.3719,-19.8979,-15.9763
512,-0.708,-0.065,0.5208,0.422,-0.7376,0.5733
525,-0.7173,0.0078,0.6133,1.1243,-0.2796,1.9627
538,-0.6665,-0.0745,0.6592,-27.9902,1.5983,-6.3732
551,-0.7327,0.0383,0.5599,5.109,3.1708,1.8863
564,-0.6362,-0.0484,0.5276,-17.2574,6.6822,12.726
577,-0.6431,-0.0821,0.5039,-12.4635,10.9418,10.1153
617,-0.7131,-0.1009,0.5281,9.5823,13.7967,0.9398
630,-0.6169,0.0146,0.4761,6.6663,22.6975,8.726
643,-0.533,-0.0493,0.4651,-0.5704,31.7204,12.5581
656,-0.5139,-0.0132,0.4585,4.4067,37.7509,16.0085
669,-1.2305,-0.1023,1.3108,-22.9673,21.4303,15.3672
682,-0.8586,-0.2798,0.5171,43.506,4.8349,11.581
722,-0.7822,-0.1685,0.4253,-18.8299,-8.2949,-15.8999
735,-0.4941,-0.2459,0.6524,-21.4101,-11.5926,-18.5106
749,-0.8594,-0.0779,0.3543,-16.6467,-5.6536,-16.2816
761,-0.8511,-0.0491,0.3382,-3.3643,-11.2567,-13.4267
774,-0.6536,-0.2666,0.6224,7.1548,-12.6307,-10.419
787,-0.6172,-0.315,0.6253,36.7121,-14.2643,-4.6786
827,-0.854,-0.0408,0.481,7.1395,-3.3788,-10.5564
839,-0.7476,-0.166,0.5667,15.796,-1.333,-6.7702
853,-0.6311,-0.1336,0.6717,-6.2498,-2.9056,-10.8923
866,-0.854,0.0495,0.3191,-18.6315,-9.9895,-17.0908
879,-0.7256,-0.0684,0.5699,20.7884,1.9952,3.7336
892,-0.6582,-0.1521,0.553,-3.8528,-5.6231,-8.4343
932,-0.7114,-0.1111,0.5552,-3.3185,-0.6155,-1.9305
945,-0.7046,-0.1128,0.5567,-15.6849,-2.2796,-4.1289
958,-0.7085,-0.1355,0.564,-10.9521,-3.5926,-1.8541
970,-0.7329,-0.1504,0.5147,-5.2574,1.6288,0.268
984,-0.7129,-0.1446,0.5826,-10.7231,5.8883,-1.6709
997,-0.7668,-0.1175,0.471,0.9411,16.27,3.2756
1037,-0.6707,-0.0088,0.7913,71.2922,21.812,18.9703
1050,-0.5569,-0.1319,0.8616,40.8342,20.6975,18.0085
1063,-0.4165,-0.0735,1.8968,38.422,27.9647,16.955
1076,-0.6038,-0.0186,0.7615,-13.4101,20.4074,8.5428
1089,-0.7559,-0.1585,0.8182,-3.8681,25.4456,16.7871
1102,-0.6008,0.136,1.3479,49.1243,19.3235,24.0848
1142,-0.8,-0.0393,0.1165,17.8418,19.8273,18.5428
1154,-0.6831,-0.1121,0.501,16.6968,13.5677,9.0466
1168,-0.7346,-0.0767,0.3619,21.8266,17.0639,10.039
1181,-0.6094,-0.0369,0.8313,-14.4024,4.1021,1.9779
1194,-0.6357,-0.0755,0.7024,-9.6544,2.9112,-0.2664
1207,-0.7068,-0.0496,0.5772,-4.5398,1.7662,0.9703
1246,-0.7429,-0.0796,0.5337,13.5823,-3.3788,9.642
1260,-0.7456,-0.0628,0.5325,18.0861,-6.0506,14.0085
1273,-0.7629,-0.0503,0.5393,37.0021,-7.6995,18.4207
1286,-0.7373,0.0093,0.5086,28.9716,-6.5544,15.3214
1299,-0.8806,0.1045,0.3387,17.9182,7.3235,16.4665
1312,-0.73,0.2419,0.4622,46.2235,15.3082,42.8482
1352,-0.6948,0.0227,0.5008,-3.8223,-10.5391,8.2833
1365,-0.6482,-0.0449,0.4729,-16.6315,-4.2949,3.2298
1378,-0.6479,0.1401,0.3772,-6.4635,1.0028,15.5046
1391,-0.6069,-0.0821,0.4341,-14.3566,8.6822,6.8482
1404,-0.6951,-0.0349,0.4978,-13.9139,11.0792,-0.1442
1417,-0.7786,-0.0176,0.575,-16.2345,9.5219,0.1306
1457,-0.7065,0.0122,0.4725,-9.5169,9.2624,-0.0068
1470,-0.803,-0.0786,0.5308,-19.1811,-2.5849,-1.2435
1483,-0.7476,-0.1128,0.5352,5.964,-0.5086,-3.7931
1495,-0.7153,-0.1104,0.5457,11.8113,-1.0124,0.2222
1509,-0.6836,-0.2693,0.5469,15.6434,-8.2185,-12.5412
1522,-0.8374,-0.083,0.4427,31.4907,1.3845,-15.8847
1562,-0.7222,0.2932,0.7735,39.8418,-5.2414,-29.5183
1575,-0.8415,0.2571,0.6104,124.529,-1.1498,-1.8236
1588,-0.7075,0.0056,0.3223,45.2006,-8.9361,-12.1289
1601,-0.8215,0.2099,0.6072,1.5212,-6.7529,-10.8923
1614,-0.7683,0.1262,0.5386,-5.8528,0.4685,-0.2205
1627,-0.7424,-0.0051,0.5308,-9.8223,1.2318,-8.6022
1667,-0.7353,-0.0706,0.5372,-19.6238,0.0563,-15.961
1680,-0.7263,-0.0894,0.5352,-1.8986,0.5754,-6.5412
1693,-0.7229,-0.096,0.5215,10.1777,0.7738,2.8329
1706,-0.7288,-0.0564,0.5284,17.8113,0.9723,7.9474
1718,-0.7356,-0.0279,0.5306,11.7197,0.8654,8.7413
1731,-0.7371,-0.0337,0.5313,1.3838,0.3464,5.581
1772,-0.7317,-0.0359,0.5342,-18.6162,-0.5544,-9.7778
1785,-0.7312,-0.083,0.5289,-21.2879,-0.4933,-11.0144
1798,-0.7363,-0.0928,0.5323,-0.5246,0.3922,-3.3656
1810,-0.7253,-0.0662,0.5342,11.7044,0.2853,3.4588
1824,-0.7314,-0.0471,0.5286,19.1243,0.2395,7.3062
1836,-0.7314,-0.0259,0.5313,8.4067,-0.2796,5.4283
1877,-0.7278,-0.0518,0.5276,-8.8452,-0.3254,-2.6328
1890,-0.7334,-0.0484,0.5289,-7.12,-0.814,-3.045
1903,-0.7336,-0.0498,0.5264,-5.8376,-0.8445,-3.3503
1916,-0.731,-0.0515,0.5325,-4.265,-0.7071,-3.5946
1929,-0.7268,-0.0647,0.5276,-2.9979,-0.0353,-2.9076
1942,-0.7322,-0.0633,0.5279,-1.4711,0.4074,-1.3198
1982,-0.7307,-0.0537,0.5291,0.1472,0.438,2.5886
1995,-0.7368,-0.0545,0.524,-1.4711,0.3769,1.4741
2008,-0.7361,-0.053,0.5328,1.4602,-0.1422,1.1382
2021,-0.7341,-0.0545,0.5325,3.2617,-0.2033,1.2909
2034,-0.7329,-0.0584,0.5274,4.7426,0.2242,1.352
2047,-0.7317,-0.0611,0.5369,5.8418,0.438,1.8253
2087,-0.7314,-0.0449,0.5286,-3.3185,-0.8903,-0.877
2100,-0.7305,-0.0567,0.5352,-6.7536,-1.043,-2.1747
2113,-0.7314,-0.0535,0.5318,1.1853,-0.0506,-1.0908
2126,-0.7278,-0.0584,0.531,4.6357,0.0715,-0.3274
2139,-0.7302,-0.0525,0.5291,3.9792,0.1173,-0.0068
2152,-0.7275,-0.0432,0.5303,-1.0895,0.1784,-0.8618
2192,-0.7324,-0.053,0.5293,1.9029,-1.1804,4.039
2205,-0.7273,-0.0491,0.5271,-0.4635,-1.1498,4.2222
2218,-0.73,-0.0369,0.5259,6.651,-0.6002,3.8405
2231,-0.7307,-0.0366,0.5306,5.5823,-0.5086,1.5046
2243,-0.7297,-0.0442,0.5345,3.0479,-0.0201,-0.5564
2257,-0.7324,-0.0393,0.5381,-5.2879,-0.0506,-3.5183
2297,-0.7307,-0.0657,0.5328,-4.7841,0.0257,-2.4343
2310,-0.728,-0.0596,0.5323,-2.7994,0.0105,-0.6633
2322,-0.7332,-0.0603,0.5342,1.4907,0.4074,1.2146
2335,-0.7302,-0.0486,0.5298,2.3456,0.1631,1.9779
2349,-0.7334,-0.0437,0.534,5.5823,0.3005,1.4741
2362,-0.728,-0.0535,0.535,0.5594,0.2853,0.1306
2402,-0.729,-0.044,0.5293,-2.4788,0.2853,-1.2587
2414,-0.7307,-0.0545,0.5323,0.0098,-0.1727,-0.7091
2428,-0.7288,-0.0645,0.5284,4.2998,-0.2033,1.184
2441,-0.7317,-0.0547,0.5274,5.2922,-0.2491,3.1077
2454,-0.7278,-0.0449,0.5335,6.3914,0.3311,3.7336
2467,-0.7295,-0.042,0.5313,2.1166,-0.3254,3.1535
2507,-0.7319,-0.0423,0.5374,-0.036,0.7433,-0.1595
2520,-0.7297,-0.0391,0.5313,-3.3185,0.1326,-2.3427
2533,-0.7302,-0.0506,0.5298,-1.3185,-0.2949,-2.4038
2546,-0.7324,-0.0488,0.5345,-3.0131,-0.1117,-1.9457
2559,-0.7322,-0.0471,0.5354,-1.746,-0.5697,-0.7244
2572,-0.7268,-0.0508,0.5289,-3.0895,-0.1727,0.1917
2612,-0.7322,-0.0581,0.5384,0.2235,-0.0048,0.5886
2625,-0.7322,-0.0479,0.5337,-2.5856,0.1784,-0.6786
2638,-0.7317,-0.0452,0.5337,-3.5933,-0.4933,-1.6709
2651,-0.7261,-0.0642,0.5313,-3.6086,-0.4323,-1.5335
2664,-0.7297,-0.0427,0.5347,-3.4864,-0.1575,-1.4725
2677,-0.731,-0.0488,0.5318,-2.3108,0.0868,-1.6099
2717,-0.731,-0.0642,0.5328,-0.3108,-0.1422,-0.587
2730,-0.73,-0.0657,0.5337,-0.7841,-0.2338,0.6802
2742,-0.7258,-0.0427,0.5345,7.4602,0.1784,2.1306
2755,-0.7319,-0.055,0.5335,6.4067,0.8654,0.2375
2769,-0.7307,-0.0488,0.5298,-1.0742,0.6822,-2.7396
2782,-0.727,-0.0481,0.5315,-5.6849,0.4838,-3.8541
2822,-0.729,-0.0686,0.5293,-2.8299,0.0257,-0.2816
2835,-0.7285,-0.053,0.5335,-1.1047,-0.4475,0.268
2848,-0.727,-0.055,0.5298,-1.3185,-0.188,0.2833
2861,-0.7278,-0.0491,0.5306,-1.8681,-0.2796,0.1459
2874,-0.7292,-0.054,0.535,-2.2192,0.2089,-0.2358
2887,-0.7295,-0.0664,0.5369,-4.2498,0.2089,-0.7244
2927,-0.729,-0.0567,0.535,-2.0055,-0.0811,-0.1595
2939,-0.7324,-0.0554,0.5284,-0.9368,0.5296,0.0085
2952,-0.7285,-0.0581,0.5337,0.4067,0.1021,0.8024
2966,-0.7285,-0.0657,0.5362,-0.6162,0.3158,1.0314
2979,-0.7344,-0.0562,0.5389,-0.036,0.4227,1.4741
2992,-0.729,-0.0515,0.531,-2.0208,0.5448,0.4207
3032,-0.728,-0.0532,0.5296,-0.7841,-0.0048,0.0848
3044,-0.731,-0.0637,0.5276,0.025,-0.4475,0.4207
3058,-0.7285,-0.0589,0.5276,2.254,-0.3865,1.7489
3071,-0.7302,-0.0596,0.5313,1.8113,-0.0506,1.5352
3084,-0.7307,-0.055,0.5369,-0.9063,0.1631,0.5886
3097,-0.7305,-0.0547,0.5303,0.5136,0.0868,-0.2816
3137,-0.7307,-0.0611,0.5293,-1.1963,-0.0353,-0.5412
3150,-0.7297,-0.0652,0.5308,1.0937,-0.1269,-0.0526
3163,-0.7266,-0.0608,0.5332,2.5899,-0.0506,0.6802
3176,-0.7295,-0.0562,0.5354,-0.6467,0.1937,0.3901
3188,-0.7268,-0.0506,0.5354,-1.3795,-0.1269,0.2222
3202,-0.728,-0.0491,0.5298,-1.0589,0.0105,-0.6328
3242,-0.7307,-0.0623,0.5298,-1.7002,-0.2643,-0.6022
3255,-0.7314,-0.0611,0.5296,1.3533,0.2242,0.5733
3267,-0.7268,-0.0642,0.5332,2.5441,0.3005,1.1382
3281,-0.7341,-0.0528,0.5335,1.5518,0.2853,0.6497
3294,-0.7253,-0.0528,0.5315,-0.7383,0.1021,0.2833
3307,-0.7268,-0.0528,0.532,-1.4253,0.1937,-0.2053
3346,-0.7341,-0.0676,0.5352,0.254,0.3311,0.7413
3359,-0.7256,-0.0562,0.5269,-1.1811,0.1021,0.3443
3372,-0.7332,-0.0576,0.5323,0.4678,-0.2796,0.5275
3386,-0.731,-0.0569,0.533,0.4525,0.0715,0.5123
3399,-0.7288,-0.0574,0.5323,-1.746,0.1173,-0.358
3413,-0.7285,-0.0567,0.5308,-2.3566,0.0257,-0.9534
3452,-0.7319,-0.0769,0.5357,1.0937,-0.1117,0.039
3465,-0.7319,-0.0591,0.5301,4.5289,0.1937,1.6878
3478,-0.73,-0.0569,0.5289,4.1624,-0.417,1.8863
3491,-0.7314,-0.0503,0.5337,1.8113,-0.2033,0.6802
