time_ms,ax,ay,az,gx,gy,gz
10,-0.8869,0.9766,0.6327,2.6943,-0.3458,-0.3882
53,-0.8771,0.9658,0.6212,0.3431,0.5397,1.1996
64,-0.8693,0.9607,0.6222,-0.2218,1.2267,0.4668
76,-0.8727,0.9646,0.6198,-0.405,0.9672,-0.8462
89,-0.8742,0.96,0.6083,-0.8325,0.1886,-1.182
100,-0.8744,0.9631,0.6164,-0.2981,-0.9412,0.192
112,-0.8708,0.957,0.6259,0.8775,-0.9107,2.1615
155,-0.8732,0.968,0.6149,-0.3286,1.013,-1.5485
167,-0.8708,0.9644,0.622,-1.2599,1.242,-1.8385
178,-0.8754,0.9619,0.6149,-0.9393,0.9825,-1.2584
190,-0.873,0.9595,0.6212,-0.6951,-0.2084,0.65
203,-0.8696,0.9605,0.6125,0.5874,-0.4526,3.047
215,-0.8703,0.9683,0.6178,0.8164,-0.3916,3.108
256,-0.8759,0.9573,0.6222,-0.8783,-0.8801,-1.2431
269,-0.8725,0.9578,0.6178,-0.2523,-0.758,0.2378
280,-0.8696,0.9609,0.6212,0.053,-0.7885,1.0622
292,-0.8722,0.9587,0.6193,-0.0233,-0.3458,1.5813
305,-0.8703,0.971,0.6242,0.679,0.3107,0.9248
317,-0.8754,0.9683,0.6249,-0.6951,0.6619,-1.1362
358,-0.8832,0.9605,0.6264,-1.8706,-0.3458,3.5813
371,-0.9118,0.9778,0.611,-8.7256,-4.3458,6.9554
383,-0.9191,0.9815,0.6298,1.9462,-11.0939,14.6958
395,-0.9701,1.0081,0.6776,-5.2294,-16.4221,34.9401
406,-1.0798,0.9483,0.7604,-18.7714,-28.0862,57.2912
419,-1.3859,1.0178,0.8817,2.5721,-76.1473,69.0928
461,-0.2282,0.9026,0.5334,93.6866,-90.2542,66.1462
472,-0.2372,1.1533,0.5551,80.6332,-49.5977,48.5279
485,-0.4211,1.3955,0.3236,34.1294,-12.1778,25.8561
497,-0.5563,1.2136,0.4782,-6.8172,30.6771,5.9935
508,-0.7223,1.136,0.6603,-16.176,46.5703,-14.2507
520,-0.872,0.9695,0.6835,-21.6874,39.6237,-40.1286
563,-0.9594,0.9421,0.7272,-7.4431,35.6084,-52.3271
575,-0.9418,1.105,0.7443,5.5492,24.9672,-32.434
586,-1.0649,1.177,0.7599,-7.55,12.5397,-9.8233
599,-0.9062,1.0889,0.7028,-6.5118,13.5016,-7.5637
611,-0.8771,1.0393,0.6354,-6.6951,10.9825,-11.6859
622,-0.8805,0.9531,0.662,-3.0462,7.9443,-11.7469
665,-0.8466,0.5203,0.9762,-18.0691,-33.7504,-51.0904
676,-0.8876,0.9077,0.7873,15.1523,-22.7122,-34.892
688,-0.4711,0.3972,1.2687,-37.7332,-66.2847,-86.037
701,-0.664,0.5498,1.1742,-45.9012,-62.529,-89.2431
713,-0.6325,1.0801,0.2152,-12.7714,-64.7274,-81.2126
725,-0.8837,1.7251,0.5873,23.8851,-32.8954,-46.6782
766,-0.9579,0.825,0.8844,-4.6035,8.1122,-4.2813
779,-0.8215,0.9539,0.3258,12.4805,-14.1626,-24.5561
790,-0.9457,1.0359,0.6161,-7.4737,1.0588,-11.579
803,-0.8627,1.0171,0.6625,-25.0462,-11.9183,-22.5103
815,-0.8993,0.9685,0.652,-64.0996,-27.3992,-34.7698
827,-0.8913,0.9212,0.5146,-59.8706,-29.3229,-37.7469
869,-0.8552,1.0161,-0.5255,-31.55,79.2115,41.0622
880,-0.7609,1.135,0.599,-2.2218,54.1733,35.8714
892,-0.7148,0.9868,0.4787,-36.3439,68.6313,39.8103
905,-0.9101,0.7647,1.1427,-33.1073,39.7611,17.7645
917,-0.8144,0.7612,1.235,-9.4889,43.4558,25.1386
929,-0.832,0.4568,1.2077,-1.0157,13.242,-2.0523
970,-0.8171,0.8931,0.7582,-15.9164,6.8451,-4.4645
983,-0.8185,0.8911,0.9086,-16.7867,15.1962,0.6347
995,-0.8459,0.9221,0.7235,-36.466,1.5779,-17.3805
1007,-0.8522,0.9683,0.7004,-41.1225,6.9214,-12.2507
1019,-0.8239,1.2141,0.6947,-26.0233,6.4176,15.7035
1031,-0.728,1.3472,0.651,-15.7638,-0.9565,39.4744
1073,-0.9301,0.8098,0.6134,8.2515,2.0664,6.421
1085,-0.8527,0.9136,0.6405,19.6408,-0.4526,7.108
1096,-0.8771,0.8911,0.6344,32.2668,2.0206,8.3447
1108,-0.873,0.8399,0.6291,47.9614,8.2497,6.0546
1121,-1.0385,0.2463,0.5551,10.6485,11.2573,-39.2584
1133,-0.8954,0.7756,0.6877,112.511,17.5016,-6.1744
1175,-0.8044,1.1504,0.7006,64.7859,0.0206,-12.9072
1187,-0.8456,0.9668,0.6032,29.1523,0.9367,-16.3729
1198,-0.7883,1.2161,0.6637,30.4195,8.5092,3.5355
1211,-0.8979,1.002,0.6325,-1.1683,7.4558,-5.5179
1222,-0.8644,0.9727,0.61,-9.321,5.3794,-8.3729
1235,-0.8913,0.9605,0.6071,-15.4584,-0.529,-6.7393
1277,-0.8791,0.9441,0.6266,1.992,-4.0557,-0.4645
1288,-0.882,0.9512,0.6225,2.8164,-0.8801,-5.3958
1300,-0.8779,0.9343,0.6215,4.7859,1.8985,-8.4034
1312,-0.8759,0.9241,0.622,6.7859,4.8298,-5.6095
1325,-0.8818,0.9192,0.6173,8.7095,6.6619,1.1538
1336,-0.8844,0.9297,0.6078,13.9462,7.2573,7.3218
1379,-0.8879,0.9382,0.6015,-9.4126,6.9367,0.5279
1390,-0.8722,0.9595,0.5993,-16.8477,6.3413,0.7874
1402,-0.8993,0.9563,0.6144,-19.3515,6.097,1.1386
1415,-0.8757,0.9524,0.6081,-12.3134,4.8756,-0.8156
1426,-0.8691,0.95,0.6088,-25.8248,4.3718,-6.892
1439,-0.8801,0.9485,0.6122,-21.9775,5.9748,-5.2889
1481,-0.8957,0.9922,0.5702,-49.321,-3.9336,8.6805
1493,-0.9069,1.0474,0.5348,-96.7714,-10.0252,-0.5714
1505,-0.8478,0.9246,0.6156,-45.6569,-3.3839,15.1691
1516,-0.8796,0.9212,0.6215,-24.3897,2.6313,17.0164
1529,-0.8764,0.9468,0.6095,-12.5271,5.6237,9.337
1541,-0.8989,0.9612,0.6283,-23.1531,5.7458,-4.892
1583,-0.8747,0.9129,0.5951,-15.5958,-4.1473,-7.5943
1595,-0.8859,0.9146,0.6064,-17.2141,-7.0328,-2.892
1606,-0.8881,0.9275,0.6169,-26.3286,-10.8496,-3.4263
1619,-0.8798,0.9353,0.6151,-30.176,-12.2084,-4.0217
1631,-0.8691,0.9285,0.622,-28.3897,-13.2465,-7.0599
1643,-0.8791,0.9253,0.6286,-19.321,-13.1091,-8.7546
1685,-0.8708,0.8887,0.6476,15.3965,-4.2847,8.4973
1697,-0.8659,0.9082,0.6452,20.3278,-0.8954,14.7111
1708,-0.8798,0.9439,0.6176,28.0072,1.2573,17.1691
1721,-0.8798,0.9468,0.6405,24.8622,1.7306,13.963
1733,-0.8793,0.9553,0.6259,14.9538,0.784,8.2836
1744,-0.8825,0.9404,0.6242,11.9462,0.7993,5.5966
1786,-0.8742,0.928,0.6225,6.9233,-2.1168,5.734
1799,-0.8718,0.9341,0.6286,8.6485,-1.9488,6.9248
1811,-0.8747,0.9421,0.6291,6.6027,-0.8038,6.3599
1822,-0.8735,0.9456,0.63,3.9614,-0.5748,3.1386
1834,-0.8798,0.9536,0.6281,3.6866,-1.1091,1.2454
1847,-0.8759,0.9468,0.6327,2.0988,-2.0557,0.3294
1888,-0.8703,0.9566,0.6361,3.1217,-1.3076,3.1691
1900,-0.872,0.9631,0.633,2.3431,-1.0328,1.337
1913,-0.8725,0.9566,0.6317,4.5263,-0.0099,1.3218
1925,-0.8713,0.9409,0.63,3.8698,-0.3,2.421
1936,-0.8735,0.9483,0.632,2.3431,-1.2618,4.0393
1948,-0.8725,0.9573,0.631,1.7477,-1.9946,4.3599
1991,-0.8803,0.9456,0.6254,1.4882,-1.5519,1.0775
2003,-0.8754,0.9507,0.632,1.534,-2.3,0.0546
2014,-0.8715,0.9385,0.6266,0.9385,-2.1168,0.3447
2026,-0.8703,0.9475,0.6261,1.0149,-2.4832,1.108
2038,-0.8759,0.9475,0.6388,0.0072,-2.071,1.5202
2050,-0.8766,0.9514,0.6335,2.4347,-1.0939,2.8332
2092,-0.8727,0.9551,0.6352,1.6256,-0.758,1.7645
2104,-0.8749,0.9595,0.6357,0.8622,-0.2236,2.6653
2116,-0.8666,0.9561,0.6393,0.5721,-1.2618,1.1233
2129,-0.8693,0.9566,0.64,-2.3592,-1.3381,0.4363
2141,-0.8666,0.9536,0.6374,0.2057,-0.3305,1.3828
2152,-0.8671,0.9526,0.6376,1.1065,1.2267,2.879
2194,-0.872,0.9749,0.6286,2.1904,3.8527,3.4897
2206,-0.8735,0.9651,0.6288,2.6332,3.471,1.963
2218,-0.8713,0.9605,0.6286,3.4576,2.3871,2.6195
2230,-0.8761,0.969,0.6242,0.9996,0.3565,1.8714
2243,-0.8713,0.969,0.6286,3.4882,-1.0175,0.2989
2254,-0.8722,0.9639,0.6266,2.2515,-1.6587,-1.6248
2296,-0.8693,0.9627,0.6366,1.4118,0.0664,0.65
2309,-0.8718,0.9585,0.6347,0.8775,0.7077,0.9096
2320,-0.8708,0.9663,0.6261,1.9156,0.7535,1.7493
2332,-0.8708,0.9612,0.6388,1.366,1.1504,1.9325
2345,-0.8678,0.9627,0.6266,1.763,1.0893,2.1004
2356,-0.87,0.9641,0.6283,0.9233,0.5703,0.879
2398,-0.8683,0.9592,0.6315,0.8011,1.013,-1.6401
2411,-0.872,0.9695,0.6259,1.137,0.6619,-0.9988
2422,-0.8757,0.9609,0.6352,1.9614,0.4329,-0.4187
2434,-0.8713,0.9722,0.6266,-0.0386,0.0206,-0.8767
2447,-0.8661,0.9634,0.6259,2.0988,0.7077,0.9859
2458,-0.8739,0.9595,0.6276,1.9004,0.3871,2.3905
2500,-0.8739,0.9602,0.6237,1.7324,1.3489,1.2607
2513,-0.8705,0.9746,0.6237,1.8546,1.1351,0.6958
2525,-0.873,0.9646,0.6276,0.0072,0.2344,0.3141
2536,-0.8715,0.9736,0.6288,0.5874,0.555,0.2225
2548,-0.8718,0.9612,0.6357,0.9691,0.6924,0.6805
2560,-0.8681,0.9712,0.6212,0.1141,-0.0862,-0.495
2603,-0.8681,0.9646,0.63,-0.2828,0.4634,-2.4034
2614,-0.8774,0.978,0.6256,2.221,1.013,-2.6477
2626,-0.8735,0.9563,0.6188,2.8317,0.8909,-1.0294
2639,-0.8708,0.969,0.6256,-1.6874,-0.2694,-0.663
2651,-0.8769,0.969,0.6264,0.4347,0.2497,1.7951
2662,-0.8696,0.9673,0.6227,1.8393,0.5397,2.2225
2705,-0.8693,0.9651,0.623,0.9385,-0.4679,-1.3042
2716,-0.8744,0.9656,0.6234,0.5721,-0.7122,0.2073
2728,-0.8718,0.9605,0.6303,-0.1302,-1.3076,2.1615
2740,-0.8713,0.9641,0.6252,0.6332,0.0359,3.4744
2752,-0.8678,0.9702,0.6308,2.3278,1.3184,3.3523
2764,-0.871,0.9812,0.6225,4.7248,1.7306,2.9706
2807,-0.8727,0.971,0.6232,-1.5195,-1.6435,0.0699
2818,-0.8708,0.969,0.6274,-0.405,-0.9565,1.6729
2830,-0.87,0.9683,0.6227,-1.9317,-1.5824,0.7264
2842,-0.8747,0.9692,0.63,-0.9851,-1.0328,0.65
2854,-0.8691,0.9729,0.6269,-1.1531,-0.5595,0.3141
2867,-0.8735,0.9644,0.6269,0.9843,0.4939,1.7951
2909,-0.8688,0.9771,0.6252,0.908,0.6161,0.9554
2921,-0.8715,0.9768,0.6286,0.6485,0.0512,-0.6324
2932,-0.8688,0.978,0.6232,-0.5729,-0.132,-1.6095
2944,-0.8725,0.9724,0.6298,-0.1454,-0.7122,-1.0599
2957,-0.8691,0.9644,0.6271,-0.1454,-1.0481,0.1157
2969,-0.8718,0.9724,0.6249,-0.6798,-1.0023,0.6195
3011,-0.8698,0.9771,0.6264,-0.5118,0.2038,-0.495
3022,-0.8713,0.9695,0.6281,0.2515,0.2955,-1.0141
3034,-0.8688,0.9766,0.6242,0.5416,0.1275,-1.0904
3047,-0.8718,0.97,0.6225,-0.4966,-0.5137,-1.5179
3059,-0.8713,0.9668,0.6254,-0.6493,-0.9259,-0.3118
3071,-0.8666,0.967,0.6269,-1.1073,-1.216,0.3141
3112,-0.8737,0.9695,0.6278,0.4653,0.4787,0.2531
3125,-0.87,0.9668,0.63,0.3126,0.3718,1.047
3137,-0.8718,0.9771,0.623,0.6332,-0.0557,0.7874
3150,-0.8676,0.97,0.633,0.0988,-0.2236,-0.1897
3162,-0.8681,0.9775,0.6249,-0.466,-0.0404,-0.9378
3173,-0.8696,0.9729,0.6291,-0.8172,-0.1015,-1.2278
3216,-0.8632,0.9678,0.6259,-0.3439,-0.5137,0.2073
3228,-0.8661,0.9702,0.631,0.3126,-0.4984,0.1767
3240,-0.8703,0.9734,0.6274,1.9767,-0.0099,1.0775
3252,-0.8656,0.9736,0.6269,0.1141,-0.1778,-0.037
3263,-0.8718,0.9727,0.6352,1.5187,0.7535,0.2836
3275,-0.8681,0.9707,0.6252,1.4882,1.3336,0.2531
3318,-0.8681,0.9751,0.6276,0.4805,-0.4679,0.4363
3330,-0.8715,0.9754,0.6286,-0.0844,-0.4068,-0.6172
3341,-0.8691,0.9756,0.6278,-0.9088,-1.2465,-1.3195
3353,-0.8693,0.9695,0.6313,-1.0004,-0.3916,-0.9683
3365,-0.8678,0.9705,0.6247,0.5416,0.0664,0.9401
3378,-0.8632,0.9722,0.6357,-0.1302,0.6008,0.6805
3419,-0.8698,0.9778,0.6247,-0.0844,0.0817,0.0393
3431,-0.8688,0.9722,0.6281,0.4042,0.2191,-0.0828
3443,-0.8713,0.9724,0.6278,-0.6493,-0.1931,-0.3118
3456,-0.8686,0.9697,0.6286,-1.4584,-1.0328,-0.6782
3468,-0.8652,0.9695,0.6339,-1.092,-0.7427,-0.037
