time_ms,ax,ay,az,gx,gy,gz
11,-0.8427,1.0601,0.6513,-1.8248,-0.5595,0.0241
23,-0.8395,1.0476,0.6515,-1.8859,-0.6053,0.5431
34,-0.8449,1.0554,0.6574,-0.7561,-0.5595,0.5431
47,-0.84,1.0542,0.6508,-0.0844,-0.2694,-0.1744
89,-0.8427,1.0564,0.6515,0.9996,0.5397,1.0012
100,-0.842,1.0547,0.6564,-0.176,-0.0557,0.7416
113,-0.8437,1.0571,0.6496,-1.4584,-0.6358,-0.1744
125,-0.8388,1.0535,0.6618,-1.6569,-0.9412,-0.8614
137,-0.8427,1.0549,0.6537,-1.2599,-0.2694,-1.3347
149,-0.8437,1.0501,0.6591,-0.405,-0.3458,-1.0294
191,-0.841,1.0535,0.6552,0.0378,0.2955,1.047
203,-0.8398,1.0513,0.6545,0.4042,0.4481,0.3294
214,-0.8425,1.0606,0.6483,1.595,0.5855,-0.1439
227,-0.8425,1.0503,0.6562,0.1446,-0.0404,-0.3424
239,-0.8434,1.0574,0.6598,-1.7332,-0.3305,-0.6324
252,-0.8415,1.0527,0.6537,-1.2752,-0.1473,-0.8309
294,-0.8432,1.0513,0.6552,-1.6264,0.555,-0.5103
306,-0.8422,1.0501,0.6574,-2.3744,0.3413,0.2683
318,-0.8461,1.0564,0.6618,-4.176,0.3718,1.1996
329,-0.8427,1.0474,0.6569,-4.7103,0.8145,2.818
342,-0.8468,1.0566,0.6552,-8.0538,-0.071,2.0241
354,-0.8561,1.0825,0.6593,-14.3134,-1.3839,-1.9149
397,-1.0781,1.0628,0.9684,-29.3973,-8.132,30.2073
408,-1.4677,1.1138,0.9811,-49.1836,-95.8114,40.1309
420,-1.0734,1.0315,1.1286,-17.9317,-117.628,64.0088
432,-0.6161,0.8667,1.1134,-20.3134,-143.018,58.421
444,-0.31,0.9307,0.726,5.2439,-138.987,52.2073
456,-0.1122,0.7905,0.485,18.3126,-107.934,23.0164
498,-1.0234,1.2285,0.8029,9.4424,15.0741,-34.1897
510,-1.1689,1.2444,0.9303,-0.2065,3.8374,-33.3042
522,-1.0153,1.1448,0.7406,-13.6874,-3.903,-18.5408
534,-0.8002,0.9768,0.5453,-14.0844,5.6084,-9.1057
546,-0.7038,0.8892,0.7038,-11.3057,19.4405,-13.4111
558,-0.7375,1.0103,0.7218,-10.9393,23.7,-16.3576
600,-1.0102,1.1348,0.7228,-10.6187,8.3565,-19.8385
612,-0.9421,1.1336,0.799,-22.2065,0.7229,-13.35
625,-0.8183,1.0767,0.7343,-26.3897,-1.5977,-16.2813
636,-0.8505,1.0108,0.7309,-32.1912,-4.529,-16.9072
648,-0.8368,0.9546,0.7543,-16.3592,-1.5824,-12.3118
660,-0.8095,1.0283,0.7846,-4.9851,3.2878,-2.6935
702,-0.832,0.9312,0.8849,29.2286,-0.59,0.5431
714,-0.853,0.2859,1.3869,3.0912,-38.2236,-52.663
726,-0.9826,0.4563,1.4237,-8.5424,-47.5671,-69.8233
739,-0.6979,1.0632,1.2751,-40.3134,-78.0252,-89.1668
750,-0.8578,2.2944,-0.3143,82.2973,-32.7733,-7.4721
762,-1.1108,0.6985,0.8947,94.9538,-47.0939,-34.5408
805,-0.797,1.1272,0.7455,-15.3515,6.8603,-7.4263
816,-0.798,1.0286,0.755,-24.1454,0.4787,-15.0904
828,-0.818,1.0835,0.758,-50.4813,-12.8191,-24.4645
841,-0.8193,0.9641,0.7267,-67.8096,-18.6206,-24.2965
853,-0.8608,0.967,0.6889,-50.405,-9.4297,-12.2813
864,-0.8368,0.9871,0.7983,-17.2905,6.6313,1.7035
906,-0.4946,1.1194,1.5971,-8.5271,48.6924,26.7722
919,-1.1979,1.2629,-0.3458,33.2439,58.5092,23.6424
930,-0.7236,0.7761,0.0932,121.763,85.1504,30.0699
942,-0.7675,1.0527,1.3852,32.7553,62.7382,9.5813
954,-0.8525,0.5183,0.8283,-20.9393,18.0664,9.9325
965,-0.9706,0.6946,1.047,8.0072,42.0664,4.2073
1008,-0.7292,0.9168,1.4506,32.8927,36.6619,10.8332
1021,-0.5866,0.8877,2.3556,-39.3821,4.555,-10.8004
1032,-0.9123,0.9553,0.4328,-16.6951,12.8145,-2.5256
1044,-0.7939,1.188,0.4298,3.7172,9.3794,-0.6782
1056,-0.7797,1.0288,0.8068,15.4271,-5.9946,-8.1591
1068,-0.7656,0.9414,0.8615,-2.6798,5.7916,0.7874
1110,-0.8849,1.0874,0.5778,-30.6493,5.3336,19.1233
1122,-0.2299,2.0469,0.9211,-28.0538,-16.8343,48.818
1134,-0.7074,1.1052,0.976,-52.008,-24.4984,46.879
1146,-0.6974,0.6099,0.984,-23.7485,8.6008,20.4973
1159,-0.8434,1.0562,0.3544,-39.7485,9.5321,14.7264
1171,-1.0544,0.4363,0.9457,-79.6874,-12.3458,-4.4034
1212,-0.8483,0.9802,0.7065,33.2439,11.6084,17.8409
1224,-0.8771,0.9617,0.694,42.1904,18.2649,9.8409
1236,-0.8593,0.8723,0.7658,56.1752,19.5779,1.6118
1248,-1.0011,0.666,0.8166,56.7095,24.0359,-6.3271
1260,-0.978,1.126,0.548,136.526,12.9519,-14.0065
1272,-0.9137,0.6836,1.2113,132.923,4.8603,-66.266
1314,-0.6506,1.7449,0.5695,18.0072,-4.4374,-30.9378
1326,-0.7282,1.5081,0.6129,18.9691,5.0283,-2.0828
1339,-0.8495,1.0942,0.651,4.5111,-0.071,-11.6401
1350,-0.8429,1.0552,0.6562,-2.9393,-1.9641,-9.0294
1362,-0.8425,1.0418,0.6503,-2.2828,-2.0862,-0.1897
1374,-0.8371,1.062,0.6476,-4.3744,-2.071,3.0164
1416,-0.8449,1.0264,0.6579,-9.2447,-4.1015,-5.5943
1428,-0.8478,1.0068,0.6669,-3.8096,-3.9488,-3.0752
1440,-0.8461,1.0247,0.6598,1.0301,-2.3,-1.6706
1453,-0.8483,1.031,0.663,-0.8325,-1.3687,-3.7011
1464,-0.8451,1.0415,0.664,2.679,-1.674,-5.0904
1476,-0.8473,1.0234,0.6571,3.7019,-2.071,-4.3271
1517,-0.8451,1.0359,0.6652,2.7553,1.8832,-0.7393
1530,-0.8456,1.0366,0.6659,-0.8477,3.2573,-1.4569
1541,-0.8481,1.0542,0.663,-4.5118,3.1657,-3.8691
1554,-0.842,1.0471,0.6615,-10.3744,2.4939,-6.5561
1566,-0.8459,1.0276,0.6601,-10.7103,2.9214,-3.0752
1578,-0.8422,1.0376,0.6606,-19.3363,2.1122,-2.2507
1620,-0.8466,1.03,0.6676,-36.7561,-0.8191,-2.2049
1632,-0.8466,1.0171,0.6671,-45.4584,-1.1091,-2.4492
1644,-0.8461,0.9985,0.6654,-52.0996,-0.0557,-3.4111
1657,-0.8495,1.0105,0.6711,-36.8019,1.3489,-0.3882
1668,-0.8512,1.0073,0.6671,-34.3286,0.8145,0.2378
1680,-0.8495,1.0142,0.6757,-42.3897,-0.4221,-1.9912
1723,-0.8449,0.9817,0.6852,-59.779,-3.5213,-10.7546
1734,-0.8556,1.0422,0.6884,-79.2905,-5.0939,-20.724
1746,-0.8317,1.1001,0.6518,-106.283,-7.3534,-30.8462
1758,-0.8439,0.9212,0.7179,-77.718,-3.4755,-21.1057
1771,-0.8417,0.9446,0.7106,-68.008,-2.6664,-15.3653
1782,-0.85,0.9568,0.7021,-74.176,-4.0099,-14.7393
1824,-0.8442,0.8836,0.7238,-6.8783,-4.6206,-5.4721
1835,-0.8481,0.915,0.7243,7.9462,-2.9107,-1.5027
1848,-0.851,0.9114,0.7133,19.824,-2.2389,1.5202
1860,-0.8478,0.9053,0.7191,13.824,-2.987,-0.9836
1873,-0.8486,0.9356,0.7172,12.9233,-3.0023,-0.6019
1884,-0.8444,0.9053,0.7179,18.7248,0.0512,2.879
1926,-0.8461,0.9414,0.7162,25.2744,4.1122,9.7798
1938,-0.8503,0.9578,0.7148,24.9843,3.9748,7.9325
1950,-0.8534,0.9451,0.7116,16.5111,0.9519,3.3218
1962,-0.8532,0.9446,0.7126,18.3278,1.1504,4.3599
1974,-0.8471,0.9534,0.7084,17.7935,0.7993,2.9554
1986,-0.8439,0.9465,0.7067,22.5569,1.7153,4.4821
2028,-0.8532,0.9631,0.7079,19.6714,3.3031,12.4668
2040,-0.849,0.9719,0.7025,16.5111,3.5626,9.6576
2051,-0.8461,0.9736,0.6977,16.0225,4.1886,6.1615
2063,-0.8515,0.9839,0.6945,8.6943,2.4939,1.734
2075,-0.8527,0.9761,0.7035,7.4729,0.7229,1.3218
2088,-0.8517,0.969,0.7001,8.4195,0.6161,3.0928
2130,-0.8437,0.9692,0.6994,3.6866,0.6619,0.7874
2142,-0.8488,0.9695,0.7033,2.8469,0.6619,-0.5714
2154,-0.851,0.9702,0.6986,4.5416,0.5855,-0.1591
2166,-0.8451,0.9656,0.6989,7.5645,1.1809,2.879
2177,-0.8483,0.9829,0.6977,6.8775,1.242,4.1462
2190,-0.8495,0.9868,0.7018,6.3736,0.6466,2.2836
2232,-0.8459,0.9812,0.6906,4.3889,-1.216,-0.1897
2244,-0.8444,0.9795,0.7052,2.4042,-0.9412,-0.5866
2255,-0.8486,0.9722,0.7016,1.6256,-0.529,0.7874
2268,-0.8488,0.9802,0.6972,3.1065,0.5092,2.2836
2280,-0.8488,0.978,0.6994,5.1523,1.1809,3.1386
2291,-0.8493,0.9785,0.6986,7.7782,1.5016,4.0393
2333,-0.8488,0.988,0.6942,8.9538,1.1046,1.4286
2346,-0.8451,0.9832,0.6942,6.5721,0.1733,1.1233
2358,-0.8466,0.9876,0.6955,4.3126,-0.361,0.8485
2369,-0.8432,0.9722,0.6918,4.8317,0.2038,1.5355
2382,-0.8522,0.988,0.696,4.8164,0.8145,2.0088
2394,-0.8437,0.9907,0.6964,5.3813,1.8985,0.7569
2436,-0.8476,0.9888,0.6923,1.3813,1.8832,2.6347
2448,-0.8451,0.99,0.6918,2.6179,1.6237,3.3828
2460,-0.8471,0.9973,0.6886,4.1446,1.4863,3.276
2471,-0.8439,0.9885,0.6842,2.7095,1.1199,2.1462
2484,-0.8451,0.9924,0.6886,1.8546,0.8145,1.5355
2496,-0.8451,0.9976,0.694,0.8011,0.5397,0.2836
2537,-0.8439,0.9983,0.6916,5.0454,-0.132,2.4668
2550,-0.8444,0.9898,0.6942,8.0836,1.2726,3.5508
2562,-0.8454,0.9932,0.6884,5.7019,1.4558,2.4668
2574,-0.8495,0.9985,0.6901,7.4424,1.7458,3.3218
2587,-0.8459,1.0046,0.6884,5.824,1.5168,3.1691
2599,-0.8454,1.0042,0.6872,3.1828,0.4787,1.4592
2641,-0.8351,0.9834,0.682,-0.0538,1.1962,-1.35
2653,-0.851,1.0286,0.6859,3.3355,1.8069,-6.7698
2665,-0.8429,0.9827,0.6847,2.6027,1.1351,-4.266
2677,-0.8454,0.9893,0.6879,1.9004,0.4939,0.192
2688,-0.8476,0.9988,0.6842,2.0988,-0.1931,2.6805
2701,-0.8454,0.999,0.6823,2.6943,-0.1473,2.3447
2743,-0.8437,0.9863,0.6845,-0.2218,-0.8038,-1.2584
2755,-0.8486,0.9902,0.6911,0.908,-0.5442,0.8027
2767,-0.8449,1.0003,0.6879,1.2439,-0.5442,1.1844
2779,-0.8471,0.9988,0.6903,-0.2523,-0.5137,-0.0981
2791,-0.8461,0.9985,0.6938,-0.8019,0.4176,-0.7088
2803,-0.8459,0.9934,0.6862,0.0836,0.6466,-0.3424
2845,-0.8461,0.9963,0.684,-0.2065,0.2955,2.5279
2856,-0.8481,1.001,0.6825,1.4424,-0.5748,3.0775
2869,-0.8478,0.9985,0.6859,0.45,-0.9412,3.5813
2881,-0.8442,0.9966,0.6855,1.9614,-0.8496,4.4363
2893,-0.8432,0.9961,0.6818,1.7172,-0.3305,2.1767
2905,-0.8459,1.0076,0.6889,-0.6035,0.6161,-0.4645
2946,-0.8434,0.9993,0.684,2.8622,1.7764,5.9477
2959,-0.8439,1.0071,0.6852,2.3889,1.6237,5.7645
2971,-0.8486,1.0054,0.6869,1.2286,1.5168,3.8409
2983,-0.8459,1.0171,0.6833,1.824,0.6771,0.4057
2995,-0.8466,1.012,0.6801,0.3736,0.1733,-2.1897
3007,-0.8456,1.0042,0.6764,-1.6111,-1.0175,-2.9683
3049,-0.8442,1,0.6899,-1.1225,-1.1397,0.65
3060,-0.8425,0.9995,0.6894,0.9385,0.555,1.2607
3073,-0.8461,1.0056,0.6901,1.4118,1.7611,1.2149
3084,-0.8444,1.0032,0.6801,1.4729,1.6084,0.2989
3097,-0.8461,1.0037,0.6816,1.8088,1.639,0.421
3108,-0.8447,0.9998,0.6869,1.7935,1.3489,0.8638
3151,-0.8429,0.9976,0.6901,-1.1378,-2.2694,-0.7393
3163,-0.8449,1.0071,0.6862,-1.1836,-1.2618,-0.2507
3175,-0.8432,1.0015,0.6823,-1.0004,-0.4984,-0.953
3188,-0.8466,1.0039,0.6857,-0.5882,0.158,-0.8767
3199,-0.8432,1.0066,0.6862,-0.9699,0.4787,-2.1439
3212,-0.8447,1.0007,0.6901,-1.321,-0.1168,-1.7775
3254,-0.8471,1.0051,0.6862,-1.2294,-0.0404,0.2378
3265,-0.8442,1.0015,0.6877,1.0912,1.242,0.1309
3277,-0.8471,1.0022,0.6852,0.3431,2.2038,-0.4645
3289,-0.8459,0.9993,0.6779,1.4424,1.5779,-0.0065
3301,-0.8461,1.0064,0.683,-0.5424,0.2802,0.0088
3313,-0.8461,0.999,0.6818,-1.0615,-0.6816,0.3905
3356,-0.8398,0.999,0.693,-0.7256,-0.0099,-0.5103
3367,-0.8412,1.0078,0.6886,0.0072,1.1962,-0.5256
3379,-0.8425,1.0032,0.6903,-0.405,1.1199,-1.4111
3392,-0.8444,1.0034,0.6798,-1.2447,0.158,-1.3195
3404,-0.8476,0.9985,0.6798,-0.0386,-0.4221,-0.1133
3415,-0.8483,1.0083,0.684,-1.0462,-1.0786,0.0088
3457,-0.8454,1.0027,0.6906,-1.55,-0.59,-1.5179
3469,-0.8473,0.9929,0.6847,0.9385,0.097,-0.3576
3481,-0.8459,1.0032,0.6874,-0.5118,0.2191,-0.5561
3493,-0.8473,0.9983,0.6842,1.6408,0.6161,0.5584
3505,-0.849,1.0068,0.683,1.0607,0.4939,0.6042
3518,-0.8447,1.0029,0.6835,-0.9088,-0.2847,-0.892
3559,-0.8447,0.9951,0.6908,-0.176,0.2497,0.3447
3571,-0.8449,1.0059,0.6923,-0.863,0.7993,-0.5714
3583,-0.8407,0.9995,0.6859,0.8317,0.8756,-0.7698
3595,-0.8437,1.0042,0.6859,-0.3592,0.0359,-1.1668
3607,-0.8478,1.002,0.6877,-1.3515,-0.3152,-1.0141
3619,-0.8454,0.991,0.685,0.3278,-0.132,1.2607
3661,-0.8429,1.0015,0.6886,1.0912,0.8756,1.1691
