time_ms,ax,ay,az,gx,gy,gz
0,-0.7906163546246777,0.2169792524244608,0.31977926712856397,-0.6274674099025008,-1.675344779694115,-1.5328206557741955
10,-0.8031206841254243,0.2019752019473511,0.2997500258789076,-0.5116492260270544,-1.167486674333331,-1.3148799998319847
20,-0.7658327297961155,0.2395961425413871,0.3379345936832831,-1.1763913884467145,-0.7242757451134362,-1.4728968411284886
30,-0.781626706104834,0.23023573044307963,0.3270407877994652,-1.7932813047521305,1.0869883152071729,0.07205736001908399
40,-0.7772852649025247,0.23752211926168285,0.3337637675712556,0.8228144281729328,2.887042980968345,2.0297710363982144
50,-0.782111716746735,0.22612603985495788,0.32887619228261566,-0.375090119114575,-0.485745517873989,-0.5923024088851918
60,-0.7978743821370029,0.2088011325819977,0.3066936780388996,0.18867555554237514,-1.524949353495217,-1.1912131381117201
70,-0.7748956741290806,0.2364788272497811,0.3321877062255299,1.2842521866304804,1.8044967891726387,1.987021185960223
80,-0.7940119857772057,0.21724895610246256,0.31227286084208483,0.5854713305055917,1.943250802886323,1.8217655436366247
90,-0.7568833254266546,0.25850901662152803,0.3477922324944192,-2.538848155904943,-0.9664282309346904,-0.8717989977957354
100,-0.7890633251686926,0.2300830927907927,0.32357545617869893,-1.1574413342596068,0.37117225767433326,1.1121779616730456
110,-0.7706200077825494,0.2425586826969147,0.34504257408501227,-2.6221526378541355,-1.6246235577052137,0.4891443593348747
120,-0.7510612134670553,0.26308360653988355,0.36505522830448905,-10.249628430159532,-0.05893458904470733,9.360833827352735
130,-0.8163727763618615,0.23757021587324406,0.41156253019988737,-8.66662747688478,-6.699168712670656,16.838774216124463
140,-0.8425521516558903,0.18769315739474163,0.38601896820623693,-2.8183318422474546,-17.08029380256878,15.006014104242709
150,-0.8212577497831751,0.25698638247011035,0.37577441638999765,-2.4808540215352646,-19.29391860643087,16.406747926763416
160,-0.7829161158836832,0.2454184183857971,0.4211794016225776,-5.0820147305792025,-28.74009956739318,15.765587628307117
170,-0.7238504856783703,0.23786089875831395,0.30459846274757907,-7.043296629938534,-32.114873755375264,10.80760814991611
180,-0.7049721399048,0.2758528325194403,0.2964022227638518,-17.196478994054093,-10.81268015569984,6.843470833169717
190,-0.73284119023511,0.181315260174724,0.3463476737456606,-19.944214981098966,-4.062005856584072,0.7123652610776589
200,-0.7200449480409734,0.23075065053842583,0.36168069247792045,-22.929688246802847,-3.734114220744666,-7.4722932117538745
210,-0.6925809852850751,0.2569840072365971,0.40581545631749744,-40.47452136070642,-4.78776931160074,-10.75169257173227
220,-0.7336506686177472,0.2668611854265268,0.43419415854472154,-37.875840119716486,-8.239411106615592,-12.948686835040155
230,-0.8664770741433834,0.3233327483366766,0.4505562288431372,-22.41412582778588,-14.112444942697683,-6.939019520413737
240,-0.8609550536303326,0.19111279895456504,0.23976211350809873,-6.110657098409792,-24.90303739749619,-8.588220286571064
250,-0.7717287983219636,0.014978295857970657,0.4456228754248267,3.165326609599667,-32.31210452718151,-20.658830893476342
260,-0.712398545828683,0.01350519736456779,0.5142015863316194,25.183353161424456,-25.382416941021447,-16.242703015237904
270,-0.7983137368380374,0.12151920088514488,0.32786642623942497,20.83241800564989,-12.321444664184732,-7.42389973685969
280,-0.8119020228596509,0.1051739233154021,0.28659813141559026,32.2626393626177,-17.10489853729925,-21.163781208572445
290,-0.679590047533669,0.46617530893686604,0.493694150200113,35.270511788296524,1.7240247495646404,-14.223152879831424
300,-0.6839864022036934,0.326229893729603,0.3887871718814278,21.38090683253209,19.20248213844854,-15.18119074667285
310,-0.6609191784776873,0.4042841472692916,0.5411780760305932,23.20918440494438,7.84566459557944,-16.208873019317913
320,-0.6500362988422029,0.365776641151742,0.868594834382013,15.115711606475873,11.709157799620876,-7.282929339475599
330,-0.7063660272416528,0.5823955946936105,0.7686222782247804,2.4181450843103103,40.78758410653056,8.714531659030202
340,-0.8800142685082946,0.08509843908998647,0.1773665623032968,-64.84786199087539,74.00076137912266,42.031432731024516
350,-0.7346359818215912,0.11308848637664165,0.800249301702516,-28.421490656417305,30.450187866497657,30.107403348093335
360,-0.5856370142388827,0.5172109567151563,0.3619620314853946,-15.018067551121439,32.80595070143218,42.506393182649504
370,-0.8501615198967301,-0.07572562611830552,0.4307789281894304,-29.380836897767242,19.25387520016793,20.377155075406467
380,-0.7869081161020919,0.04451676940264961,0.5288832669817787,-13.593093356156652,18.488176780378595,11.753239917733584
390,-0.7603708649667266,0.12536800492927302,0.3932615493450751,2.192081902991844,1.6107410410459604,-3.568236471751411
400,-0.7793886438128063,0.14736231445220527,0.3723601056562415,21.073285519683616,-0.3204055296309968,-4.976761244867346
410,-0.8891183514620211,0.012701237442110165,0.34185120130815944,23.132574694548104,-6.45550960408682,-15.330431606323529
420,-0.8334627992485844,0.0760343604484559,0.3971866064604544,16.640785381997055,-12.399270467272668,-26.37722623728663
430,-0.6904065638776786,-0.1495645726918589,0.25816162705283413,2.392596108012134,-1.4297806010262832,-27.733000577038226
440,-0.722500490042332,0.13703201018056904,0.1441520038126205,26.073941625480916,0.7578220925597652,-16.820466153022153
450,-0.695714054341646,0.36817555925015977,0.3999909637128106,40.23202817925052,1.0030088511956379,-1.625050555331335
460,-0.7663730045838105,0.28089731409505975,0.33438725560391735,0.6454389783289494,3.0371364325288903,2.9234727351580427
470,-0.7740721704689205,0.23790895834514944,0.3445740377975753,-12.013401240038528,-2.862800499943684,-10.120428504250235
480,-0.7829871422776301,0.21837952688494053,0.33597839518917627,-7.533704810414849,-2.7867488405624434,-8.967147260299493
490,-0.7636188288433382,0.23737858251086055,0.35271881710808084,-6.355843608250044,-5.830072730875141,-10.190692768728594
500,-0.7785083315301454,0.21231355302458418,0.33179190413980864,2.508196809213271,-4.748812908264108,-7.895947179637663
510,-0.7878348382169881,0.20330004571363813,0.330557651015254,0.3486818211514673,-6.681903706304393,-7.376076076219994
520,-0.7652657232047722,0.23034922400006488,0.35127302525631754,1.322937707795666,1.1646940241528028,4.181652306841381
530,-0.7587840376284061,0.24651213727399746,0.3607907555603284,0.5429350137413618,-0.44356096102403697,3.0166367973720334
540,-0.7939019649815017,0.21077301425299066,0.3142580168071669,2.512468401306313,0.4110644629288878,3.509894846935334
550,-0.7791054798567282,0.22228064553351942,0.33623807716949,0.7065279804696949,-0.324921856369762,1.6922554326433055
560,-0.7654174643157546,0.2332230143094663,0.34953542195875187,3.506192815621041,1.6410546143204003,2.7704750397067297
570,-0.783062446936175,0.22119170080978046,0.32801374179243975,5.143234958749334,3.3606415660081908,4.311921158700174
580,-0.79469811402984,0.20552340365230942,0.3152577024587327,-1.5620631916281416,-0.6065828831477666,2.2259578072336903
590,-0.7891194724792164,0.2137679295354113,0.3274509385886957,-1.7222974087117051,-1.2574901324982808,3.157804620282838
600,-0.7765110951688737,0.223832850580213,0.3346258109104302,0.8687187560438887,0.11271354555594915,5.213654355267244
610,-0.7805609409562029,0.22795384084351175,0.3327268538726943,2.277707547091487,2.170960967709231,6.1446159711117545
620,-0.7502168196647255,0.26392840640512677,0.35888418020027085,-1.0294262964873693,-0.6617280776446252,0.8749837434382202
630,-0.7508566483450564,0.2613926315357636,0.3575493719890016,-3.0299643584587126,-1.9819038825022148,-3.589531440681917
640,-0.7877818052664997,0.21862159579144758,0.3258640600659042,-1.7370154855937596,-0.41765328033798765,-3.9999953310714496
650,-0.7454622703313418,0.2568138666214586,0.3643610976155313,-3.1404743509151447,-4.203127018982773,-7.046588250777476
660,-0.7792977703233934,0.21657834856023372,0.33264535247721694,0.5983359035028064,-1.5490755959671239,-3.021969148479422
670,-0.7756312115978546,0.21818202979031304,0.33751047519674415,3.6755117613654975,1.8166270063988106,1.9578493241042068
680,-0.782346110152646,0.21642210111524124,0.3325118153099356,-1.363876539598895,-1.7159928614924964,-0.6472827081161272
690,-0.7768845542015862,0.2259906261994017,0.34040400774607976,5.749106818809434,1.4795185927820873,2.32874836214368
700,-0.779903485624623,0.23491792832398495,0.32422558953138,5.147326284918675,0.36977194368864214,1.1069599706533455
710,-0.781677507549909,0.23234558650981071,0.32669287985436357,-3.3210596698906643,-1.3299007218841443,-3.4624560493688263
720,-0.7716561446274549,0.23690133902846455,0.34400457370372167,-6.289851487389822,-0.5905748462472831,-3.7827486955299388
730,-0.7706022063642497,0.23420203506693235,0.34404848523566633,-5.588692605424955,-2.025216928079392,-4.464913136879844
740,-0.7850489020722909,0.21037744419510945,0.331564495588267,-0.3712461420544396,-0.41200565860741123,-0.8348092815940747
750,-0.7787124648409124,0.23290701872548839,0.33551152243074833,1.1593087305357563,0.21102018558548735,0.7486970314458579
760,-0.8103066517612488,0.19732886152909263,0.3122214410106157,0.7005472772148448,1.0360262623271226,-0.2574221785300259
770,-0.7664832636487976,0.24622924004202404,0.3489618860527958,-0.6390068582537045,1.1553197049376585,-0.7861392086111343
780,-0.7973038732653535,0.2093185182360818,0.3162058335858191,-1.405741716900193,0.5046464441359223,-1.607262047959296
790,-0.7691512626142696,0.22798232342898675,0.3445197330988348,-0.7864928555123039,-0.9071666865560597,-1.553476718074976
800,-0.7650255725175936,0.23349022818646828,0.3485567113595633,-1.382806848588317,-2.6409669913521183,-2.300479128250191
810,-0.7823778851185504,0.23170434822152255,0.3320501890006272,-2.9843792174841073,-1.4179785423839917,-2.5764932474507205
820,-0.7640160934941171,0.24868034789983473,0.3489172722838487,-2.2483922228932824,0.043983209198447226,-1.387812184735375
830,-0.7791316867033748,0.2242460231479456,0.3346871479216372,-1.262959428700329,-0.6113314369909907,-1.3059467155880502
840,-0.7703159983429062,0.2273104907580563,0.3396509399069732,4.459368131212073,1.9590556870321951,2.8267879777426783
850,-0.7791881462407219,0.2234862179228528,0.3324995295978856,4.006186745627203,0.23099820391534742,2.1557171374364823
860,-0.7662734526759428,0.2395625876095098,0.34320919110647186,0.7881312271938394,1.2795514469767122,0.7572306924960992
870,-0.8032977344656594,0.2043036326679291,0.312400608056343,-1.8615759438413233,0.6964908681300148,-0.8939224639714083
880,-0.7583488290264251,0.24624519965346686,0.35432446779882837,-2.4368712253665614,-1.333866867195186,-1.9916147525957948
890,-0.7476156307962745,0.2552956288403779,0.36486261254152214,1.6716938568244712,0.7605318513703242,0.8996621351507921
900,-0.776536006617,0.22676255610439922,0.33653380753129314,-0.6391260869324709,-2.676303800802292,-2.513449263758373
910,-0.7659853127500443,0.23157786199704758,0.34826720316482346,1.3690421162260522,-0.09424008676518264,-0.010988998958071816
920,-0.7832547789125212,0.21899134584365165,0.3318292420137804,-2.2708117796365626,-0.3727762892232291,-0.7568496414844174
930,-0.7965116318981603,0.20574186800690283,0.31825055858070816,-2.087305723205624,-1.2801174080168258,-0.7497060683526441
940,-0.76413219908393,0.23050270171241996,0.34779399969913494,1.4649627275784838,1.0702064554600508,1.81390511143959
950,-0.8010156005602311,0.2044959873266396,0.3125136718189361,1.0397971065833964,-0.24121110358534528,0.08637745556352666
960,-0.7856961564148978,0.22045415040983438,0.3275224193640767,3.0071988147265123,1.9336873054376105,1.327450272268348
970,-0.7727462407903584,0.22910248984063725,0.33704130669845284,1.1319939392841418,1.2406583625966003,0.20344297498374042
980,-0.7714868800253981,0.2256260260609967,0.3387550963046838,0.8774696944733442,-0.32389993314732246,0.26738192906826774
990,-0.7755216242659665,0.22328064840307976,0.3320199617116962,4.573815573946666,2.416645734384825,3.489375550906493
1000,-0.7602800182839633,0.24224502055096336,0.3513454858243544,3.7877004673821344,2.2426172036045884,2.7566229907337614
1010,-0.7792452308913109,0.22558783330406687,0.3357892226461195,-1.535648771450023,-2.4984947029364664,-2.120955778279156
1020,-0.7788799405861467,0.22580994483237823,0.33707656990241364,-1.007610369311887,-0.42828468485895194,-0.726270611066014
1030,-0.785943733738232,0.21408178337707098,0.3298723065370748,-0.9566238971744971,0.3316017176954621,0.4707869066195435
1040,-0.7566953506204964,0.23962417978813205,0.3581809302593326,-2.822699090589741,-1.764672213741262,-0.753692242071915
1050,-0.7719221150281279,0.22457836984284454,0.34516714661110925,1.357226070041576,1.174605734657351,1.9579907385308761
1060,-0.752261983847616,0.24929198529127816,0.3607108863981856,0.4644228229349657,0.6718994039885773,0.9052724678943747
1070,-0.7600020847178518,0.23933126538787064,0.35260781392541757,1.1181630762621408,1.5655385004224704,1.43357495830951
1080,-0.7655078879084803,0.23270314372026668,0.34794369300082667,2.416830481777001,0.6474843808448962,1.0636869099026485
1090,-0.7733300078730292,0.2304942955941415,0.35139949206976867,2.3829373781870644,2.9717357372544297,2.3478682974181058
1100,-0.7823624651571571,0.2191401357122693,0.33387555617366005,-1.0130168984190089,-1.366883716973008,-1.9749689285009677
