time_ms,ax,ay,az,gx,gy,gz
0,-0.8079625661723617,0.1089882114572749,0.20663535618952164,4.896699115700316,3.063467814796839,4.447278025021262
10,-0.7745556047297644,0.14644232596388657,0.2366906149673321,-3.280201290384746,-1.6462401785224645,-3.2752877059259373
20,-0.7944621633620679,0.11488345493893681,0.2213069767946522,-6.5456403282209585,-4.296783200661158,-7.4226960117655
30,-0.8062039211033338,0.1005184635280928,0.21368153521375335,-0.03913252050230187,0.9761942573329319,-0.3347532631929564
40,-0.814977013961175,0.09109816594265957,0.2028331437323483,1.5240417490070959,0.752004722135046,2.3330480952985866
50,-0.8053782544182675,0.11426152291331364,0.2117317616407238,2.276310860008621,0.2444348851282433,3.9599419602862707
60,-0.7825770791534852,0.1328621839293614,0.2323604434002325,0.6567726008588177,-0.8036138704316338,1.4011968527480918
70,-0.7793154861679861,0.13531741037489195,0.23786890598091234,-1.964631329513352,0.9315835035130391,-2.292392582223969
80,-0.8011526620588455,0.11160595236032494,0.21672237614579987,-2.386621245110782,-0.10309721484551948,-1.9486684252671176
90,-0.7844654314018304,0.12478345255192447,0.23625855961762562,0.907268492826502,0.018442398825452372,1.048159946392192
100,-0.823981703764979,0.09270990640817227,0.19362329969242148,1.165759126933687,0.1397350780998331,2.4028529054226087
110,-0.7824428938651119,0.1355744547980855,0.2345219055315072,-1.734328336579231,-0.4242465575745267,0.26041624841073996
120,-0.8114646779431135,0.10527382857470678,0.2052814450476679,-0.9721935421441623,1.7102413737917728,0.46322231824103005
130,-0.8345240196523166,0.08453132892693103,0.18035256188345855,-2.090916714486397,-2.2514048932592994,-2.105315737701484
140,-0.8150671905194414,0.1017385624162585,0.19965181216231837,1.1086996159633118,-1.4483218099754858,-0.3296945629000419
150,-0.8064812901632264,0.11817258558928342,0.2204221808035151,1.5794485371950557,-2.112046659642179,0.06115587842420622
160,-0.8818187384901385,0.10771496417052207,0.23636747282922818,-4.478947679347677,-2.5548329940328895,3.1027730611376754
170,-0.9970214149875529,0.18376604922067025,0.3274947131177047,-20.75724337099088,-20.489636730251032,3.5685169806161925
180,-1.0121225678088572,0.21218125134896565,0.3503621766250656,-27.70893515160138,-47.256466533950196,5.297971255986841
190,-0.8925200802228541,0.2895281180466893,0.3838835356188705,-33.883270920415185,-66.42806925366739,9.939715047267416
200,-0.72062219290124,0.2226928898510517,0.28605331571777753,-43.831119341257,-75.01172784882858,8.811688430234405
210,-0.5747037178079685,0.20648961727339335,0.25542555687492985,-55.99679247213544,-52.50958215721566,7.476313183541932
220,-0.6776605962358754,0.14087678255445787,0.31382980755576073,-63.38695641540122,-23.319018646605297,4.95848560128146
230,-0.7573002089081631,0.06211697122417069,0.20235986378145568,-68.95158741619214,-17.046973391735378,-2.1902294723667777
240,-0.7774830252664139,0.06714515936855721,0.2582887148935236,-65.79597551002762,-4.760106650566654,-2.6276302302142094
250,-0.8498496486815129,0.04856577120972613,0.3055956768137241,-65.41787399902617,-9.045165966860742,-1.230214838361919
260,-0.8021605833103997,-0.01165534567419397,0.30706107975811453,-56.83443968220976,-11.996129469918827,-4.004591216335891
270,-0.722436176317086,0.004706453140666374,0.2509303206153343,-44.91911671878958,-5.558044298409578,-8.7658679105425
280,-0.7399267790576017,0.011154432231514869,0.29305365049169574,-30.84182003536301,-3.709827838494326,-2.95361106674547
290,-0.7528833580562269,0.02558065885354922,0.33702152950818764,-23.33861283442524,-2.65247799316654,-1.428812994870974
300,-0.7370197612924202,0.09224370287898342,0.20553459127124857,-30.587696084571803,3.975135026178366,-2.323917099585145
310,-0.7268418345945921,0.0790189404882321,0.3123310401991924,-28.960391116452882,19.63794762090308,-0.6108936738103327
320,-0.7716050268703946,0.1714988925328913,0.2742669790500707,-27.48272706304766,-13.115178659946537,-25.86381305472709
330,-0.7514720183494551,-0.06949126761051358,0.2426216982039025,-34.96461877666063,-18.424628472725868,-20.738271247179828
340,-0.6826167334874533,0.06320403765483383,0.5017347793256483,-37.51010105895576,-23.21366051405943,-20.090196870483297
350,-0.6701651739452549,0.06575409112173711,0.31548143951542085,-2.3386294067850266,-33.861788636703906,-3.6181393135054645
360,-0.776325433101724,-0.06340199716785996,0.3336955015100494,-23.667953232547625,-36.144353842856056,-12.924041787519
370,-0.8166138701663008,-0.07744676731746204,0.2873914103366276,-41.896837270816775,-32.712740622496604,-37.6231908809819
380,-0.769148538950696,-0.2101152000246391,-0.022717900699095815,-41.57553321678503,-30.897672135668792,-72.4163277805528
390,-0.9122191886449356,-0.17556192353402209,0.4356175774791502,-22.64574969362438,-20.09095406846858,-62.926920613528665
400,-0.73376904135029,-0.19507830870332038,0.2671499303615081,43.313307040900156,-15.622442929739652,-34.42339860242764
410,-0.9731608295161595,0.05023084230327722,0.07324450594557579,81.95372728718408,-4.418819239584521,-23.715188124245365
420,-0.6004409481463704,-0.12133397961945255,0.1263074224244649,52.59489713542246,10.143284307597472,-40.8282753373635
430,-0.5991534435467288,-0.007654724037402782,0.5072790311164197,36.925375364438445,14.069658996097958,-22.770301624868377
440,-0.7921495215857723,0.19126714601249759,-0.010323361460260855,4.249973334706922,13.324263359681801,-19.12979686842657
450,-0.8177449137318451,0.031037008193227453,0.19525914112378912,-25.064940613060553,20.864234203265305,-0.9336509676640949
460,-0.8257400013443642,-0.011836177060149175,0.40109401899204156,17.148027957021867,33.09891309373803,22.80564948074146
470,-0.7900326437410536,-0.0498369961132315,0.27487765668696296,-12.95879952918682,39.621423318578785,27.216650549668042
480,-0.6476451068705094,0.11503477334446667,-0.3750062407071407,50.35676565406918,56.05704049272946,48.559503674038034
490,-0.7110494442177328,0.21218068109257038,0.20502322831541592,-3.2847295374211374,46.22668513537328,50.19591300975929
500,-0.8545268328824868,0.24338765297063786,0.35356653427540424,14.055669788248823,52.44291441170698,57.794637196124754
510,-0.8714616485320428,0.16574853740485854,0.16216920116731634,-1.8047834964737328,50.54329384932817,62.53411924003712
520,-1.0143495085197833,-0.47465486297601217,0.4573287022004278,-28.32705992072297,41.02331010405302,38.16183766010909
530,-0.9972024793350431,0.05627258026471003,0.5306212128840061,16.65469609909153,38.146870800323946,61.022390729167626
540,-0.5365617784790913,0.11438850162641322,-0.40768890401175073,33.78213601635081,27.634024244906428,31.428954975294904
550,-0.7385172644930887,0.06719333017670173,0.7945581297904403,26.161774898794885,27.67284112326016,40.61468427006566
560,-0.8758149247761832,0.021807967143698412,0.46593112371279954,-81.17157817023542,45.734130821805905,39.36915106156416
570,-0.8337913237829174,-0.28532546495179995,0.09529484733251395,-24.480776898656636,13.571183442193062,14.68675293321919
580,-0.7427629739509477,0.08345451053009986,0.20998201912289355,26.456689149026303,19.067899131026667,14.423460278041803
590,-0.7882180410269704,-0.0058980848044455055,0.31181081730668087,-11.314456599839714,3.5506242977360554,-6.649481428235085
600,-0.7899156522277289,0.09988444630648621,0.20498264382466677,1.8784050641961887,3.058412438957833,-1.4592315816134875
610,-0.7854267252436132,0.06745640829815429,0.2677315079429135,7.170940604318853,0.24237305840974255,0.9663869072499252
620,-0.8017516652244391,0.08874035955985106,0.22907111764258561,16.551588533448832,5.232638478334734,13.133236541477906
630,-0.7980249965788148,0.12058899208473434,0.20486788432387262,22.985393010078614,8.998582185839362,16.848227204696983
640,-0.7850829917571629,0.023844653063076003,0.23589838143384903,29.326206183056716,13.627012777382626,3.8669424174541582
650,-0.8887017605840377,-0.02791085327125572,0.024575724362515754,52.1279453086741,12.92356069977437,-13.796964821728846
660,-0.8673041786289967,-0.03060174379762417,-0.2784878973633643,66.43965102777207,-1.7664243431085012,-43.499080475096655
670,-0.46372330828473085,-0.2771242270937023,-0.5029462816058157,78.34564229418088,-4.834886027726907,-77.95075592461282
680,-1.158470654624189,0.6987159376821209,-0.17119504218112236,128.45778112113751,-22.19252657597534,-34.29400729708748
690,-0.9560587860071457,1.0651065342153487,0.49568084168476584,88.62287702387476,-0.19843861811397656,19.396015708578773
700,-0.6418180014919462,0.2219284258596052,0.22900453748737962,52.043146418909835,-7.477245612461416,-5.074768408148492
710,-0.8270529951907754,0.0820522861332175,0.4878023771509249,37.07524087771005,1.1553520297524544,18.591801809214978
720,-0.8168348640118386,0.23443119549272182,0.19762297267344864,7.638365245271,1.871089125794892,9.283564348497691
730,-0.780593480466938,0.204313899553253,0.2287391004229013,-4.561629877798039,-0.24472972400963677,-13.22976521010417
740,-0.7889465108459413,0.17348900516378335,0.2208502685845534,-12.175944036175634,-4.631991612861691,-28.720084852129844
750,-0.7934673980874298,0.14463133430772565,0.21124004539114685,-13.396400084083574,-5.813684046202252,-31.409420156543025
760,-0.7911982360941091,0.10558307243935623,0.22062238959434013,-6.700085389241324,-3.6800571899812518,-11.883899807322033
770,-0.8126845249857637,0.08018169413797605,0.21400249637269944,3.794020600430099,0.3807437158337438,8.199749915229106
780,-0.8007910215006845,0.1246396284353952,0.222458022279124,6.519003017424852,3.2797282349461114,13.285740245387856
790,-0.7831403980117279,0.1528662584216153,0.23551679483019716,1.223523702150807,1.8702469462531366,7.443791550436248
800,-0.8226440978381732,0.12333226802612712,0.19784342628752902,-0.3963583234110821,3.478744468613131,2.3182369418729194
810,-0.7814060200094315,0.15017422256239474,0.22933073619774139,-1.226099747035794,-1.3749199603937206,-4.868861481375953
820,-0.795091477995608,0.12301586756921373,0.21562057045115834,-2.657736145050791,-2.5977028447004837,-7.1499552288061015
830,-0.7723911998297925,0.14019354672770004,0.2508520785172811,-3.79033417189427,-2.18263462931998,-5.697263409472284
840,-0.7966010684198829,0.11138603631189915,0.2220704760135717,-3.7092008690480056,0.2768181865688847,-1.882147865597064
850,-0.7879411658721722,0.12406346836785763,0.23047426355240938,-2.2426670013558985,0.9290543227235513,1.5883423567304056
860,-0.7995957264063766,0.12065188119995351,0.2208331058364091,2.262017764203253,0.6648585754109761,3.321902948562036
870,-0.8034743665772995,0.12769239341499894,0.22095851501976918,0.5298230592110176,-1.2311806858545682,0.48649505799540727
880,-0.7998422201035867,0.12020141351260759,0.2179663712123973,-1.0960976905553776,-0.11150323276968477,-0.9861324893868307
890,-0.828881194090562,0.09239183926468351,0.19242130847061112,-0.9940199841071404,2.6420252727082243,0.11727883793230576
900,-0.7821788850309901,0.13800063317924527,0.23755858913464364,-2.7003750950290435,2.2178700798686877,-0.923891188110554
910,-0.8305363587619197,0.08852087195110503,0.1891653922662756,-3.025733186503376,-1.4006395902645683,-3.702271325634249
920,-0.8118731835047874,0.09193065276513356,0.21161115939863354,-0.9207246197839296,-2.1706784726393953,-2.8161577235537667
930,-0.7936488714131328,0.12353623475872921,0.22250496090105398,-0.8965776840074352,-0.6851637424121155,-0.0343423079972871
940,-0.767430220979827,0.15162270729978877,0.2543538955518507,-0.7292633624619079,0.6373513003567126,1.7983157848244158
950,-0.8130076009542665,0.10887412130519737,0.20968025199697807,-0.5836467352422863,1.8671327821150336,2.7126694280313366
960,-0.7915905613825867,0.1252646922008098,0.229525839224723,1.7467263474804315,2.3635166481807137,4.062195839324695
970,-0.7903572846911656,0.13418514295002554,0.22471713520084396,-1.3038795935337868,-0.33887023387928594,0.3218375680668153
980,-0.8017907675108862,0.12685015221613696,0.2028165431326342,0.3896830782843195,1.6837580187600716,0.7864779997657165
990,-0.7957633885932435,0.1285059349168596,0.23066460352545512,-1.16809255174288,-0.040677501428522264,-3.1133029513672295
1000,-0.8167984487521153,0.10137953275987599,0.20501880516488397,-0.7482509450953578,1.328941161794081,-1.8098820347662814
1010,-0.7805908217198425,0.13317941406575087,0.23152965564393801,2.815664617068405,1.8093903777672466,2.8274205809221877
1020,-0.790302295415506,0.11750063909954349,0.21972180926242255,4.172429610855602,-0.09811968549547406,3.248419597997484
1030,-0.8153158954149674,0.11024783297049749,0.20372526821283837,4.864449068546762,-0.9214468934678299,3.524848576906497
1040,-0.7833125729601385,0.13893741004256024,0.23432785528546193,2.4474305721768532,-1.9490249965114763,0.6229581271740818
1050,-0.7958842193204377,0.1314763403278799,0.21730532104997088,0.5215332207559077,-1.0315966954075466,-1.1958727335776291
1060,-0.8207484055552079,0.10151108829649236,0.19724664840043252,-0.23620438689813283,-1.0934105339291702,-1.7099752267271415
1070,-0.7620596118840883,0.15732877745681165,0.24979065722944035,-1.4144811758303995,-0.5612685770647676,-1.1416669260269103
1080,-0.7876790963936519,0.1297326916325155,0.22754068266858302,-0.8287712034092568,-0.08658187236362928,-0.745915944645409
1090,-0.7882239301616611,0.12961500350286273,0.2326405155316246,-0.813941899507056,-1.863456114677741,-1.4664167290531176
1100,-0.8068549104454005,0.11339880091087812,0.21713106977483462,1.198732713123021,0.632755350539167,1.6664438478520203
1110,-0.7965457078343737,0.12614734143197756,0.2194195306249113,-1.4822932878573964,0.012036959452554473,-0.6650674738862205
1120,-0.7827210353124495,0.14399468303822904,0.23992977868189902,-3.3162764178498674,-0.04569430431869799,-2.4468215641441176
1130,-0.8003935313106414,0.11549672890402643,0.21536261238059992,-0.5723869846735106,0.8094937303383313,-1.225976572130061
1140,-0.7650136574787532,0.1502505745952342,0.2515947455052497,2.8668365211601916,2.5295855382535524,2.0920566928385815
1150,-0.786728240355102,0.1206056876893724,0.2293785575191052,0.8089914501614965,0.6241944437737389,1.3685112505049244
1160,-0.7980329962537634,0.1246115920016555,0.21335499376349645,2.112551652170506,1.1917993788737147,3.347614471207292
1170,-0.7900318613556707,0.13123801646917263,0.2274238739141077,0.2242908319484308,-0.9452950424362561,0.43739102469739444
1180,-0.8067019875884398,0.11375121131407406,0.2122740297322707,-0.14042782881925714,-0.18839912816241228,-0.6812014548326234
1190,-0.8265224250116237,0.09090427982286364,0.19001694619721865,-2.5662669796148165,-1.8821038046339025,-3.3179960286682064
1200,-0.7910034832088825,0.12416822853651663,0.2252444815336829,-4.702154761683695,-2.699189199202227,-4.219041974542475
1210,-0.7966686350981838,0.11787197269627331,0.22008464896984162,3.9283642328978967,3.2813390573479815,4.6117238557522775
1220,-0.7909623921580454,0.12659618737802847,0.2262419528622917,2.016727858850693,-0.5285799032545759,1.3640373123891494
1230,-0.7967249703398096,0.12713703377709853,0.21763166738342749,2.076242722150185,-0.3391572204252448,1.5513050718078207
1240,-0.820585488268516,0.09855345011677935,0.19507277085707747,0.7681094673157391,-1.5448496048451024,-1.137925304963008
1250,-0.8060283008822648,0.11623162930983832,0.21780613240515742,-2.0713153478259803,-3.084196675825897,-3.1850164375741055
1260,-0.7935559017363634,0.12889044135977945,0.22712335038430748,-0.895438907452359,-1.7255162967375497,-0.8617663511401943
1270,-0.801254246798202,0.12788686862372664,0.2111299118392979,0.5091025470110765,-0.5930113898577755,-0.6167293998102483
1280,-0.7659210376162044,0.16063841030849968,0.24778472629024398,-1.4265062358611864,-2.283352103615266,-3.1007186496103265
1290,-0.8214272022312413,0.10331150228970917,0.19985857493026754,-0.8320133463368883,-2.2520881990983233,-2.5606988727258386
1300,-0.7967966096968961,0.12202343450232138,0.22292624656186427,1.3137396003529673,0.1974133317856261,0.6321350571054506
1310,-0.8022667519612265,0.12506726349556227,0.21791854010080597,3.2434442485276973,2.710213847626586,3.8858622700902083
1320,-0.7760385454278653,0.155289677844454,0.24553085895235074,-0.5225140016116635,-0.461905344519843,-0.4723070665641248
1330,-0.7959748217257252,0.1298229407376822,0.2186134412507946,-2.0451806046981087,-1.3055305983193919,-1.4785560756695366
1340,-0.7999008482131618,0.11949134244561026,0.22232549341956886,0.6169205552593228,0.06501054008598042,0.2769105639500303
1350,-0.8327611386566832,0.09146847376331865,0.18500652788809263,-0.9586941523017272,-1.9028436590365123,-1.1186714212036444
1360,-0.7973817475371826,0.11842559187591546,0.21770972779137776,1.680796734719826,1.0459395495884618,1.7446448370183645
