time_ms,ax,ay,az,gx,gy,gz
0,-0.6471901153708762,0.06298820016937502,0.539038787087767,-1.4411808528023151,-0.12315225826664959,-0.3392929562299138
10,-0.63190067085832,0.08160760175407597,0.556580322612155,2.2575862675058924,0.8514588114462845,1.3617109862579948
20,-0.5996868277185163,0.11153269614606715,0.584108200473173,2.8152422565001167,0.9250893984580376,1.845414703430543
30,-0.6266439037444353,0.09050205629795537,0.5599967919611347,1.044152308554462,-0.18847541648635907,0.3184069708999234
40,-0.6329477953212147,0.08686101755110655,0.5565603279140128,-2.8988149443245175,-2.5045205163251105,-2.7650481409770085
50,-0.6076949229599373,0.1112693476319915,0.5841398328771208,1.1964381765523981,2.432221443393221,1.5284673916580673
60,-0.6198596012206844,0.10188292620969772,0.574137501816239,-1.6650757452107614,-1.413817573649371,-2.4127605174228055
70,-0.6157715061498281,0.10475664786691397,0.5650169797417729,-2.220804505282321,-1.6345523158641528,-1.6988170797427207
80,-0.6192334670022337,0.09976382743177771,0.5653365276449379,-0.6429195628217372,1.294744051551446,0.7338848996508942
90,-0.5939115951838859,0.11604152904492024,0.5943398938391771,2.3729254947685288,2.7033043300230304,2.491831752369683
100,-0.6183698081101315,0.09866043011167752,0.5702240643873263,4.003417023251869,3.0392383181408165,3.4446315008411283
110,-0.6445200174742305,0.07630565553140697,0.5408843792179042,-1.1793479319770426,-0.8131512838660142,-0.6860037932562313
120,-0.6111941532704125,0.10893445679540752,0.5715397065158693,0.7827647747540951,1.7210419550295932,1.3644146072277026
130,-0.6045338489616334,0.11489263591865155,0.5815528687575473,4.002756477964606,2.8772879886162235,2.786666471579873
140,-0.6179921442174088,0.09867151558031703,0.5771426100737305,3.0550455755402384,0.7418571544887294,1.3561578362848088
150,-0.6095538045099604,0.11116860416279803,0.5796985827078678,0.15809119890893242,-1.2689471770505607,-0.7956382639907629
160,-0.6126986775771777,0.11346024083954155,0.5711353220917058,2.722167662620909,1.363698033007989,2.293021735248294
170,-0.6069316570951448,0.11494920000123542,0.5869999736604175,-1.39764840728263,-0.44270461209597617,-0.11886137029965238
180,-0.5986139605581848,0.09856591034924668,0.5910604888512702,-9.412229571224108,-1.0046121006247666,-1.605362077901241
190,-0.6147111265228101,0.08545279100661257,0.5756248154590908,-11.919572623160574,0.7964846582539807,0.4451079774063784
200,-0.5909232500991302,0.11936559144308936,0.6285426031824505,-8.107332319170151,-0.7253913755124239,1.4642430307374088
210,-0.5875693372073593,0.08819527088895439,0.6762714748002139,-4.8039174006972205,-7.808319963859503,-0.6143805459153668
220,-0.6021645910193806,0.04715922049196068,0.6620335476981452,-14.408727474635526,-16.613693017729968,-3.334682118184542
230,-0.6377720572414167,0.05309144924835421,0.6937194415576525,-14.594698184003144,-20.5732372159833,-10.711903256038369
240,-0.696126282047471,0.09873570473976148,0.7105818260796235,-19.41264838803436,-29.091038566080844,-4.78757247865158
250,-0.5654923743084754,0.1482897383993777,0.6548358230552895,-47.072086398736694,-29.210576642566572,8.584078635375736
260,-0.5346863584261087,0.1268066538363963,0.5557621273702309,-62.207380525980696,-25.44537971001373,16.639082698221575
270,-0.5443463943844242,0.14296925177823067,0.49169333640295354,-57.79412747149833,-17.724580448867457,18.131532266799827
280,-0.5512740402431833,0.1537178002719345,0.42655799148243606,-50.42282960442284,-6.947431041203522,17.34219160602896
290,-0.502083103348526,0.14990874541026966,0.49356544739709285,-51.049514203937456,4.790692871854277,20.011545797795236
300,-0.49425328219720194,0.06082782316407005,0.5409840017765272,-63.92764001984749,12.049044647622747,19.340627806836615
310,-0.5289734222199033,0.029033249083978856,0.541465962750279,-80.65309240623878,16.037358302548032,13.245989501479267
320,-0.5007218092509611,-0.013822945365300439,0.5902752368112418,-47.14452220916933,-4.187303275432359,11.559155405126686
330,-0.538671697524921,-0.18407610781058037,0.6879647895278113,-38.4608519861106,-16.144886297716887,7.0235092295299655
340,-0.5315048385569078,-0.23504757751980618,0.7604459975297218,-11.546302022537834,-18.253562156539328,0.04352439180674117
350,-0.45789906526343155,-0.17987844145899007,0.7886711695691742,28.538626391957404,-20.994747448124727,-11.218740664447134
360,-0.4782542357378551,-0.28825651756521614,0.725149590182626,51.649046002010955,-22.149296177315467,-22.123396355297686
370,-0.578659811804233,-0.35384388434737374,0.47995361442943263,139.99935379531502,-17.752190794994146,-29.618489584607474
380,-0.5536665059877174,-0.2953328805641928,0.64137694978941,62.50464992254475,-8.432205997096318,-36.64300616050138
390,-0.6631509803855412,-0.00714849624361643,0.442647393949953,9.526021412666775,9.993064431909097,-20.934393833389578
400,-0.8013558586184162,0.11757932674294452,0.33263805197399815,-2.176367961356495,23.574146294018977,-6.003946050987202
410,-0.727344597329408,0.1846800126289443,0.5306816430107404,23.65788832780126,29.709096415111315,-14.96388304688218
420,-0.722625324865362,0.2549751001829919,0.5440336307714941,66.58836149408774,38.490899200884414,-16.26307254591333
430,-0.8386361752067655,0.3679786967558164,0.30279578126277246,73.70768570735535,41.38831436406598,-1.0108194669146389
440,-0.7002114638526847,0.3610573167289466,0.5077848132747953,30.815755241939343,52.081915276849074,20.327599564463174
450,-0.6047115414124116,0.3663293226198608,0.7510936706746925,-33.56576401908287,47.61888448218709,49.986413437712486
460,-0.4773979892876411,0.7537560559952655,0.04726072172669627,64.64490378777309,32.39084259407732,54.72846565676857
470,-0.6800612435844497,0.10419509014343967,0.39573765378825515,36.25367346051305,11.687739560700567,38.94509679710885
480,-0.6404933798423407,-0.08036845624326334,0.746733934695741,48.815661141736854,13.479115480618688,39.07829282548135
490,-0.5177564559577224,-0.0014656101382573648,0.7442700354387083,46.66138109779325,11.079866740904688,32.38524713388429
500,-0.5064057288501839,-0.04245030391470442,0.611494567648521,15.458644876185037,-0.04811070132393602,12.581389901496616
510,-0.6916688305654809,-0.19817910872236505,0.47636511119995495,22.346605981340534,-3.1736199092841026,-2.571891263894944
520,-0.6512641258605045,-0.04466228923237911,0.5573473922379127,11.74910873838628,1.780915789797807,4.078864695724739
530,-0.697257870234748,-0.7214070621053346,0.6034365566327482,58.1451883446686,-1.292372705676844,-22.982090077361786
540,-0.5222689279420071,-0.7182994631665885,0.36353403692161157,30.88761413720612,-7.6248429849608925,-71.34392518422412
550,-0.5687679251972767,-0.15407392050603172,0.2852652307068903,21.95449326717603,-11.420861075067858,-85.27543959689955
560,-0.6109014387963064,-0.03883352906867426,0.29466861917090464,43.720267234121195,-5.494098599061772,-69.82489034153332
570,-0.6752414853808125,-0.16049324332447265,0.3594041664498765,49.791883009332764,-0.05742513205720834,-47.70925168459796
580,-0.790862678337829,0.2232650795778298,0.5036565999618872,25.332900008225117,-2.3435535628316932,-37.692817002495374
590,-0.7061464389870106,0.7954674977687464,0.5761909138376725,17.896156352779844,-10.221334346404182,-53.77756990637118
600,-0.6076279518843252,0.0980949716696822,0.5717279252225996,-64.02079951759075,5.1015553785031535,-22.460955672284715
610,-0.6257109333064583,0.1745972080381994,0.5810610247081999,-48.8135268924807,2.1762674776638344,-35.34897739132533
620,-0.639397494344964,0.10129320699351695,0.5462314304375334,-47.90226331614363,-1.6386708710322648,-39.108244123515945
630,-0.6182303053196601,0.06476978596336434,0.5623740825332945,-41.663830283060804,-1.7233661039452968,-31.024022588620227
640,-0.607889373721281,0.06298359679180571,0.5841982637219983,-28.83309806615226,0.42113509992811204,-16.06276126474158
650,-0.6380585444300576,0.030279415015710506,0.5580816170083086,-18.763971198530797,-1.2181178217676876,-3.73940698805765
660,-0.6591961912900055,0.009742483916257743,0.5306624344324822,-4.991705323256819,-1.9377556378367689,8.2770123071088
670,-0.6204277896053376,0.10324854245591056,0.5715076290498508,16.84179520896558,-0.812020880229366,23.640643290990187
680,-0.6220952200859768,0.09690590365383368,0.5684620793674966,17.014498015831148,1.5908847772588777,22.322791854624956
690,-0.6331124945963109,0.08687941895399348,0.5567597334316378,12.314966956123948,0.3305446289575002,16.387020269940614
700,-0.6044565333335372,0.11112556292575614,0.5796898706640243,7.747180494254998,-0.4183409196746246,11.313665687953419
710,-0.6228867179888238,0.09621025484666218,0.5603020638839685,6.110440286751701,-0.6472752642005104,8.162214951349597
720,-0.6287302149517212,0.09603126012934532,0.5590139586803674,10.07816960295015,2.002540581353628,9.89063732080867
730,-0.621764164179471,0.09904270745145521,0.5679578438891734,13.59856304845504,2.547621216656025,11.27718358677099
740,-0.6285265718310635,0.09128147426881944,0.5559376570229709,17.353570584808335,2.412523110839986,12.177884028307055
750,-0.6003640214382723,0.13618101567731006,0.5798733978214833,9.89067880262995,1.99223739178551,8.439504027993108
760,-0.6277142603992577,0.12109678393918938,0.5549829488596174,7.09489939672668,5.237222623050566,6.43130015315924
770,-0.6341029228449946,0.11100328315602952,0.5454155542604142,-7.187192505166841,-0.9126821755177086,-3.900697297549903
780,-0.6208163101633506,0.11365334087513577,0.5613754319649455,-5.21046417365295,4.542287284359835,-0.2764016578436328
790,-0.6306363971711249,0.1006876090647275,0.5542375874265879,-9.976580371399631,1.5837933245878604,-3.2762526789219173
800,-0.6078143099555419,0.1272921685381175,0.5755412291861698,-7.393161145696364,1.285713716763608,-2.095548380064899
810,-0.6001338774264161,0.13255327596392505,0.584536345002592,8.235939649780057,1.861212710752834,1.4687428506923002
820,-0.6316452492627194,0.10588745064896021,0.5553695326292376,6.60062215037987,-2.2610534821306207,-2.0092411161682797
830,-0.6502039404561841,0.09752421896335957,0.5410124592993557,4.79631731469258,-1.7891103184051165,-1.983441006823137
840,-0.6289057569089506,0.1142479741374194,0.5570532645850125,2.778953942342276,0.08522310540112166,0.20438177429259297
850,-0.634843320587482,0.10563589937920496,0.5504572098357202,-0.20398299827782307,-0.649139265320591,-0.4016736741157776
860,-0.6271062251515861,0.11912914024741436,0.5576941304048741,-4.077767940988908,-1.2783792144719852,-0.14968264667142206
870,-0.6175383755929451,0.1303463946482112,0.5665327489246016,-4.546156717132689,-1.6124408619992077,0.04035780787756177
880,-0.6154807565670131,0.12116440543779967,0.5705492748478477,2.215721661054038,-0.0306227001164332,0.2744619542257454
890,-0.6589024007763828,0.07602801648720266,0.5262525250402311,-1.183540315228738,-0.8100683334876343,-1.7381026631814112
900,-0.6161034984242345,0.11548113948072558,0.5642783524928114,0.9771626009543823,-1.782304890093655,-1.608026991162192
910,-0.6243818962518375,0.10280705726807433,0.5564043385944527,2.7241430547692453,-3.288565196057318,-1.4129974228295437
920,-0.6433240781998107,0.08686155797835397,0.5345417320996891,1.7603754889947987,-4.363749805332729,-1.2099511045781977
930,-0.6351700261868639,0.09573832793283985,0.5453470402661632,0.9971275330797478,-3.0703336407635486,0.21757703352337698
940,-0.5992970811880299,0.1327670386182683,0.5840368830072976,0.6741407882381962,-3.3533940653631658,-1.5078122763672088
950,-0.6140948198398113,0.11927412029964829,0.5683824405803922,4.686205956842591,-1.6666770953859693,-1.6008820844690004
960,-0.6254431577538755,0.10238749689466589,0.5600453714025422,5.882601972178924,-0.2066414165550276,0.05838725803263106
970,-0.6173646017554459,0.12207105710204634,0.5729978186092728,4.065970378738377,-0.8609893371804141,0.12362130159114992
980,-0.6022218076925545,0.1291608511363945,0.5816228340509915,1.4797208549313738,-0.18876785147906128,1.0708723528870672
990,-0.623970169671146,0.10183543474628376,0.5571392151964318,-1.4677024748837755,-2.4365424531637188,-0.6131088289261071
1000,-0.6068316356580007,0.12258646266738453,0.5787418830511878,0.9812221494831687,-0.7958450376316716,1.8632847003655861
1010,-0.6119344677168866,0.12220166563507454,0.5744857995968061,3.8778310557977944,1.776159197092934,4.032680737439527
1020,-0.6396604870520577,0.09801890282072241,0.5430012427508495,4.025867556097216,2.8738294358554177,3.7558355747563494
1030,-0.6295063170776245,0.11152651932199513,0.5521627717312972,-3.29696917865244,-3.1565098197210406,-3.090209134450409
1040,-0.6312601929468006,0.10247450322474544,0.5500257012289166,-2.8533822384573417,-2.734446665153961,-3.0406218444054507
1050,-0.62370106377846,0.11030527361610311,0.5606352357172026,-0.17231184106567826,-0.4789296624756871,-0.6148164846244067
1060,-0.6369380492387147,0.09297567755166074,0.5407907795513356,0.6492144810979494,-1.3985617555184537,-1.3327300351671052
1070,-0.6493862430938621,0.07946877071402467,0.5305021716002056,2.6844722903534035,1.0833791850737426,2.1115178734245688
1080,-0.6399686133258253,0.08992774659692614,0.5399673674239287,1.4785257975692319,-1.3002328373523129,0.3712567732651959
1090,-0.6331576642998148,0.09919803912511944,0.5443775207438163,3.26911837260218,1.1043021761632286,2.418080119692895
1100,-0.6251574841309204,0.10972604952066027,0.5537170151579109,-4.475269252925367,-2.603237278225619,-2.1809877223559933
1110,-0.6202039063852354,0.11400887636659476,0.5643112766269396,-3.136858143063291,-0.5325397504613684,-0.22507831023178793
1120,-0.6563169485240449,0.07192451827700261,0.5275427720925254,0.805724276066702,-0.32532287920959635,0.9213032401637599
1130,-0.6284923552844061,0.09933326947545727,0.5543117565928903,4.629916632255554,-0.26849155491003435,0.26042436458926566
1140,-0.6546053934714523,0.07788678422278987,0.5301450665467314,5.781633144268048,-0.08219420540522258,0.9746713991263348
1150,-0.6369348026727065,0.09643998236085208,0.5514276867434259,2.6265894739375395,0.5898129232639518,1.3027353866521172
1160,-0.5995828312166194,0.13519380849517265,0.5883552368473546,1.8591132593901865,1.204009793050501,1.866514210934732
1170,-0.6120467775931168,0.12537649667353165,0.573681419668476,4.102690471862751,0.6772357552945258,1.9640162309792861
1180,-0.6388036433460804,0.09798677108755038,0.5486484120019692,4.120314067826269,-0.6984889115939736,0.8668443829724168
1190,-0.6232420370832843,0.11232472479035442,0.5621236961322522,3.686210958484627,0.8518950543797017,2.6389532604779578
1200,-0.626312810146062,0.1109597934867303,0.5542462098096956,1.587909452677359,-0.059684584023253606,0.7301486956257729
1210,-0.6270431815060489,0.11832750168556151,0.5586486098392948,0.23564938005430092,2.3573422815578535,2.441646204820353
1220,-0.6335044037808735,0.10926063598799164,0.549701255839389,-2.646561474161766,-0.5968129521857548,-0.616977949686352
1230,-0.61999266874313,0.11964322986651489,0.5623782043411196,-2.4866456982617455,-1.271018302089403,-1.2572924741153608
1240,-0.6203161328653023,0.11657185493947435,0.5656761204482358,-1.7846494506566528,0.15521683697607214,0.4551649613622858
1250,-0.6066342762517989,0.1250297365892058,0.5810225697661484,-5.886556785182933,-2.8033144104759526,-1.9067786650586132
1260,-0.6375277450160738,0.09223784436753271,0.5441615868976099,-3.743570765248141,-2.4205378836829796,-1.3439530398271973
1270,-0.613982994302831,0.1252665262971666,0.5695382865907062,1.1677368387739153,-1.6721284592549988,-1.4927962748335641
1280,-0.5936150586620569,0.1447803332009419,0.589597260769938,-5.564495719193342,-2.794066351804305,-3.8999568360039207
1290,-0.601542299944231,0.1301456655594391,0.5805920647102875,-3.112894088068776,0.18749340123295166,-0.044995744117793945
1300,-0.6230908767470993,0.10485118394960981,0.5604294793091692,-5.608221762550556,-3.778258284135995,-3.118763877720601
1310,-0.6260906922177065,0.10233194981897879,0.560083220260456,-1.1675326467720755,-0.31942519552625565,0.9297559808580205
1320,-0.6362223690843193,0.09384390305683829,0.5504306745949337,-2.7861524250405267,-1.971767861533173,-0.42635909456606136
1330,-0.6242937736664956,0.10548041571447479,0.5610812053023141,0.7755974942775936,1.1083498111306946,2.2704700196706744
1340,-0.6449389132146194,0.08299802162851169,0.5483763759626635,2.77384403830885,0.011213497114667015,0.16072019584467556
1350,-0.629226522356362,0.10409217081568724,0.5551895998639085,2.8845824703197236,1.1488589506615952,1.5192623906631364
1360,-0.6075112497125023,0.1278245276909853,0.5780882955804025,1.6851128049461939,1.3673986410642056,2.465808900909904
1370,-0.6197196831034858,0.1105250102028466,0.5634082474052755,0.5057438643253132,-0.016607968140055752,1.4553542126943606
1380,-0.6278213772088826,0.1003800806234226,0.556167866863105,2.563929087201612,0.5255496732860261,2.5834487519234255
1390,-0.6333188485464287,0.09709915049058812,0.5524577247919779,2.122493878591203,-1.011776502250566,2.0456123563995705
1400,-0.618705852421944,0.11357226072531977,0.5657838496625001,2.1244491454176684,-1.0694641041845936,2.94731004895685
1410,-0.6144243394956913,0.11952887804886424,0.5729254352875731,3.0141448089625715,-0.959693712619589,3.366768438854284
1420,-0.6152170609695425,0.12386288324653788,0.5704099783861669,2.1041165634753174,-1.0261650794918218,3.3835333442169864
1430,-0.6197912135468457,0.12234836907427381,0.5633836172127203,-0.8845736863558431,0.31279634051901434,0.7085221060969508
1440,-0.6407323171146687,0.09594134659165794,0.5416037174866017,0.6019373060130683,1.6847146815261191,0.004854543758037622
1450,-0.6360517551796686,0.09678640126743808,0.5471569240502637,0.4934177085095676,0.920377587389131,-1.1219506177882108
1460,-0.6394159949886057,0.08998334510779786,0.5424601346310777,0.4695738827906031,-0.5367705791854875,-2.318182929705985
1470,-0.6138743963605564,0.11497550004866992,0.5677489301131737,2.1979467666428105,0.4775727613766374,-1.0418823081987618
1480,-0.6471920767860785,0.08931891806463263,0.5406548423568891,-1.2617099775019118,-0.48192360454099625,-1.7375009507688741
1490,-0.6273080464250755,0.10699724233211148,0.5548239992034922,2.091085655374674,0.5983139383394017,-0.7130593699596107
1500,-0.6126220226664976,0.12096337347961711,0.5708126328196298,-1.489917130962512,-3.1175239450512016,-4.441205557893445
1510,-0.6424106865597586,0.09207808248484095,0.5364351352373415,0.3729516697443133,-0.19063124433308007,-2.250715984630979
1520,-0.6199074635776528,0.11815404025078051,0.561893615429755,0.19173242897729093,0.8771498178364144,-1.0902889110733835
1530,-0.6412902146456076,0.09885299719795246,0.5427612805666956,-1.940075671488924,-0.4194758519010686,-2.784273987793325
1540,-0.614909079296455,0.12322440311430428,0.5687567798121962,-1.2285601901663068,0.9508841703897399,-1.7938964293470576
1550,-0.5974587306783257,0.13679539971409002,0.587163099629626,-1.3125599321144643,1.4795128294821038,-0.620059522464063
1560,-0.6143357242813524,0.11985353375955322,0.5711859471970985,-1.2014335417515083,0.8825006691681954,-0.6922567132075937
1570,-0.6181180035023748,0.11386860771140687,0.5677650293030975,4.068770600895559,1.1409821350216733,2.9340228935326
1580,-0.6341910675660467,0.1048436083712701,0.5521626855172747,3.072883177040583,1.0551296335522908,3.8701302984578665
1590,-0.6180496817042381,0.12282671546914611,0.5636144056149166,4.393081720576138,2.316522349199738,5.490280598371163
1600,-0.607499175499434,0.13184910845185246,0.574174037701934,0.9232525607786549,-0.6340125638488913,2.3887498424002596
1610,-0.627501931234233,0.10981607988186463,0.5547134128870559,0.9903267365557882,-0.5561307201557739,1.9111479448997697
1620,-0.624642400447667,0.11331022519057507,0.5570410758789397,1.5400740050326847,-0.35061853427103096,1.3326962233618758
1630,-0.6337767117879776,0.10776885159425496,0.5531311925033324,-1.2625930753936556,-1.1034285066110179,-0.3478020699863609
1640,-0.6141616618138614,0.1218893944702702,0.5766286004657185,-4.257920651249716,-0.2928364104106751,-0.9681251579760666
