time_ms,ax,ay,az,gx,gy,gz
0,-0.9141149685534017,0.20709715769679968,0.4002748768332202,5.485492697698505,5.1266843600029794,6.553443147563989
10,-0.9210975387523292,0.22216983418953945,0.3988450042751297,1.549107036741638,0.6739193741888437,-1.206303589436751
20,-0.9077740519320785,0.24523146638395574,0.4072738537582406,1.9623505934025673,1.9397257258216039,-0.9267118977936559
30,-0.9559521346095613,0.1920908929079153,0.3669806183670148,-1.6078213008564395,0.5620670758956193,-3.190429365257475
40,-0.9176239439795537,0.21909348278973514,0.40570621612899516,-1.5685838516738304,1.6315729978385813,-1.5315523347793407
50,-0.938530583540482,0.18923941693150545,0.3796646972730113,-4.011447307119848,-1.4918010871344372,-2.382159489612561
60,-0.919126329706133,0.20904645544473716,0.40180387726678174,1.0784760929799253,2.3318328345711126,3.599758784375773
70,-0.9119822883138347,0.22889803693436614,0.4122107312557382,-3.523478940841637,-2.763437000953135,-1.9553998498452807
80,-0.9228349235749584,0.2272289733318809,0.3969644180391015,-3.0472980077878358,-1.6877392806695743,-3.099704056908341
90,-0.9207417881286161,0.22151741349066842,0.3953300636959319,-4.321593908458379,-1.9153641395559593,-4.305684513215191
100,-0.9449118260315218,0.19260934848234332,0.3709272154489602,-4.049359980385754,-1.1403884129182622,-3.4353177623588027
110,-0.923363850217094,0.21318761455311644,0.3954123532627491,-2.971265591080078,-1.6488651857097265,-2.7357072751861664
120,-0.9211038302235951,0.211707495561782,0.3971159831467652,-0.04416624313825668,-0.3206102034632967,1.0373874389830677
130,-0.9256570121004204,0.2064378685676878,0.3952763984356565,-1.177696970944277,-1.1124683321271842,0.6707149505665817
140,-0.9230869818270347,0.2180254594863276,0.3966284941263243,2.8466053842400605,-0.16303781891204028,1.9668182066823343
150,-0.9191169886722784,0.22581295058956244,0.3945091607376699,1.359133740653055,0.2051650962478166,0.022954548246432754
160,-0.9347879654237183,0.20693088511472163,0.3810598546517798,0.22750465870940023,0.44555065913710623,-1.45589005137876
170,-0.9053701103943024,0.22294305742130166,0.41436808409838316,-0.7452933140393834,-0.21132969697273735,-2.378117814653163
180,-0.9255359009603363,0.20485299260715645,0.39680388720951204,2.0078056220401628,2.5353034035753224,0.8011715332852398
190,-0.9472955135083269,0.18901092351334917,0.3744121967570905,1.334517129730163,1.879730133915738,0.6770816128479815
200,-0.9401810527491938,0.19832282528053632,0.3796564713249826,0.9357900606021329,1.4527026524577107,0.8176921402915838
210,-0.9295311789290007,0.21492419426921497,0.3914170129595736,3.3736687272764856,3.4023410899939153,3.063830956585865
220,-0.9202809668795827,0.21792135230372728,0.4017589883497685,0.5772495214178843,0.09467707901577166,-0.723911833439415
230,-0.8918104230587527,0.2473082754111725,0.4265876790593265,-0.2164206946468521,0.8974931990484449,-0.32588066307080843
240,-0.911211343590377,0.2228904928614221,0.4020753646226886,2.044861967338771,2.9840213853585222,2.6380444525445337
250,-0.9389292849805163,0.1875797164392719,0.3737800540438095,-0.0741815967988087,0.4182693730449208,0.888337382694474
260,-0.9403781097851307,0.19650914009038148,0.38346518691729836,4.129928145006114,3.577803790461872,4.965182473455282
270,-0.9409937272826034,0.19603817209933422,0.3791570256029683,1.6499325078281213,-0.4103002548682755,0.6197077136465037
280,-0.9321976298738748,0.20602143317008606,0.3831881255311521,1.1506395971762364,1.4705159585528438,0.7293842235843
290,-0.9111462568002267,0.22804223723867878,0.40631166666411433,-1.2738350217037702,0.805297225941461,-1.7180672063702183
300,-0.9181987854225284,0.2191480504370323,0.3986783496248676,-3.665460989332326,-1.9755834125397627,-4.693812281326147
310,-0.9506322019843978,0.18098332625131208,0.364088554303167,1.3172332101566067,1.8886316402915702,0.1235988256839895
320,-0.9331234280211042,0.19739391774475865,0.3828673650781835,0.9973550721254132,0.4322613894528707,-0.07495391490455328
330,-0.9374104423262505,0.19772041252551315,0.37976206364521276,-1.121134996876843,-1.9058524727376123,-1.7457581557638544
340,-0.941053737297411,0.19355642559866484,0.372954764264773,0.5613389243376561,1.2579067169944484,1.065000482336406
350,-0.8949853925016754,0.2435957034804747,0.4165300843790768,1.7637819731678557,1.9743151910394454,2.6882423415235515
360,-0.9259286213922592,0.21322704962734326,0.3901815809490641,-0.522419487767998,-1.609967948203998,-0.47387435140948764
370,-0.9190570755122832,0.22361490431892506,0.39634843298346883,1.7410610472152215,1.2137428978499964,1.700023820673393
380,-0.9535379222049482,0.18538354116554964,0.3599455906452791,0.9411510343074213,-0.362369045430988,0.31073777126038693
390,-0.9286825690214264,0.2059928764796956,0.3871849131856603,0.7818606772940445,0.6591211824776582,0.7643673716580247
400,-0.9461708232849209,0.19064188259568562,0.3698188807241038,2.4770524069881286,2.504823881138339,2.8665463454747453
410,-0.9240763986032594,0.2174223313263106,0.3984242571395897,2.295344879275814,1.3819176701510727,2.0110688270251527
420,-0.9342496262880785,0.2113620331415958,0.3897152364034737,0.9464972669101419,0.06542688887980863,0.13225353596355488
430,-0.9286523215338598,0.2136169168677558,0.39152685088681544,1.3972058558828016,0.8923223433194254,0.2951972608881156
440,-0.9499283698583186,0.1870720276504132,0.3663326027835842,-0.6966441406154955,-1.0682689325556718,-1.6584014643946472
450,-0.9342580634443622,0.20257063778680448,0.3793519260866088,0.37616435307349105,0.0620823541965807,0.15946607740571017
460,-0.9555651281208254,0.1845021421867472,0.3574485392564463,4.026056981435374,2.2432994259030927,3.656241882061745
470,-0.9158217778358261,0.23296224324221673,0.4010573683031881,9.929827004042757,3.859032390138422,7.050163203026068
480,-0.9319268678036736,0.21413096475535662,0.39907886143517785,6.793840379090926,-2.382204036829498,1.8137596709894337
490,-0.9429435682402226,0.19839901417585734,0.3802348739479617,7.756222728761963,-2.8354284775974876,2.841791494779311
500,-0.9584089274328123,0.2047363515668454,0.4134929836659944,6.214930261311883,-3.8851263524485193,1.7428144161039283
510,-0.9877864849046889,0.24072668249335802,0.49169731533957683,1.7330841285105836,-7.573754183041064,0.8259684470300881
520,-1.0934248003297187,0.35102312851624007,0.4248692895213055,3.20698886210414,-17.979552638972365,7.836691079647255
530,-0.8571262568320536,0.4266192849684163,0.3965865466820999,-23.245115944654646,-23.179630133918625,24.7048265452462
540,-0.6870832742946736,0.395328534915019,0.34959871090607364,-39.56777873422675,-13.688410644759227,35.11756190906127
550,-0.750297615496515,0.362340206696303,0.347916241355338,-41.165706997069485,0.9923812290649576,38.39075228420591
560,-0.848204235511179,0.407036369456076,0.39188605635658424,-49.95184855568486,4.483208633688868,34.36246149534205
570,-0.8685024764328495,0.4442072624062973,0.40846801675566863,-60.1242135747424,6.245195142070232,34.77876382078386
580,-0.8393776260388403,0.41579658973194566,0.43435358818030734,-66.69801895676456,9.373333994521325,37.76224536261377
590,-0.8785749064206727,0.22157471201514556,0.3884196239121844,-74.15318503968133,10.367428381361549,29.903008203193693
600,-0.8465058332221835,-0.016325396865007398,0.4555984290630428,-81.32204246956061,18.07594256582861,6.297253665051837
610,-0.9712288281466938,-0.04716183743795989,0.5132876817936626,-77.33960520173164,13.88367775331534,-2.5455721146568644
620,-1.9851542372928503,0.1632020273192584,1.215750661841924,-73.91352647459412,-25.587720461950394,4.1245565598796095
630,-0.9880422607493522,-0.09007780990958139,0.5660843277979257,-27.98268599360136,-17.5556723053792,5.785311164277608
640,-1.0137053009962196,-0.20451710041364898,0.6132546326937683,11.887116488821325,-20.6896067043427,7.686357374341997
650,-0.9524484084718277,-0.13228401941429896,0.7134588950994224,29.616666631312206,-23.16049147543404,10.212790986761586
660,-0.9449261196640536,0.1060385474745037,0.5390228470913445,50.862176505211714,-25.29239239253829,-16.18405126913868
670,-1.149880047928686,0.5745014872601218,0.5593223964396902,89.1796795764158,-24.19393333149497,-24.430043614219905
680,-1.1869980023934665,0.5611680879016315,0.8903851666595843,93.68376236011439,-18.81994454738806,-27.940475456743414
690,-0.9728295873676146,0.706904464358026,0.9087913717855716,77.4812780669579,-10.976360397784166,-29.05461334675784
700,-0.9600308988093262,1.1605361563086187,0.36249151530995166,68.70286226113531,1.2765887325401744,-11.59222174437184
710,-0.8517415514643403,0.5795382529791775,0.3674612900493576,23.479454124329905,16.350541897154798,-15.417261855141732
720,-0.8995261854331356,0.5461385417542973,0.28820954023251805,36.47878836076848,34.965681417757786,5.88336890788249
730,-0.8112040866978695,0.2867925663345477,-0.2700803613228963,-6.406916377194267,86.92224488249842,44.798907289176135
740,-0.7450011783171459,0.42561661676354534,0.2761201559818416,-29.12492042401254,72.05104799276245,42.13672271246739
750,-0.8101591347971646,0.16693357691286864,0.4848286012678276,-83.37318954767191,66.7600221852849,23.281793811417515
760,-0.9294323548141026,0.34824937091735747,1.038180365056366,-100.16095146623752,52.88416591347141,22.546870252679277
770,-1.028495711481385,0.09059516243557288,0.6520243404465293,-48.296514949301994,38.477757423086594,15.737614102953826
780,-0.9809379336907071,-0.22698334081992844,0.5546458296380987,-0.9496082974441168,29.849994514803942,6.151756091142903
790,-1.035659854268739,-0.5229221945546343,0.5198645106758101,36.6836806940049,0.5940062130343817,-28.98086176812067
800,-1.1040593871985143,-0.15855983359194298,0.2584666394488865,60.53477420299462,-22.88137497978532,-53.590568888774094
810,-0.8381783923681492,0.4285920647165347,0.15842766982939413,75.94605915462667,-22.577298298999025,-41.88153852400109
820,-0.6644932480193028,0.3897872341739764,0.19042802849716509,80.66706247448872,-16.072713287510116,-17.719279650575956
830,-1.0249677133041188,0.41038228029249474,0.07183506198755296,56.53871949348719,-6.599666190977123,4.7930836251718
840,-0.8719014985740091,0.8342199882838608,0.4075940987621896,32.486130401203724,2.5093433619870087,25.6099374201717
850,-0.8477400438442911,0.6093898767829232,0.46729689256295626,25.8273667113294,5.084397509261528,22.923603078996898
860,-0.9285631668379012,0.2565255954190919,0.35216421550624866,-16.436000780245916,-2.958110388900895,-19.465549751744465
870,-0.9673615137635991,0.19884979304776323,0.3242531842383458,-14.757869410466016,-3.533619576790178,-20.357050933049575
880,-0.9495896267311547,0.20395491600585805,0.33709592183113296,-12.52662936623148,-4.939567437795044,-18.702821542555675
890,-0.9191813675081183,0.23559669680602613,0.3582559384172741,-3.9424048550152024,-1.746031670340436,-12.092135086909721
900,-0.9318371656110772,0.21394126724564333,0.3584774941415373,-2.564876915492806,-3.6216328689631574,-8.402550016684161
910,-0.9310068060466775,0.2185764353821372,0.3599293720430798,0.16959737504297082,-2.19744298948488,-1.544414564695939
920,-0.9329550846113821,0.23173379770274669,0.3566485694465899,-3.7276627213527584,-2.641743938578064,-0.4084435058714373
930,-0.9341385885284187,0.2415553019099954,0.35785354185020674,-5.507533484841381,-0.8180916606561249,-0.07151305239023853
940,-0.9276983230314966,0.24839807187699656,0.3634000754061872,-3.5653687052367156,-0.4734003278775796,-1.436617287928496
950,-0.9348380852663454,0.23250173910334843,0.3549854649126132,0.6409630963811801,1.1404843736412567,-0.8508381882407909
960,-0.9389864943187218,0.21881901890915184,0.34398280958924915,-1.3796658761393863,0.12730514882477784,-1.7218351204008442
970,-0.9236692081412016,0.23010064875165498,0.37757878115196347,-4.699410428468228,1.0634550558068598,-0.279838502051867
980,-0.9668087776082309,0.17731599605510948,0.32656031160088783,-3.667145689998923,1.073375066791245,2.1126722031300633
990,-0.9412651161564418,0.22112172287767304,0.3528676307225272,1.685687961033419,0.014968577492516844,6.018721640750537
1000,-0.9391842899503796,0.23423740868844192,0.36142506597122936,-1.5594806686459228,0.955489115130192,5.344406829534213
1010,-0.9198476364048185,0.24165587727060028,0.37327581227763995,-3.4847389248991507,0.6531412576742754,2.7731509774598226
1020,-0.945199193136824,0.22108452778345217,0.34620106152533714,-2.42132980089072,-0.7741943893387548,0.6793179490048085
1030,-0.9138918399522779,0.2605990058095693,0.3766087647656027,2.4706657188332373,2.541253139084224,3.13776198397266
1040,-0.9360279671913073,0.2348733297636511,0.35145853697178897,-0.6323970467846854,0.3874318149842554,-0.2756218988286224
1050,-0.9116388938159352,0.2548720130515567,0.37557441057481583,-1.599119950417191,-0.8388555538558562,-0.8990030712661105
1060,-0.9546712843407621,0.20914077864959824,0.3336759018648176,2.1947505248928962,1.1316199293568556,2.417890558130401
1070,-0.916969237136869,0.24331131056452945,0.37053573152137387,2.797318006949423,0.869637583897479,1.959249714238437
1080,-0.9082320084764144,0.26319634867201547,0.38132655951793337,-0.05715888701134286,-2.5692234002078376,-1.2487551905944356
1090,-0.9232422568574804,0.2460268821599062,0.3642693248793341,1.6640515087691907,3.7675445547890516,2.9497706386327778
1100,-0.9406699267124969,0.22246421130622937,0.34753944368192446,-5.181945849929758,0.33257937362165507,-1.9488911548709993
1110,-0.9364141124033208,0.2325222522758719,0.3605205139598957,-0.24103245437191873,0.5323566888403045,-1.0402879628683477
1120,-0.9302786984002519,0.22569304216674196,0.35666959882847543,0.05638188011034351,0.8687773900030108,1.980074232780528
1130,-0.9795944128563492,0.18654517695380227,0.3224361189249131,3.640502627452369,0.9521067403068602,3.2004936362704903
1140,-0.9634235171818577,0.21236614117802516,0.33390617404351164,4.2373457383813555,2.0486327151777655,4.07548752605003
1150,-0.928742306319699,0.24090390403438997,0.35655658160603604,2.864008412983556,2.176587820628012,2.9810324137205857
1160,-0.945570071994327,0.22586427907479023,0.34672164155007645,0.006901639524237335,0.026734903820873013,-0.22878642211405892
1170,-0.9337713372300133,0.2421441351725992,0.3663580104605264,2.4598789321845977,2.7366643225005083,1.7468723689602261
1180,-0.9172781886384037,0.2542396258716791,0.37696670865476123,-0.14311542238120145,0.12054220606944621,0.39051988616731503
1190,-0.9469431506686828,0.22048388702419888,0.3426921604157781,-1.091368762245145,-0.926551674406674,2.1362443723253928
1200,-0.9253986469520339,0.24384674187723754,0.3665685223821117,-0.5533297868017313,-0.09668935869449219,3.0473139395100635
1210,-0.9108043163797703,0.25942655700015316,0.37993377369047343,1.4847548436216464,1.652139542404765,4.802714303103342
1220,-0.9275947323107369,0.22561154827280033,0.3488157609135365,0.36050977473962764,-0.4116840848361254,2.740964613746547
1230,-0.9371081494805852,0.23984141905247242,0.36734991309150844,1.98152979651765,1.1355330099904035,2.6400635597497875
1240,-0.9561156394078713,0.21500118064381396,0.3381181402620099,-0.06949652899646011,0.21696294435064323,0.4348742150806366
1250,-0.9193645555614414,0.25112566416428156,0.369343422328649,0.42180705469528446,-0.41093664233266414,-2.717931379246747
1260,-0.9394819280304052,0.229462977812196,0.3521887236053235,-0.1581253456992121,-1.3059294855954602,-4.107734299261065
1270,-0.950252061506395,0.21490191530227598,0.34457132633689946,-0.37366547565502206,-0.4461332570771338,-3.0425795872496884
1280,-0.9070161561971545,0.25512116064018603,0.38550324896696,-0.629240652216703,-0.2757915197324874,-1.6621125496516522
1290,-0.9451488265797489,0.2140633342545053,0.34905621237988893,-0.39946915006502154,-0.535461759451353,-0.5801512235334217
1300,-0.9155177672300321,0.24334038215315695,0.3826222423132903,1.4530321157369368,1.3960044293940759,1.8120320108042995
1310,-0.9443157785924806,0.2202013945374863,0.35040500356869225,-2.7706193560528534,-1.9300901035119051,-2.242687430067424
1320,-0.9443670697244774,0.22563309963039582,0.347805895434634,0.24004441505010177,1.183950582343028,-0.40640900815659964
1330,-0.9240620661717459,0.24107939171976617,0.376123172473185,-0.08284305900999173,-0.5011089480268189,-1.4656931493146386
1340,-0.913365456175499,0.24399655560301547,0.37711689130582754,1.9648071942420686,-0.1695203285095468,0.9184403156493823
1350,-0.8924547721057833,0.26487264725872217,0.39830504161421265,2.4131626723293875,-0.7187786830960903,1.0075393680826483
1360,-0.9171164881149154,0.25705677395607895,0.3642808240444415,1.369527418286955,0.03794219503181956,0.5240821644469377
1370,-0.9126538261332646,0.2519158520577827,0.377875018862466,-4.226956915851911,-3.4319688498703207,-4.324204905009706
1380,-0.9239404047740863,0.22251517045595132,0.3681187309041945,-5.7618204808214895,-1.010687396655302,-2.3870726029510023
1390,-0.9073752618460861,0.24714515621919997,0.38290286002830837,-4.85958974427755,-0.5946080235356607,-1.316715418631036
1400,-0.9554636313266441,0.2057411440156057,0.34272716390924957,-4.869077624002507,-3.1052640362057327,-2.5500462262170975
1410,-0.9237251448319213,0.23311837209865977,0.3815834053944324,-1.755711992443476,-1.8701258498850928,-0.5751831763582489
1420,-0.9171497042874931,0.24026929816134812,0.38490979919415735,-0.342581917457668,-0.4711783466262449,0.5410458205425208
1430,-0.9472898648700955,0.22071666069929635,0.34822490212157237,-1.3268451594434474,-0.19020765763428538,-0.36804376048220044
1440,-0.943012741249431,0.22747900339423746,0.3493946213451651,-2.0636552567648674,-1.2458482541283977,-2.3303593013838753
1450,-0.916879807022927,0.23748102832539267,0.37237968077808703,0.8586764865108679,-1.3397733425575375,-1.0764269126344712
1460,-0.9131663045412189,0.23415045837318402,0.3819932295654243,3.226331513884845,0.16231472583756296,1.5072343561784853
1470,-0.9596564336921913,0.19511832447967822,0.3390739496777273,2.796907603093309,0.35495615032722777,2.1446228220364527
1480,-0.9305978884687209,0.24732253549347705,0.37006508151433865,1.3828225624596384,2.4931967554169687,2.1117737643332246
1490,-0.938190920102857,0.22538490187726265,0.3547851096386252,-4.223835527016529,-1.843819634791178,-3.686140703492917
1500,-0.9234675945251082,0.24108488652478222,0.3716371506960668,-0.5706754797127866,0.3818047431702164,-0.7241127042238013
1510,-0.9259301937044431,0.2317825252335761,0.37271372060249885,-2.521132051173332,-2.669986037505982,-2.8299055653531857
1520,-0.9152041147520104,0.24156251604392048,0.38268112055411685,0.5035106087361122,-0.2755334786915019,0.6136775338571695
1530,-0.9381930233686668,0.21776520131952232,0.3585222090113816,1.1336942732648168,0.1444428493130237,2.313394743573187
1540,-0.9411072038617022,0.21263925852901175,0.35199760580986306,0.48881917999394864,-0.35733152324490297,2.515537818670064
1550,-0.9367550130488735,0.22385704341182303,0.35629071625701864,1.3923698468124939,0.36051922826433414,2.6326929919291158
1560,-0.9312994169665619,0.2431349975190453,0.36763752084188556,1.9151537828405483,0.9836480542548351,1.6640468048845676
1570,-0.887772666948755,0.28768918463716975,0.4071634963260663,-1.9242854401745173,-0.8295468438248237,-1.7067199722096047
1580,-0.928659055581838,0.2312021217610042,0.3681082235929135,-2.121695024729409,-0.03369663213586227,-1.2639701074920255
1590,-0.9456543229432713,0.2089688337596926,0.3385721053918928,-0.36237805669075107,2.2905584989438053,2.118078546685913
1600,-0.925669185100936,0.22522121434560624,0.36607953497902485,-0.8358209406448489,-0.04191102625672832,0.9832810215191901
1610,-0.9426887726374428,0.21839186444629993,0.3496150580765294,0.45837402467817534,0.09251298351082801,2.088924822744778
1620,-0.924931097213796,0.240701466254989,0.36865328196838126,-3.6809780257155422,-2.3059217588467593,-0.9694792875001746
1630,-0.948897052301908,0.20606304276809986,0.345088876558957,-1.483449538287918,-0.6984256764701714,0.20159278558510496
1640,-0.9085965454391147,0.24676109413817818,0.3888415913581134,-0.9047667499581249,-1.9930562794766278,-1.7234173325630116
1650,-0.9171661761936354,0.24167291208685288,0.3806417795329467,-0.7503088558348574,-1.340468873018354,-1.9406721810385847
1660,-0.9214276274107561,0.23990379035789638,0.37282817205827534,0.20741004051082634,1.7099921700428746,0.04730937705150917
1670,-0.9247795460933643,0.2378123539597268,0.3685430518063446,-3.7791434183168358,-1.5117316621075063,-3.641992081632867
1680,-0.9091869039968185,0.2524853512958744,0.38849703800905205,-3.4181921248579306,-2.0664219893800206,-3.297544267878452
1690,-0.9298823751076448,0.23125263006009875,0.37014579748687804,-0.6069198728631104,-0.43338859043284467,-0.026940389589081515
1700,-0.9471080201587232,0.2067064116536099,0.3474617387339271,0.03870046631241375,-0.7583395484586007,0.722157188367833
1710,-0.9372715118844297,0.22297661011863396,0.3635768654978998,-0.13786428837017273,1.9852127266094175,1.558157379543232
1720,-0.9510549331600929,0.21521342560485168,0.3478345880960372,-3.5705283204953195,-1.235552584695792,-2.575169521677874
1730,-0.9311545842088664,0.23003906879291658,0.36406353332670205,-1.5626101110818211,0.5525832286584045,-1.0910205406888631
1740,-0.9308743381778918,0.22780663008531157,0.36783148119865905,-3.1627062482931243,-2.3318050963542354,-2.802514291112227
1750,-0.9238274560186718,0.23377988220429505,0.370992714520815,-1.063293223789687,-1.238492617170246,-0.9847589576630064
1760,-0.9211922705967294,0.23276153302297622,0.3761838994311095,4.443266049259441,2.4833135522914165,3.6941082702092736
1770,-0.9354206468170325,0.22417855737762535,0.3645129365933321,-1.6531088594509336,-2.1536212355247013,-2.2817924405340513
1780,-0.9209259680547895,0.24365351195727117,0.3807407282861503,0.5724562522613237,0.35999733704240666,-0.8317005669889833
1790,-0.949821074590258,0.21695629327941776,0.35105249459691457,1.0036963037331403,-0.7125879653296703,-1.666419941985258
1800,-0.917437419148628,0.250681546114966,0.3735608555086832,1.5720111719307708,0.5359059091158276,-0.46448107616907763
1810,-0.9198681287794789,0.24137461336987093,0.36276696786670126,-2.7132840437602423,-2.340775738150602,-3.4194838013204927
1820,-0.9427202965856735,0.21566505134837247,0.35473461730625694,-0.7320799008026578,-0.9620350280955475,-2.113804638337036
1830,-0.9364989555966151,0.22342838030016524,0.3594237574228611,2.0043354923306578,-0.3437219582044977,-0.4387278925852725
1840,-0.926016639220908,0.230818153799458,0.3647545243583774,0.7718224678780119,-0.530874469096019,-0.611975704636603
