time_ms,ax,ay,az,gx,gy,gz
0,-0.8461791952627078,0.2484306996755072,0.40129973616366316,2.291659572811743,0.8474865004907932,1.4323265947189312
10,-0.8593510200226443,0.24209925081276631,0.40411932125101285,0.5099532586294633,1.9386826902007113,-0.2768039912129412
20,-0.8525492321489454,0.2323917183749116,0.4036646070635698,-2.013268489992814,0.2153686499384267,-2.851408294015858
30,-0.8288997955880889,0.23904044787361872,0.42505746558925156,2.0282134982238897,1.7316948966076633,3.6920147091749076
40,-0.8264485919150402,0.24668488736285338,0.42388249740331935,2.502352685791964,0.9790970815471594,3.6243713109938684
50,-0.8258641137941876,0.260944773163767,0.4263012185972543,0.6111555146388565,-0.8088971200685409,1.3535103834703337
60,-0.8478102402393174,0.24051351514337155,0.4091930298079965,1.3397160999143158,1.2170735667829389,1.1995061165511576
70,-0.8373428432174693,0.2403014130113267,0.41515310996444943,-2.367730155587677,-0.5805963404755701,-2.754718931503651
80,-0.8299440664081038,0.24881074877278667,0.4202128589343737,0.9901698182515353,2.9512043085685504,0.7351242735710493
90,-0.8494178655259657,0.22634228740225348,0.4005725537562946,2.2502857850560805,2.404136577080016,3.1624531507792897
100,-0.8769114685127064,0.20729299699465467,0.3808321900354512,-0.004473074617310058,-1.4596352859198278,0.04040338863723347
110,-0.8635973908371243,0.22272918411003445,0.392064492820411,1.5304860985422155,1.0626669557231236,1.1801955290049635
120,-0.8387069955556755,0.24605319904393022,0.4166358388306811,-4.185820274543402,-2.880352413759549,-4.500278735141432
130,-0.858367674952181,0.21910089583003872,0.3943416748652551,-2.5461129138419407,-0.16705881838715855,-2.6850831260569263
140,-0.8675955460113842,0.20360568942658425,0.38355959773194204,-3.7830244317252566,-1.584283655235232,-3.6344350363993114
150,-0.8485133029186995,0.2258024214891498,0.4121125022520637,-0.4078077104626491,-0.8445059965670472,-0.03529248426101872
160,-0.8722508638684392,0.21706062527431869,0.40121347181841616,0.6187588080413104,-1.9396824886953796,0.488977171389934
170,-0.8949651369643827,0.1998285733593677,0.38628450744586507,3.5942445232931464,0.9688900718684411,2.5463653250828324
180,-0.8610436724561701,0.2139190727251909,0.4457082479546358,13.252959233186871,3.296269882365344,8.288175227944627
190,-0.8504708275825776,0.20508847039062308,0.5225516614857013,9.955974382759452,-10.967700888141094,2.8819275385627
200,-0.9178436345948724,0.2010067236424967,0.49092521429991576,-2.266819358716698,-25.60109457634185,-1.7946914891926766
210,-0.8569695252003395,0.2053842484456149,0.47672518608567216,-16.491924923509103,-45.1529259366356,8.57545427213746
220,-0.6861901643539738,0.14999612975564708,0.47182812025026527,-27.08716772329045,-68.3924369272685,10.757597272192406
230,-0.5946581541519217,0.2072638165671643,0.36009412441285105,-30.20828914230126,-60.96809039748598,-6.3497367539656935
240,-0.6000790027700539,0.36930009372822575,0.3163390300066771,-39.2821429099422,-52.70185553960661,-20.75662263137521
250,-0.7089649795387382,0.4787145289908969,0.34464715008106345,-28.75018119269593,-49.487580140553305,-19.10548267057468
260,-0.7081512628670702,0.4556273461040552,0.32650293009406817,-36.27358433631772,-26.604670650609922,-2.6053210415712806
270,-0.7640365449642726,0.3816406599189613,0.26649121723465113,-56.82843552288283,-5.146533991355743,1.1222921256343832
280,-0.8767842441984027,0.1334134142960811,0.4795949749518543,-71.25039901017414,19.441780482341258,1.0141349451064479
290,-0.9949559101079178,0.04896490619005859,0.5630913047438467,-61.34652212078656,15.993008790435786,-1.3392686334654476
300,-0.9859898095809893,0.042455803521162946,0.5424658553563215,-38.685236513566785,7.308714843559681,-2.6272274046201307
310,-0.8667608611440775,0.08968406152014674,0.45407636344602603,-21.258927164168544,6.609058345902067,4.38339728097767
320,-0.7414651355222899,0.046705680525404664,0.5429491762602413,-26.299116141809506,4.0903345906629,7.341396243585496
330,-1.0293449468719396,-0.028671694240490375,0.6789198609402061,-56.871060179242285,-11.654123955532468,2.2386166266196197
340,-0.8166012423112187,-0.04503976742726726,0.6055979421193248,-19.896802812744422,-11.635753633143608,-3.2438095935856666
350,-0.7998708982895946,0.1216055644992203,0.5755956066951455,24.487348825379772,-22.130900722829193,-7.841498215724805
360,-0.8216331041462442,-0.19537863155655533,0.356559518828994,0.7261940601930936,-21.850202153266995,-25.055525524697064
370,-0.8192762847770614,-0.2700785039965598,0.5414708391835913,-4.264863162518612,-26.090830400823595,-30.72893186892263
380,-0.5629001303216425,-0.7432078036902614,0.76655376719199,-30.93039178656999,-19.108258395405944,-47.23626360332497
390,-0.764746822701412,-0.4280131775078031,0.5151548414721869,1.9135473863351264,-3.698708227007645,-32.44991714331857
400,-0.858322569424573,0.1630652203474083,0.6043212026094862,-2.834619308798306,13.402851336425217,-30.65341847020692
410,-0.8594228765346624,0.3744318973287291,-0.04181083458904254,-8.725388066865044,29.53835267680818,-23.474418772017188
420,-0.9103941452455917,0.09894749370387068,0.5687626512132415,13.390261643263116,44.74581967287552,-9.08506295111718
430,-0.8368355770817035,0.8048784794907382,-0.08002015949499244,68.29237559707686,66.04966631553914,32.71983952155928
440,-0.7575844002765963,0.4747703295434574,-0.08352427971084142,102.56712595002287,75.6208917347972,64.71615081874081
450,-0.9643756659732936,0.1514853789065761,0.5318527667613097,2.050988177758186,78.39864679436367,58.66121150398481
460,-0.8028320408977904,0.523946220332421,0.6137987000555734,-30.667151852707054,63.294357297592775,38.48796274570176
470,-0.6041305406473574,0.4931943536178362,0.2995950737499789,-18.000965365759193,52.84159277539559,29.40267018884095
480,-0.4749527164816053,0.2718051350028967,0.7667364670176974,-5.6365635017552,44.171858154179105,18.834027309623632
490,-0.7672679889914489,-0.030091362387128003,0.7132344994622507,-25.826815150987752,23.525616121405303,-2.945833072158327
500,-0.8839163201428344,0.029594981511880992,0.44870854373221625,-28.448481006227397,14.14756918429056,-8.744264487758869
510,-0.8455802109959827,0.07781505046204074,0.3962152300792506,-14.820254470051319,5.023454928907748,-11.900007812103297
520,-0.8498229559870921,-0.034618530255989724,0.46696706888756123,25.491395918696252,1.8992975184498109,6.422124738773187
530,-0.9275527996989404,-0.3071140507301176,0.7060721656269963,63.08406330660235,-6.5621480129554985,14.850164296557395
540,-0.8999358718233637,-0.4289716575459938,0.46748544391806973,50.563020535016,-17.406411121872914,-20.611991755383748
550,-0.910835545996386,-0.20425347982150985,0.29277660844679854,94.3082508175843,-33.05374821933948,-47.71686868937464
560,-0.8700734262999661,0.2114272163841666,0.29843032494592675,112.8811949783955,-33.748792741756674,-52.17365162193211
570,-0.8861114330090246,0.470212145802216,0.028837774070027702,82.18954182005105,-21.379679609807717,-42.09594497273521
580,-0.9270456449489287,0.5652682870585845,0.14002560066897338,82.47269810297102,-10.624789573229139,-0.10438561927553666
590,-0.8106652335681025,0.5685431120703014,0.3204506516926195,12.03246681176303,-1.3021779206446396,10.624063106123087
600,-0.8317996877071605,0.42775754049554127,0.4088126854710218,-19.100026135897114,-2.3648197394319195,-12.938039681981067
610,-0.8970101184528861,0.20606708328588313,0.3643664248482581,-28.258129705990786,-5.3328968196960895,-26.38929774362723
620,-0.8690398713074751,0.20723883163627643,0.3871744477666293,-22.926154145960975,-4.864240783947983,-26.24558585596066
630,-0.8498736238360038,0.2181475771634042,0.4099944156099975,-21.883033787133513,-5.929578049751986,-24.798782110901076
640,-0.8327494264141316,0.20076997634801783,0.4220189641182363,-14.41622429097825,-3.985799717761037,-12.962008406905774
650,-0.8626265020221082,0.1777892811849029,0.3979051533590142,1.242789949224453,-2.324889582927401,6.12192931643103
660,-0.8389023714121732,0.23651307425005652,0.4253040803673645,9.893474582479882,3.888082952792896,11.997441894492933
670,-0.8239516166106762,0.2625077631598457,0.43465384852756106,2.3000445521756645,0.2560995382644141,3.652089502062662
680,-0.8328344500285229,0.2334287873004769,0.43202782724019395,-3.6036930655707637,0.9285315933260886,-2.7475624767503053
690,-0.8660491347685366,0.21037022451235754,0.37810694997745814,-6.320750862481667,2.6377541278875647,-4.116906777039295
700,-0.8541297848429604,0.21226914075044076,0.4117104475592048,-9.833532822998697,-0.555274362410904,-6.9921999039003655
710,-0.8545433665291955,0.1876175220332961,0.40701384308851335,0.9872815657338198,0.25515368420008744,5.682575646327853
720,-0.8352539979915478,0.19974209103234566,0.4269107216567918,9.592908043354154,0.9290452518757955,8.869104144676175
730,-0.8381723127295795,0.23982698531711577,0.4006656444101544,1.907104684819625,-0.5041140199311887,5.024803764379852
740,-0.8692352117502434,0.1980599938438647,0.39609997656181867,-4.3700194401632055,-3.286613794439006,-1.7788024267925557
750,-0.8612513879164853,0.22190125087965568,0.40308675747256667,-6.042291134005952,-4.52357367533624,-5.859137016904356
760,-0.8457929905095863,0.2220873852811402,0.4137306387698083,-7.254153809437202,-2.846101147944501,-6.386745779152203
770,-0.8230479307483083,0.22453524371720535,0.43240263392310563,1.9544830825740085,2.3806576118725284,2.5121456087185616
780,-0.8439684939133298,0.2086117881411257,0.415606639643602,2.701927700154758,0.9416891717895537,3.033448012397952
790,-0.8277487532640196,0.2337921079104723,0.4317024863948792,4.576569632854945,2.4029144257811037,5.942496451650166
800,-0.8380770386727895,0.23277217104632428,0.4233109340840993,1.3825144739318214,0.4240566644403923,3.38385319750047
810,-0.8836376710232825,0.19142131597105233,0.3789270756021199,-1.2013099917605428,0.3707721617760087,1.520471919514193
820,-0.8637567940533197,0.20812633714649403,0.40491285405406124,-0.5323741253980026,1.040282853183689,2.039318711250817
830,-0.8337595757688269,0.23119247311759905,0.43019408573586737,6.914717103496512,0.8188322756861317,4.073517661383489
840,-0.8313659776116494,0.2292574718990082,0.4283923583146883,8.096857009493872,-0.1358586099186099,3.1734158148761766
850,-0.8364651676256165,0.23561472279655665,0.42759631844398727,2.797400360552019,-1.4814728893290914,0.27908180497816737
860,-0.8513907949626462,0.2264400784648155,0.41447665487793084,0.4980777291567158,-1.6914318291717492,-0.5878733807710574
870,-0.8961829548181199,0.17476417750933554,0.3622548355055932,-0.7248020238771107,-2.376062101184403,-1.4484139727771939
880,-0.8428546289494123,0.22823737629343757,0.4164811723665648,-2.841543904437323,-1.9985139171698192,-1.7074389864363393
890,-0.8703062362276603,0.20484673924559524,0.3887618455175076,0.7271772983258438,1.2186085805570608,1.097555613295135
900,-0.8651348946665273,0.20130884155846435,0.39269797060023304,0.7122191513654446,-1.297511538561754,-1.9536669524062713
910,-0.818539359262476,0.24375793367230655,0.43893770926512793,1.9286994995081836,-1.0990193524778238,-1.7207396969348423
920,-0.8400221211830882,0.22941465706449438,0.41686193396339566,5.364350968422318,2.9002546671112337,2.80085448243321
930,-0.842760484389745,0.22848109290623664,0.4183785704853486,1.9879404391156181,0.6605822519989091,0.7610869001475968
940,-0.8351998631925979,0.2346399834265134,0.42848842733846526,-0.07154239480654812,-0.5034536368486258,-0.007184043526861139
950,-0.845825769619777,0.2264968920549263,0.41288364951334644,-1.9454274838896777,-3.5072606965901105,-2.9880527469517473
960,-0.8289730431914358,0.24957803441541884,0.4252423506614164,4.32676837195712,1.9103684119231426,0.7671851370080607
970,-0.8509882436243698,0.229216732372898,0.4058393697599344,0.9562993164894802,1.4734622020828083,-1.7097854833953292
980,-0.8658416142458277,0.20573229090514308,0.39017281849270313,0.3349487711448004,0.9349931469444779,-1.8387840358461345
990,-0.8384479569851483,0.2302439851310419,0.4165056220628206,-2.690519776835659,-1.5286118489784524,-3.0278115909814294
1000,-0.8324902747544669,0.23159136340628753,0.4304285771110002,-0.0764560157888643,0.5961952589658194,1.3501941623204863
1010,-0.8419725461724905,0.22421290111700795,0.4237799222064155,-1.8527931166289953,-2.553624930144355,-0.39618877533213226
1020,-0.86404270955699,0.2125221920106845,0.3945111452494046,-1.69933746681418,-3.7751656074821134,-3.578331561601896
1030,-0.8372981721930131,0.2395163665091415,0.42662995049386626,-1.7795459819041142,-0.7021657074890025,-1.9891363201685888
1040,-0.8478816780952826,0.22398626598590798,0.40901510737337854,-2.800978720390475,1.120477050149501,-1.8950369395395001
1050,-0.848341163347736,0.22668704767063874,0.4067177081260875,-4.102272111228303,1.1557561448720515,-1.204587279992937
1060,-0.8415949115902788,0.22478771041143433,0.4257898391046371,-0.724783047272759,1.6330970582066486,1.3595105047361038
1070,-0.8591951968756357,0.2055886173646194,0.40709724154089605,1.0124924155927946,-0.22400308432958205,1.662765820094056
1080,-0.8428419950094311,0.2221014972091289,0.4185600401952249,1.777057793813093,1.08518831712581,-0.6227447052835918
1090,-0.8570737586591827,0.21922123738288257,0.4024065024473191,-4.051529547120058,-0.11557570413533202,-3.1598963125641193
1100,-0.8386366332437838,0.23199359454771584,0.4200192855141788,-3.877483697586065,-1.1837834734125883,-2.151272931658344
1110,-0.8419830228939565,0.21144449748172794,0.4154405350393216,-0.7203158415093038,0.303727556955772,0.7015907545243768
1120,-0.8215074072312311,0.24594264801200746,0.4373757545876196,3.7893373119767846,2.3040134479758847,4.566029492292939
1130,-0.8493309821235197,0.22664694207167482,0.4076327635772153,0.7205032454449805,0.4928939206048458,2.268230554731218
1140,-0.8724362218058932,0.20205892451575452,0.3906737394492232,0.7936828021119835,2.8627670325917394,1.0714626990075684
1150,-0.8716627748473991,0.19761814749374593,0.39126333605534847,-0.7351469358151195,-0.3103926939831866,-2.064893861472915
1160,-0.8395414207837671,0.22555582863517162,0.4224224886646537,2.876614220056216,2.2152924888423104,1.4651551404669108
1170,-0.8355907200502405,0.2357893493753907,0.42769650587485813,1.8516218817614722,1.1570463285467725,1.2949796905840545
1180,-0.8329281446393598,0.23849076404091724,0.43058256514956733,-2.073886559735909,-2.0890369792504258,-1.9353102448325608
1190,-0.8471879994986469,0.21741475806208088,0.4125664298484188,-0.5027618414843651,-0.301876400679441,0.8099664896885436
1200,-0.8357540186938788,0.23155088393511367,0.42486036362734936,0.7678161040454056,1.1301569282307917,2.2160529941395235
1210,-0.8696807169418411,0.19927024771047497,0.3947998059886637,0.8620689164614134,0.9752302275016718,1.5858900909959777
1220,-0.8501534677855684,0.21141738127452794,0.4090997312930078,1.6478901529329408,0.21608062695513927,0.007522774956416178
1230,-0.8665915113664997,0.20111105329964635,0.38802432516717433,2.6398932772263257,2.1032194919013247,0.6725323994765091
1240,-0.8278915047448052,0.24394965860233228,0.4322671798502389,-0.03467450885068302,1.3751796310596915,-0.6769256880797516
1250,-0.8516801109911399,0.21129380702234615,0.4095426439943003,-1.647067039518935,-0.4614211247613419,-1.1283832703437653
1260,-0.8308011135354393,0.23197683244607298,0.43131277435395216,-2.940670551792058,-2.399411967183961,-1.4600080766006993
1270,-0.8315667830140602,0.23794547011887507,0.4311200082584904,-1.1229863592711165,0.4028941071084825,1.0479618347564519
1280,-0.8343114817084755,0.23222946854922835,0.4253424496471041,-2.5240003230838255,-0.9204599182673143,-0.987514289833741
1290,-0.812097082747295,0.2523584453399747,0.44694497834502867,2.8184961612284822,2.725553681432444,2.351551973439998
1300,-0.8561508535248841,0.21113444050695065,0.40232152802579746,0.5223184613203421,-0.13201866645579602,-1.1140588909714348
1310,-0.8349315279669409,0.23325550573468387,0.42434316269149713,0.14048061328246197,0.4898011847139024,-1.0641792554680598
1320,-0.848732202638497,0.22149164528229562,0.4144458242814749,0.529249602712994,1.8307808780144017,0.707600374297788
1330,-0.8530709924676523,0.21399768298851662,0.4090544395956666,-0.06316379102622227,0.44273295991496897,1.0140253495450955
1340,-0.8176547373803313,0.2484015966431687,0.4405813750589596,1.4349046904841862,-0.04668013363381315,1.1026246399546034
1350,-0.8642780762465556,0.20792802599521856,0.39334095594176693,1.2782766246932287,0.6796058805911709,0.44167408250581386
1360,-0.8527990350474599,0.21683240136934734,0.407198680903534,-1.9093548785989578,-1.19194542556723,-2.816390444238326
1370,-0.8522326586444432,0.21351971462776917,0.40812087337999603,-1.0199482491254004,0.4303899532598321,-1.822186925364349
1380,-0.8379079547675498,0.219795256344126,0.4188401067808381,1.1732269978671304,0.9372317263886853,0.1512243328068983
1390,-0.8447033172470212,0.21802034971515505,0.41708070726747415,4.811764910499475,1.2120947638734916,2.941590220700488
1400,-0.8462499318861934,0.22840240341400825,0.41717693306950415,0.06683819011197967,-0.7593091528514111,-0.49051477661533394
1410,-0.8554699105025076,0.2217494615002985,0.4032931996893362,-2.571892350458541,-0.7222847475782489,-1.9453953448579844
1420,-0.8171286949374157,0.25217239559635973,0.43898455914544476,-4.528234528546176,-0.780004405237243,-3.122771247537404
1430,-0.8442555115015674,0.2211618425281184,0.41482211945704,-4.428477536148397,-0.41532420430013517,-2.1811648011033027
1440,-0.8760601791829918,0.18710572951515275,0.38385896748518733,-1.215078501082732,0.7018134973639171,-0.0727546165205909
1450,-0.8281536285871594,0.23915368400017137,0.4224845174937564,1.3368062878900897,1.0300248736881048,1.4080584475674032
1460,-0.8438375450737364,0.21902644405206761,0.415845278544387,2.510987607320582,2.0274684324999726,1.7547997629750822
