time_ms,ax,ay,az,gx,gy,gz
0,-0.8882331239892204,0.12633297705263835,0.4525855130389873,0.9190926661560144,-0.5459072660289939,1.5929626912313892
10,-0.854298662621332,0.1692070352797721,0.48754217943437045,1.2385210647178586,2.536589050050599,2.7052205516244063
20,-0.893174048426767,0.13250154652171386,0.4551317046059765,-0.1172994772963114,1.0146699646686548,0.9099291088164418
30,-0.9119501757869289,0.1136982992087108,0.44307907370977756,0.6645182802705121,1.2421895002303809,0.4534440839296465
40,-0.8678174329620852,0.15471293769223785,0.4870435987284978,-1.348620632146391,-1.2616181527823755,-2.625726652126251
50,-0.889944923802863,0.12648264656518257,0.458369933322898,0.6785360412654939,0.04815434239122102,-0.9250140230250026
60,-0.8758116932817581,0.13772972566169456,0.47400892893914204,0.5665286747301506,-0.8928943367672586,-1.1723325561715872
70,-0.8979036055562669,0.12319260554056875,0.4521474967068008,-0.47526736044970286,-2.6566745178490434,-2.1511688545180485
80,-0.8943417871182165,0.1272616867642238,0.4561997730343889,1.4660645227326512,0.7040085124152726,1.775170140686575
90,-0.8804368434197741,0.14264074746839603,0.4668254467936314,0.6972467741021593,0.39713529115373425,1.7737561233254482
100,-0.8704189937717517,0.15131280408348968,0.4744767340013926,-0.7086427911433919,-0.8301107440349038,0.27270728445902737
110,-0.8983110734100314,0.11928268814160274,0.44870978132876127,-2.351516459070457,-1.9546279631347807,-1.6452796128179672
120,-0.9093071969177825,0.11119047958997183,0.4415990840000174,-0.9390233811473848,-0.7472492784696747,-1.0699369992439318
130,-0.8899090722979793,0.1327511113392896,0.4605583743841218,1.346482586112435,3.0255603032537577,2.29764367943873
140,-0.8845529322052693,0.13786935445648604,0.4619408765294113,-3.1070574556209483,-0.8420261037040605,-2.0130532283735514
150,-0.8896634584312981,0.13219774396176912,0.45973273011531385,-2.9061631188633195,-0.5403599785580909,-1.7409890378858783
160,-0.8830621431467223,0.13808270685340338,0.4685083847659692,-0.32255775272819487,1.9360230972327486,1.1457959385378296
170,-0.9009773169894355,0.11926851805387843,0.44762032054511214,-2.302786063687676,-0.03232834366393289,-0.3699381514977138
180,-0.8810931169415506,0.13850669670285798,0.46440895650768443,-1.9849145440998552,0.7832467816155767,0.31661927266547213
190,-0.8993735080621954,0.12167527345177281,0.44833622463546424,-5.119285051169754,-1.1123867531765845,-2.0056268761314033
200,-0.8983779992334001,0.1212305099560288,0.45503985880367287,-2.6454999813254796,0.8270166572622961,-0.28937090894457174
210,-0.8976829326617531,0.12412966243205242,0.4571685992398718,-0.5612685400792565,2.577143485264358,1.046094590081865
220,-0.8813808531819561,0.13596566251435285,0.4699468920835193,-4.122516505034364,-0.9892897397905005,-2.698697581471843
230,-0.8827004794971541,0.1291347290908871,0.4658971699576915,-6.1737485971642325,-2.582563704647425,-4.3961328144669585
240,-0.8703019939464189,0.1511344288604437,0.4830006245018406,-4.00740553568572,0.7546111921393278,-1.6846704480789085
250,-0.8699024170881172,0.15137011097155254,0.48169737961714215,-6.280988549255248,-0.34598353786422265,-3.0433344514323535
260,-0.8686430827479,0.15473567122408396,0.48258883513768647,-5.138237818349189,1.5447732320625214,-2.1186125446317505
270,-0.9004888856352659,0.11621378172205676,0.4505736657219968,-7.3149770660744,0.7024756373803396,-3.890441731089766
280,-0.8796500096422837,0.1326485733966166,0.47066903344736294,-8.081852114130799,0.005122255263201175,-4.871875448046322
290,-0.9158766098877434,0.0959120781835505,0.43380282398734565,-1.8606341051436832,3.308486848625694,0.09087275357871283
300,-0.879556590127427,0.129618978879992,0.4694322821869687,-1.1225669446037423,-1.264487410714429,-0.559168571247949
310,-0.901240957751569,0.10599881554014412,0.43915127557305356,2.11284649769611,1.9730042990498415,3.5318094524965344
320,-0.900066659188777,0.10939703260815838,0.44724581698515775,-2.0930724606101054,-1.854051754014648,0.45825603295367223
330,-0.8978718944609924,0.11208349456008508,0.45605960629112036,-1.911606095501933,-2.19839163963133,0.1412629289908094
340,-0.8851140973119636,0.12352280878835126,0.46179244868139946,1.21521082550414,0.3826873509320564,2.43402709272774
350,-0.9158454524376144,0.09573259155377452,0.42589340589036,4.032414486648931,2.8728174485889983,4.210913377825269
360,-0.9059076614256565,0.11306307010043684,0.4497833681826268,1.8307588727104358,-0.1869763165481338,0.15074904695934094
370,-0.8921599663933439,0.11201520873078238,0.4662643534879577,5.987783108526068,0.5654640868376523,1.568572524305587
380,-0.8943518038790081,0.13351658723559554,0.4855724249058871,5.399740808173961,-2.700186920861345,-0.2903697371462066
390,-0.8835236520208498,0.15392507257614002,0.4972370700805087,8.026514333693749,-2.4493800008635676,3.5772195205515023
400,-0.9120726083832374,0.1282825150065382,0.5140030347809269,9.792441537701126,-3.4862496715217604,10.228583654312674
410,-0.9007566437486965,0.12452836793349017,0.5713591614211799,12.279714696951382,-5.572300916174104,16.593928873225764
420,-0.9925713933825909,-0.0027289226763220504,0.47842922176616537,16.74240174971809,-8.933671912875582,18.05982923002939
430,-0.9993470361439931,-0.02570054259675137,0.49472264437720415,23.055131978400027,-14.69668117484361,12.784581318018056
440,-0.872307057487958,0.18237823607639037,0.46540634771085404,21.117930817733235,-19.286981826413705,-9.484680318742612
450,-0.8351942512041588,0.21987198397354696,0.4265340150133369,15.471856587742979,-20.043719174542098,-12.628216309366945
460,-0.7883778519749914,0.25376054172729023,0.4388449060198355,14.976723625511736,-13.280347423039142,-6.417994629765975
470,-0.7836686698319519,0.25401068903907936,0.4300012626163511,5.151000020481479,-13.918223866171216,-9.897104980284478
480,-0.7813269580948656,0.2489768270811941,0.4344275256766967,1.8923334746815572,-6.945913692958413,-6.9286781364853685
490,-0.7817204173780795,0.20821428176015105,0.45691190776598073,0.33330046842047806,-1.9658902122523194,-4.289394391619091
500,-0.7789386100392214,0.1767622128290472,0.4664291334494017,-2.022471267943085,1.9982557183540228,-2.1673722086047884
510,-0.8612445196748273,0.13532700106336937,0.5523245982848395,-0.5827456713157682,0.7487678126690154,-2.032556798154669
520,-0.970275882198717,0.06652491054044492,0.4976270470455553,-1.3559068020779306,-3.6947972552913377,-5.642483888612677
530,-0.9545918747586634,0.11033576975447046,0.4645772695188119,0.3437468674361036,-2.930792511714886,-4.243478376184175
540,-0.8912452555237967,0.17290427615969756,0.4589907536318082,-1.1797596937162558,-2.7588189213866587,-2.6816878136354183
550,-0.8641889155678976,0.130244843715742,0.44140108282396445,4.418986713164048,4.026211273203128,5.778331573287988
560,-0.8011158673963704,0.14852567450930027,0.4714688534342144,0.2501740068646424,2.3013628042813266,0.8069889140067308
570,-0.780171101369512,0.1898833672162037,0.4866506457054637,-2.3693763111059583,4.407330137002866,-0.989070547388945
580,-0.8263851954981557,0.13919345849274442,0.4844651837084404,-4.916499595231385,11.25383978196938,0.4009562279932064
590,-0.9066589780882519,0.07552273755802337,0.472286759608696,-10.642751777723243,10.449146883664547,-4.139799319972638
600,-0.959261388492359,0.07656405049738738,0.46674786881988284,-10.297883156917754,8.517820750728648,-5.549391452220637
610,-0.9252310022492594,0.15115131634634396,0.49784922312922236,-10.710865634133613,5.584580308480697,-3.756439123069522
620,-0.9369561583653021,0.15881871799488262,0.5654397544734096,-10.507068806049372,1.8568596583502688,-1.330359574310622
630,-0.9242699950142569,0.10736719953150495,0.4803476326366714,-9.8288685614574,-1.362540350603019,-2.7543819894209904
640,-0.9158403728167908,0.08611449422878104,0.44332622452327697,-6.447986964640244,0.46462278355204545,-1.2561932930904098
650,-0.8810084392879602,0.11358159780751907,0.4840174234325125,-10.376462192502313,-3.367406691587611,-5.75400736361579
660,-0.8674617204854154,0.12757531750388917,0.5078987144933927,-9.53427162979689,-2.1877177676631128,-4.775829398028158
670,-0.8858578378514409,0.11156617606676861,0.4735446290246586,-7.866564464442681,-2.16275588256239,-4.138580172571441
680,-0.8916148566049128,0.05073427644845069,0.5049510643986638,-1.5570389393402015,-5.777124324740144,-3.0901557160363593
690,-0.8743278870639475,0.06545381260746484,0.46806302829164503,-0.7437844750265121,-4.377287291328929,-3.61753615252855
700,-0.8867237529682387,0.11482719171381592,0.46329774561822834,-2.5190965121563114,-8.108183438596955,-4.975815665163467
710,-0.8717659870779204,0.12386227161758324,0.506111931973243,3.3382622877477455,-7.161890821060224,-1.0092465229625343
720,-0.8675146638439436,0.06477571012956476,0.505591069382856,8.740365139773312,-11.233270935261901,-3.114042607591007
730,-0.8297088569540569,0.13034358964445794,0.48463175251367213,13.466656941162725,-17.931498355750165,-9.008236473668491
740,-0.93435674536563,0.35195383851446715,0.32073550926219674,14.412110590469233,-5.077578884022174,-1.4103514715744443
750,-0.8476414823981697,0.0018473383745544608,0.5534145959710469,9.928726797593551,-13.19907370841236,-11.09721445459425
760,-0.8563861041726277,0.000381305200635243,0.4525829331362405,6.204812238680073,-11.104046819093792,-11.11385963173165
770,-0.841217423977441,-0.04862208983967718,0.5281525613599158,12.141714745092377,-15.032964575138367,-13.236298407411399
780,-0.7780701164495908,0.01661276844939382,0.7003676724332765,20.27584929696322,-14.762014480965027,-9.631136127069935
790,-0.8862478298613157,0.20885630841050576,0.5091553401207038,5.753481711955003,-10.132343038280052,-6.89456630574223
800,-0.8681572201303736,0.003500612316751925,0.5864625382852672,-2.320252837986824,-5.519096228672766,-15.27507692480617
810,-0.8513761022023172,0.16016406808490904,0.4502352304907618,-2.909060261954324,-3.573948978823789,-8.837320206658307
820,-0.8806070316773383,0.0639501711731676,0.4553969849415398,-0.7244896578715643,-2.666620855995978,-9.420176188390382
830,-0.895589997552242,0.02984333272398499,0.44863811419268973,0.005171123750881135,-2.3162841640409493,-12.114696274580318
840,-0.8835654394453831,0.10256834890973404,0.44992610458666504,0.055595203960477235,-3.037759651111569,-15.388778906894906
850,-0.8885262122342217,0.1279163865541568,0.4752922582019491,6.550881818150852,1.5670264724230445,-12.781756697300912
860,-0.887798936201669,0.0006962067698868951,0.4619055196258818,1.297562188433039,-0.022808719934844596,-16.357720138411665
870,-0.8501172921006895,0.1057160526376243,0.5324137278934014,3.0580352188775017,2.648286709640591,-4.5594172388552625
880,-0.889797673783627,0.14190180060354954,0.42742770663216323,1.4398592917311668,10.109594839607494,2.740494825752871
890,-0.8900075824021035,0.12135593218970407,0.41963892481268117,2.1140178518228767,5.80208023857389,-1.5373256255375733
900,-0.9147767611380359,0.06332166118989885,0.4203706573171614,6.130278435849754,7.510741655794486,-0.7739810907320055
910,-0.901442709035033,0.09342183472578194,0.433107916078424,2.3671395836188482,13.609012213556896,1.7445770291744023
920,-0.8834941605312755,0.08614079312891493,0.4384546386719946,0.298816226892056,6.573042541626619,-6.804808264365607
930,-0.8561957279867144,0.1265269270288679,0.5602014138476743,3.912410243655453,5.743969676023191,-3.90943809624758
940,-0.9051589705148505,0.05947395542455828,0.4575566545530456,-0.12228966832864752,10.734273377888565,2.4527456778483065
950,-0.8923484088072604,0.10719770906262534,0.3778339673236819,-6.429817120859449,11.522341988694887,2.5136900192055824
960,-0.8971772125849594,0.060166950747940165,0.43562463239309507,-5.07290400616964,10.68452660802961,2.8043345424413078
970,-0.8695805511803761,-0.0003238338875698535,0.6179471909130283,1.1935216424877866,8.738118245726872,4.500892053361003
980,-0.8887389435392681,0.11172210614399551,0.4836944014328687,-0.9969522238725194,5.540410579260419,2.6689034194321684
990,-0.905730812379581,-0.061954656176072764,0.590846527643653,-8.755087331969595,8.488875837624862,6.240885707590347
1000,-0.8779417008152635,0.11351508519937802,0.5311078460185443,-10.278421246443346,17.34855750018747,14.827340969696401
1010,-0.8636736330748461,0.08855448372292116,0.6629792613661792,-5.399568557073371,19.708211666992835,17.36561549151916
1020,-0.9065345450281687,0.10869981132352131,0.5465337305872571,-2.0017798393853306,15.082520339012813,12.886364688221104
1030,-0.9426616659529163,0.18657718144278224,0.32050051952360376,-4.728194270370988,13.695226323386123,10.513397142618867
1040,-0.8913670127270341,-0.05248466255328596,0.6658553534133598,-22.98563898628927,13.719297511117208,8.060452278145107
1050,-0.9035720321575488,-0.08527266188016418,0.6847622949421037,-1.7321718813462659,10.455922112068878,6.893951298064038
1060,-0.8629640544226053,0.02106337267316997,0.5765944787134833,-13.46894335654811,10.70715004502331,12.07214445381346
1070,-0.8817890337265621,-0.018435715550550767,0.602778074781101,-19.250623655439714,6.350047581433971,8.253053527904061
1080,-0.8651028070994519,0.09976103591594748,0.5108214347896004,-13.971896697814636,7.526490840353133,11.0257035830165
1090,-0.8304082053975297,0.24528038349258244,0.36797487196967166,-6.003078121000201,10.272686470960533,14.558296244043323
1100,-0.9039001836693322,0.0016427272530269979,0.4477009497328353,-0.6364030276709816,7.2065578467718705,5.03129317609193
1110,-0.9116500509749512,0.046383430913018456,0.4626162702706657,-0.5886605264933885,1.0987098795232084,-2.7526482910085455
1120,-0.8764820134285212,0.121238214353318,0.4674531180561846,-3.914799565334099,-2.054877262012969,-3.9486044858699487
1130,-0.8628108280940128,0.14702811030314814,0.47752311476440995,-2.9078185039161806,-1.6903392810876625,-1.7814899570140974
1140,-0.8917937609616017,0.1141731239792781,0.4574736787018178,0.12061126442587816,0.20847532270416297,1.4605067857496987
1150,-0.905803110696948,0.08494090911433462,0.4490223068630989,-0.06514983026101095,-2.432644394407888,-0.8105608252804999
1160,-0.8930977654188562,0.08841461421990733,0.457356628041667,9.509862629891682,2.7212473560118418,3.2832564229723644
1170,-0.9094864082861134,0.1588896377519873,0.4294560940808458,9.665226188763707,1.3188518906733495,0.3859681713571026
1180,-0.9002206998209289,0.04116795291013476,0.48587742984954085,8.216000739965747,2.0129186260908036,-1.9585730836080897
1190,-0.8986062391332788,-0.05067155148332352,0.4980166579121559,2.101641096308481,-5.760303292965412,-16.808106918458673
1200,-0.919626821502993,0.09422420683968089,0.4684291598617399,9.495666109390926,-3.6103777989477166,-15.015218875468507
1210,-0.9223759790128171,0.19788448451400517,0.41446427456052604,10.332570979434712,-5.385710797743067,-13.441196943108428
1220,-0.8636837652594934,0.08985700807449848,0.3958251838379302,6.1627972129712845,-5.930031952269881,-12.775091225513025
1230,-0.9291545522456953,0.48593135648834707,0.4187293899917154,10.958182290920924,-2.7065038652880578,-0.4021508639333983
1240,-0.8319203740548634,0.25448855029878287,0.4743870962053217,18.26740274692476,-5.169588420704132,-11.716672364512076
1250,-0.81912347777145,0.12976271675311601,0.45333250395956787,20.33213450903438,-4.731624581205603,-13.480774733039016
1260,-0.8888913214523813,0.06595364625031912,0.3788497886596762,11.602090703705848,1.3042869441676985,-7.526358377174778
1270,-0.939118792294775,0.06352529616890391,0.31198790972866947,5.3337056429938245,3.13647982240306,-3.9693698091474006
1280,-0.9033934785686499,0.10128132382392688,0.3214561839623342,16.63985768095865,0.9051053363050894,-3.4030672673108935
1290,-0.8389838719791807,0.10090930011772808,0.49012355826307985,19.057044095918393,-1.3438402582779965,-7.749759696889027
1300,-0.8393287936900574,0.05492065727532923,0.5238649217119221,49.985059443594515,-6.764129818657768,-11.417674721939296
1310,-0.8286236134113246,0.2319606609603784,0.5243494629183268,26.6180903697999,-3.2540487349623195,-5.693005388401301
1320,-0.8805439549925287,0.18701741334078664,0.4750069371811576,10.820134417579883,-4.473931408168488,-4.552898701855302
1330,-0.8738869157391894,0.15831077641985886,0.4740671140530762,12.616082477156361,0.4394844094863326,3.7743511809316264
1340,-0.8836946770992752,0.19208933500997324,0.44152688476887353,5.757781065340021,0.9773391737244497,7.348205675997778
1350,-0.9237324856191776,0.10875590383016694,0.4292820215183636,0.18613730158862163,-1.2986679334934133,2.4764733037919378
1360,-0.9174115880643452,0.12583529185238645,0.4365231326362167,-1.1714188552056264,0.7652057273655408,0.7818224373696663
1370,-0.9119705133142764,0.10023603138287998,0.4383312471615505,-2.0487751368553466,0.6303873059514897,-2.6621409803904017
1380,-0.8901387903716894,0.1127226572945443,0.45832663769942183,-4.8324759229836936,-1.2892172082826212,-5.170002407202447
1390,-0.899715555365712,0.10322475983411977,0.45069687328262975,-2.771242623214565,2.4833080187804697,-0.6042141453514329
1400,-0.8946992642078607,0.09947540800768039,0.45962966965802154,-3.0387659019885387,2.7474845773602636,1.002367766050607
1410,-0.8913627639001167,0.09072446855884655,0.46382731177799547,-0.7799878943654124,0.8642137115902844,1.94699294059892
1420,-0.8886033249223199,0.10261184474642389,0.45840682015308204,-1.4231494799758009,0.17952813417272862,2.9899011414266643
1430,-0.9118632557312505,0.08534169496046709,0.43475316819117416,-0.7046071724198195,0.5044209293112102,3.570166233049129
1440,-0.9025957654122364,0.10424231180459399,0.44214312328337735,-0.07324615604790197,0.7772719177155373,1.9831051430270086
1450,-0.8972454148534402,0.1142628205591057,0.4474457764691944,-0.5427748690837566,1.0752054482480833,0.10023038640279314
1460,-0.8744413198176093,0.13052840266256444,0.4734357468825178,-1.7081578283365866,0.9117841386399012,-0.94814601709192
1470,-0.8955063311046688,0.09551443638408803,0.455119810824959,-2.541285269942696,-1.1582579776082773,-2.1272260240906444
1480,-0.8766372923910549,0.12062590541379323,0.47154330004828227,-0.015489427257364463,-0.4514043128200812,0.28975841250495005
1490,-0.8995770705848307,0.09563526319136684,0.4430048217353837,1.9583223460595751,-0.3757651982519597,1.7065630422769837
1500,-0.8908523460678445,0.10631203404667883,0.4536863496296652,5.083216403542735,1.6443248053441408,4.025875163648202
1510,-0.8898182300399544,0.1108110401489483,0.45958049044127847,2.3318807242322195,2.200000164582613,1.6093749476789763
1520,-0.8706562890839932,0.1289274677849416,0.4806439527370657,-4.352820734535716,-0.3270342514733651,-4.419854617488046
1530,-0.8815413509324748,0.10955443948991617,0.4673481247222733,-1.596768454994587,0.25400576257108515,-2.6896233524328634
1540,-0.8769883398462625,0.11326144411897433,0.4784299065651661,0.9275052990064042,0.0502785383316765,-0.8503373871547374
1550,-0.8754201191935915,0.1157623865276678,0.4745557990643473,0.6988999842779531,-1.3156090737778972,-0.5971324714511216
1560,-0.918083662307646,0.0745395748504753,0.4292088940990206,3.7856445150613665,0.9645122651030184,2.7767270469708
1570,-0.8981860878891352,0.10291233526650452,0.44963472980670666,5.493240064426017,3.094715036579611,4.916408603133695
1580,-0.8874651535142807,0.11984435119796767,0.4629831414930253,2.4858053520152175,2.128323038959047,2.6771438777471523
1590,-0.8935134494962682,0.10523554586218355,0.45877384479466143,-2.3606225077201537,-0.1955272305188172,-1.3609536086874165
1600,-0.8839402218050614,0.10669981571258771,0.4611337927757416,-2.2346824004431354,-1.5039212217458113,-1.5417900587566626
1610,-0.8424884496922982,0.1393475867041212,0.5061386136458791,5.082958469364615,2.28846235048773,3.6629330653955137
1620,-0.9020851631084739,0.09182486540234672,0.44246759102611466,3.659337148805969,-0.473486211718072,2.1041088396637284
1630,-0.9017647716315823,0.10593353700817967,0.4451047059990386,2.590811927208184,-0.2655878413942238,1.6823309443950794
1640,-0.9036866804192841,0.10778615144329634,0.4501338427623413,0.4348086579312418,-0.29058796334065573,-0.005863894589156815
1650,-0.8984322458827169,0.10408522379244273,0.4566408039965213,0.902026035545681,1.4355733000727946,0.8242982819986399
1660,-0.887754853385072,0.09722516079366106,0.4573824499220183,-3.180304402128048,-1.0471338122934113,-1.1939064518883529
1670,-0.9064221518512671,0.08523631538869778,0.4416061332502105,-1.1418809931446214,-2.007690254701819,-0.4283625807497502
1680,-0.9012483644720475,0.0933178726720391,0.4472669128292314,3.603559512208343,0.8069111439349468,3.012647248202115
1690,-0.9014269127340785,0.09508110340790489,0.445214484538917,2.575719408453128,-0.566486550320804,1.1821154875696998
1700,-0.8879993903218121,0.1098955707505081,0.45315309581951785,6.1591542228727025,3.3178376722693272,4.2315476267224925
1710,-0.8839041743377933,0.1170358795995983,0.45301614795402284,1.502085987382746,-0.72512182914544,-0.5552240181132276
1720,-0.8805185100553019,0.13227210456436672,0.46985234300631873,-0.5002114847128988,0.13159912579703126,-0.8884969502661828
1730,-0.8961255650542578,0.102983285812021,0.45438374669322823,1.9688178613198488,2.514403922997279,1.6431286107415248
1740,-0.8751851677107083,0.11904983243090993,0.472528151647932,-1.5084100561387208,-1.3165485271918194,-1.5212542478661542
1750,-0.8647372913311535,0.13194128284598466,0.4802315579168792,0.323143591183382,-0.4048821663882434,0.17018069986405293
1760,-0.8947318103344033,0.10468182207563374,0.447718223778074,2.295891287633563,0.8525917941419465,2.0494070034853635
1770,-0.8783894953663199,0.12096022430099998,0.46455615018887086,0.0409640048484925,-1.0015942927559778,0.2745406359420046
1780,-0.8573824797751232,0.1451310100158819,0.4956525816780474,-0.8924462310605266,-0.12850945730806887,0.18413250827209415
1790,-0.904657019245756,0.10573355431329892,0.4473089208237141,-1.1348350369019566,0.3675683910974423,-0.07571551267439636
1800,-0.8954568797214869,0.10729656589552392,0.4549863484378913,-0.225684865351031,0.28146562852934415,0.782977362309577
1810,-0.8738939777764219,0.12347600540339163,0.47287818410446275,-1.4757529508458833,-1.0809680944558133,-0.33143063147286367
1820,-0.8716318829192671,0.1279299344176339,0.4760501986773587,2.8787476943253383,4.641852315723006,4.984922947549984
1830,-0.8777447914592178,0.12832609873603287,0.4737901561594406,-2.878348843124876,0.7476537305099522,0.43059947028512724
1840,-0.8788143391300529,0.12900147206957072,0.4674075914247706,-4.066506431908361,0.03235617612435937,-1.1948894471287623
1850,-0.8720118675515026,0.12807570803436885,0.4749271469402172,-4.577737927597479,-0.24996836912339843,-2.4686874474031506
1860,-0.9021502933341567,0.09763439639006254,0.45208442822166983,-4.279372411646463,-0.9836257143362492,-3.6171443754391213
1870,-0.8611399078415419,0.13804080528011303,0.49112660359535687,-3.6491729763670087,-1.8564778331829195,-3.656327862978606
1880,-0.892184909607374,0.10457135314111896,0.45348033664375476,1.3357510037004716,2.080682851768834,1.6869683744130255
1890,-0.8705724078979267,0.12176106929265665,0.4726407427876109,-0.2735864403200307,-0.5503981191530849,0.6426961608926773
1900,-0.8937621960135159,0.09263222364554162,0.4556328316675211,2.570247064126283,-2.6361010635189697e-05,3.0893459073321687
1910,-0.8938534982971289,0.08838370460086585,0.4518706452399984,3.6904817989996594,-0.3199993224327393,4.497700844787794
1920,-0.8947596514419229,0.09068301560360179,0.44905126801986134,4.9642777073589235,0.5221375970505036,6.987854416151994
1930,-0.9201108023999668,0.07735797693003874,0.4237205383072554,7.39821583116182,3.350435602951544,10.635582792014834
1940,-0.9133924539535522,0.09409898705447357,0.43235925023085686,3.9322842334565586,0.5704505172300128,6.428032547088321
1950,-0.8797604293140772,0.13246113300119775,0.47040659195034584,4.934051905427646,2.2973270972793194,5.218300943989327
1960,-0.9078943578462324,0.10721322073075987,0.4481478462001538,1.9874368028234908,0.10159735237449588,0.7920174983268173
1970,-0.900954861544743,0.11172077901412585,0.45177457367476936,-0.7470427124575088,-2.2029230248083604,-2.5543499281259336
1980,-0.8913355703231072,0.1169056502168689,0.4624329061985632,-0.006111326622144975,-0.9362363134309012,-1.3891781305837367
1990,-0.8752234106642387,0.12885475147215303,0.4718945633652313,1.415504554860108,1.9287698232920498,1.0415276851293709
2000,-0.8894321391967303,0.11373075943369924,0.4562334595205165,0.18106708495699508,1.5324973371951234,0.4838931553279515
2010,-0.8799192492577801,0.12501741995433635,0.46803517750779894,0.05066050610002992,-0.413053164207031,0.23771380695925248
2020,-0.877029197034017,0.1306579652919223,0.46927684036001627,6.448905431793193,1.6132315077312807,6.016490336872112
2030,-0.8798756387571858,0.13429987337232932,0.47036215217408367,6.499404428882846,1.9261621020575581,6.3640641545558685
2040,-0.8897712959411211,0.12769507478868547,0.45819478240365064,2.4484301274076596,-0.6482605374603326,3.4155833152208253
2050,-0.8860601779901066,0.13613659325013788,0.4628247966936192,1.207609605769788,-0.7404201639729858,2.158818641526799
2060,-0.8784546567095727,0.14326831212204005,0.46738693718328844,2.351709155061558,1.5824214531436738,2.7229794335203996
2070,-0.8648729831372461,0.1525313210073174,0.47797277685299533,-0.8112763112291537,-0.3005275464218978,-0.6453691258129133
2080,-0.8873211922053473,0.12686680297511854,0.4578388683916987,-0.6914437876770189,0.5361634936205063,-0.1582571292693994
2090,-0.912304376451592,0.10142813205115582,0.43269595291377716,1.6470675363129708,1.184214033137313,1.2918879222599138
2100,-0.8737456657309866,0.14046888373470942,0.4686342291575151,1.1224740317251243,0.008836787911157856,0.32012652490336047
2110,-0.8737760520846997,0.14223350401508442,0.472823073956829,1.896971272107473,0.35431120349516443,1.303439962976313
2120,-0.8883738218820553,0.1228720236066186,0.45841742577443856,2.545620390633429,1.0420756431629294,1.659358730120306
2130,-0.8915003063596982,0.11849060848695625,0.4534517850746183,1.1038216128041403,0.05704514377987513,0.00036818585024883665
2140,-0.8899963092118113,0.1277441009397161,0.4549689267734826,0.1299619876622765,-0.2529043971935899,-0.5134774038854857
2150,-0.8893281066363137,0.1276365560134049,0.4537428813679431,-0.6971090852106214,-0.46145990789236235,-1.0531992376090518
2160,-0.9208806245581452,0.09265314547499125,0.42271124892994005,1.0244598596911285,0.7877617542296058,0.37095535612366726
2170,-0.8942528543178281,0.1214761391082583,0.44940268618904866,0.7827048496449803,-0.08604662359711907,-0.2256733368444061
2180,-0.882214431618805,0.13383668271473917,0.46409981040134096,1.0410736328732777,0.08225918845251307,-0.030215815513451788
2190,-0.8916055463485391,0.12401494092559409,0.4564352451968062,2.72723086469099,2.073814395116576,1.7536373018761635
2200,-0.9180157785203976,0.09934322244121742,0.4282077165893979,0.7742602608962008,0.580307471665674,-0.04242093863011738
2210,-0.8676482669602716,0.15369190558280085,0.4760165858850707,-0.48020116392110174,0.004104394230411534,-0.9220844271255606
2220,-0.8940200391584049,0.12122293229724505,0.455873208893784,0.18746811525142915,1.3578459939981047,-0.1945053988822124
2230,-0.9295593815001348,0.09015230293445325,0.42445513618955055,-0.953166506564737,0.3311643237160942,-0.3425605659070573
2240,-0.882107775948352,0.13448859695954568,0.46781219767739585,-3.5629060095507477,-2.5721239439895034,-2.7799674362909377
2250,-0.8821796643288276,0.13043780608899475,0.46399161732601335,-1.5745367629213232,-0.8592563794412769,-0.8326872830088319
2260,-0.8957239005207996,0.11724724214819034,0.452194741548525,2.2390370938671866,2.6475019657786794,2.880828467417731
2270,-0.8980818332220073,0.11501541176504064,0.45255948558914505,1.9540803446685544,1.5003695044828196,1.601433305561386
2280,-0.893321053429341,0.11870311440755676,0.4533685716282306,3.1568056821521333,2.460915719351637,2.9468534782305413
2290,-0.8777360533336017,0.13642032919916855,0.4733481231192053,1.9271868796206455,1.8709353059535891,1.6744401444610624
2300,-0.8887559978756362,0.12560746558630384,0.4584182533997892,3.352275082451845,3.6549420549256544,3.061036108569597
2310,-0.8516089731896787,0.16299388975907628,0.49628081882602837,-1.1848268095413956,-1.0123049250424156,-1.348878243867944
2320,-0.897684958959561,0.11613918171471672,0.45404943322177227,-1.0276914934118535,-1.163431540860588,-0.8250347960082578
2330,-0.8666133030973311,0.14220413624474842,0.47691471273081437,-1.0788830876368194,-1.2941269618342088,-0.4822676681028586
2340,-0.8624175973840221,0.14627691113381075,0.4824343313509184,0.19229658355821155,-0.8341883403890468,-0.18826369152395273
2350,-0.9067033858536424,0.1088660160943224,0.4460858440882425,1.8232520835186423,0.41763919538527106,0.8792583379802001
2360,-0.8910147007723327,0.1254474856641706,0.45707241394213705,1.7409546047315196,0.3523525920005679,0.8700844861476629
2370,-0.8515803021443665,0.16294002163835347,0.4945273389539788,0.660373970763565,-0.348466538028638,-0.40661588834351575
2380,-0.8892389684448563,0.1251452717353939,0.4576530714279435,1.0836388132209975,0.9397792697158832,-0.1001814232502779
2390,-0.8818350830302999,0.13481482128607994,0.45898573794554653,-1.866705154654745,-0.5627659994113523,-2.0845116941604482
2400,-0.8948987175340555,0.11330911574324885,0.45149419341406,0.0882793060181406,2.9220769821841888,0.9202494590176715
2410,-0.8758620045276119,0.13635858313435587,0.469097713724507,-2.6664128255748114,0.21359712621782567,-1.0398625878925776
2420,-0.8902058502467355,0.11997960520769442,0.4547519080556092,-0.3659941271969376,1.720215477874388,1.0844690575262381
2430,-0.9177563070455949,0.09305064737167631,0.42952368531816626,-2.3391712409058787,-1.710323232522946,-1.8737069572169376
2440,-0.9030210568632284,0.11073771176386259,0.4449280137263279,1.1627550386263383,0.8228657639445591,0.8690493962853105
2450,-0.8892762793625306,0.12429162163982829,0.4548853921113028,-0.5499758575981855,-0.383133401632742,-0.4934002204549536
2460,-0.8767374818696224,0.13545315189093618,0.4682106900221312,0.9264273846101965,1.699737555059069,1.3895998827646392
2470,-0.8947496144459393,0.11869975185279584,0.44955587814273934,-0.0037868934936829968,1.070961626590384,1.205493238477373
2480,-0.8745323000182742,0.1397384681216431,0.47444351366946647,-0.8582043930779094,-0.6881659278944698,-0.25596211246214695
2490,-0.9004735825948889,0.11475654746939931,0.44679028949886335,0.4494237408903211,0.11368724480281613,0.2581161975971833
2500,-0.9044541812931999,0.11108887909487805,0.44023536359978316,0.2632974046234242,0.42055064998356917,-0.14101168845603695
2510,-0.8893859493252698,0.12275687799060682,0.4592761267956761,-0.18391462995752028,0.8897164737441403,-0.43462217671459036
2520,-0.8871421039897344,0.11175297443368978,0.46131684250508764,-0.07395953078144349,0.6196672782141891,-1.4852433820406385
