time_ms,ax,ay,az,gx,gy,gz
0,-0.7650382487358764,0.13319777619386228,0.4924550226591914,-1.8365564093750588,-1.358922677281666,-1.3244755709261513
10,-0.7949013028145481,0.11046229721925521,0.46403388770509585,-2.0703941688393512,-1.6583931725810295,-2.0394298485195543
20,-0.8060493231335729,0.10073248435374774,0.4516861461279261,-1.69419713624217,0.233917343208783,-1.2218069323333514
30,-0.8044151364349187,0.09696392668341358,0.449422087792538,-2.923454469332497,-1.7706601104474124,-2.8418705956471824
40,-0.811935834006242,0.08705289252887843,0.4404453419602,3.1425365865609143,2.6965562086832255,1.9388880090980738
50,-0.8124620673506895,0.08907790025644204,0.4481984020130051,1.7057858183355188,-0.8788315941115903,0.008595975764813968
60,-0.7869929886471224,0.1162339525009163,0.47165033171037163,1.0112473122843237,1.9346649698352172,1.6785598832031492
70,-0.799920336339882,0.10881112694626016,0.4571592143979282,-0.7658067398467957,0.9286454651885581,0.6143543197750332
80,-0.8085636828359558,0.09337147121492564,0.4481113042488927,0.2143063720652285,-0.18250076678741137,-0.4647928676571177
90,-0.7694382455938024,0.13863198069618804,0.48306359410122096,0.07043477733728676,-0.7055322002609115,-1.4304356188904677
100,-0.7838677592193063,0.12060208775803379,0.47392768962039117,-2.7097191281840103,-2.92024351757501,-4.352144473475155
110,-0.8061632740276877,0.09982903841789892,0.4613390661606041,7.203706876181516,2.2606659704822487,3.449452222696548
120,-0.8122675587869449,0.1019756167145652,0.46223589957032857,9.50892845277807,-1.2604723202299715,2.173922382976845
130,-0.7776719488369777,0.14421620819406802,0.47985085850192405,11.189559557705886,-0.06786709653864897,5.921915294217461
140,-0.8134786819894642,0.24352839152880157,0.4769645730873284,16.164889062590408,-1.4380042952349805,17.70465054888742
150,-0.8978760165133958,0.2080431453535882,0.5606896101211374,4.384154971151899,-12.190229208260615,29.767216387475575
160,-0.8225806852084642,0.24762386624314697,0.5954696398022442,-2.5679952916687347,-23.03264127569272,34.21884121555198
170,-0.7539289727804835,0.13995327179963069,0.4464724361751502,-24.21817225560885,-34.24116757455801,16.7820778014784
180,-0.7200991958770366,0.22792314314515064,0.4784834334555774,-24.11560482309978,-25.302968568076402,13.698538807957549
190,-0.7015959916116291,0.2502485526352893,0.4310103980163671,-31.354940543315703,-22.28404279688551,11.779319027906189
200,-0.6128836372769905,0.16996747465194534,0.4592355345825603,-40.26640922725674,-19.717194260314766,8.069678898556393
210,-0.6243875091260134,0.12486794862830393,0.4065552421081486,-34.87004746041461,-0.4459758123820814,10.16384642493017
220,-0.747928479414677,0.15029822843153343,0.48901357018492153,-42.283148651890976,15.073689105440737,5.086569893401846
230,-0.844561183278828,0.09781704280417006,0.5005244208804785,-31.405689972686428,17.919007486659442,15.426369283043263
240,-0.8631708829974751,0.016783414294933525,0.5415178354126902,-22.03563959006212,15.10172107944208,17.09443862561266
250,-0.8716725767676884,-0.041088866104937664,0.5366656933857061,-20.403823629935157,8.566089431375655,7.674154263660932
260,-0.8309375507022196,0.05829725509453581,0.5286043590170297,-13.870533950378995,3.6089864549027815,-1.4254438640248785
270,-0.7809340959177679,0.12942204167759255,0.5764270921017454,-11.068612131368145,1.1852007333328842,-7.203382919665938
280,-0.8651294056748215,0.12258209635850123,0.5529373095953906,-8.457864224939858,-15.874639452675789,-2.8075543131337652
290,-0.7920689495350992,0.14362448884592824,0.47855470451261284,0.38819772816805864,-5.446322629800477,-1.839558486796832
300,-0.7607545259503428,0.11121073886350148,0.5506734597855758,4.368555194026812,-9.726043030287034,-7.224023843353071
310,-0.7905186414279217,0.17745752891611158,0.5216193806556834,2.7662887551763347,-8.733555851321727,-8.984214170751502
320,-0.714026705362584,-0.20081316192905746,0.5457601721167286,12.10812851868779,-16.30743813247967,-25.225334768856477
330,-0.9415970485839915,0.21994172345981267,0.4578313327712371,10.583440517555779,-14.763028789006615,-16.566129326224836
340,-0.7504243921788527,0.25094118560614714,0.4523208305041428,1.9549317529796362,-9.500582313892519,-23.782082170479818
350,-0.5830881524809451,-0.0843153837565624,0.543954501465841,15.904355656687462,-7.297874464131286,-28.98843163231664
360,-0.7173508603889486,-0.06097203265845043,0.28839887560827304,35.105945763153635,1.3994213825401562,-24.418248987395877
370,-0.7440113245002752,0.38214997249460547,0.5138226026955116,33.14949783997003,-0.3523504447897299,-9.360314382566882
380,-0.7495493569070538,0.14427111119797245,0.5256107677925684,14.188985369980378,10.518045015082533,-4.229555763738174
390,-0.7005402879221134,0.018143975926229093,0.620372024906904,0.22903122157460676,22.99189796465139,-9.844674442694563
400,-0.8417870970443915,0.30187129524659395,0.32907419966352713,-8.365311942397504,26.33455305286685,7.660989138627554
410,-0.7065665603879382,0.07122207242768173,1.2382968132146124,-7.746141699815179,23.26680366892172,15.230115276986037
420,-0.7533358368606199,0.09270376851582471,0.5399948582901607,-3.7845190517961855,26.0830875172693,20.311221459875625
430,-0.7535882671549727,0.30968573283818635,0.40300085941413955,-26.710050997820836,34.02722265525838,36.27330404692448
440,-0.7040996003952202,0.3521277878526989,0.4052862981391728,-6.8975209777215865,25.618644910731952,25.012808968050045
450,-0.8102489643747105,0.13587216085301446,0.4008851599768411,-26.638592849455637,12.472100651532154,7.083725746320278
460,-0.7618256467321856,0.02317474410397033,0.4744690628008531,-11.764339818220758,8.48578690457596,-0.3087906990858966
470,-0.7763512394417524,0.1425614103664492,0.5216247967487491,-19.658585566483808,1.577233318727476,-1.3061864634737175
480,-0.7955387744192169,0.04127429540043763,0.46673432931539904,-8.879079423759446,2.066201637077098,-8.191734580597787
490,-0.8014785793651982,0.0821624615931599,0.45476474096222036,-3.4309007081821634,-1.2897447360427026,-6.797776156798181
500,-0.8190105631531698,0.058226224834456136,0.43751903241091816,8.530756013210791,1.3238456418648146,1.7944936498769262
510,-0.787380513230167,0.07783353514054639,0.4740015420406327,17.962427318985473,2.846284515319665,6.171661402158016
520,-0.774621773540347,-0.040940542953961094,0.4913580180882438,24.230730989384302,-4.306685988165341,-8.625926880984355
530,-0.7625110409424078,0.1051812653975614,0.3768279775001563,30.213938526263533,-4.575719436379625,-32.50261168035228
540,-0.9220443355078357,0.2134340723500991,0.22577995105758547,16.799030874865224,-4.646161069671574,-24.591114464354547
550,-0.7319380395261466,0.083024156464165,0.2369943837868995,56.37440594508228,-2.484779569332887,-14.26131355956533
560,-0.7759143838333116,0.17951016654367252,0.30779850353823157,45.355443608655165,1.6779456454815016,1.0189719882362858
570,-0.8129289793351964,0.09932904684890727,0.4991224845969902,21.364345892267007,0.8096230173138119,5.37604601185908
580,-0.7813334365927794,0.23638514496820348,0.4861670882504536,0.6612706391467472,-0.4626099284542672,-0.5780240493543466
590,-0.7709490933528058,0.171466971260746,0.4943056254019245,-2.3873635492876004,-0.16793396217438622,-7.107325426690557
600,-0.7939738664644843,0.13121618784722336,0.46671071694627647,-5.880362253161933,-2.8323175915895114,-13.041781817297844
610,-0.7832715589701217,0.12322238911354015,0.4717986173072911,-4.386401849745617,-2.6211965248320412,-12.563135660035957
620,-0.7964547248557352,0.1040122044684023,0.4527084313997772,2.9730673786628907,2.343321462340988,-3.9260017296369125
630,-0.7993362036623276,0.10759687775246839,0.4486673848653382,1.0551848852683388,1.159579076245409,0.9522110783288338
640,-0.7890900148218589,0.11662430633181826,0.46346344352320695,2.028319213586724,0.6514286020036606,4.75841664746862
650,-0.7916997875668815,0.12727853341553,0.4553148095628261,3.4962660078038588,0.6260900339152272,4.7339923236834895
660,-0.7862858573802881,0.13957069925707194,0.47379300380355754,3.8722674004191973,3.0185321935074727,3.9144149750571824
670,-0.7746122500686651,0.15107646528809063,0.4835154863026014,-1.5767898634639346,-0.5606788961317709,-2.3248537767251274
680,-0.7847710216009294,0.12709172221914625,0.471804882369504,1.1942871984955366,3.018674751292629,1.0206137309854362
690,-0.8023875388855612,0.10091470971978214,0.4506128253886699,1.329535799851794,0.4782390855489469,1.484034284238709
700,-0.7837124244740424,0.1299822610494194,0.472542705988887,0.09782079266389943,-0.8202686236276873,0.9091818238488973
710,-0.7868171984343191,0.13444190858794278,0.4657138826982734,-0.14810210878887953,0.9407256795492145,1.4052496132254673
720,-0.772466396232369,0.14087118350553485,0.48614943883966394,-2.794835990013743,0.14539368689453996,-1.281598994353054
730,-0.7799698508868721,0.12461792046463002,0.4793744632632875,-4.081241032203813,-1.7472344660126669,-3.837736486010315
740,-0.8151554586953059,0.09185895992183717,0.4353342687116647,-2.283869257136625,-3.5372334580091507,-3.664279231603598
750,-0.7972900503892192,0.11514818358231521,0.4546379290052214,3.068275557667091,2.378043617897724,2.7344547982178593
760,-0.7809645473635031,0.12867662936855812,0.4742517902890827,-1.7056039777026009,-0.36510793132685204,0.19091539926594292
770,-0.7705863384502705,0.13758184552570693,0.4839520842740394,-1.225005309856067,-0.09086875280313911,1.380546849258573
780,-0.7882905019112335,0.12998133227191802,0.4689034738336104,0.1887044037122908,0.5698381688706103,2.437395815567329
790,-0.7818936038676473,0.13678816097114443,0.4744754474796224,-0.037573952562698576,-2.641622318402299,-1.8020836664663857
800,-0.7860971764444616,0.12636252434852444,0.4665548134384698,1.4924372736834146,0.3203310498288798,1.2593048338854818
810,-0.7590893173581645,0.1387856349033989,0.4855213584736848,4.110072228769017,2.3662943549964894,4.291582185741008
820,-0.7850454557233426,0.12933425685766195,0.47188776666117915,2.9104300392054983,1.7817269004981815,3.821431727863292
830,-0.7890360503018125,0.13562775181744577,0.47200651328285254,-2.34955400814602,-0.10704891970226138,0.361044254766527
840,-0.8252562219677816,0.08752729685081448,0.43088040914733855,-2.536118208423287,0.05708417317526023,0.2877736342662005
850,-0.7700766046591653,0.14669033660161834,0.4927632472309262,-1.8467012794259945,-1.068683100325636,-0.003193079311640201
860,-0.7767460511751678,0.13881379109848976,0.48154463661074093,-3.874051410881587,-2.6901709112234298,-2.889664812338226
870,-0.7778725439360935,0.12965505883743025,0.4675767022684511,1.2167331905374064,1.1860878904630985,0.03087899782168413
880,-0.7889156059694172,0.12367736909803032,0.4660020229181253,0.4831204811111444,0.21784293043200323,-1.216093212891612
890,-0.8141622305468963,0.0988609952139978,0.4408324476338344,-0.48478838788303713,-0.6908842242289038,-0.6765728068502087
900,-0.8038980520362774,0.0975721379658584,0.44219198486385847,1.0915442083442413,1.0941387183916953,2.852438404445257
910,-0.7931970515088975,0.1176583791568033,0.46487963791865144,3.664040667558622,0.7598892492881233,3.2696110967358156
920,-0.7801173951505785,0.14335783424026277,0.46722213574223975,3.9173322361844423,0.0441869146154259,1.888784894529289
930,-0.7891673501313015,0.14090939876795647,0.46817340562672977,-3.834225250197669,-1.6591055674701431,-3.5666279011155133
940,-0.8082042884195522,0.10968878053488701,0.4457446890044125,-5.098403106224116,-0.7581647895750347,-3.972042885613879
950,-0.7796685183598492,0.11823061515577761,0.4746926833664241,-2.430766196302243,-0.7075713177737651,-1.492628058127381
960,-0.8099799597861439,0.08967240802032903,0.4476642649899194,-0.1302097704635936,-2.7777726331270025,-1.0128380355850495
970,-0.7741158929233415,0.13407874752670831,0.4765279718597518,4.002823895182214,0.876639091910721,3.723655295805419
980,-0.78543811983348,0.13167462493379573,0.468483234004756,2.9829248658599696,1.6795671085090154,3.235611600558548
990,-0.7841267527085448,0.13749863593537048,0.4668978425356758,2.7551353877965257,3.7440285807830365,2.648745111301614
1000,-0.7658932777486293,0.1355651826298695,0.4857047933331168,-1.374284699331123,-1.3440344740370183,-1.3150248370162099
1010,-0.7993347337892349,0.10593322902807785,0.4538284970098026,4.2808271369965665,1.7394574924235902,3.432270117502516
1020,-0.8004366864132723,0.1083769161178114,0.45315154754164705,5.09394774707043,1.1400597313727807,4.462779859516239
1030,-0.7880773529222687,0.12785411907775635,0.46551459624247776,5.029352079432089,2.4093730576765147,4.7456973761483425
1040,-0.7938022159343399,0.12191172891752794,0.46361530978947046,-0.9704441269133224,-1.5186269980340545,-1.2405799337753898
1050,-0.7822219030425619,0.12962516071635816,0.4706028263906587,-1.0021439839435362,-0.6058920353744774,-1.4492357440375956
1060,-0.7879134323818298,0.12030552264939733,0.46770211584831206,2.7130534351377844,2.3716408904048345,1.7280113501652734
1070,-0.7790344529543709,0.12889698186046583,0.47486878856249454,1.8164525892277261,-0.028010237593152243,0.7569591625158205
1080,-0.7874867869397439,0.12242224651659969,0.46117939949154024,2.2545177647901813,0.09756557475710767,1.555303746493144
1090,-0.7695474934759146,0.14887171495434795,0.4869272925968094,-1.9926127551681416,0.10225952758812495,-0.22650315946419636
1100,-0.805826693162488,0.10905624418810202,0.44967828310656627,-3.0446067895498294,-2.8917324629918815,-3.2351526258694383
1110,-0.7920591854941815,0.11888693233406979,0.4618626765860679,1.2830396362918766,1.9886854644774292,1.9994808704516283
1120,-0.8055466377466678,0.09624678774584607,0.456663491804578,2.8328723374027476,1.61938927948104,2.5892862898752353
1130,-0.7702223105203463,0.1449277705914625,0.48288472567931867,0.6755870501842967,0.3974799369934494,1.639295200489254
1140,-0.782439833215193,0.13822665076552196,0.47786203928987575,2.7773931691689677,2.949035547409463,2.9985214607246187
1150,-0.835590663915506,0.07555397396534905,0.4175625418100509,-2.050554463817963,-1.6181746814708777,-2.0267283566626544
1160,-0.7899584446467016,0.1203481756404331,0.4616662444829205,2.0130670038066723,0.7663231325651375,0.9083775392668363
1170,-0.7569506479552631,0.16253505942589674,0.4995192636779233,1.846756809812172,2.0508963607958983,1.333805255329022
1180,-0.7618837540441551,0.15604524527115465,0.49670879614421276,-1.7320424903230283,0.12602341207076584,-1.811384117098933
1190,-0.7876877603432957,0.12459040804427313,0.4605407332617453,-1.4677180654040851,0.01894747101084568,-1.4582139965321539
1200,-0.7919204840258971,0.11590036483436943,0.46492140186640596,2.4960267993629532,2.0331356738947983,2.010768786270157
1210,-0.7819823315659039,0.1288573132061305,0.47017487689059284,0.3750229293147722,-2.041367006731477,0.330298129309166
1220,-0.7649490723056119,0.1584807531799252,0.490501309619613,1.5540447059042775,1.867075611861194,2.7697838649615463
1230,-0.7914343487271351,0.13256742023281867,0.462846431655295,-2.4535007511585127,0.4101197309435537,-0.4329553141831463
1240,-0.7892177725881874,0.1273849456830065,0.46474838869863677,-1.271766404454292,1.2110036383256684,-0.22675314061503427
1250,-0.7684391441882014,0.14361465884488872,0.49261825823006244,1.3172746066544276,2.6718007223707025,1.7654944328056597
1260,-0.7926597916150766,0.119556837208992,0.46388032941265617,1.3765000283561495,0.2689029878827775,2.1141317285287875
1270,-0.7868402967283106,0.13035718013931577,0.46364769881432655,-0.829484059872464,-1.0730877650505275,0.302064761329383
1280,-0.7997195466399927,0.11805277686670455,0.45659848112303675,-0.47926039439504614,0.4449601705978715,0.9102335210981869
1290,-0.8030529294990189,0.11375357866447022,0.44872703788589824,-2.797488098687771,-1.8439005288733767,-2.286926588756331
1300,-0.7781652714946693,0.1419946984667945,0.4790552326506907,0.89574609416638,2.377554620133829,1.2461034608556298
1310,-0.7845450656667503,0.13261109639659918,0.47358845117138565,0.18341469239067668,0.23203104743582842,0.5517501727037781
1320,-0.791092873955612,0.12581942545738076,0.4676246942870659,-0.9294267673138858,-0.7419333276065657,-0.35488183489415304
1330,-0.7790394820860551,0.13374956748656497,0.47657729506543783,1.050594861157176,1.352873451018974,0.9064733778557337
1340,-0.8156448720987916,0.10044211527446038,0.43950109683958677,-1.69830628322346,-1.4809993723161579,-2.700197940042936
1350,-0.7810251006506844,0.12903553171837223,0.46621006117179564,-0.4220700833582317,0.1359174847820079,-1.3983361483032646
1360,-0.7855070218687223,0.12122595860167015,0.46285745001409817,3.8881683242344787,3.0990573523530163,3.946615324749062
1370,-0.7939093204185955,0.1173492094898279,0.4600618746274279,4.787879126115567,1.1773714852500137,3.987169739583919
1380,-0.7654768078471413,0.16322990586792652,0.4960179021800664,1.1569981718270557,-1.2080127656478594,0.3037818196315716
1390,-0.803324471148781,0.11211439436308007,0.44586580923059355,2.177399979978067,-0.005010373631872067,-0.15835090975799598
1400,-0.7950558370054992,0.12588746597509615,0.45929098280742614,1.4024889867878367,0.5358894814327405,-0.780463224350418
1410,-0.757616892380179,0.15952160908751228,0.5006809120789624,-1.926496397150338,-0.6007971896911983,-2.4433459175545673
1420,-0.7982198914079202,0.11002185446434423,0.4578635030312616,4.053623008153191,3.846837805462554,4.050778242267784
1430,-0.8118001974873008,0.09220787266620636,0.43733254323150894,3.3358908689778826,-0.8169216911716317,1.7659180925974545
1440,-0.772121110616045,0.15423307580442916,0.480488135105384,4.072238629915239,-0.47686943762351175,2.52567926536194
1450,-0.8107046046014182,0.11118468131082196,0.44579295504064825,2.1612992799172464,-0.3750688264927996,-0.13466444676847722
1460,-0.7929954651461285,0.12806142000334547,0.4637682603926944,-1.137878452339236,-0.8689813583086198,-1.5377307689740696
1470,-0.8051116153333366,0.11273897488154125,0.4575733447178108,0.5894494306210916,1.8390564187796437,1.5172264700528841
1480,-0.8016623261447664,0.11971070758808938,0.4493289357634919,-0.3960234316301482,0.45374546576923036,0.7347560902300292
1490,-0.7793490598125284,0.1368802331930333,0.47434206764509923,0.2339112074146842,0.33464731659040176,0.8582327438646777
1500,-0.7804047122631449,0.13708530860865487,0.4748862344942422,1.4048116153395438,2.4199900065617808,2.6830270786582027
1510,-0.7720313465612307,0.14459251979709015,0.48071660886424866,-3.1402938649404475,0.08158157004091376,-0.8878374222463307
1520,-0.8007891099510915,0.11369653344701769,0.455009072396383,-1.4369819257638599,-1.391463207728688,-1.8277070455938247
1530,-0.7899803529561323,0.1275265111573576,0.4614078161524189,-0.5982769867186457,-2.586779887568187,-1.7955871729730486
1540,-0.8073332580364838,0.11164552178057244,0.4459780963284498,0.43932858823152676,-1.2024835983308613,-0.7736833836570145
1550,-0.779953990819231,0.13707899725615433,0.4743398219092442,0.5751594084291916,0.43039275081278694,0.1217903744690628
1560,-0.7920996577933069,0.11858089196437895,0.4589853014921697,-0.6837819502811397,-0.028077077722654498,-0.54694187057165
1570,-0.7718048211895959,0.1387307520796142,0.4805035400143737,0.5919357350182874,1.0200660634567316,1.5715355033549907
1580,-0.7835916317396472,0.12752953118200172,0.4715701981608241,1.652882409855043,0.49747774712308823,0.34270400558532016
1590,-0.7890436247041751,0.12069668613728789,0.4552657662527391,-1.620878815016996,-1.5196567098980185,-2.9321227741409173
1600,-0.7840841138939781,0.13717507223809397,0.4646077877682127,4.738855575757944,4.965321617527643,3.4147586030279946
1610,-0.7948722712787957,0.12489887488664364,0.4561051999526897,0.08735684144958711,1.8028056204282337,0.5603069392642328
1620,-0.8029715231690626,0.10551658465302817,0.44859965628123866,-0.8105457303203157,0.2356768915740669,0.15524242893284115
1630,-0.8174403211170524,0.0999810817814355,0.43700207757065684,-2.708859396283083,-2.654771500791771,-2.0026674587689848
1640,-0.8191163332066,0.10506194387627663,0.4459788296763219,1.8693183731195557,2.369916097341079,1.8204420421756178
1650,-0.7900641207201596,0.13016885560615382,0.4618608483847499,-2.0743565901348973,0.4051154331580782,-1.548855920215708
1660,-0.7880822494777532,0.12441560767097169,0.46599762793120464,-6.197173716023375,-3.19208907248419,-4.869600401767193
1670,-0.7788860933927748,0.1313534123890801,0.4755799341113527,-0.4121456857034713,-0.37596559437104143,0.25496143449898967
1680,-0.7865432045922885,0.12861130145120261,0.4647484973071418,1.1109951281590469,-1.8887651077297287,1.0145747296700591
1690,-0.82239842314236,0.1040758398557711,0.4350577577841673,-0.9889957240558052,-2.080989850507414,-1.5120166737510419
1700,-0.7584217794870306,0.16559449794096354,0.49904282832676433,-2.3266424779322685,-1.1579464012111462,-3.418786990045101
1710,-0.7994972467719967,0.11576890077011684,0.4509449432105798,-3.4357028596410735,-0.5618427577845111,-3.902017610399075
1720,-0.8134970877497774,0.09351504978162936,0.4415324761044539,-2.474474620537403,-0.025313457874674095,-1.8046858560183499
1730,-0.7794976833299333,0.13436745890440327,0.47600408276094497,4.167235623813535,0.6904741271312577,3.3455516799667757
1740,-0.7955560531217991,0.11979354665715397,0.46010488569024266,3.417957768101358,1.0246310434372736,2.3990877187367476
1750,-0.7766943597102791,0.14702225766767313,0.48269667438194985,-0.6989078140388875,-0.4747988494911335,-1.4302296606098457
1760,-0.7514477662225205,0.17182467268390736,0.5057588301392485,-1.8414408851741542,0.5535483364936571,-2.3859181540371566
1770,-0.7799540470274884,0.13397201226162994,0.4732001358288265,-4.480211016421958,-0.8432892029852378,-3.892078147839752
1780,-0.8050208070075883,0.10664809643449079,0.4469004995243446,0.6175336401878861,-1.2711594999253564,0.4417315541138811
1790,-0.7667809345035526,0.14260596033611062,0.4885134096559383,1.4113213857692737,-0.9208697433264033,0.9942876327481895
1800,-0.7708570789026324,0.14887206490115212,0.48704638961188634,0.9143057296890715,1.4067333720555497,1.686711889003127
1810,-0.7829371926890745,0.13061565082505022,0.4685481191748228,-0.8250369198030711,0.9781867312932366,-0.4595521891014004
1820,-0.8199227921094073,0.09479394499970764,0.4347628069462792,-3.5047285837076227,-1.6214115962643383,-3.2090977352577976
1830,-0.7825001216118854,0.13551225306059264,0.47274926173593157,1.9333466196467375,1.1636109967854762,1.9109111985883387
1840,-0.7803257011468178,0.13286691829383912,0.47064349888123025,-0.6251308801256334,-0.900409526779919,-0.2129162701074333
1850,-0.7759104228560836,0.13432213927636263,0.4813652850848427,-0.1453557912634962,-0.029357479397442907,0.1011759553303819
1860,-0.7923934289400446,0.1263552218384338,0.46385012612317705,-2.069165683840069,0.023532626267591394,-1.0905401521555886
1870,-0.7959816596469926,0.1203350668270052,0.4630166874670825,-1.1002975302349087,0.5129663060117977,-0.06690165547298432
1880,-0.8024749421618451,0.11323819904365155,0.44999574659975505,0.36742282238781193,0.27173942908976945,0.7054846540081896
1890,-0.7746900100674365,0.14191256069357638,0.48320327221668424,1.1771151714328487,0.7742208139761404,0.9198567501603963
1900,-0.7780788688486229,0.13832875270122924,0.47610802064731356,0.10708923725244082,0.0797683713545568,0.02863968878770387
1910,-0.8060597509905696,0.10768183724746691,0.44675868961773085,-1.3006681303249858,-0.4105095650471492,-1.3182654951604726
1920,-0.7671908761602451,0.14583665151749892,0.4855466180588225,1.7903334050949837,2.5235894012554727,1.6437117582470622
1930,-0.7991633581026856,0.11374365977332843,0.45415166573943744,-1.0645287306157931,0.04162386688519307,-0.7306887097642591
1940,-0.7794626923618027,0.13031923515979707,0.47087448572134466,-1.8034785339092279,-1.4612474982210553,-1.9197225801580111
1950,-0.8092316424309964,0.10163755600974181,0.44499410223366015,-2.3857660640400473,-2.0853093306466652,-2.609566741186345
1960,-0.7901022794156055,0.11997270295695509,0.46358896327290594,0.37168242160478704,0.5908498214940803,0.46247259611815705
1970,-0.7814110872860073,0.13201827158795562,0.4726576656288997,2.202910101457542,2.1830500460110414,2.447082719961327
1980,-0.7880710944556752,0.12162910742712457,0.4675634631523022,-1.5153978083551485,-1.1868309931652368,-1.086046459919681
1990,-0.794905471237748,0.11958267665033127,0.46275361944458143,-3.457706034695607,-2.676239807496066,-3.698722950053491
2000,-0.8027785110749557,0.10445896397947861,0.4484300581647963,0.07950801289237974,-0.8645994110844888,-0.6807372967090798
2010,-0.7729512968778451,0.1323113410658999,0.47372634493823623,-0.28974000281685797,-2.1604629329662504,-0.9636868282385149
2020,-0.7499720553040095,0.16225291238706913,0.4976055740337688,1.6381247921760775,-0.25740515433520467,1.3925633814104224
2030,-0.7980830672292603,0.11863651548324651,0.4554267782504955,-1.6073602184145006,-2.2666565488962034,-1.6027227071366523
2040,-0.8110922256065958,0.10065655334636198,0.43887920174078765,-0.9429114926831347,-0.3276896510874311,-2.036085524967501
