time_ms,ax,ay,az,gx,gy,gz
0,-0.8993034569312772,0.21221480238876458,0.24769970838560781,-2.6999590121931076,-1.94902364327392,-2.5400214353641255
10,-0.8958714548336163,0.20829524516532089,0.24448498743539124,-1.7424838696872842,-2.3287739177706976,-2.0556332216180535
20,-0.9209929225451509,0.18623432704103898,0.22699204340090334,2.508759874160921,0.5726432026022802,1.593761006589514
30,-0.9038057727718392,0.2073209857540962,0.24333951221080785,1.7749166820357396,-0.1331265683199374,1.1558699502941998
40,-0.915468120744955,0.2086072335659225,0.22811899606124217,-1.4383308651706654,-1.2183462929384588,-1.1332865568311028
50,-0.931184282113825,0.19249355807822363,0.21628593371074764,-4.996001124342671,-4.013734564670232,-4.787465121256579
60,-0.9177556813543472,0.1998575769178811,0.2301428613836394,-0.9344386848608482,-0.048064264316955714,-1.0528995875522313
70,-0.8965653288173512,0.21924888393773598,0.25003455839016736,0.017178105639968855,-0.1767497372848428,-0.6487162541594205
80,-0.9261344145379317,0.18728287646745037,0.22186436197693044,1.338113091356479,-0.36238989489619555,0.17561193159582034
90,-0.9123870406695707,0.19650854466698753,0.23402806558986497,0.800253499045779,-1.17515179454898,-0.03220708338399314
100,-0.9141168200337899,0.19795535873524833,0.2321155782765581,1.9260391872636624,0.606872867979598,1.5240645141410158
110,-0.9041097123370103,0.2211355341025134,0.24546406337491739,-2.638771305580515,0.662419114136723,-0.9053371313602313
120,-0.9354434996565019,0.1841410485691204,0.21027854261734855,-2.8993377393134843,0.8382234201628466,-1.3010777972835057
130,-0.9088726031299907,0.205900590198675,0.23861544550635136,-5.7342722716187735,-2.682454446340746,-4.345014892562025
140,-0.9129100158957497,0.1984082509754154,0.22904741887503913,-0.35057043116175723,0.3829730738434028,-0.27404482103085037
150,-0.9228508176383717,0.19058226101677267,0.22686197688553883,2.2020119100845243,1.7134589302708554,1.6980602507832814
160,-0.8997058809312517,0.21104523281236698,0.2462786157699075,-0.3930586018015396,-0.8804885561878004,-0.7571038219502548
170,-0.9314113780955453,0.18156619895471707,0.21756229268543814,2.3870788169807993,2.9922186158857285,2.7751549237295956
180,-0.9007040131884999,0.2157630535234872,0.25076909985147033,-1.5275242643876432,-1.674615243225847,-1.2848973883974941
190,-0.9342914182405377,0.18452030739626282,0.21468763141523373,3.690797994777162,2.3300678263839116,3.0052945690017348
200,-0.9163217162581142,0.20212116019246032,0.23470918284881548,2.7986748760997697,0.8405824048987722,1.0797552598347306
210,-0.9137596846271355,0.2005638915275909,0.23896762427314502,2.4188756447720503,-0.33657325414336725,0.027364320634279377
220,-0.9277893052861232,0.18433522328307228,0.2156118852546988,2.554499135568127,-0.7862996158276221,0.2807661410475205
230,-0.9435027837728082,0.19596744078692838,0.22860262587505792,7.75722811207866,2.0529076614323074,6.122124167996667
240,-0.9743354450839631,0.29708621389906953,0.3219546216709976,3.268197507355476,-8.14244689641868,6.457685858140884
250,-0.9920725179643726,0.19126363908982044,0.21516425409509393,1.9057717392076272,-7.748092765472641,12.504177524528945
260,-0.9584502003095712,0.18505344001487833,0.32035011643590006,-0.6480198980037226,-14.45929657929225,4.606771384597278
270,-1.0062479836319862,0.18122359686612227,0.3005954363323709,1.8224420933552206,-17.280971295182308,1.409958302983921
280,-0.9645115277012726,0.2062318931801682,0.2813309589467895,0.5956338179805649,-22.939063960083303,-5.5318652273590425
290,-0.9406341354053043,0.23477285144188326,0.23974513425196908,4.748764961722025,-21.442199476658228,-2.4192749542336576
300,-0.8567075772622441,0.2500834086826631,0.25587305995228005,0.7590395966073691,-18.71724497016567,2.0933720903454995
310,-0.7955554827567739,0.22142268038911608,0.2958748675273364,-6.539799826560519,-17.838783963186494,1.6770632008818593
320,-0.7761791194603314,0.21632781666986203,0.32623558461500773,-12.898957714661583,-19.54127341241262,-4.7817369545338115
330,-0.8274343431506125,0.19745619842762271,0.29118738072926165,-15.444901791905458,-18.056986431436723,-8.796573383556849
340,-0.8477099418134877,0.21051749209022624,0.3128678964082411,-21.983371690287342,-20.176971625880764,-13.857860343735233
350,-0.8213487539073244,0.23870999818124017,0.362818145002763,-24.310919172851285,-17.33834234508324,-11.360489819906952
360,-0.8327452422618179,0.22942447888067075,0.32469027837096137,-31.821649091527483,-19.301231182805566,-14.184038551482477
370,-0.860584541391119,0.1680310268099558,0.23415712061236674,-28.930134857726895,-8.725278705408158,-8.579385197258805
380,-0.8617731561220444,0.13716642891019792,0.323808213997743,-31.715826995848424,-8.299075340412928,-15.269036687743013
390,-0.8482471798280785,0.174692146218647,0.35521370243246875,-31.391856654598303,-8.053704100367796,-18.876184473460224
400,-0.8476742608013498,0.2153814440400397,0.3456988525047817,-30.42247001008094,-6.147974542075556,-16.45614466728326
410,-0.8602045153438205,0.2337309784600397,0.33016742693246576,-28.761937500015012,-5.95840723559051,-13.503704767489303
420,-0.915702110558425,0.19073294973808505,0.27493258776652063,-26.526226693290322,-5.47524373794697,-10.075115652158734
430,-0.9409843789564057,0.14960365229099062,0.286133739489699,-27.076009190228664,-5.367631028829412,-8.830446486514623
440,-0.9602285338831699,0.09665217307657263,0.2747042639747797,-28.91447066296027,-5.682176657257754,-10.267338589651398
450,-0.8664655491839469,0.1580770088583482,0.33526481270137565,-30.214473211737616,-6.9655825281109784,-13.159047908121757
460,-0.8548510234195946,0.15070140860995768,0.3594403492106772,-29.814357684498294,-8.036009956713052,-13.594873523288072
470,-0.9020408754298064,0.12842299535484497,0.4359811895439206,-25.538014981496946,-12.680688309573894,-10.634172374758773
480,-0.9766778591189909,0.1499642232507535,0.5715566240329132,-12.450302039304884,-22.470285500589974,-4.275214321239643
490,-0.9023900682125788,0.18081769616111323,0.3090937487886528,-31.22338306295294,-17.587107135011852,-10.132264964545245
500,-0.888740027267433,-0.02215264347295861,0.4163582858705951,-13.303323367989007,-14.30159540443877,-9.6654997858295
510,-0.8712502713701117,0.0475910720028226,0.42053340532949757,-7.223478859053492,-16.321690403458682,-7.1041404037462215
520,-0.8469145799839689,0.027811974784948942,0.4762877088747729,1.0937290704458413,-16.637288052230684,-7.5421403725635
530,-0.8664772427361485,0.13545801296815824,0.15165820639589095,4.1758605131814965,-21.57688145475818,-16.027396071179183
540,-0.8733664244272338,0.1903682042835597,0.20743262782439587,15.148112129527629,-16.812292047889578,-8.598392966703585
550,-0.8806658291211517,-0.035742820603271094,0.4735318778295822,16.251335825383002,-17.62889503151292,-9.716191077744694
560,-0.866820099921212,-0.09986953940310894,0.4208254393124671,11.11106041423347,-14.655315963017152,-13.986030942554589
570,-0.9752919875118142,0.20750812887136189,0.07859812532759011,15.655330123342292,-18.073066657685978,-16.325018010281628
580,-1.0004776741094599,0.49099595014903374,0.05574835694731424,30.534349565539905,-13.43123748101222,-6.855423635780285
590,-0.9121894044011659,0.14648015148445095,0.2866779343314141,1.524645422138978,-12.519105461967484,-19.208474381371587
600,-0.8847618995299524,-0.14207750823523135,0.4808195521656894,-3.896948427320914,-13.245913522000802,-26.783144760028936
610,-0.8520987561650616,0.1078717119566037,0.3992255022737225,20.215870202656216,-16.100922792274588,-13.05280679281445
620,-0.8502942237846964,-0.14796169879186516,0.24008388359868274,2.940468556722113,-7.490455429181743,-18.36871197459747
630,-0.8466371480096171,-0.12388453224821233,0.5675788968504651,8.084633287599786,-8.600347575522415,-16.811183386253653
640,-0.8227218377964113,-0.12660319705502732,0.4478797754023465,3.5021282292990956,-4.175135685389448,-21.942889429290332
650,-0.9191238494988568,0.30296234788654314,0.4753686814686877,29.18961033349407,-5.659666496081546,-4.599067949334605
660,-0.9529314169967246,0.22005182092596834,0.5085564310870578,19.07163538898313,-3.1656766243195107,-8.536814844609761
670,-0.9167410578609839,0.5777891904000857,0.3769947569772474,34.99323335087688,-1.8645222083028234,3.290940667538634
680,-0.9377108241818857,0.3364950223905763,0.28034179611257865,34.827370995858544,-1.7786058699046634,2.1224157921143836
690,-0.8711864686284074,0.05869133813827842,0.42251860360982135,20.87322150780351,1.486010110444603,-3.6785913248469333
700,-0.874769512350444,0.14459986096630079,0.46206750986840717,22.471998667363035,3.3952535996798154,-0.11463938443176058
710,-0.8932767142299457,0.07211089501923128,0.41510216068235084,21.13444062527284,2.0149833962932204,-3.055186389023703
720,-0.878821579593349,0.11663874613830151,0.3703896849171736,5.706033820819261,3.9806399693742835,-5.491053254627216
730,-0.9319033029012119,0.10600351415429742,0.25219302513758696,-6.349503589914103,9.199710883004869,-8.930886319961525
740,-0.9445299480179604,0.09579522461860866,0.2711851817515071,-9.759625802835352,9.060563621258574,-6.825853015925365
750,-0.889912441075774,0.23987618708459318,0.4180462103183295,19.572474602871306,8.540049692191445,4.785901548308715
760,-0.8779532627728506,0.1303120833601288,0.39877713392546477,16.294353317765363,8.877548312984105,9.436105156009846
770,-0.8793015310413048,0.13488184845350087,0.508816118286676,22.99183315730907,9.537528616504362,11.614420025152086
780,-0.9043209217790236,0.08318003696907081,0.4508443248755633,11.620241381765164,9.542918468988894,7.392587754404239
790,-0.8995141042595199,-0.006703137558099606,0.24550449052279041,8.648559073227947,13.586510026975343,7.474905773806571
800,-0.9358679595425328,-0.03959568611408036,0.25938335807026014,14.692644385447476,12.899039098946721,8.483761162518528
810,-0.9033292095379126,0.019306890613947233,0.5639825374580834,19.651613807919432,14.369149223263815,13.666943208043621
820,-0.8638605222787247,0.13725512770196244,0.48488573303650967,19.072900242808174,17.518982706829284,17.798289573434683
830,-0.9097126425979958,0.21349264484434596,0.09710352436073026,18.348324190133464,17.453524853255587,17.77371245422012
840,-0.9306567251680415,0.11826779571603654,0.32062813367649395,9.003728017851058,11.899197841085913,12.521869115261913
850,-0.9348215105903716,0.026606278216798028,0.5438356252474856,-4.6263285123264,15.246750496664351,10.617133229501832
860,-0.9205915267273572,0.20848361693112827,0.6176912638400369,-2.2457302162104478,20.861105396168064,14.467002280716683
870,-0.8655778496213664,0.3037104496327767,0.14901230376504282,12.614721006340586,16.81431261841599,14.776513608175673
880,-0.8132662904423041,0.052393459176011216,0.6423662102390143,-0.8949732498976621,23.632580308484762,15.0233323621207
890,-0.8969970165044673,0.21814660311893036,0.29737262071557724,-3.4099801846474813,19.33707305950533,20.72549665760323
900,-0.9678869234648827,0.16210118633063497,0.2524118366055911,-12.093066115838058,23.689290000833125,17.71465526298609
910,-0.8950975624373099,0.20058941593497048,0.5146058639020044,-11.916360557223669,26.334056111014537,19.946137954246066
920,-0.8901041120685298,0.10842668611445752,0.6185383074804485,-5.350196186139694,26.307320399582768,23.268106233474143
930,-0.8023144978527637,0.31498671129035455,0.14781722326828983,-19.550314665311728,30.83140157659507,23.420801003890283
940,-0.8476804042392956,0.3581612284706611,0.1323896679488907,-31.625269775686704,29.926055193443894,20.46375874071463
950,-0.9758324308276815,0.11510473877066293,0.7022431059296113,-25.1267891123537,20.85432080830299,16.197055593945613
960,-0.8722711098399565,0.20619837927303236,0.5820470492667155,-7.33649758312105,22.170359998911977,20.79547915752027
970,-0.7991476880800641,0.2690743169497118,0.37945325445438405,15.270389484542012,16.63469774904126,21.244404745204204
980,-0.7404256155618151,0.2802146714665551,0.5848591527378152,1.4227992441166537,25.25867333113265,23.852055778021615
990,-0.9114397930613984,0.3707744253554507,0.029223766812932282,17.778239561470375,20.073018371017962,19.361927970629228
1000,-0.9580943713435742,0.061717633010323805,0.25420817656810596,-9.632689130470176,14.59809517716982,13.99461169557075
1010,-0.9497710140734006,0.09535842556545605,0.22286501825906224,-15.712509765048587,25.877490645854273,23.572907835445193
1020,-0.905860911737122,-0.012180737454040311,0.5628454023394436,-18.00464755182161,20.63885864345893,21.55155320676196
1030,-0.9630320025498935,-0.05896016683915641,0.3683193914727343,-27.032824098511863,20.80814534049557,11.288606291129526
1040,-1.0027454208492859,-0.034115475165064774,0.1582401410246377,-20.75737555719156,18.26811366433215,11.902522575413194
1050,-0.8774268869370654,0.25933867136141003,0.10847885704765124,-14.92350016962202,18.221981647234664,16.0615698821642
1060,-0.7713277580029386,0.42454232494739097,0.26082007373865784,-15.033093031696918,14.492305007121779,11.209920111429241
1070,-0.8906023745943069,0.20029591809023584,0.20795081814757954,-23.520926529520487,11.828815261707962,3.4658924605367885
1080,-0.9795763914190666,0.019458013268956586,0.09693251060946013,-26.976848174907694,18.2096615919692,6.4876396154798925
1090,-0.9892058456892715,-0.05594186485010123,0.4283367096780562,-17.61046192157452,5.905466163742334,1.9691287269917255
1100,-0.995788633252079,-0.01661654828899119,0.38328347540852603,-15.557768479399384,1.0921520374911418,-2.7144419710684615
1110,-0.9299346472302743,0.15001055206369474,0.2154627273298766,1.4006960801011377,-0.40563947557385427,-4.618286417608135
1120,-0.8943749464548155,0.3256555379063903,0.15438067498781696,-0.6984949059099311,3.022554073341387,1.6410400888258803
1130,-0.9044893021559165,0.13163505770164685,0.22719365605483902,-1.0339488794963283,3.283640830646829,3.5541731321564396
1140,-0.9506968617991098,0.13454889532363565,0.21534387941180758,3.8271963165407885,2.1239490162638184,4.535765228045306
1150,-0.9039043167153566,0.21234291485480492,0.22941349252319979,3.576839008553405,3.2321500523114453,4.691301867733294
1160,-0.9159744968220527,0.20247999839250386,0.21564814330254845,4.145064499461662,2.7088374930441033,3.2826849223932633
1170,-0.9158580687633927,0.20081733974891303,0.2168511707554811,5.6027970969841805,0.08664431721626609,0.18213107262365316
1180,-0.9083585642154197,0.2412542791703546,0.20682661622419418,5.23963075533157,-1.511986527698681,-2.1577187351321094
1190,-0.9200577275893682,0.24592996606476586,0.186845720534303,3.1561723780382134,-1.5574766772140127,-2.645254701976543
1200,-0.9146174302496366,0.20798769890229143,0.21475144272672822,7.231078954090074,3.030258065849137,2.271526624368171
1210,-0.9106276253079757,0.2069550045654873,0.19821445992630482,9.504778162264264,0.01875690666926244,-1.6581575202282663
1220,-0.9551996052895739,0.2740290957780418,0.06949734465230609,14.384112691663006,-1.4081315774671328,-7.2103660907082725
1230,-0.9509884045651504,0.32938023430621244,0.32736082957438606,5.765941709699092,4.299064423761155,-3.08222408525051
1240,-0.9676240003002192,0.28089101378111103,0.2565245109866161,16.001309844674232,1.4944619272026496,-1.0929114304392256
1250,-0.9001380480479957,0.44830548102969275,0.15748492455086482,22.00445967489218,-0.4486311177512593,2.8895414957450893
1260,-0.9387688377359562,0.24458836086837252,0.223291441965256,35.23745598513376,-6.652992907618167,-3.7940675933383226
1270,-0.9828534438357527,-0.2781595901423212,0.34863830315344035,30.139379634894077,-1.969724106056784,-17.287533260132175
1280,-0.8588914988549722,0.23381838556064155,0.3960864717568598,41.43820085739555,-6.219665696888133,-1.5382372933841166
1290,-0.8870648000729796,0.6103553452953098,0.10420525524167,55.47594782944126,-4.497793357809775,14.09094114074062
1300,-0.877361022898469,0.30123729890487433,0.1266216740620424,29.20897065284816,-5.005169172977685,1.6104871211896108
1310,-0.971175241603179,0.08713143993895774,0.2751597156528328,-1.538614341002072,-7.545972575710165,-12.853554866359609
1320,-1.0745406101058612,0.1607955479832822,0.2413442495477013,11.184141845633727,-3.0766375549947154,-9.351271501011594
1330,-0.9428194263888546,0.10632710868210594,0.14512504173077062,30.680762787407613,-7.868264100423238,-17.88219556874512
1340,-0.9090693696806096,0.20712306977311903,-0.003792712047989491,32.096470004797354,-8.08814164203715,-19.805173854907082
1350,-0.9247600341780868,0.16100673785407288,0.2870073368315215,11.489898398304646,-9.407137866742536,-8.740185756131096
1360,-0.8883852148829866,0.3413321379541261,0.25925229968497865,23.452534915657388,-12.777623558335371,-4.302350241105865
1370,-0.8970975635722681,0.4758224101894104,0.13122865490713773,28.674636396864482,-1.8121633976912344,3.58439009447937
1380,-0.9061868438778817,0.22760176770828902,0.13510695834250802,14.539532483745969,-3.347066073728022,-1.777165054633181
1390,-0.8895279800278627,0.29365147023606913,0.17165118562652673,8.811477605570182,-0.2446664976669508,-0.16767583452523316
1400,-0.8771883133964811,0.2806509119719186,0.21081009644528956,4.8876183247801315,-3.787494788886688,-4.612827919523374
1410,-0.9092840937157463,0.22349746646775756,0.21785873426778807,-0.40689169369211314,-1.1331515043790805,-3.836833215128147
1420,-0.9014085482799479,0.21814060905844077,0.2445982398024181,-6.322832738797646,-2.4567778484649527,-5.086724279305637
1430,-0.9518767448591732,0.15844736637794393,0.18889742179378147,-3.05169787271834,-0.3170563825359916,-0.9929251945072828
1440,-0.9069978801166939,0.20268025590207966,0.22703443811555798,-2.1960219136539987,-0.18122271834742382,1.077507093315829
1450,-0.915018625205958,0.19910327966635416,0.22124341310140738,-0.7012239168401342,2.3672026722539803,4.62033354082409
1460,-0.9136273046089703,0.20330165348353507,0.22674648152077093,-4.837205479594429,-1.428487357886543,1.2086535960940434
1470,-0.9061254921305528,0.21510814672218523,0.23596349899739824,-2.3407901434068212,-0.31135461642224205,2.4965295188890964
1480,-0.9214802366673025,0.2165340026846578,0.21373242447306934,-2.4241185308229483,-1.0769909935856843,-1.9529803659944414
1490,-0.925187101717923,0.21312343097004746,0.22301742021806445,-4.027441144450301,-0.6809528754479199,-3.879990122313542
1500,-0.9129434880895595,0.20740345140104088,0.2245241530157612,-3.4710681155047687,0.9792160417429057,-2.662803688186385
1510,-0.9206262524157994,0.18768539488704275,0.2143264623829073,-2.857633995947593,0.004450907712354669,-1.8558726510864219
1520,-0.9201627120484733,0.17798017902538787,0.21567908339538788,3.2976328066471736,2.583700907216579,3.5871618921715456
1530,-0.9198300577323342,0.18892906881307825,0.21085388281051365,2.4277371613086745,-0.7678027161936889,1.8757766792219757
1540,-0.9093300395772381,0.21266922316046347,0.22562362026275595,2.572021462234927,1.7948537353863196,2.710548925000568
1550,-0.9067526620275131,0.21724750127122477,0.22926192812278978,-0.8674186535419184,1.3013424770261484,0.5490342478736026
1560,-0.9278613531800217,0.1916362410945346,0.2100389966662108,-2.032074339862471,0.6330579237983192,-0.45996421533477055
1570,-0.9347257795758389,0.1815965817623518,0.20606226977179135,-3.119956671048913,-1.2463662310312023,-2.249433108671236
1580,-0.9202557259377898,0.19696705384156557,0.21463792767012996,1.1676181711680815,1.7850683748931864,1.3531847527668912
1590,-0.9021249710122359,0.22024005022116766,0.23270213127451722,1.396665012921136,0.43793494586572146,0.42753489553038915
1600,-0.9187958249154858,0.20283564420296699,0.2118312616598577,0.13364540587599294,-0.8579771546527845,-1.2954406755675354
1610,-0.9332819487975085,0.18240888275613537,0.20040121538182198,0.34934450125049943,1.4995853031886135,-0.5399660729410636
1620,-0.9132663303329245,0.20806273477514495,0.22640226882673806,0.03335657573851908,0.15153951196412596,-0.4175908848366201
1630,-0.9350542029179976,0.1787604085716917,0.19790794777177112,-1.3051355787362144,-2.120454364204244,-1.731676943194103
1640,-0.8986032439827898,0.2256657350848445,0.2419606148989374,0.20807630031676871,-0.5400938301606936,-0.380373180720523
1650,-0.924059948029372,0.1996032107041759,0.21092176076512492,-2.2296422748545557,-2.36792384595298,-2.471097159928351
1660,-0.9166621333147462,0.2007167163167276,0.22055208461953213,-1.3676901054303012,-0.5603292585503263,-1.0470083770808156
1670,-0.8882997335195741,0.22902266797461546,0.24978945236551647,0.9119028582732279,0.8079486972424779,1.8040493384808336
1680,-0.935619916743297,0.18356736209232893,0.203353408150908,6.607718170415037,5.531095149118834,7.91996130115921
1690,-0.9026268724651972,0.2163048463544909,0.23962258747057164,2.252019742759183,1.8917784020718549,3.771758243654868
1700,-0.9079061372330083,0.21003616270120784,0.2317597169432356,-0.12502951623970351,1.1430900264822332,1.7230886051362362
1710,-0.9275985138808724,0.18992631540764798,0.20559109501874404,-3.285520518696842,-0.46058358829758594,-0.948912696654689
1720,-0.9135480543576003,0.2125235059666706,0.21967928151265134,-0.4900944586735092,2.559415444047657,1.5463019007697314
1730,-0.9038751886876947,0.2291089543167228,0.22194020655527258,-2.561439644451848,0.1129582683170971,-0.6727317185927517
1740,-0.8952248693147966,0.21462712775478643,0.23259006682599448,3.127292241579884,0.8700876283229315,3.5399358067969664
1750,-0.9282232822511177,0.19459603277428603,0.20590721218746372,2.360589080412884,-1.112903794425682,2.2477903325523196
1760,-0.912370541318099,0.2198836571612285,0.21853684143734559,5.389255752135517,2.782094394294142,5.111468240037459
1770,-0.9142714951658014,0.21459025858606673,0.2084002520270599,3.091413989189565,2.3574514301988563,2.4021252045093298
1780,-0.907082177022847,0.2272749234537948,0.2182336316500658,-2.6572003108411897,-2.055093721224833,-3.7706359511022383
1790,-0.9239261587687854,0.2097648405746003,0.20553211696539897,0.24602085864027945,2.0252648788522754,-1.6528639988027374
1800,-0.903814050052584,0.22201480198353432,0.22950918154161007,1.4986313151812385,2.4483008000375905,0.27637562307433505
1810,-0.9213990617376768,0.19940032022902465,0.21695095127984748,-0.15078241664872438,-0.6093755494142896,0.2412411769154692
1820,-0.900824394830065,0.22300086496910948,0.23685779103222138,-1.5098951568544698,-2.0598827597543052,-0.39370024684714067
1830,-0.9173485273614123,0.21150734709291197,0.21307467294313906,0.17629607658167715,-0.058265320981366664,1.093271316632846
1840,-0.9123066140139628,0.21431059622074858,0.2199682380011466,-0.5549804774902442,0.10680480481832011,-0.45102610779951435
1850,-0.9033679912690649,0.2281797940468164,0.2365494040373669,-1.2409201830269794,-0.34476703263717,-1.8719410600792892
1860,-0.8980247356805445,0.22306888498454955,0.2345420317876363,-4.683694468441496,-3.758584888271642,-5.025673640074729
1870,-0.9314428601164441,0.18862077898865745,0.20460888999115862,2.775616509424868,1.9385473202567278,4.699997496264108
1880,-0.9055899102736157,0.2185831851572123,0.22748880401335297,4.365589324617872,2.6866020834898094,5.55560636733299
1890,-0.8843227903324262,0.2494855132753111,0.25192180472086617,1.936978252213186,0.8439560989777014,2.0812308987438852
1900,-0.9208134493339396,0.2103185754939598,0.21015261886378211,0.09477781880569797,0.45095247381759296,-0.18069319667124706
1910,-0.8820908150227091,0.2516527261104906,0.25175437001188816,-2.3920102275958754,-1.2504711720984596,-3.043669621343563
1920,-0.8767327926719147,0.2535659109444373,0.2578568755882747,-0.953649681423677,1.609198470100677,-1.2008041137916385
1930,-0.9288443102841282,0.196426780174009,0.207698463547375,-0.9229323195549929,-0.018795018354569204,-1.1059411671466095
1940,-0.9171679888410724,0.209850546948766,0.22049968179691665,2.2277066251625697,0.8767522102551828,1.8280398633774677
1950,-0.8936429925628134,0.23403194544463699,0.2430689831111331,0.848452589340032,1.091794523436128,0.8440954322144817
1960,-0.9052015554328561,0.21822864679980636,0.24095129672986784,-0.3175886639770584,0.011220265704035226,-0.6424677165606776
1970,-0.898121439695773,0.2251544593781209,0.24020829788603215,-1.2538834184183991,-1.1764898999704587,-2.0650392387108427
1980,-0.9031182493430536,0.23149428335500696,0.2370085873637989,-2.025122961926616,-0.3434073177646074,-2.4704116466574644
1990,-0.9236075955503409,0.19878471952022034,0.20479098856979694,-2.510277567413973,0.2283283269766393,-3.0197968757044094
2000,-0.9123378363303537,0.20749021516930424,0.22241791333925337,2.6569779053780707,1.0582172390077378,2.3882367829466387
2010,-0.8984581168956242,0.2218742737572461,0.23337636425592995,3.5739366008008235,2.2595739315771164,3.5852285824189423
2020,-0.9107262508055449,0.21980543175478467,0.2252380499858119,0.2902071279263077,-0.09581228503873296,0.08470569297973324
2030,-0.9062125555503879,0.22142011220093388,0.2267093402049527,0.2560929343322624,0.08379866528309121,-0.41361249407730194
2040,-0.92424150631045,0.19944068153571848,0.20981661996828013,0.8821754230034324,1.1064478712005155,0.0491651303355527
2050,-0.9227023028085557,0.20064318467859082,0.2151369318241473,-0.07856272433982125,0.5045987377194928,-0.8776076971517618
2060,-0.9005437613474437,0.22192139377816775,0.23624277060863427,1.311701375387903,0.857118945899064,0.2817367250717713
2070,-0.9009230174189735,0.2207459097682003,0.23177179329149566,2.2717263704231163,0.38915172570931517,1.2135482986524284
2080,-0.9346125639018601,0.18840256373375686,0.19964989177084327,1.1264688831167893,-0.470151656305944,0.8123557524275944
2090,-0.9124200088791435,0.21055300551430042,0.22977532357712535,-0.8865637419016676,-1.8167234040255957,-0.7296404944143746
2100,-0.9387392604790642,0.18154139625894647,0.19104717054726444,1.1384408534345458,2.2737375659512,1.8929628457742793
2110,-0.931519180132822,0.19626858327586225,0.20245977899050702,-1.6147525932573337,0.7970233156360476,-1.0049135840441914
2120,-0.9383059000662336,0.18292440460938647,0.1957278036897668,-4.69623658412349,-3.210971712256075,-4.598065284686462
2130,-0.9246246871761074,0.19877640727195311,0.21203719142517566,0.6983121828453405,-0.47403778571953104,0.185093486414466
2140,-0.9126595482056578,0.21342890763964042,0.22505543073663578,2.384797379623744,1.30681628564871,1.2883664484179653
2150,-0.9450477657038668,0.17746713966789723,0.1892975610854734,0.9877949585512882,0.5110646828969687,0.001824366514826703
2160,-0.9258299506483265,0.19691113298906548,0.21101049656044565,0.620856624592254,0.7980703170947188,-0.008324486321512864
2170,-0.9263605279342386,0.19157285800559207,0.21029917377301097,1.5461650222226409,2.454556190068078,1.3492470788782822
2180,-0.9084144933220215,0.20761370481679184,0.2253711020067665,1.2831214740516992,2.469778348957254,1.3046864644170582
2190,-0.9066422464783084,0.21380166857836616,0.22580680270551792,1.0170772869457088,1.6362966110559252,1.2564731555196569
2200,-0.9071375412030226,0.2156697493781039,0.22498670678871646,0.035326241692789195,-0.4346796495345159,0.23253716656108703
2210,-0.9191935012879757,0.20890341884651545,0.21607068652746317,1.3892931086553661,-0.025886661740353284,0.30831265522725027
2220,-0.9255101516227922,0.2006461131036637,0.210902194287501,4.285378215572487,2.669229524481991,2.8250102838217046
2230,-0.8946274454047257,0.2280153307557101,0.24068151477447255,1.3644484985318894,0.4098739557633251,0.19699035417680846
2240,-0.8925169221406387,0.22669768481347,0.24483587243893015,-0.4029598806702877,-0.15614510813131893,-1.1777491439031857
2250,-0.9617153547087324,0.1625611583600336,0.17039630843560738,-2.27790071601528,0.16101832167860058,-1.5618998770497583
2260,-0.8929504713063369,0.2249607624638919,0.23765330431126525,-1.89195921173831,-0.7640576567267654,-1.967652778642857
2270,-0.9111387747694154,0.20378061640755146,0.22004223873468734,-2.3374629250927326,-3.232902943677697,-2.987480367978247
2280,-0.9040696326082927,0.21202252990713444,0.22937884415493717,1.7337543736736696,0.1496274297849466,1.0172026812016934
2290,-0.9016008770897901,0.217598957454293,0.2310566267137372,0.7455196977572722,-0.9011445710645865,0.21758749726191118
2300,-0.8956769849253217,0.22654640625023778,0.23369426876110305,0.10283582004796515,-0.23848486970967575,0.3981444346295209
2310,-0.9197562399630362,0.20594776957694605,0.21223775912520784,-2.245694141866287,-0.4096122230547544,-1.1547929711368088
2320,-0.9227782671577848,0.20178019371145456,0.2146759119169527,-1.7654642771326803,-0.022880438430840547,-1.4117069431249174
2330,-0.9020997090383541,0.2122904259865939,0.23065302258792744,-1.0086155399486851,-2.0128649263140272,-2.2581090547737594
2340,-0.9011057373124524,0.2102365797553809,0.2263858779814846,1.6246473212685193,-0.19604277797884526,0.6483176845805607
2350,-0.9111614607311749,0.20708554125610773,0.22006810253896275,6.283590119897044,3.357965774638404,5.496371541671538
2360,-0.9125638358629137,0.218674994611972,0.2224285380845247,-2.081570770617989,-2.52428800606019,-1.5729533850987754
