time_ms,ax,ay,az,gx,gy,gz
0,-0.7267663636485747,0.2499865584018396,0.6317771300795345,1.2242053324472315,1.2697466724445234,1.1167071599291805
10,-0.7310861480730853,0.24828496800176672,0.631679948636618,1.7408194711948766,0.6608735517634374,0.6473784250154834
20,-0.72645672989031,0.2525334906188214,0.6350487920920975,2.3083747134688464,0.9496885224359194,0.7365395114922302
30,-0.7269361142360065,0.24806091420126897,0.6334376824910195,0.4322348189050733,0.6510790107273974,0.6616612795316257
40,-0.7271620830640132,0.2530812265876572,0.6356652629313984,0.30382020352031747,0.1526732772519441,0.4138784080645722
50,-0.7301628856432176,0.2603978255311566,0.6419765662958098,-2.5355674807898967,-1.3468710888225124,-1.5941534632747452
60,-0.7100413568655194,0.2639733570866301,0.6562074350391941,-0.27733055911418864,-0.2169031639896033,-0.6542658078636624
70,-0.7136470770769268,0.26848550995683507,0.6455617124560805,0.10562951194004144,0.7969500981630144,0.4553882000559338
80,-0.7312068065433377,0.24912869129168322,0.6303078036556684,-0.9005770192950626,-0.18135243231520212,-0.03445801372715324
90,-0.7152840556407002,0.25213407911958435,0.6458385064361346,4.486725781767014,0.8942535644574621,1.0971308728477203
100,-0.7278529085923344,0.24662340102677388,0.6288527972539268,4.976419389169095,1.4178931802760817,1.374651558139054
110,-0.7446826342258975,0.24638044178253002,0.6258374448276924,-4.466005119643244,-3.035799533419742,-4.2321968432409625
120,-0.7470115136484032,0.2339984375016424,0.6154114736563858,-3.067331466701404,-0.4460584452327347,-1.0813743553394077
130,-0.7092732441352709,0.27325862629622044,0.6541646772596745,-2.1186487139181587,-1.9945364020816776,-2.464854975564542
140,-0.7286854399263047,0.25623407452040997,0.6367761360030778,1.1817951855225974,-0.2818565545298333,-1.9112596031120805
150,-0.7278908794820997,0.25492624112356665,0.641032443663694,1.6101556090790914,2.156859873187667,0.23870483432843903
160,-0.7351108630072067,0.24649966558571593,0.6349835338961747,3.268454943600728,2.2388542205624247,2.3306141887321843
170,-0.7153876014101499,0.27115387368811916,0.6725893628088465,3.9889712239027815,-0.029880793388277427,1.1778004068218477
180,-0.7530277080469134,0.2917743026269446,0.7249955531071318,8.234968250106915,-5.596652193265914,1.3117566131128036
190,-0.8425843715609463,0.30874156899603233,0.7604177829114513,11.816075393393765,-29.78964815436844,-1.137710103330335
200,-0.7168919435362837,0.24596569072991056,0.7578830835778636,7.209117796136569,-43.13381660217709,-0.5863157030745358
210,-0.6536804439883216,0.25850001764131536,0.6996418285562174,-7.541618124345965,-49.14227140447339,-3.7873459535639205
220,-0.6539198898414698,0.344036178441247,0.6528529317299072,-5.392473282311735,-49.1788408903358,0.29480019769356414
230,-0.6068353173870945,0.35766701293970377,0.5201184287028989,-18.39044752316733,-30.535046135088454,5.17570357898774
240,-0.5528835597466472,0.3805003486681016,0.5878024656133618,-30.933316590825616,8.729903616943878,18.55102419814167
250,-0.6610902654535842,0.34422383082470476,0.6057737422589413,-31.118043486243586,15.816503027526489,22.307724410916524
260,-0.7020665416742238,0.24104110912519527,0.665405139463712,-35.39524984332587,23.23307870828803,19.421027719083014
270,-0.8704015180899598,0.12310304162143079,0.7119106795660372,-39.00743383089741,22.314266603034913,9.588580060890443
280,-0.842024034709729,0.06088141943184771,0.7369105160788975,-32.24133317674186,11.99015435185061,7.662003947592692
290,-0.7516492704380463,0.04921037822297594,0.6152376182201063,-18.245911976613275,-8.739022836108155,8.05150880840011
300,-0.5421822941510207,-0.02269996159853174,0.7996558448065182,-6.297699262654399,-15.790387120059815,-2.6710626001132347
310,-0.6193008484359906,-0.14229981943592362,0.8659843818039984,19.50483747606,-23.642522164516183,-18.289561959156373
320,-0.8002351022191709,-0.19012523947261642,0.6463039481155538,9.915602333002104,-18.726505306978503,-32.36202437507313
330,-0.8291784095264264,0.3788828254973628,0.6549195028626069,72.28231463369595,-9.770076675825475,-29.707272440122612
340,-0.8232349838506865,0.5112050694810125,0.8033436526003448,82.31151392455716,17.999298687403247,-15.290191980851104
350,-0.9426728827930221,0.5371897201921347,0.36638568615864314,-8.144786780739915,31.213530790988766,-9.044846786767756
360,-0.842308617327747,0.6471906381877619,0.4438010320601236,-32.55252171130231,49.65434102898676,15.951920774301033
370,-0.4239591046128137,0.37020821304787377,0.8850190520438869,-11.342748638495689,67.30539453303189,42.49815610358613
380,-0.7313818698427365,0.5140119445110352,0.5017886252768677,-34.41085462922755,61.639745706849624,56.12040945757553
390,-0.45572697598340633,0.3876895120272978,0.386174879512741,-1.4891619184178841,31.872640195346804,21.46436868123365
400,-0.685810211608318,0.19562731544568507,0.6560261032948738,-44.276591088634284,15.545877207683029,-4.88922392270582
410,-0.7385408437916899,0.027951363480460505,0.6808376929029963,-3.391380871478158,-2.2432095445252065,-17.922642415388896
420,-0.7886091411375679,-0.18541234001037019,0.6820580283349595,52.70942884067757,6.220192266867008,4.983417400033486
430,-0.8128281261714109,-1.2641020522844264,0.937299481093303,80.99525151793429,-16.04367352569771,-37.30066498307842
440,-0.30170159977934946,0.6121284367331553,0.9750365104136766,52.268855684462835,-26.497323193867224,-49.641787827629116
450,-0.7502269336845939,1.1316247092224505,0.276001316761543,68.6415371288899,-7.2632400554509315,2.581690220359577
460,-0.7196403674002999,0.8570392408288188,0.48401324793002576,4.683771568089068,4.721581017644997,17.929849575771087
470,-0.7252123401624168,0.4426478404024867,0.6117146487297259,-42.178579342790265,-3.546397289110491,-12.567968574939082
480,-0.7441678481982339,0.23224928498634662,0.6222641960275571,-48.9565106188309,-10.173931031842194,-28.49860622750463
490,-0.7208736663232382,0.17499036353175873,0.6329723362151035,3.986335770630305,-3.6066582282266895,-0.1964180865038032
500,-0.7204045719815848,0.23171541992536265,0.6484589668469598,13.800649013301925,3.4818885416305245,14.471707312786481
510,-0.7322184585757726,0.23757792223073232,0.6305714112744479,14.90314628818442,-0.6564696825382437,11.078805329305426
520,-0.7043262464777182,0.28675098542123156,0.6599769628804089,15.007658442860581,0.26683579021402615,7.518858018099653
530,-0.7492944784526374,0.25860015074252274,0.6219514837195084,0.8232727727980832,-0.1853316732316228,-0.4460651068662691
540,-0.7295205152986316,0.22252253916663137,0.6361447353035279,-1.4487672608514843,-0.6628920819819455,1.7667007455893957
550,-0.7246178970802992,0.24076185118021998,0.6412994335444057,8.94513084380794,1.2254437971043446,7.059646440362181
560,-0.7192515396990505,0.24932596796738998,0.6338744720741931,9.142254023753718,0.27546448556840364,5.917618368637791
570,-0.7025112403688445,0.2696364249078285,0.6432295077471198,10.648870954655633,0.013956483202881453,3.35010661406303
580,-0.7186624447844407,0.2836275936632565,0.6343619740216393,11.123519965376207,0.6352999311437173,1.680005913553388
590,-0.7241563685646524,0.2560597463354164,0.6390957002466203,3.4230778208152155,-0.009391401762127972,0.8026759456722138
600,-0.7141811333192759,0.2723488183362971,0.6418177220500948,5.540271851455019,-0.22560433197428575,2.3738770843754136
610,-0.7285522286018034,0.26307187271705823,0.6393245680790807,6.789194343518862,1.1333937426613634,2.9039519987125235
620,-0.6955226438945055,0.3013667441303521,0.6670015282827606,4.381378408276805,-0.46883262870823667,-0.13521070691904125
630,-0.7473074636929322,0.24245622335490613,0.6119445538193803,-2.875888204756501,-3.2243533295544347,-3.1835396792881987
640,-0.7331788406644184,0.26024253936025965,0.6212523308112029,6.245982959490612,1.5711350283288854,3.7053096150592886
650,-0.7733094391848808,0.22645607207700139,0.5840812565414605,-0.5193377232513214,-1.7436799463272632,-0.0012945957949854758
660,-0.7496689661992402,0.23860805543689892,0.6088843710492309,-0.23599264770733064,0.8994595134288209,2.487111560450032
670,-0.7199710419848119,0.26872331674899497,0.6337303544418389,-1.393957289533953,1.6788404779803652,2.639271397467832
680,-0.7345445684150482,0.25936942838743604,0.6279623013761425,-1.043741899884117,0.28637924396776865,1.1924460465314748
690,-0.7087482467522677,0.2728014910331401,0.653596631070648,-1.2572619791337034,-0.9032194825133713,0.317349529153663
700,-0.7387986386816245,0.26876805072446536,0.611478276618793,3.0104601150200914,1.6257166328392296,2.8270723292306217
710,-0.739709137204649,0.24668910449649803,0.6248808800668415,-0.9585704519758418,-1.6189830348007435,-0.7806564009279283
720,-0.7474634729021763,0.25253154965705304,0.6151602504548929,2.0509645590341137,-0.5865637863717255,0.02214408571209403
730,-0.7217670048746441,0.2696951543569024,0.6349134519243688,-1.5673077929903034,-1.957101562834816,-2.7384053800471215
740,-0.7356954692422408,0.24337576747163817,0.6186234074502899,-3.9571640877025622,-1.7308041961218499,-2.676942037976137
750,-0.7212363685094877,0.2592651947981653,0.6382824774605296,-1.8516142645926312,-1.536845852229808,-1.3782798132119805
760,-0.7233236320267316,0.26109736846322845,0.6324786933446557,-1.179329393677694,-1.3251409715162183,-1.4667929364706953
770,-0.7113258625954132,0.2828414837639848,0.652881327245361,-1.2394030561289329,-1.7883481346479393,-2.7310312165864365
780,-0.6899449514935988,0.30166021677407007,0.6719752067446582,-0.9664063937931217,-0.19850463160157378,-1.5789524371546046
790,-0.7254332009380449,0.26417675685612446,0.6409664442809251,-2.129249460273855,-1.9112579988832135,-2.390217348736241
800,-0.7520345505349423,0.23005859507020887,0.6056658776768421,3.1371404855936498,0.4635710737798891,1.3221596952545038
810,-0.7528715966342118,0.2354743462997865,0.6061033886655889,2.4782218458343737,-0.4207329615599584,-0.7093120870332125
820,-0.7531347152470007,0.2401148212162235,0.6052423411215847,-2.0874163249685145,-1.4219745976584015,-2.5159140896608987
830,-0.7289459351352502,0.25944369510653303,0.6322626347864135,-0.6348035462194882,0.3385960887088112,-0.8536841706753676
840,-0.7154576428730858,0.26804376143379083,0.642681310381298,1.0860734343818792,-0.2906710215332912,-0.2589822935239716
850,-0.7267563724841001,0.2599070074404032,0.6362872496524308,1.4461065424602977,-1.3623678597121782,-0.770586514085893
860,-0.7025004201296462,0.28857931738380516,0.6594691629051678,1.4137712090470547,0.4063532254268642,0.3009180785663927
870,-0.7463793759029858,0.2535793433221276,0.6157783135444133,-0.8954663844003368,-0.3751280413678708,-1.824637003205017
880,-0.7411506339589555,0.24750798652125136,0.6243076636803264,-4.027436832623057,-1.135515203731838,-2.5539777433813162
890,-0.7049685662663767,0.2752447797242106,0.6531276191043038,-2.0654625156250193,-0.43072714253360056,-0.038885426418546754
900,-0.7436623078329804,0.24357222300257322,0.6166471956743074,4.81558852609834,1.8973969861168252,3.074948158593104
910,-0.7333760368085933,0.26414770332788257,0.6310230868203921,0.5409641640332952,-1.9860266021997413,-1.8457083357294488
920,-0.7253724354698486,0.26940534668754756,0.6415909772086824,-2.87105910627698,-1.9244897786551627,-3.709007383464758
930,-0.7243250570110775,0.2617279970917091,0.6313300606385767,-1.160210065569641,0.15238714026900446,-1.3134140174052114
940,-0.7523121632012505,0.2321960299904603,0.6060502445598132,2.4811871764621003,1.1168734095182282,1.0794071543507153
950,-0.7176338380150505,0.2746919806723504,0.638779959083992,6.167507818103584,1.0428059211334824,1.4544008738407619
960,-0.7461836538401204,0.2525928423602563,0.6136013792474309,2.149160595935704,2.1075210008762664,0.8214614504411568
970,-0.7209829573522349,0.2738757703693992,0.6446276895008218,-3.0988942839078946,-0.1867201953582958,-2.500246115245751
980,-0.7104493600245829,0.2644393032521954,0.6420173644819874,-5.564645745369935,-3.2090633442850787,-4.649079668714489
990,-0.726030303606808,0.2573184280488707,0.6318367062870993,-2.1158046834623407,-0.6981225258885746,-0.649463524493605
1000,-0.7321691572814707,0.2631224291062665,0.6287864221870901,0.8850421611076228,-0.005765498457963397,0.12640194323875104
1010,-0.7458941147187619,0.2447386520436579,0.6143562127262526,-0.16237200536597962,-0.19618107444874372,-1.1818345317687107
1020,-0.7494135661208882,0.2371501548086501,0.6120957376315969,-0.08758452260634142,1.1358412038797283,-0.32205682646229983
1030,-0.777409174557135,0.20348452376820506,0.5860758493803725,-0.10346119656918829,0.4691336245562252,-0.02399325396932972
1040,-0.7016314710651962,0.2828415291122684,0.6607026674477698,-1.9376888949728306,-2.9558517765185437,-2.823217688450425
1050,-0.7508217239205062,0.24098870758283752,0.6096097708749658,0.28934083966261714,-0.686499927665039,-1.2928347681608645
1060,-0.7308646979177607,0.25295331643373975,0.6286394674366077,-4.011683113683574,-2.3559190808587176,-3.096734178708685
1070,-0.72145243578752,0.2644561019306245,0.6382960935145557,2.1611725951968537,3.8380010418286337,3.349229991218335
1080,-0.7483828641464019,0.22506094174910585,0.6128544745701787,-4.371424567451738,-2.3297799342300944,-1.607203536383903
1090,-0.7117874470673092,0.2794412201290977,0.6510721184735524,-2.316909728349264,-1.5304455595491042,-0.582335487067037
1100,-0.7100189068120394,0.27991293556230396,0.6487752947298161,-1.5848075626775295,0.016867933981575794,-1.3197846550422778
1110,-0.7409274040098757,0.2478443436926748,0.6151374021014702,-4.090497346917379,-0.7190267276991889,-1.8336213929100365
1120,-0.7016140992504206,0.27162638263156585,0.6598708740639379,-3.938382911769149,-1.1785071314384061,-1.8385038860689722
1130,-0.7437033090436066,0.22742539122854505,0.6207794687066194,2.4658152536860354,1.2438210829647744,2.060782932330772
1140,-0.7481643116382158,0.2399864986173336,0.6180308601863195,5.37434878958851,2.546055656071062,3.639154623214023
1150,-0.7383698938242245,0.248096601593038,0.6250892750322324,-4.174604729816851,-0.7050063090781604,-2.4228480467329447
1160,-0.7391465647452952,0.23905863549325734,0.621118428135865,-0.5353307919600314,1.7832251838978808,1.311667193904392
1170,-0.7137064634012829,0.26658173816062186,0.6467070903941309,-1.1661843952706388,0.04553302979114752,0.6171089465880649
1180,-0.7512911625336149,0.22316556449027342,0.6137676341422114,3.0005653173065134,1.8993857963661793,3.363742832000545
1190,-0.7300297017453606,0.2523511695790586,0.6274214564933323,3.221344367310901,-0.6189341539869552,0.102303221473111
1200,-0.7470242967763268,0.23100686220075284,0.610347259379215,-3.3536614018601316,-0.9955013272113458,-2.5560117011066175
1210,-0.7406807379223296,0.23642366177701118,0.6229315739557173,1.1761456023913879,0.9456661186923736,0.79501708703319
1220,-0.7292752793511027,0.2542251596707518,0.6320547669354821,1.5270393739970016,-0.6830008168654412,0.6987629252578222
1230,-0.7289717163988993,0.2703472642690187,0.628614379079209,3.5458032935386337,1.0458916986245075,1.9116151903714382
1240,-0.7163436565799312,0.27721159097643744,0.6461772883316399,-2.0338448469100063,-1.2199548840099985,-2.730684297380689
1250,-0.7144069385684698,0.2608145805782116,0.6386092200246087,-0.6895170668648815,0.5004883224339327,0.6530505110822828
1260,-0.7472780827663401,0.23951184896488223,0.6154032214978994,3.297518736930494,3.177223800118364,3.3494732652987294
1270,-0.7262601924040116,0.2667065908559648,0.6376096252920322,-1.0330795522245433,-1.2632996233628537,-1.1715710504388905
1280,-0.7565604570005945,0.23215882511381578,0.6083675460894593,-1.9185402455836034,-1.0244948232561268,-1.1450755574106006
1290,-0.6987042154269268,0.274862311212155,0.6612314203287193,-2.06700529513797,-1.5308285114296776,-1.6004433719221944
1300,-0.740861067190401,0.2507559528107561,0.6267029731643561,0.9105483574685236,2.2170320904921863,1.8772041629046616
