time_ms,ax,ay,az,gx,gy,gz
0,-0.7296093967894695,0.16846978410398444,0.40408289594750596,3.341336706718505,2.787240103528445,4.103960467820217
10,-0.725304617092191,0.19220797719591876,0.4137914644769172,1.1790474799053612,0.3762654802308869,-1.8882484166224076
20,-0.722426391520846,0.20320499503563177,0.41175622845805826,-2.291998553189673,-1.8932558886375064,-4.795878669626836
30,-0.7428261419863749,0.17610427236661783,0.399665763847938,-4.3670724138630685,-1.331377512675671,-4.868242075470564
40,-0.728966242800768,0.17942928880421768,0.41182670571202484,-1.4519761160880091,2.2242830479488935,-0.21858993346288758
50,-0.7350786193812031,0.1668570097504272,0.4006235912700121,-4.112198157847551,-1.8970980628211431,-1.6416888407527113
60,-0.710145300601277,0.19510806025491156,0.4317711050306129,-1.9421915596113504,-1.2700518144410693,0.6298734644914379
70,-0.7253704697772603,0.19584090777382993,0.41585812716596965,-2.0086076051896606,-1.136285767555161,-1.3964341634682524
80,-0.7253702630290123,0.19387131992300055,0.41217953758879544,-2.7646205397288997,-0.7433454576135294,-2.5719216796853903
90,-0.7184807246810735,0.1949749954007545,0.41690728207213673,-3.54830368129825,-0.36056501577297495,-2.481582165645156
100,-0.7350326942903344,0.1765595096717446,0.4022397653230141,-4.427068208425564,-2.206781195182882,-3.614982313874809
110,-0.7330602687277361,0.17587515110828003,0.404475201798066,-1.6927172340220333,-1.3640176068028012,-0.7426871278760587
120,-0.7503264231688908,0.1568090593430244,0.38819894290992063,-2.9681731307474486,-3.1224440506254547,-1.4338787636477026
130,-0.7255464601534832,0.18704576531529205,0.413339985639354,4.6508246365937005,2.29696197390552,4.112247029625001
140,-0.7150908343994774,0.20255008273648628,0.4196624171840266,3.471276716921329,1.7441744851669023,1.9318480618150755
150,-0.7708269151948229,0.14513750778923848,0.3639940926460989,-1.693536081818617,-1.4296371391452782,-3.114535299044818
160,-0.7439583564501007,0.16110054963214063,0.39418072581548275,-1.3521518740320257,-0.5764618093728747,-2.6616332149743935
170,-0.7361251334329529,0.16909865420144732,0.4044391113562072,-2.8789084968411944,-2.1879376743179932,-3.8743263397992784
180,-0.7463904736975444,0.16406376946758908,0.3937916767874181,-1.2142283204758018,-0.6267570458196037,-1.8279125987468683
190,-0.717833882139291,0.19568014679197485,0.42104581330096197,-0.8625574908607299,-0.37904185743366525,-0.9804151313493731
200,-0.7547004670472695,0.16172716721689723,0.38546503169122476,0.8117736456963265,0.6618861725800914,0.20123685529618762
210,-0.7420193730053903,0.17046607107981135,0.39793168423157027,-2.0098140266854316,-2.034147760218577,-3.0061153379268486
220,-0.7563348575067474,0.1558102476179553,0.38021568777262127,-1.5770027608471822,-0.44929766243910935,-1.3623515744515247
230,-0.7328158309899655,0.1744958362435903,0.40080183393941693,-0.10808698688497424,0.6335337471663831,0.56809177213127
240,-0.7326047620886854,0.17310765439341705,0.40385659592983647,-0.598693821993291,-0.6327695505205152,0.11546280359492589
250,-0.7428030987346718,0.16890737345364312,0.3987567907962403,2.1531274912689318,0.8162478344869546,1.9843195841746204
260,-0.7611178192434548,0.15014438926407106,0.37519201213421227,2.5061015831167097,1.0398077557372754,1.2209644927434462
270,-0.7568784748505001,0.15593324917609386,0.3774958374343426,-2.203305731473078,-0.4202820862186849,-2.0521838762253544
280,-0.7446509513009353,0.16815788256558922,0.39322042752930975,-1.5013085618281785,0.9767452848098049,-1.7917145064900555
290,-0.7308306913133434,0.17832139164221159,0.40365880246574715,-3.344915870808112,-2.178002073415579,-4.138162276967728
300,-0.7385893770041438,0.16552266452381223,0.3960432840280622,0.9702984823234274,0.9180872990029935,0.05531769765491146
310,-0.7341346003951356,0.1759918133980199,0.4027951327580186,1.4397094539777182,0.1838105827591986,0.3972788234595118
320,-0.7580120785266284,0.1507704017036896,0.37625481495768076,-2.2166542748912716,-1.482079720718216,-1.80056972473406
330,-0.724528392132994,0.18853404787524275,0.4071798799034036,-0.1349802064088886,0.1507087855402717,0.8366482809978394
340,-0.7342850895965021,0.17893257236717275,0.40169743177859063,2.274911137893609,1.0581888212110628,2.1078979965831763
350,-0.7576959023611803,0.15836072566557635,0.3770547364165403,-0.7163146977027838,-1.2432521383578505,-0.7788287753426145
360,-0.7227348452192806,0.19029318703899364,0.4108743051524466,1.0344482411209275,-0.36250362179534706,0.20536197834177675
370,-0.7535666007449209,0.1554689279639837,0.38222286476622624,0.1872758050271892,0.17075256239217962,0.12031863614982252
380,-0.782026859958166,0.12988183906516537,0.3535997213799132,0.6349515683866553,0.582863098514387,1.0216621445984928
390,-0.6996963703425694,0.21611656704125748,0.4431273159771196,1.9944527707066855,0.7547797781827197,1.3388978754099294
400,-0.7369981511605753,0.1822076995180577,0.40444677532700585,-0.2988298459730651,-0.8791696887177711,-1.136409020740873
410,-0.717927663623548,0.19511354129801697,0.4200234506263513,0.4036371087080952,-0.008823336346698005,-0.7701155386859558
420,-0.7353030471373972,0.17615372748522173,0.3995546198298587,-0.46260900094507373,-0.7267044562773293,-1.197781370223011
430,-0.7291209270758758,0.18250272860129893,0.40424490241860306,1.5560036251431215,0.9431274276360467,1.3983078474063344
440,-0.7290090454135296,0.1904287201964171,0.4053876064916313,2.192378471766344,-2.1508964635532917,-0.09311037457370941
450,-0.7472697183602719,0.1727357025527852,0.3979596810610694,5.8604716139592234,-2.285526447429091,0.8148218973733456
460,-0.7214650533059298,0.19474775705480957,0.42277805592015133,9.248997970628007,-1.0515638721044807,3.3097334896648682
470,-0.7181563003873689,0.2078498634198233,0.4517349645748111,6.351483692695051,-4.110709691463508,0.7606885550953619
480,-0.7734978496431405,0.19338812011760126,0.47304772984245697,3.3891012167346544,-6.1880840756239355,1.152713669978147
490,-0.8686142728172832,0.255604575608717,0.4373123758411002,0.3857435007964032,-18.59087307544616,3.204100132172819
500,-0.7080960988121286,0.35618581221439705,0.4096986088413689,-14.477774210832528,-21.015187919217905,25.53821869186842
510,-0.5287326756747079,0.35018852294941094,0.36807983727069743,-40.326873422132536,-19.6218826934329,33.489831885770755
520,-0.6023006561722254,0.29153828267704407,0.33961690140097495,-42.389412185743105,-4.06964491527671,37.707480988645194
530,-0.6872988684811575,0.32670860526805734,0.3802006301122483,-47.31874628069495,4.065213665437697,38.765855874080266
540,-0.6659342421353002,0.3878964061045165,0.43158915342133025,-59.63779427763692,3.989178921498529,38.4503091235399
550,-0.674950454027228,0.3177216142365492,0.4153939776467686,-66.93836695535508,5.960645135201761,40.58125606121418
560,-0.6314270213102727,0.18903585075828802,0.45689800088047366,-72.96774763419194,12.420742791459167,31.77850731784714
570,-0.6982447472020273,-0.03514487268640925,0.4456708759358356,-78.33751604091646,18.124125660258976,12.697233031181645
580,-1.0371734008533267,0.004544384173443019,0.7120918311030648,-76.39415991812291,-0.014713539775695894,6.519867019785123
590,-1.3184388213175449,0.054223949213983144,0.9661390588558649,-52.19016304936224,-19.870526340601927,14.804760018057571
600,-0.7396947585172435,-0.17366135598473517,0.45819232295465734,-9.108851247928541,-18.129709945097385,6.847324059498436
610,-0.8360243020064279,-0.19780930178266726,0.6114670599619844,25.81427566548447,-21.352748607633064,7.298176094636886
620,-0.6738690914752883,0.013762802877022959,0.66277321381556,39.1218393860207,-24.401509769806307,-2.744848350901644
630,-0.8254513236646746,0.2847455398305907,0.46563219089946445,68.94485710182289,-24.541991238508572,-36.02684323944132
640,-1.0009627166415616,0.6203926186052217,0.7173301609990399,101.02118720596333,-22.874642615584545,-32.72484504197029
650,-0.7485440261058771,0.3200926139654483,0.969088413886189,68.37309976894838,-13.789307026973786,-44.01553797973703
660,-0.7521725067021895,1.1374086043255338,0.41974215146957145,77.64839001081478,-4.9513081798401215,-20.392355341768152
670,-0.6693657279619973,0.47872019828827944,0.36849841309059345,18.529651473049874,14.867785094554359,-19.445678466785296
680,-0.7720850049534428,0.43084630747577607,0.3178533050007107,40.210354454793645,29.63677171043744,-1.9531312913760719
690,-0.6517440775568567,0.2793989786026584,-0.13034930556374139,-1.8389725501808996,86.43283898659013,44.32631251924691
700,-0.6123145584810235,0.33822562650089777,0.2824354659582526,-25.92741617252389,70.89299241369429,44.17487695811391
710,-0.6269775479095588,0.12927942149104127,0.49152385751267563,-82.32423442889876,68.74336209300004,32.74604306158655
720,-0.6626217013733798,0.3468663509917904,1.0351162400607887,-95.07097914085767,53.943550447713854,35.69940485379181
730,-0.8471403670916036,-0.008935493675575128,0.5036670090666986,-30.819713334881826,37.91034394662137,19.573672655274187
740,-0.7366582474012213,-0.2455675051481343,0.5703798465029932,9.335553080640922,28.57623326269808,3.190493999627372
750,-0.8847906339486651,-0.536107868571609,0.463086732028636,39.22537510726748,-17.135560280511655,-53.31602804293177
760,-0.9082622393893665,0.15995835151055254,0.18556205857048427,63.48764422722336,-20.14899035446353,-55.486779513388804
770,-0.49334132628379446,0.35355683768304935,0.23956055201224938,83.7534153426073,-16.867477712624105,-35.596464579923875
780,-0.747122884925025,0.27733353996986865,0.1344325178292774,65.12868802268257,-14.848820008440711,-17.317644080809437
790,-0.7200112103892933,0.6168083535068971,0.33673385835033004,43.43957903038176,-0.5232683468092678,14.44205594203153
800,-0.6698101523743623,0.5886027684022666,0.4461112866739197,36.506033966614595,8.327615759112508,26.39235899815838
810,-0.7064682157053602,0.32381657560974136,0.4088433242055968,-0.31092450281904926,1.7530793940859697,-2.7749069385429235
820,-0.7383416265082969,0.20492414008130347,0.37956544644287254,-16.987468944553722,-3.1380522442199563,-18.35368311310675
830,-0.7459606467008721,0.18553204011826183,0.3723198968174336,-13.641604919049112,-3.5158268974555202,-16.76600116062837
840,-0.7674056912124126,0.16175339519744597,0.34171036323665355,-6.797408020914017,-2.1863905544079105,-12.317793744467654
850,-0.77663097496914,0.14633808057979683,0.33906106411240367,-4.2972258632652,-4.206185475569722,-9.387088898474232
860,-0.7274372931858003,0.19641120519325175,0.39119120016319575,0.3387781786776194,-1.7991648156122548,-1.43376627874064
870,-0.7315148821526394,0.20565931824811573,0.3853984615836469,-1.8717807118648968,-0.9917511050747012,1.3571234053279786
880,-0.7293718372780199,0.21720793921818535,0.38953132830981607,-4.245844096807534,0.30288242165407975,1.3817087171530917
890,-0.7451518252577048,0.20055426483709965,0.373041190005665,-1.0837531972407168,1.7969994813107943,1.06731256436937
900,-0.7332455328519508,0.20457314442089966,0.381767479537882,-1.0817530803485478,-0.2071592051771911,-1.9311128121450851
910,-0.7376235256198748,0.19315722027250418,0.37764689406932916,-1.837267097124069,1.025999296341125,-0.38271736609273077
920,-0.7268583072934566,0.19811098053839313,0.39715251217700337,-6.279326860055022,-0.8210195405415838,-0.997007860417864
930,-0.744059182567493,0.18084320855004304,0.37575453772092793,-2.4911232788747,-0.3466212942525937,2.530024257831231
940,-0.7331640701536853,0.20552799062306812,0.38886956091373454,3.0801938112658505,2.0272781456262905,7.633898636203939
950,-0.7340100250946731,0.20716830250110443,0.389808390157958,-2.1934881548496965,1.0768215149430191,4.766701767958754
960,-0.7771662256994523,0.15639668368573836,0.3406144318294157,-5.184306948491736,-1.9358124253562339,-0.09085109278974524
970,-0.741564283959825,0.20154270222662182,0.3769029086572216,1.184367516541938,1.325392645677574,2.4446095966702748
980,-0.7655058141067277,0.18021056732457597,0.350690455792688,-1.6068532759776986,-1.3100469904789152,-1.4660336005825039
990,-0.7490235342157539,0.18890856298745543,0.3646309360520671,0.43293331152216474,2.1774632472498894,1.5253328813368685
1000,-0.7481313209310827,0.19062410478669226,0.3680620482346787,3.4301717104707237,2.254332939757744,3.5264681488481138
1010,-0.7429783048996963,0.18817903916090947,0.3714812813921217,3.078977316447939,1.4335504116831062,2.1500943791677596
1020,-0.7602847027263406,0.18251185392501543,0.3565343799678794,7.04516267610946,3.6938980177038845,4.940056490265926
1030,-0.7541587715214327,0.1871027536956258,0.3604413869326596,1.4454350881650382,3.1875978843109514,2.5490888389886925
1040,-0.7134444233795975,0.22262759619716216,0.4026417099732935,-3.9456000126836988,1.8077699202739317,0.027077703473275205
1050,-0.7499552605165011,0.19044782856985987,0.3729787762902397,1.0798641584661344,1.8045243332548075,0.2921794381823377
1060,-0.7261307820230992,0.203180468677857,0.38840363436995495,-0.49545999905631966,0.2662318186996159,1.7763196162746895
1070,-0.7409334471088851,0.1985911051752506,0.38877624003528755,3.050574695506728,-0.5202327747407524,1.4484458612204938
1080,-0.7464249833720494,0.20126799996564274,0.37498887853635454,4.725219154381937,2.6471440818116507,4.251219412291933
1090,-0.7341302045824646,0.20453165731045692,0.3763105815669647,3.0903337198701304,2.6801989734681735,3.002351382638624
1100,-0.7460224934074348,0.1995062368120644,0.3783499963578725,0.15004041868103846,0.36486046258892446,-0.04876353661034194
1110,-0.7441688392959038,0.20093571473391786,0.37984478020720147,-0.6673850448448282,-0.12042755075884748,-1.277660690094036
1120,-0.7525145961634503,0.18805985008741008,0.3656053211721731,0.58651951722604,0.5336942153056583,2.630679487885103
1130,-0.7149515382365405,0.22482463353433788,0.40300241547726623,1.7630796927727403,1.855594836238955,5.012019803611793
1140,-0.7320896544488513,0.21080051762993063,0.3873945937665004,-2.213952567867719,-2.1023923963909668,1.1130607525939165
1150,-0.7450246062077344,0.18723050834662205,0.3642600684437355,0.10355252713467378,-0.5655310234987049,2.672531599935417
1160,-0.748112965901309,0.1924328040661583,0.37334156061368245,2.236816047545759,1.24076556038019,3.221018583243013
1170,-0.7504922317662688,0.19294654438142553,0.3722293022946493,-0.21954084277102903,-0.3325838289654482,0.2059706394655365
1180,-0.7165155414661865,0.22515197477216833,0.39988289357474116,1.2974918651470808,0.9442104129424975,-0.8193191555324416
1190,-0.7441795519596339,0.19658784037123694,0.3734339168774929,-2.4865582980645375,-3.2904286052472607,-6.1375266818804075
1200,-0.7231446721112176,0.21431020448522697,0.3972966416531577,-1.8155846544305818,-1.735858983829221,-4.30557397879449
1210,-0.7263163359420727,0.20842908396184404,0.3926991092651345,0.08283028507250167,0.6181468998234466,-0.7731545987204083
1220,-0.7445214746590935,0.18757728236774635,0.3757080531352169,1.7444348985446478,1.586164931451701,1.5172770695445938
1230,-0.7116939952279375,0.21995043276827114,0.41111309090284315,0.9975650768882453,0.8930881656284044,1.2092636235461247
1240,-0.708337449140666,0.22919003037072008,0.4114791348191126,-0.7644700841527929,0.15869305379445217,-0.33327016281835353
1250,-0.7388592180716238,0.20196042201493913,0.3821112322548085,1.3379771801051623,2.2402756472834255,0.8401222654679541
1260,-0.757110377968294,0.17835255021773444,0.3663806838980401,0.14343241312577948,-0.5632352957906112,-0.9810207645975241
1270,-0.7696683803778265,0.16129766412378482,0.3479314463095561,-0.6110914385954227,-3.042341724269334,-1.8950618316965846
1280,-0.7442336450790314,0.1914409384313575,0.3700476099079676,0.13429039919044317,-2.408822913523825,-1.3024552484442087
1290,-0.7525639367624642,0.19069616597149006,0.3595176407136029,0.3624928177274229,-0.06210529683638216,-0.14618118314689593
1300,-0.7659324999194679,0.16420035059109467,0.3527050703671818,-4.129705792848789,-1.537069298366542,-2.4638235423281127
1310,-0.7238645974962515,0.19720676267234108,0.3937282215180676,-8.603642345112187,-3.1277137091256257,-3.7262326301520474
1320,-0.7393893302685449,0.19471854903716418,0.3799661376865374,-4.243777828011467,-1.350108862688019,-1.0318817050422182
1330,-0.7603302334695904,0.17189844591190676,0.3687959783993566,1.543339622993373,1.8109944708437284,3.125250179009422
1340,-0.7434108501450366,0.18398479128233353,0.38519869517827676,0.8444181240418595,0.12553787100864106,1.2769088367446546
1350,-0.7080452322188479,0.22901267311312723,0.41321284841003003,-0.12014587500601016,0.6798606647410157,0.9450298217486622
1360,-0.76900079635172,0.1757410314755976,0.35137859749450145,-3.1375618326977373,-1.5717815313329355,-2.775265108736921
1370,-0.718125266860622,0.21126504544313177,0.39754508146507994,0.9553845623942266,-1.004235773209326,-0.9784008711507255
1380,-0.7317389785583744,0.18986605398073025,0.3886255224407721,2.6907155006978543,-0.46808917774949954,0.5797134744954329
1390,-0.751215281972142,0.17646744277850734,0.37195519864777193,6.132591683545204,3.421776458481726,4.900504762008863
1400,-0.7534712781134715,0.19503857635450578,0.37249044710756724,-0.10385844779772158,1.0888617444504325,0.6067560377114611
1410,-0.7314676531249726,0.20268485431531214,0.3864624654774399,-2.9844117807155977,-0.41893648440030096,-2.2594441727014587
1420,-0.7334447332327032,0.20388179141854396,0.3884528546217577,-1.2179797791645053,-0.4766590845990278,-1.3164278655624648
1430,-0.7225315246205477,0.20609206607043468,0.4016605536396542,-0.571016884564259,-0.887298612737465,-0.8708817607122916
1440,-0.7487084108968831,0.18207042193484996,0.3736271083477689,1.2387157019156374,0.17801740910079822,1.251523267550615
1450,-0.7490918946385554,0.1787976737778945,0.3726978346985287,1.1254710706032052,-0.12217123447586878,2.3753276506821672
1460,-0.7315577095262832,0.19603874676965,0.3848730111031714,-1.3777205948368378,-2.4594368761952046,0.23874383978521552
1470,-0.737561977297411,0.20191254499979647,0.3856149751586142,4.448941453533126,2.737566316691214,4.0381442445458955
1480,-0.7505383880194288,0.19684992089874687,0.371022728425814,0.020139146446820022,0.18510446711609063,-0.13817484096775923
1490,-0.7167007586174946,0.22064272993902911,0.4056474841826808,-0.45253746087505964,1.2927611681740607,0.22921917822220117
1500,-0.7382055548754136,0.1919383626217034,0.37708406580207426,-1.5935166593965802,0.8984297575555164,0.5194508234694089
1510,-0.7332288754778684,0.19320765478010557,0.3829232368347022,-2.6081075971396865,-1.3368866369847565,-0.6160248102755745
1520,-0.7541026367665676,0.17730235586456153,0.36447611935213037,-0.5694917518279674,-0.8295566382206917,0.8703358519802302
1530,-0.7145631428734194,0.22225325793341838,0.40462005100696347,-0.5291529131148,0.2574013882663718,1.8878660002359058
1540,-0.7577689091597931,0.1725500124318748,0.36192004916631754,1.6499159687765377,2.549228246651407,3.592016754233149
1550,-0.7379529566110473,0.19012438159017062,0.38415216799660307,3.2793254136852115,2.3539131380874068,2.60102491686627
1560,-0.7347713060435759,0.19662265196653195,0.3879274646132219,1.3992599225891134,0.771980475330125,0.11874026854874348
1570,-0.752560694770316,0.18122960557534998,0.36714593567197584,-0.11969045886438145,1.5425827068573053,-0.02481463587099908
1580,-0.7263471030482289,0.2083540262596087,0.3931054728129707,0.8558146079274644,3.2601034552510777,1.426811718745844
1590,-0.7236341121745846,0.210578401766408,0.3998899053741169,-0.4794721775394497,0.884213951185349,0.07502870521505711
1600,-0.7260525455371573,0.20587806857524474,0.39763569810481486,1.8930381180599234,1.713985379304722,2.4747729888029064
1610,-0.7474863203273389,0.18133533783924896,0.37421856510376417,-2.3377945094733317,-2.444892463639128,-1.4724625951483707
1620,-0.7343178362035307,0.1997416843105526,0.3903421467255848,-1.2556055525829897,0.9013833665037764,0.3199915715644053
1630,-0.7691343601118451,0.16713799615761352,0.35341456414872774,-2.7735678141122166,-0.4419780953322494,-1.728611099997171
1640,-0.747441687130604,0.18501231775431004,0.37395303607878333,-2.510233054755566,-0.7749104513434972,-1.8763858884267524
1650,-0.7828610157839998,0.14806809275915106,0.3402455177955615,-0.6321327524572651,-0.317398526548584,-0.30270128699693
1660,-0.7314061320633576,0.198122126584643,0.3889553636450029,-1.679765576081826,-2.6839651928576,-2.054908450434807
1670,-0.7552128530037115,0.1730568639959572,0.36971493443682224,1.428667099257243,-0.5870226242668753,0.26691725765190966
1680,-0.7403297850800437,0.19650374197926793,0.385523555264803,-1.3543010082842488,-0.5440791056807083,-1.8538524921043018
1690,-0.7507214883877934,0.1854577153035818,0.375488215744499,1.4359102652675102,-0.18959801018351624,-1.311560066473952
1700,-0.7536996702278358,0.18742167093541257,0.3673973728611827,0.6887458861348468,-0.6826769866672814,-1.8131523957151487
1710,-0.7287688310148692,0.20605701529016662,0.3787509376210912,-4.587059869927674,-4.01616574708371,-4.91628586557179
1720,-0.7551313841621136,0.17616690507493338,0.36822315986108806,-3.136773235364627,-2.8979019160056687,-4.097721907695581
1730,-0.7281592384224354,0.20449260728333957,0.39336373942118796,2.0993457145388317,-0.28653435014842193,-0.6270043800149849
1740,-0.7186890731301206,0.21141393738800263,0.3981903482982151,-1.009799537620638,-2.2166887567794085,-2.3405707484750433
