time_ms,ax,ay,az,gx,gy,gz
0,-0.8131935046365036,0.8176583762477343,0.5825410020474662,3.4996171330645716,1.0747687008088918,1.9657260228684426
10,-0.8099902377119831,0.8132335800868525,0.577909018242147,3.364588672913635,1.370864805565274,2.295097812653858
20,-0.8446639977571981,0.7888634276230434,0.5467299049901366,-2.5095098108441904,-1.5703891423727507,-2.379112763681505
30,-0.8143580780662405,0.8113451861447123,0.5728193954163951,-0.27263001603203296,-1.3809502886260492,-0.09493210242050676
40,-0.831782549230965,0.7943483390625439,0.5551597745762589,1.0824186214044418,-1.2513296465090193,0.5539103004858617
50,-0.8315494821569641,0.80702664357385,0.5557465087819525,0.08995656726037682,-0.23555611004509475,0.2820137949357211
60,-0.8000130895474983,0.8332644067723992,0.5841118421906372,-1.6370916370158075,-1.7803498133017335,-1.7806132655237739
70,-0.8135330755414756,0.8180935915571467,0.5739078194441374,0.7421706652845504,0.5826021137889955,1.0013005427993078
80,-0.8099917835423186,0.8143008971607961,0.5727953431217512,0.09960455740760397,-0.13552620965583234,0.7886494835242481
90,-0.8319707547307881,0.799556839210661,0.5538744604814808,-0.9434561274198145,-1.2689654776449442,-1.0196271986908563
100,-0.7914019797441592,0.8416534283474039,0.5939529416662848,1.8522168135078312,1.9429333034469214,1.0861489049956063
110,-0.8250775089663273,0.8070238294066252,0.5649872588348418,0.041861513496210145,0.9882057086259325,-0.05451185778052792
120,-0.8077817691402273,0.8220409654801392,0.5808966408389059,-1.09290518550618,0.1267075480774408,-0.4979184658563765
130,-0.815942659763657,0.8125630547466957,0.5678164337566113,-0.7572575821084986,0.11231937350058807,-0.5346296265172455
140,-0.7965871335154566,0.8345506536460726,0.5911182815859991,-1.9282331831317507,-1.1249699945889406,-2.0019607426740347
150,-0.7959086754733484,0.8348750686711287,0.5954546404413987,-2.3498057113043394,-1.439084328382232,-2.1292370453341056
160,-0.8066593730307713,0.8230972487716202,0.5825598139350473,-3.1663605995031436,-2.0432830496195225,-2.581853855013288
170,-0.8299360171751565,0.802545027186219,0.5581769306566492,-3.058115458119347,-1.70243031783669,-2.52645815641323
180,-0.8548147758013289,0.7791388092636851,0.5335459830813194,-1.3482165235716828,0.4959774545674465,-1.5199064179998771
190,-0.8035040303787864,0.8294637028858016,0.5850040777249506,-2.874873574354276,0.06982937436090739,-3.6764465709872858
200,-0.8254103416180663,0.7986030772361143,0.5564196833424331,-2.900353614710568,0.5312076972639034,-3.4318497677437168
210,-0.8112423132896632,0.8073205395121134,0.554772389324138,-4.901791554891352,2.4734214051374175,-1.1921453463633618
220,-0.8082843384067844,0.8278021209753866,0.5790843862065215,-13.56370307759378,-0.6263684737903088,-1.420700166204543
230,-0.8042271788760862,0.8304114825390441,0.5945330092941814,-18.94297450029772,-0.216942917626898,-4.052120366359852
240,-0.8138576615309825,0.8370665458675435,0.5948607653779449,-20.731632099802322,-1.1847964769578012,-9.393724540974379
250,-0.8354181494005868,0.8344682524910626,0.5823075948073212,-35.0103577893676,-0.8223850677315487,-22.75070755114372
260,-0.8444025009011086,0.9054894454701242,0.6612465347588249,-51.873504524507794,6.927482043274771,-37.893513003695446
270,-1.1653541238952454,1.2231579641882744,1.235273933892471,-64.85989469655496,-8.330309217390859,-39.00816786678533
280,-0.6402584804923358,0.722370527108611,0.5647387702324143,-64.96958577780269,-103.98976290564495,46.558332071711135
290,-0.5981324017594476,0.935636932897901,0.9468440692544047,-115.04431626937732,-102.76726728623026,4.676981095203045
300,-0.42684208666297824,0.7749538531589325,0.7250746673133863,-100.26018204606117,-96.46746350823197,25.50729045915283
310,-0.3825230050693525,0.5834451488239307,0.5384413031533578,5.788790813919736,-85.4119478114485,53.986952390319786
320,-0.430482567184805,0.6878892346343779,0.5142179925990876,-50.82310276413766,-73.1992427272231,32.2778506435672
330,-0.36670229755674,0.7396639125860429,0.3102364392641676,-63.61434199281614,-45.27688415220029,27.978316911590163
340,-0.7082243067451177,0.45176496937730604,0.5310979813141264,-85.76969655905323,25.584172652063472,-11.835722217997223
350,-0.917364436068077,0.25026307528739333,0.6358742531141958,-78.69163480900315,43.489345056948984,-36.26952197280482
360,-0.8622795793622424,0.37942161112000156,0.6129575270222917,-53.22929144150789,41.039232870821515,-44.806368675204666
370,-0.7435792080016531,0.5257991399729581,0.48819291356992595,-34.62984184228257,43.65947859314329,-39.539495472052856
380,-0.6214717068720073,0.5014447380371571,0.48876549112382295,-14.905446880213884,59.87140278291081,-22.37455328359707
390,-0.7087978059511726,0.4979910570278415,0.5781460644367041,-4.099144505814876,71.4784630160526,-16.598758414537055
400,-0.7275433798981362,0.3811536211512015,0.7344709779680367,-8.780123663092015,23.857225073110357,-49.46596432790936
410,-0.8239054407179494,0.4687563860238715,0.693099621676088,14.704070456293715,-18.212952265991927,-54.44126349056781
420,-0.9780709611040319,0.6846404215512167,0.49384460985889317,71.68487240554356,-19.223290852878737,-22.01445318705973
430,-1.0687135535638563,0.6598290993949367,0.4667288336615619,116.15932959052276,-11.223052425948215,-15.539265996581868
440,-0.9770074218192394,0.42305666761248284,0.6731745677746778,113.21319416927699,0.09467553733332634,-38.10140139164171
450,-0.7433818770020116,0.001064238048746037,0.5426501219247122,85.6199439603237,7.955887533532561,-61.912106848541235
460,-0.5244520913197136,0.44988955723954144,0.44871598056731804,90.51839108074525,23.22216909403479,-54.50263225347701
470,-0.44355685583732796,1.5897538754831422,1.0938140588182814,121.44841512515485,42.9440431759242,2.9396515656557654
480,-0.8024115313034464,1.6342902093509246,0.9969294351152489,131.39342659137733,35.24752463843026,45.044990703299234
490,-0.7037574007419308,1.8697351164882732,0.38255994872333254,104.83000441260783,38.97134243488739,56.54957528340931
500,-0.5033591377688994,2.148231494663995,0.49233451376337445,43.722400816673954,47.02018874407587,55.85891205696087
510,-0.5301613373825997,2.0287038038716445,0.4271335058280828,-0.4468623729451515,57.71114942941761,71.2928530408322
520,-0.6246333931282945,1.64683032244482,0.017036164444632892,-41.69465534035256,66.98657918359882,94.23009595080438
530,-0.3655270943627558,0.6500440230802821,-0.1337153475652495,-72.89093696208188,43.550909963225315,58.6293398638915
540,-0.3745215764544338,0.6931894059415937,0.11655362473544947,-93.63404636020427,34.635358011032444,26.794072033192986
550,-0.8633023506381383,0.7111235265469174,0.28462505647542063,-97.02592352912875,6.550457588834521,11.26958525383607
560,-0.5972832976011654,0.6875747996009615,-0.3694734407213643,-54.589083559784584,23.885228314444195,25.46030334011987
570,-0.903168743840327,-0.11980099124260375,0.5680529280895589,-44.24221509449941,-5.052675429256723,-18.772739913792257
580,-0.8114323267060439,0.5042340023375764,0.5739533880071744,9.168403533243541,0.5368903441580262,27.966443677655803
590,-1.0443807152911426,1.3792348748866883,1.1306849252428695,108.65632786830982,-16.85272250534603,-34.92055794283172
600,-0.6526727535612196,1.7110268555592127,1.1822829178636132,78.4532965827923,-14.357465820615548,-60.829890179821966
610,-0.938075296083499,0.8702607310649302,1.4700875891246588,71.42220803243325,-25.75873277609312,-99.11552774869025
620,-0.23347422746611138,2.104633919524413,-0.928679898246607,176.47220921583093,0.7985873070174663,-41.11913622949524
630,-0.8334968229016116,2.0992924892735445,-0.619871216849461,161.4392158109571,1.853019710608066,-33.05288865756734
640,-0.7434673366440191,1.0048098838060382,0.18913341240540132,79.32662498432575,-4.438776240268989,-70.90614081051389
650,-0.669136087882001,0.9649317610924442,0.543400675737453,20.778609475633537,-1.5900916359011306,-36.2587660377745
660,-0.8379523642964067,0.9111478283135617,0.592153568286153,-3.137920543167506,-2.1619640853813897,-30.278291684026048
670,-0.8096076161093676,0.7847103595782627,0.6081359789618167,-1.925890317894212,-3.805278317839418,-35.91158256737771
680,-0.8370751259025518,0.7123667801633026,0.5595171475144612,4.666969389470282,-3.320269898226853,-18.1627692848806
690,-0.8031191590261332,0.7461979396460459,0.59719251860101,10.171235993663545,-3.72499534166031,4.544804597094015
700,-0.817502555756369,0.764668367527127,0.579785541754707,13.090992511100511,-2.84366137383461,19.930776487579816
710,-0.7908824156858875,0.8259407939742784,0.6112789362928092,4.436407411685547,-1.4916248789459972,7.608582655938634
720,-0.824141154735616,0.7771181512837831,0.572474985707919,-1.3330577272622914,0.6300995941995199,-9.12357315842397
730,-0.8209719510600016,0.7619747893574242,0.5718846611054551,2.1910475781413967,0.29460808930711546,-3.440574655706215
740,-0.8246925482988886,0.7717965381262754,0.5703488145400354,5.223226627458955,0.617221021302934,5.492062634676934
750,-0.8323306724315552,0.7858872596217268,0.5658141582337008,4.622275535989694,-0.17498724708089974,9.90085012461855
760,-0.822834820497399,0.7985920301330957,0.5750486261995698,3.514655151007987,1.8406020415788817,9.697786002612194
770,-0.8462384321408951,0.7802311151978059,0.5512181614713548,0.24184125992575323,1.5833727445045527,4.356424041440742
780,-0.8118607545098938,0.7687220071904323,0.6074715531407142,4.049837120500726,-0.9511878277789341,0.9636029395723744
790,-0.8220348714267683,0.7960941502364114,0.5805453006395238,1.6780670339535155,-0.30262417843307365,1.8061831992516733
800,-0.8115859586599812,0.8082215929152894,0.5875355965932817,3.143770826858585,-0.2389040133145861,2.707744464357897
810,-0.8309644761981017,0.7807639126707967,0.5631427410332478,7.085407931106243,1.5045023212692188,4.024955434120372
820,-0.8377871574945434,0.8027268907824556,0.5629149407983981,2.715117961035681,4.976406935020591,1.1253688043990189
830,-0.8229662057412325,0.7963612278112899,0.5511646524045913,-3.5939160236403938,2.7088785389732077,-4.727394483959958
840,-0.8092714450473241,0.7815631679495566,0.5781565419140241,-7.017242578601022,-1.4753304203892919,-0.1810621020824119
850,-0.8446746396837712,0.7648632501198173,0.5511474401298251,-6.192804427562471,-0.3604473006375961,0.835795067138887
860,-0.8225941586603542,0.7805749662035276,0.5687737541228644,-4.756498460996343,-0.7113483222775577,1.6769734824466396
870,-0.8274343224095204,0.7868457510250318,0.5640105828741607,-6.742085265348923,-1.3211279401183915,-0.8816086423434368
880,-0.8326173554289013,0.772973089521808,0.5638494409603076,-8.503702597771028,-1.0664513254161143,-4.105472294299636
890,-0.8232054760410429,0.7861529792318738,0.5686120239773642,-11.352750742873788,-0.47991019458510875,-5.964091690119482
900,-0.8182436236093643,0.7804152836770751,0.5728143270152687,-3.0679251815374657,0.9248637976748404,1.5286294763295203
910,-0.8422160832911327,0.7542284820995184,0.5508588490796249,-0.5562831104359481,-1.6931208242485578,2.747582237559829
920,-0.8292338947161827,0.7759633555769471,0.5721053105498684,2.001626577379829,-1.0741554883633933,3.063039127243661
930,-0.8276823437107107,0.7831380979964995,0.5753584997658192,1.6990914297438164,-1.024957716592547,0.8556876950467756
940,-0.8403685607143999,0.768699838995971,0.5593104452057484,2.5210650297624264,1.3167730674241462,1.2242095972596363
950,-0.7950375325808795,0.8045067382696316,0.5977843210880897,3.2175050176875617,2.0215716317515167,1.9927389634406896
960,-0.8223861670053024,0.7809158568432731,0.5639864901548647,-0.14896784363311122,-3.2277537888866568,-1.012815548764967
970,-0.8336196316838346,0.7764163387429193,0.5552429446816528,3.436267856170528,-0.07601022125009613,2.987030409678282
980,-0.834550757189139,0.7718568514826799,0.5554745126876232,2.583046857660598,-0.002809563049376962,2.2771672845040913
990,-0.8097365712588162,0.7939537257088078,0.578509592251053,1.1890042375076435,-1.336523241274201,0.7618576602189977
1000,-0.8185194845283769,0.783677635282408,0.5745936323975173,3.8395145029341213,0.6582557336116563,3.254260644561728
1010,-0.8010275759578465,0.8042588782616547,0.594263835666559,2.1964429346373406,-2.0444940829552363,1.7411173886371412
1020,-0.8038377893090766,0.8107338786637289,0.5884823859179642,3.502398630568891,0.39555020617241177,3.5655358880922856
1030,-0.7983521593680939,0.8148566693515115,0.5887869184229018,0.1197125279442253,0.5134918892483324,1.17475903972955
1040,-0.8328256662992923,0.7692866064936759,0.5551189612337252,-1.2253056156902307,-1.5472957350728354,-0.5771387574913909
1050,-0.8161204324499011,0.7948539792726254,0.5762138201070209,-0.30950129381091007,-2.41707228164427,0.48850979010181006
1060,-0.8198680381596043,0.7988192430778767,0.573488642743482,2.1686221091821127,0.4958044747851018,3.108047543963486
1070,-0.8020226731000362,0.8088214458305294,0.5918272505033656,-3.530895874792466,-3.6833760678878873,-1.8136371571103256
1080,-0.8331469098737722,0.7829625754906342,0.5647759471521552,-0.2918470148191188,-1.8370787129481005,0.379935624408943
1090,-0.8305340558537502,0.7748374340284563,0.5665903690609825,-0.5798857911819397,-2.5988747197425877,-0.5832539583807738
1100,-0.8029536549775139,0.8093730278096847,0.5874809057057911,1.336527077130308,-0.9166051524008347,1.7666511643481808
1110,-0.8017958466877193,0.8037391450128276,0.5906289269032381,4.52755017848357,1.521666835352675,5.650806826741803
1120,-0.808544267559495,0.8087266150132046,0.5850002752539368,1.8828098902660821,-1.3951362248323358,2.728182271934926
1130,-0.8153026232571752,0.8030749147921602,0.5793753832997489,3.9069396242385444,1.6954518257453364,4.614195166412762
1140,-0.8155232986910484,0.7962712927263085,0.5730347384727528,1.062816967838004,-0.43997756146048955,1.9881318562467816
1150,-0.8258172496419205,0.7957619692344542,0.5620709282046683,2.9186148846444766,2.152515555330034,4.17455699549834
1160,-0.8184025182538227,0.8055192971737156,0.5730186150429687,-0.9085067687337026,-0.14521919456449497,-0.7031061182045856
1170,-0.831216231014485,0.784609573648562,0.5569538309129721,-1.4861822335685935,1.54567681251261,-2.610605858895533
1180,-0.7985425728086865,0.8155904018508655,0.5885620365751283,-3.0740296036199,-0.1969819974815418,-4.7305960298325695
1190,-0.792189505293518,0.823966724361071,0.596376521095023,-3.199122327806579,-1.2034739078148986,-4.4895574579353195
1200,-0.8153029656574996,0.7944203236813929,0.5732711933817805,-3.791010011964014,-2.67940789273666,-3.699209194269388
1210,-0.806669545996137,0.8007211674617478,0.5844556312690746,-0.02146613133017239,-0.6412751572930215,0.5188174600783766
1220,-0.800142100314893,0.8074852635087458,0.5934651520393179,4.562617674758338,2.4765538579540376,3.493563891006618
1230,-0.7920121179175422,0.8150218869546295,0.5990019548631617,4.346244811639098,2.531552763160292,2.347205100617897
1240,-0.8225052088749304,0.7952849809160595,0.5727292410788951,2.8729729415865224,0.17359507419514242,-0.482712955814555
1250,-0.8228920483540141,0.7872614072845366,0.5652325320158741,4.62826244265529,1.1696307668376074,0.3522723398268415
1260,-0.777337187504112,0.8264142019813242,0.6077958976254945,1.7575819588959436,-0.8879369462476165,-0.8752832809358148
1270,-0.8020112292658158,0.820912766137866,0.5983106131169036,4.469434812690566,2.7916748107814326,3.7839423484141
1280,-0.8190455518863676,0.8060209664357274,0.5787782039438303,1.8897705422283146,1.2603251201498473,1.1689243918150654
1290,-0.8148066284849785,0.8030812892824389,0.5729551307093134,0.9057467127625755,0.7032938884531956,-0.6574805449861413
1300,-0.8016258264399675,0.8119315547392928,0.5831767090780857,1.0578001285054455,0.9731768124860256,0.011264166865530667
1310,-0.8062171775795826,0.8099896898142754,0.5881393329402071,3.4287175113626485,1.4138841238860977,1.9184313606794803
1320,-0.8138716675066052,0.8037572622651533,0.5814332237548817,1.9511401598676896,-0.18620458358373665,0.8326428714252557
1330,-0.8272576144222732,0.7918360617695459,0.5647219172840869,-1.914521291138847,-3.146352709590459,-2.8351009751603478
1340,-0.820555627827068,0.801104853426859,0.5792857574601593,-0.246020799004945,1.5019366086584014,-2.4669338375727827
1350,-0.8053909229154859,0.808786316324702,0.5844753687713247,-1.544765062122532,0.6613637977144844,-3.596027839503677
1360,-0.8247290287622107,0.7831205447978952,0.5697626802107126,1.2818640232768186,1.4379386811691193,-0.22773678333298908
1370,-0.7996422256682023,0.8079134364972824,0.5955020449907367,0.9144076415656264,0.47060206840657026,1.1992586667416723
1380,-0.8563736018509136,0.7559692512490911,0.5366771223918289,2.226270535428383,0.8243760140768859,3.180061495072948
1390,-0.8167956649726608,0.8029359010528888,0.5730891436183854,3.7061310272063226,2.332938794614126,4.177183107899154
1400,-0.8167295552229648,0.7943212190688023,0.5782667306389977,-3.475347063275862,-1.6416755767643985,-5.543682826726479
1410,-0.826749666728575,0.7716329552200079,0.5634414492103532,-2.0949035440045023,-0.79812034344907,-3.5901967726529525
1420,-0.8046701340693279,0.8002492128334999,0.5894100289250754,-0.9756281988759593,-1.4505354488482156,-0.5088391594441789
1430,-0.8190557873275709,0.7959101263266632,0.574636730034621,3.5338779395698023,2.110989338423494,5.014843138707295
1440,-0.8001011680266985,0.8233740293177262,0.5981635360380305,3.134732558728159,2.0624295479954498,4.603312216327254
1450,-0.8576199890471853,0.7590972384202324,0.5320013415219954,-0.6779114717997132,-1.14856126246814,-0.09499184971959329
1460,-0.8167048224990404,0.793868435379295,0.5773792859054968,0.7796159242848075,1.3394761713248151,0.03787955365161921
1470,-0.8169757826988565,0.7886232089678816,0.5745708484540828,-1.26894785684541,-0.9293110393117441,-0.828236600548867
1480,-0.8237692747812428,0.7838739886292485,0.5718204665911973,0.20212703320086786,-0.2449041602761876,1.9218351496786223
1490,-0.8309520670685072,0.7841234311586236,0.5663798394543803,-0.09869740051899234,-1.485242369984463,1.3360979885085937
1500,-0.8244736175519864,0.7946924929632726,0.56848085091562,0.8073284336929637,-0.1887735493541821,0.8074751310424223
1510,-0.8216824432506212,0.7949838306820028,0.5688810674781458,-1.04100147595222,-0.6109265559788621,-2.277682062026514
1520,-0.7844818642547358,0.832997495540552,0.6093304017167298,1.4909277695047716,0.7064325359822747,-0.10468087962274375
1530,-0.8177231943449561,0.8008930293901153,0.5771327587689227,1.6535161704928019,0.8352610424043014,0.5504382157872579
1540,-0.8052013927985158,0.810894716155407,0.588899071867788,-0.13544142096575007,0.6545480979014874,-1.0602350187007012
1550,-0.8319461591945786,0.7826653870947528,0.5617681068705249,1.5573131378811285,1.4471917488614867,-0.49327682584854005
1560,-0.831870897943131,0.7803744328408986,0.5596779981967259,0.3110388679788374,-0.32483234213638806,-2.7958017268276656
1570,-0.8186798570185642,0.7933566232227981,0.5733201254706104,-0.6625555639767828,-1.295476133594525,-3.409194748909689
1580,-0.8457348305201968,0.7661510922062466,0.5434473856568224,0.7729617381954162,0.261372794148113,-0.5746915077524796
1590,-0.8106600576508429,0.7983676484682443,0.5840510223653685,1.835317306519489,0.9682866493557535,1.8132127834958254
1600,-0.8013272118047459,0.8081088331922744,0.591719460745932,0.2260606382445779,0.14687672352127545,0.32992396514762234
1610,-0.7966354419788692,0.8184744680703359,0.5961913052255104,-2.079984944039794,-2.1462510808797113,-2.31504659994979
1620,-0.8487310040827338,0.7697028307293421,0.5491277765226681,-0.7634312578144178,-0.3846319165034272,-1.5453068581145795
1630,-0.8089711010072419,0.8042856660835174,0.5844371404319514,-2.2408267888821554,-1.3072579263989552,-2.061936852532223
1640,-0.8216187420382078,0.7872874477435845,0.5686203033091835,-0.4458359890963055,0.5071512679611291,1.1567538470406684
1650,-0.7897685730708197,0.8287595500531323,0.6013969485761287,2.243690835975816,2.277632482872921,2.6223260875904906
1660,-0.8089279393492005,0.8028378169523126,0.5867986071215766,0.6861082844635122,1.9584546142765447,-0.9195450797483391
