time_ms,ax,ay,az,gx,gy,gz
0,-0.8902515303050795,0.9260735978760277,0.816788560953713,2.949430694823216,3.1583788709407403,0.34785714841102156
10,-0.8740369045459091,0.9426848811655534,0.8271769759607879,0.0781740130075986,0.37050383826072963,-3.1080899997503897
20,-0.8430777641952755,0.9691984101897078,0.853541414671369,-0.7874267498978075,0.145634083895722,-1.9497313088146369
30,-0.863189958791559,0.9591177309740991,0.8423322844524848,1.1564664145955614,-0.6451033476303837,1.8183358584119764
40,-0.864706816417072,0.9570970466747004,0.8391954166976638,3.193140534773958,1.787837996019436,2.552082884591232
50,-0.8596415791346144,0.9629532207500161,0.8432358376313196,2.2704725556676912,2.1010458590906538,1.1233747401788832
60,-0.8924293475489442,0.9226495935283776,0.809918235268871,-3.2372373420524427,-2.1657076762077905,-3.4637418769435375
70,-0.8558359081008359,0.9546298931372293,0.8419255995634953,0.541513206224594,1.1302269991158393,0.9761356112632108
80,-0.8735765695584939,0.9409076027305757,0.8249551651838964,-0.5767732138234897,-0.5408481662827112,-0.4789462740049366
90,-0.8652741241741111,0.9537130944330674,0.8300514740217001,2.434841053055643,1.8162580892168578,1.572801422149764
100,-0.8782574607235837,0.9360253016840481,0.8193185776968771,-1.0314845369855998,-1.309980937229914,-1.3905372602080446
110,-0.8606109598601689,0.9472050291837476,0.8455158941665865,2.5344797065542215,1.728435774099301,2.708740920478392
120,-0.8415695651109576,0.9653740523981895,0.8554666302528174,3.5350562804025154,0.798902481075509,3.4180305633304444
130,-0.8757924478035229,0.9453633608629518,0.8330181660507996,4.282277806322835,2.187509806191991,4.71225958643183
140,-0.8658200288848172,0.9467015936910059,0.8380126273460972,1.440617160396952,2.6527620437733868,0.8288732000517993
150,-0.8718577627094816,0.9380330582076037,0.8325398645797493,-0.2925876450910856,-0.4765377642521685,0.20911079214464157
160,-0.888911302748529,0.9309144015256863,0.8149754447824685,-1.4563447789727324,-1.2505856711150867,1.179323112417828
170,-0.8918133244168645,0.9388455609454499,0.8165551990601968,-1.7242990468184443,-0.03926891039810587,2.1949284567934377
180,-0.8860074699327783,0.9744946098280857,0.8309976649994861,-4.776439432446445,0.1552411095986599,-1.841752351019329
190,-0.8218206078379588,1.5375012556893946,1.0330087683458962,-42.740912392679874,20.12614808867181,19.872275984440876
200,-1.0423345372324588,1.7269322477203408,1.334759466177831,-84.51994004800116,-34.50922278395771,50.77232403652381
210,-0.962982718823928,1.2890962989725938,1.0422964822319267,-108.05892129978356,-57.138663143961466,72.02576109333026
220,-0.6702670163276554,1.1426057404568764,0.9119711613405159,-127.8680571975574,-62.33806352305848,54.04578992472747
230,-0.5161767823417961,1.0779888949353473,0.8038133178236163,-135.3294309943113,-55.7256513501208,44.56096303561878
240,-0.5726124832311672,0.8152981602702586,0.6994288732733033,-122.53606566226229,-40.86479949226181,37.99508701700651
250,-0.7043201561740824,0.713752249723151,0.7379101728558642,-61.56078897041042,-1.3056492234889774,18.70111856042881
260,-0.7833574228237673,0.4704513743144982,0.670874107657974,-73.81694502028401,7.910130599253207,6.028087911014398
270,-0.7825959162669949,0.22329657542548464,0.6243600633785276,-72.68830888324813,22.84110248104457,-19.358447774018565
280,-0.7377120965367736,0.4402211547818886,0.6387694765375357,-54.05873278421513,42.28693488985166,-38.69328712835284
290,-0.9700044930664492,0.7812425666978624,0.9549620619757092,-33.285100844322656,33.28642393396212,-36.800085197151084
300,-0.9848100518207312,0.7534585620662163,0.79607608918254,-20.328978465501375,-10.908015648957784,-22.82483442008961
310,-0.954664162212473,0.5970361513883508,1.066754565359564,-19.278555045942237,-25.209614819093968,-27.447509944637805
320,-1.1197706700043517,0.11390126555349675,1.364882520754664,24.391006391945883,-17.227498428587023,-10.642788044899499
330,-0.7947040223198781,0.04797059537577747,0.9607607537658444,-3.279941702670463,-26.924312743931242,-67.90058759191079
340,-1.055272998955827,0.9197322718463865,1.069466971518407,29.120183792109223,-12.245857076918513,-80.60660902218376
350,-1.2695014484604614,0.5258512775075918,0.9212253467789461,-0.9207702236865267,3.3598773219535114,-93.23796022410784
360,-0.7091572386636413,2.587547898930452,1.2388767788755777,162.5744347115365,29.861869969104607,13.287235046712295
370,-0.7502212501304917,2.1628957617287,1.1100783550636382,152.45495149088842,36.97032187207991,33.8016443878376
380,-0.6745760900910629,2.3410338258804244,0.7754026330293572,102.24356985222103,41.790735042841554,45.410874895987284
390,-0.7292322935188809,2.107107677930676,0.7050868505163179,5.152287891685306,37.021369939722916,41.36573462324212
400,-0.7572581237662613,1.8930564137454293,1.4351552572969208,-44.8675962807389,51.564499540330154,83.1034137756989
410,-1.0534159855986258,0.41356649408679713,1.5206839398838197,-71.4513400449754,39.523420813204105,84.27103327905995
420,-0.9284126620094845,-0.2583710873702877,0.971259261735026,-107.0705908408753,25.77471158597799,27.682829405006345
430,-1.0136759248857585,0.1999301865021389,0.6822930366749625,0.3162536418302101,19.835695638807902,-8.375077452040495
440,-0.9426301954691598,-0.39164201960468115,1.3778965568955455,3.249340464694777,17.834699628816622,21.08629701409172
450,-0.9178874158615934,0.47777693624550294,0.8364025840231942,86.78314096129313,11.934885756710244,85.03895982828784
460,-0.9592924725697285,-0.23046091119888554,0.6997235871064055,136.72004745008982,15.271819393591684,43.50670842610478
470,-0.47873725691054325,-0.05328901818572353,0.2599588022515895,144.5095290249711,-15.059309452169963,-131.57591561984148
480,-1.0363093917289037,2.2750207888613914,0.9621906611453106,154.03546474943127,-14.897109143543247,-71.16673984209125
490,-0.7083825381765205,0.6013143712508888,1.221741920031244,106.64554950295056,-7.6262206484351545,-35.8147300821192
500,-0.6300412160052469,1.5075060162116616,0.4831774632877075,112.44917250518152,-3.2934019753513795,25.387031729086562
510,-0.6658605028846643,1.9918135852380303,0.7107448920257184,33.96069280702731,-1.622618969404155,14.029632420544623
520,-0.8453696462310005,1.0433537844031406,0.8161689155211258,-23.749542954877406,-3.314206677682106,-23.990636150568186
530,-0.8912728546486638,0.8067220156453742,0.8089003571261408,-3.301049863394434,-3.2915948705632,-3.395155822199607
540,-0.8641119947461932,0.9136536145931241,0.8262364182651208,16.320395949311596,-2.419316630885209,21.986930083259722
550,-0.8848178913149236,0.9329328780669582,0.8092757288607444,13.164809712163144,-1.2141271045695778,23.521151867622102
560,-0.8821118385601212,0.9766173932849541,0.8167244919382858,2.932425448906219,2.035689674499997,8.820210265726038
570,-0.8757011422422707,0.9726549124494274,0.843790284372825,-4.979458138139312,0.5535680238209679,-7.623965477527106
580,-0.8868974818282397,0.908981512622789,0.8176490708703638,-0.33727426809401306,0.26872370146074975,-1.5434776483972097
590,-0.8855989063727965,0.9046393319628622,0.8155815412532381,0.21623309754544984,-1.8636879413315588,3.9052128440717873
600,-0.8905085115032247,0.9153281275050762,0.8167720600389957,2.081572028797522,-0.6490220449097224,6.5284043224840556
610,-0.8772981604959115,0.953589494342783,0.8294381134713512,1.3989810696708938,1.856487619273977,3.1027751523935785
620,-0.857276097627317,0.9661695948767566,0.8410046697766158,-6.921962860958859,0.5370101049196885,-7.5391410841004065
630,-0.8695239354528379,0.9252506736140096,0.8252751981963639,-4.83849441745844,-1.0162745709099874,-3.7797078314515278
640,-0.8773707762238878,0.9129673037198015,0.8287718699302046,-0.8447386814671166,-1.3640775132772618,2.427913393629182
650,-0.8981568396409562,0.920136983634141,0.8126725740056933,0.6131730395919409,-0.26194357544716307,1.9371309444005083
660,-0.8826834557646571,0.9257952908952584,0.815583725681561,-4.456840198324507,-2.030081851857193,-4.596624726372435
670,-0.9048399118275533,0.8979791687184063,0.8006997947413765,-2.7429631169699378,0.20621569050678706,-4.208006240068914
680,-0.8461296111281483,0.9434716737165203,0.8501591406186989,-2.658824041217418,0.42757626263705145,-2.6982528333835187
690,-0.8948154895649053,0.9162296590409258,0.8056420052563334,0.17680527962229167,-0.382366752840236,0.4206652156819475
700,-0.9170188859775091,0.8810530693220869,0.7835952921089094,-1.7690365474438847,-0.41100486295314276,-2.009184985923184
710,-0.8415305415807731,0.9540894247201808,0.8578099868984593,1.6885322701020742,3.2925332240418155,0.983825398669341
720,-0.8689197064483356,0.9296354018421448,0.829884585842558,0.37453597975443703,1.4641006185632826,0.3673757579642307
730,-0.8603886687466991,0.9452014407490604,0.8418820903099369,0.7574729466119907,0.8294030297822235,1.0451839875215556
740,-0.8715117702305256,0.9438436059903494,0.838057107845765,0.1531373259589932,0.09053021514329701,0.39260097383806036
750,-0.8897180908023139,0.9133162037665606,0.8097257630233645,-0.578202585180432,0.6713696474912481,-0.21334236261202366
760,-0.9048196231085716,0.8920779600434219,0.800901798535319,1.5059173202923601,2.3864917672499386,1.263562279088795
770,-0.8605455865688016,0.944996680795952,0.8444727261804531,0.5889014586169155,1.2049524778415814,0.4698323027374386
780,-0.8637857801711736,0.9378091321219157,0.8334226050223561,3.293999093836737,3.7605474257446043,2.8994944958612985
790,-0.8934878644706539,0.9076161008257376,0.8081956239298949,2.9429192940975235,4.058156168227378,3.5674599379631857
800,-0.8704951643488505,0.9406169375004432,0.83690875075695,1.7891686898362744,2.5575981046957192,1.479444395107277
810,-0.8750478255102684,0.9327107915823841,0.8227702651865314,0.02815391457377281,1.6753367297954225,0.0710208541708457
820,-0.8940842977045154,0.9025252262163337,0.8049575202548963,-2.2433839347649918,-0.026162873963416884,-1.6934377171883537
830,-0.8747221972539239,0.9161384446830733,0.8311944232052166,1.2214284877169526,3.2553531568663354,2.982224010622253
840,-0.8671232487595812,0.9366991241388714,0.8404029488953378,0.4720653127681472,0.6748826349866902,1.6804422161428718
850,-0.8971752600408799,0.9045867857789551,0.8028581307575839,-1.6815793553502778,-1.3994902033183116,-2.156276401293159
860,-0.880734796622347,0.9114251325359976,0.8197063349460293,0.8640186698624103,0.9294739940905192,0.07233110313816282
870,-0.8998390397845987,0.899361748459403,0.8048160321856469,-2.3372355710109125,-2.0390198381338114,-2.5749004557755066
880,-0.8813141998386007,0.9192963837012699,0.8260705747191894,-1.7028150268227868,-1.095574955534242,-1.2782971969441181
890,-0.8678416052309771,0.927252331136616,0.8404075933246629,1.3291231199983118,2.1404109990703644,1.6299081486796945
900,-0.8761030777355845,0.9234941194777609,0.8351660547414154,-4.869915227833599,-0.33656440878265503,-2.334795225942532
910,-0.8765358015253758,0.9191764311691294,0.8308456366628922,1.4598695651085294,2.1012410275001026,2.5347540699330655
920,-0.8885645800615477,0.911698870769981,0.8137409914849616,-1.0240591563603427,-0.9048678811269546,0.08283324725781771
930,-0.8699627288512781,0.9301551405086264,0.8276933043225958,2.241088481044936,3.12810579536683,3.371196465389498
940,-0.8540921201158458,0.9424647361623035,0.8406185275427868,-4.426100709591231,-2.3809580119538905,-2.9694247217048275
950,-0.876825264503651,0.9180604728615639,0.822183084530324,-0.9245699909515248,1.174996552588785,-0.30876179199157083
960,-0.8964679610094884,0.9076167499901283,0.8155796523158894,-0.8292631396910766,2.1203764320688867,1.457158004362705
970,-0.8874202383740702,0.9127977561886117,0.816731002306024,-1.267026597700474,0.7434602712811695,1.1313124895629452
980,-0.8858127805802312,0.9321589763157171,0.8353036126225312,-3.420755407250705,-1.177512025802979,-1.6279163703944681
990,-0.900700920254397,0.9062658414482757,0.7995161273154013,-2.5585888243744295,-0.8644289601237842,-2.295045610355833
1000,-0.8656189114910944,0.9376323775913425,0.8378478528767123,-3.8314767451181098,0.048001082465942646,-3.742035107532468
1010,-0.866813570645913,0.9232332455149846,0.8442659657020568,-1.8321698735816931,0.49410695421666806,-2.1622076406165625
1020,-0.8872598939771752,0.911221569109543,0.8192369005740456,1.1069049711001024,-0.9899979421096492,1.2053798511820404
1030,-0.8705566866500576,0.9345347657626268,0.8411860032861914,0.6212321606856244,0.5358363767623193,-0.03660032489876494
1040,-0.8706985259852176,0.930853992690805,0.8387949350541937,-0.5973338117147589,1.4201402997306336,-1.7098920817102368
1050,-0.8790938951056625,0.9131360768068766,0.8305583772534268,-3.1666724555273973,-0.18913026810968908,-4.116322999771264
1060,-0.865167077268716,0.923121148277466,0.8461610158132385,-0.6455782472142545,0.5434213270872308,-1.8034948455282094
1070,-0.887546960746791,0.9112210030830254,0.8229294977538163,3.086575897601735,2.373883680890312,2.59701951863123
1080,-0.844383057834474,0.9575791142747351,0.8657675723523831,0.38599986930350677,0.3282323926229786,-0.29884298137000564
1090,-0.8766870756329787,0.9170389220419193,0.8332747098829236,1.2675527306312002,0.8673410684446965,-0.016411311004245754
1100,-0.8638645501299825,0.9255585181686327,0.8343205355147361,1.2544274618549003,-0.14474623113263535,-0.03435291318694028
1110,-0.9266602860568509,0.8714386921759978,0.7928522288282038,-0.14445011969765575,-2.209061815082281,-0.9789229861580127
1120,-0.8670038592453612,0.9196054219003874,0.8324384646577558,2.5026739375869527,1.2986789887617025,2.242150499854672
1130,-0.8914545215098715,0.9037865671494913,0.8122797567945925,-3.2837726215354452,-1.9740028921841841,-3.766538101815882
1140,-0.8761895389188161,0.921807572339713,0.831910072935651,-1.0382956283903673,0.9152093016165003,-1.0006777761825973
1150,-0.8487328306664244,0.9442271363306773,0.8572625462119063,-0.2656358352186553,0.7533098434702692,0.18837126676294635
1160,-0.8898415447942591,0.9019779286172432,0.8124319013912497,2.780417556577813,1.1839202818649073,3.00414536362526
1170,-0.8743226683983375,0.9210525866700936,0.8301456839426636,4.206434290179273,1.1732987675543844,4.372158333472656
1180,-0.9125351401446831,0.8854472242980334,0.7920865530664005,-0.17597891800526122,-0.4260124589644939,-0.9792466124645487
1190,-0.915744408847716,0.8857080433165861,0.792913357038248,-0.7311841834908848,-0.09126540569881286,-1.6464815879244479
1200,-0.8757976225115767,0.9151464585277173,0.8223073601367281,0.4943974385872332,-0.3457172231589065,0.4906496770767813
1210,-0.903276702695946,0.8894253042011429,0.8001364272287268,-2.031316461369618,-2.95938538405942,-0.7814652872050787
1220,-0.8726837952818102,0.9226859805721085,0.8276930434942156,3.1196258470861755,1.1968435557560453,3.79226673670597
1230,-0.8917651628741154,0.9021214516897232,0.8029244836680457,2.0224758080515457,0.7289134253463099,1.7853534518169074
1240,-0.8792850308573926,0.9102977070167787,0.812274963215105,-0.5516105726415379,-1.1178072223644906,-1.4891478739172908
1250,-0.853837428008035,0.9389820199773391,0.8454662440675258,0.35961320045722056,-0.5568010452847881,0.9469248777272551
1260,-0.8667474113258479,0.9324934650047088,0.8329891265084687,2.8094988222582806,1.3645242817972223,3.052409828508107
1270,-0.8669438116621049,0.9338705491270501,0.8353768276687554,0.21380515411975615,0.6833963608878908,0.21258450826987668
1280,-0.8757021172605738,0.9225727909540762,0.8291584001003266,-0.8427427881325451,-0.03894819102914765,-1.5115629827617825
1290,-0.8930169550820685,0.9007604061344274,0.8106913656475653,1.5654444648626793,0.17168790707166076,1.4099030509413781
1300,-0.8767133433984631,0.9286451035828714,0.8167502133725377,4.6027942780581625,2.410635409339048,4.623885837994683
1310,-0.8779197485928931,0.9292126378044909,0.8259835815810783,-0.1863601494993602,-0.9089755165366986,-0.12419204380572019
1320,-0.895954033453033,0.9132498749315905,0.8132113239175669,-1.6954685286022846,-1.0152411766852127,-2.5514620957537937
1330,-0.8948371776006941,0.9060332072898292,0.8095414323387882,0.6096884769649069,1.8080323459661094,-0.5267062255934571
1340,-0.8757562317765905,0.9173617108524782,0.8319315665443053,-0.675604701566955,0.5972142865870721,-1.130704496861752
1350,-0.8881400607431982,0.9112213494508405,0.8117463433294787,-0.6334294924321747,-0.08198919034617624,0.6804598322825325
1360,-0.879670673976746,0.9189013748445503,0.8186902805642999,-2.1511659724756633,-1.283359310992118,-1.5494757197327167
1370,-0.8996754235329614,0.8988390351913724,0.8086921651406878,-1.7813558080042686,-0.8212875910109068,-2.3712123651095807
1380,-0.8895115433296428,0.9068396143892189,0.8177326797745677,0.593659757766043,-0.035031044791027616,-1.2348299415883222
1390,-0.8700319258461272,0.925461994630106,0.8340678595540439,3.115406439759533,2.2338175104949674,1.4595463769282309
1400,-0.8661689226910838,0.9235248861714501,0.8311574859297808,-0.8792799112182655,-1.0485989447093627,-0.13048586271237916
1410,-0.8556985242861964,0.9433492477264986,0.8522532652437093,-1.774469954759626,-1.838584633363488,-1.0088004843387368
1420,-0.8866630184936669,0.9165045715871133,0.8199620911434305,0.657277222987727,0.4143710305917623,0.16600700647297223
1430,-0.9158907800897393,0.8847736651305234,0.7847826381388214,-0.22346440647134536,1.4798145528030124,-0.4645989574074294
1440,-0.8652538963061891,0.9309755784481905,0.8412970436666154,-2.4086293375278633,-2.6600528510501675,-3.4780008631856316
1450,-0.8572418553337798,0.9420230898661964,0.8484816462686839,-0.4307337746365052,-0.6107673714159887,-0.8879510471636809
1460,-0.8787568546729935,0.9194913803257743,0.8224560880175034,-0.1979912170418555,-0.10610984698568782,0.05669494662164057
1470,-0.8844853287915156,0.9160896798939127,0.8224537424950914,-0.9326856538367305,-0.545043265426285,-1.0534699620150676
1480,-0.889119855136184,0.9057494669149391,0.8152939881053468,-0.734068006697254,-0.5243141122500045,-1.5571032382533858
1490,-0.8834258539984163,0.9067865158568202,0.8197327918857266,0.24596810806131064,0.47585866031317,-0.48802756641532613
1500,-0.8820904437400077,0.9135831082073153,0.8274516892586035,1.1244211081417692,0.8826740500534738,0.9583709437122986
1510,-0.8851943238825389,0.9130536811916642,0.8242977454965109,-0.9576018831115995,-1.1838437818218226,-0.7700104533019537
1520,-0.8677493199001808,0.9313771529629776,0.8450367768968685,-0.41910673288627665,-1.5791689226732515,-1.5274193898773167
1530,-0.8704073888170162,0.9205007361687589,0.8313736809687703,0.6812242384798883,-0.762374039768606,-0.9447610825853923
1540,-0.8595505582252959,0.9393030792424307,0.8452913295660442,-0.2749358066406949,-0.46756352288953623,-1.3301082575002892
