time_ms,ax,ay,az,gx,gy,gz
0,-0.7006511466103775,0.11016183472472577,0.36436218016821076,1.2771411406297994,0.39467887083423436,0.5550916574963689
10,-0.6723894509361806,0.14359998375392188,0.39121939806461764,1.987447420974497,0.229958609691808,0.8455592919116761
20,-0.6631192130241681,0.15663525921278562,0.3967125227733508,0.0698075266502769,1.3358059008494325,0.9068127506077792
30,-0.7068750791785348,0.11043546320787732,0.3535460701939712,-0.6145859597656564,1.3783251752001575,0.9442201539129934
40,-0.6983043889456356,0.11409460263106262,0.3649348096570706,0.5256135492543212,2.0923061547021926,1.6731570619618128
50,-0.6916373119984308,0.11821074107845007,0.37419769843327116,4.928177160770234,2.4877655045460814,2.7031785401183805
60,-0.6875458861244306,0.12424208503359481,0.37856149250994975,3.3546840263911912,0.5001658754312681,0.766826952579251
70,-0.6780562750074506,0.13385671444569935,0.3846245859752616,-1.7569527496077173,0.06047173798321526,-0.784637327053348
80,-0.697974497402111,0.1107073396949483,0.3619008127067895,-3.045262609895298,-0.2921743320272896,-1.5976571861749265
90,-0.6560238797920648,0.15952962020971811,0.40865339540798823,0.33645478174518656,0.5220627005543987,0.1586688206216775
100,-0.6830725969134596,0.13394478847144217,0.3790733060120548,-1.049533755232292,-0.5610631457497257,-0.8133373238149755
110,-0.6570836259527278,0.1260240840034637,0.3960759942888471,1.0504639812153431,0.36273983434247625,0.18807799785102808
120,-0.7008595860687619,0.1083002867578756,0.3599211983964331,1.5545298012949067,0.8591329228246115,0.24433295850732772
130,-0.6850763788706042,0.12348168862270378,0.37622443116650117,-0.10381049645155696,-0.08727032122457071,0.05774484786519701
140,-0.6725943872410375,0.1371438908300101,0.3883601432750121,2.082545614629875,1.8590383127036043,3.026194802466769
150,-0.691634335774781,0.12340597948917904,0.3704094444919525,-1.0052611664879672,-0.9966897094556466,-0.9956106548923895
160,-0.6896764019036921,0.12520293301372537,0.37108815021521663,-0.01286698575322126,-0.23944172266199235,-1.0469292550481049
170,-0.6655090914654916,0.14584999860358222,0.39667128674441193,3.0570267475640573,2.053989296189023,1.572119805556942
180,-0.6901834934909704,0.1236338324985387,0.37610876165889623,0.09437366822443427,-1.5831083604067397,-1.827118564193011
190,-0.6935063399713768,0.12620004241434515,0.3725006861644904,0.2179342587955564,-1.8204306317939059,-1.7458678879011285
200,-0.7137469705803446,0.10689337345837098,0.36052115628303505,-0.03010260360808048,-0.5342240955269055,0.059152014532866115
210,-0.704106648247188,0.15109754370651704,0.38430539588920265,-3.1478607319034144,-1.3285881835607944,1.0123179175450212
220,-0.7014163474116349,0.17377022155478927,0.5014883010192076,-5.643100199424975,-7.920295583143343,1.4566744232375153
230,-0.7576278988360982,0.18046752985385792,0.4812751049097047,-7.15133397537048,-14.56108104756757,11.408563700537478
240,-0.7987683841787697,0.269577552742615,0.5646217949469697,-12.986303175991555,-30.355398136672523,20.62825854925141
250,-0.7118798278868338,0.2495660184510712,0.5645518756010572,-21.55832885013296,-42.07798365793778,29.41025583683035
260,-0.6587684445834591,0.14878090789148418,0.4638947412715728,-24.850702687939428,-50.34100278930039,28.787326653902735
270,-0.6076582090912925,0.12857214530849215,0.3834908622767751,-21.600740757044083,-48.44850859769433,23.91194621266925
280,-0.5316863496713857,0.2237694428461074,0.344545910544464,-40.867005084739645,-35.652456855538766,12.694674435521591
290,-0.5283018119417976,0.2747104318475256,0.2692180565087218,-66.18360525889192,-8.18919246664263,12.00367917248832
300,-0.531985887562928,0.24648622905962966,0.2828914075835373,-69.80191681272898,1.4428227204102506,14.847320150937517
310,-0.5906628176316527,0.15233426955854412,0.39018480780036835,-79.88073140700027,6.036838874235656,12.128591766119788
320,-0.6897318406072728,0.11121860712959564,0.39661487794675543,-88.10882262539769,10.7631413799249,15.11359029623652
330,-0.6894808833080133,0.05516408721926618,0.3541043254649319,-80.22384334108287,12.980260406838678,13.768557361216363
340,-0.5812064606194,0.09911787265987043,0.40754000729697376,-73.05334895859421,17.73587319718203,13.561160349386993
350,-0.7049125274319328,-0.07946477625904041,0.43971679511686584,-52.16943737484133,10.085228436014246,4.57186475377466
360,-0.695631895490087,-0.060685743366714284,0.5100675214849039,-37.6754481731077,0.869350316842902,-2.5717198585720404
370,-0.6785440275304945,-0.022199080466007,0.4882042364617571,-16.969574081625144,-9.597501037029208,-4.245535512119693
380,-0.6357604734024359,-0.011962277123091844,0.4532301254984368,-10.271688526622913,-15.031536845542188,-3.556588090005053
390,-0.5689799149225038,-0.07292422634402641,0.5232428592205113,-20.505906290248262,-22.448244564656974,-7.946949371751112
400,-0.57502702123562,-0.20892308576390134,0.5908668778792219,-8.010768358654538,-26.28774484448506,-5.35250018511862
410,-0.533679261758718,-0.13158390588267682,0.48224587086393367,-4.576123615610314,-29.24552206686777,-15.70156123096897
420,-0.4598155449675783,-0.21681761099558167,0.49413443118986367,16.81898056455983,-33.288616436056174,-52.05855605687643
430,-0.5819917475491876,-0.5145524667042632,0.6873315755621454,12.477624387517679,-22.00576909147095,-53.62929492365412
440,-0.5418512870071819,-0.6394195038140904,-0.0867380422264842,-19.2425207019267,-11.801288236626387,-74.00523578228929
450,-0.9079677493382058,0.20575813896460657,0.021195480134009553,36.61977474921163,-3.3295369176089022,-45.29967152573418
460,-0.8180608510114301,0.18542977494758778,0.3910765481280934,24.412714523635056,9.052924677662343,-52.64343856124926
470,-0.6068328629629364,-0.25931840155620234,0.4322900395699584,24.65951707723334,5.730129139432787,-69.7439528600297
480,-0.5691959078669673,-0.23711142910085098,0.29942826101003567,62.4255422082848,13.204077537276781,-39.362743635820465
490,-0.6902129109368909,0.04428899322131308,0.11021005594190378,85.26488797652456,23.754134365747408,-4.8856211449067075
500,-0.7494256309401403,0.09246147068659875,0.09185868309536167,72.00400018825003,24.730691297192003,-6.199033084101566
510,-0.6447413763676016,0.14336033806711274,0.45005619519949636,52.856610792202524,32.98079245140372,-0.13143614769043938
520,-0.7096052909873594,0.3209323452061246,0.4748167289899575,41.858248226258056,45.395997305435536,22.996007177137397
530,-0.6891392233617493,0.3860873294411624,0.9889777034320871,27.081848480620305,29.95421624483352,22.494422287564674
540,-0.7650303343275088,0.32542420185174503,0.1362406487332883,31.931785256238044,42.89555151912818,49.12079770503552
550,-0.46501051519544695,0.29432196019220275,0.21564484839900255,-12.991052009481221,51.52437313819412,53.028658020056135
560,-0.7680329496221122,0.02742529663391569,0.4469475826026086,-75.73833445414803,42.17400915163057,39.68742744103339
570,-0.7239657451389849,0.3808366740906646,0.5310727818889517,-81.9321174280041,40.9893576447925,43.947846004835284
580,-0.5474349182366162,0.6533593343336414,0.19788996007375903,-41.84291293270867,41.94371234950119,55.478633616977675
590,-0.5551386870582189,0.48688025789966793,-0.10569233240981918,-15.81363358101418,30.258506890164444,49.40340478479252
600,-0.639684430434311,0.08714242261291494,0.2181521867508071,-16.21900757169392,24.85824915435664,33.666120515876806
610,-0.7403775421798362,-0.28110191137399365,0.7012161260941294,-31.867934296490414,19.083527759093915,5.973166782866695
620,-0.7766161614665589,-0.2213189085826182,0.5650764324047229,-22.818790758634826,9.74114796386411,-10.527484402072194
630,-0.6516237918049258,-0.007825330623262124,0.4834871451808273,23.797450987505616,5.354719028896325,7.981042067829649
640,-0.6618667777120558,0.009983423906905892,0.40146971017558847,55.51229682490591,7.2032176160103045,29.30380180558467
650,-0.7348551060391633,-0.44468829205178795,0.4099347753516777,45.24080643155222,9.980465490507699,10.433387517119842
660,-0.6921145745667026,-0.4790228872337949,0.42171526748892046,43.80211101242774,-12.833640160855385,-20.38339106347497
670,-0.5960941909383247,-0.35605301095494474,0.7720403833753502,78.29982844781544,-22.511714488073647,-61.099974405858966
680,-0.4621230432761491,0.2524953800543067,0.3892875534128468,64.04850490814208,-12.200630506082875,-42.973280913453245
690,-0.5477454942986683,1.1158118845612846,0.2824991327183331,58.764353685760675,1.7533861137190645,10.384884354792316
700,-0.6539372857080141,1.0571050561724513,0.37846218821528654,54.92976747306207,-1.8699495058825473,21.836547436241013
710,-0.6135649374431331,0.4631837287848802,0.27743076052431365,34.15432223187868,-5.778405109702245,9.494846119517728
720,-0.6302160653157867,0.4997371398760482,0.29396769546002943,17.5763479295234,7.369205139484862,22.4631195335092
730,-0.7223234571452908,0.18009918899014807,0.32515703212883235,-15.765680356324511,-0.3017654634148397,-9.28141060446216
740,-0.687560899542269,0.2094624087665888,0.38064533269355016,-22.043746108976794,0.10704610114501167,-22.253304191129452
750,-0.689866142273904,0.11004754420839793,0.3696801294304392,-13.065157407670547,-3.1705841538159745,-15.365806993172281
760,-0.690332232915527,0.11933781564237189,0.3585809178232749,-4.7175947564014535,-1.155526761634788,-3.739472108261319
770,-0.710569914191635,0.08284181530614906,0.3495594599587745,-1.226344687434628,0.5458938936372191,5.299505503287891
780,-0.6911344289167691,0.11614471454551108,0.3713827011795752,3.1754522372772804,1.084531209913877,11.09716927767721
790,-0.6803118296546063,0.1401623281740546,0.38110110430855115,3.933150706744635,0.5850849584989501,11.29172854027295
800,-0.6785817271703671,0.1513510071588394,0.381217418577807,1.632487211353474,1.0639380647944172,8.258125876016763
810,-0.7082639410832084,0.12003613833198612,0.35377850617572304,-4.989586647068213,-2.083733571803899,-1.8515151856345293
820,-0.7064883013144463,0.10942746281932193,0.360133007874345,-5.93108177961668,-2.051012591815364,-7.256298581704147
830,-0.6900408949671823,0.12336681264498434,0.37476565827690816,-4.594950866492608,-2.4280714442248703,-5.831367031971681
840,-0.6817309880294067,0.12853272870760662,0.3800395475698161,0.28269644543175554,-0.6152982334812136,-1.3331914210555973
850,-0.6875507693073175,0.12204047601158363,0.3716566002420326,3.357387687829608,0.8251712955683477,3.307315891923976
860,-0.678920688504026,0.1403640573268621,0.379031165383645,-0.6998322052885791,-0.8110803490088113,2.357726064398273
870,-0.7072598220671662,0.11467755451041013,0.3574525224770809,0.7272680280018472,-0.6262768176676741,3.1603016590461586
880,-0.6961967788606448,0.13050800053041217,0.3668961896533279,-0.6418754074237902,-0.6117460033938849,1.3927825220981485
890,-0.6658489333116029,0.15967416297156675,0.3954430373796458,3.4333207737300353,2.596760931487128,3.557957462054669
900,-0.6645866257923313,0.1568683274832371,0.39272700095139723,-0.14108580409463467,-1.028040724993647,-0.7671089356783478
910,-0.6895622100070768,0.13142293204686722,0.3655402940391361,-0.06279696397417883,0.16333565173569292,0.08868622896616091
920,-0.6792190156284367,0.14104368120424968,0.3772958209504218,0.4300574251673157,0.9473895597510322,1.2797369154489573
930,-0.6821342272709536,0.1317823231625408,0.377178970991728,-1.0882282315635903,-1.0412824341878828,0.4988957217765986
940,-0.6733875481243762,0.1395788862903199,0.389305345845079,1.09962152671204,1.6687383459452927,4.52802627866126
950,-0.6844545111725862,0.14814487703808094,0.376887668773806,-2.571446483589746,-1.1958721021784917,0.4758174730556981
960,-0.7070320717395766,0.13132639709153904,0.3567588362061371,-0.2244296828881691,1.2021569175301428,0.981589172964086
970,-0.6994613799475674,0.12582586804991092,0.36596553385451114,-3.015702460498764,-0.290769052345383,-1.7614820045430128
980,-0.6682433174060429,0.15799252749472548,0.39152927410620336,-3.073241143789362,-0.4584964394469869,-2.271757507576276
990,-0.7102873580075381,0.1107381171976837,0.349856762189237,-1.4317922568869903,1.016639418466191,-0.10821494927791847
1000,-0.6797326827608685,0.1393711653447238,0.3793995245311919,0.1560595131206962,0.825881080896508,0.8098427062389891
1010,-0.6976225797452126,0.1213919658510906,0.3597319814924891,3.3683662126031955,3.668338400154832,4.340283706995371
1020,-0.683287948241891,0.13908438237611795,0.3733336214504787,-0.14651422507183054,0.8711916356705512,1.666788457898679
1030,-0.7141002136573422,0.1130780816463837,0.34522044737367935,-0.9144675491701528,1.2223368659746536,1.9558024642279643
1040,-0.6842047274679524,0.14032847805059284,0.37915126124531434,-4.541463936922,-0.8588665920983691,-0.00838867811695243
1050,-0.6705814835340489,0.14673019076496382,0.3890079703542442,-0.09443821412665443,2.897950115485873,4.081242962661016
1060,-0.7172798722806296,0.10905566753759303,0.3421975828974669,-5.5029569637024265,-1.7958497746142283,-0.6660031790194425
1070,-0.689951406519431,0.13676797453385117,0.36828543928407886,0.5685997418788149,2.1325428523391974,3.422435435438801
1080,-0.7213994004110118,0.1063313269979769,0.3378303260337069,-3.03741860895889,-1.4881580731101174,-2.7757701461724267
1090,-0.6932461834414707,0.13268652341463513,0.36909594257558287,0.1607299507099258,3.347763819266309,1.7111428030250073
1100,-0.6772057812903173,0.14294059867335496,0.3846255400642866,-3.9080902179480552,0.0799096425934146,-0.8145186103073367
1110,-0.6904166747084882,0.12755611028463051,0.3711051076118614,-1.7428953286227342,1.1380918850983501,1.1504496412163503
1120,-0.6951468031134803,0.12632542878815736,0.3683593812832902,-0.7835724712164068,0.45572502653999486,1.632739146682603
1130,-0.6816585378950913,0.1404253915554966,0.3810568313778968,0.48884274035015063,0.16768054644458946,2.1947410199618296
1140,-0.6814249115238621,0.13908807402337148,0.3786220084054725,0.429699219446692,-0.025069630837960627,1.2148662726729256
1150,-0.675473811322732,0.14974048447580393,0.3862569573381375,0.19318569455382995,2.038296088968095,1.2955124522546855
1160,-0.6890082295957204,0.13368705021914018,0.36968364304939244,0.3522761704491777,2.2729586677342843,1.5177198137473882
1170,-0.7136984522773312,0.10798739606991528,0.34153052628048014,2.807802586855948,3.389485261446575,2.681929187222901
1180,-0.6861893820131065,0.13416027388292476,0.3714219283903793,-1.7049930911730984,-1.0555879926300848,-0.9714517010022428
1190,-0.7085485912229453,0.1122288445809929,0.3497313879833437,-0.7555472056849377,-1.4571667741885865,-0.8864143396433268
1200,-0.672972137251223,0.15144120233044134,0.38734481083992783,-0.22311150309699895,0.5298677538280175,0.53806931859113
1210,-0.6593659111354296,0.16560786697557253,0.40481674282637325,-0.052606772681792036,1.7623654686676662,1.4707850988874187
1220,-0.6818205491251679,0.13386479587866412,0.37799583266896514,-3.005450353592621,-2.0793522759119494,-2.2654019877021363
1230,-0.692410277658025,0.12069158763528964,0.36324836350314005,-0.5093082960095732,-0.7923143745698626,-0.5922098010573154
1240,-0.6828788955731548,0.13793228414655562,0.3758154233609203,1.6800621640357962,1.1534674005605905,1.5824295382090492
1250,-0.6610464922220518,0.16379597461174464,0.3986742242448161,-0.18022055563823836,-0.5259886723459832,-0.3639249420536277
1260,-0.6860775323024241,0.1352068642817648,0.3674814741949097,-3.2297452338818884,-3.3903392081190176,-3.6985975900057446
1270,-0.6852240027746289,0.12723347816933245,0.37485430678346077,0.459385200235916,1.1663393606571146,0.43581121983066573
1280,-0.6962428851791392,0.12338881048325595,0.3642810472055586,2.5394830977465133,2.650075180062313,2.5696081521051903
