time_ms,ax,ay,az,gx,gy,gz
0,-0.7891078522250383,0.1670817419713308,0.17553501654898093,-1.3332332394803048,-0.7541390148569299,0.09884869766279536
10,-0.7907830965812023,0.17291194212983632,0.17290111495850857,0.5723619913417735,0.9634951334395147,2.4966280254327056
20,-0.7781326142861027,0.18539910378588745,0.18570244718531387,0.7319055173224931,-0.00940344565849598,1.6471178315004218
30,-0.7951392633993163,0.17348222631561816,0.16623061816629048,0.41688918905131434,0.10141584413092142,0.7814496350653901
40,-0.794608004074078,0.17251577848395513,0.17117114041950643,-0.7037320533386751,-1.0597648586907698,-1.395705003970091
50,-0.8040920412549131,0.1623034355126399,0.16922546070146174,0.6591876728903289,0.6538148188640216,-0.03487497155427577
60,-0.7864646238957408,0.1761709443556444,0.18245295238464657,1.1359016990127764,1.0289117450241718,1.066184147367389
70,-0.7464008719340488,0.2144245233424198,0.21965922798795234,1.323815539750493,0.5162358227564903,1.861822677687213
80,-0.7719479650133769,0.19269151797683168,0.1988600131582394,2.4592496098129937,1.4721401703798687,3.21743872894796
90,-0.7791891671089196,0.18971854402870492,0.18886058944849257,-1.3574614424453098,-1.88381738544463,-0.9188621787860092
100,-0.769865028286062,0.2002337016938613,0.1915602422011114,0.6253383546787336,0.20992250728148554,0.6244017938632974
110,-0.7726617308251822,0.19144443396018151,0.19263576672616334,0.44135982148018216,0.09457009687116419,0.0015543009789328321
120,-0.7780252817616734,0.18616228585271385,0.18464425553665298,0.8692213547376016,1.2561212914849214,0.9637609415916633
130,-0.8007365916153284,0.16853101145012503,0.16614817789705683,-1.7857678442129856,-0.45005661668035857,-0.5897805911964309
140,-0.8185277217276061,0.15059278527289835,0.14560223354738774,0.5791953054823022,2.0208247286681082,2.5729873418946716
150,-0.7802282832836731,0.18811653634790523,0.18788349902558346,-1.7980616587646012,-0.712586556675417,-0.0045091616616173
160,-0.785923184195534,0.1772836412757222,0.1889504956084948,0.29103301250980507,1.4556755597036162,2.9832995644775253
170,-0.7965128437608227,0.16040042895683718,0.17084453698856583,0.17823084597440741,1.6766576142805745,4.480124056135932
180,-0.7865181528574653,0.1762855368069802,0.17430442507424915,-0.03279445191095687,1.3580829575178677,6.251694275823676
190,-0.7919013293965607,0.17974006240032056,0.17086074934872406,1.5302438234084204,2.6032884102346747,8.311237183114637
200,-0.7852967581241209,0.19237677717938956,0.18663924772772386,0.9168874520716486,-0.6057662168820179,7.237701798989931
210,-0.79556002880219,0.20703478227330865,0.18795476139856201,-4.604100008965702,-2.8543338409179646,8.1161028203497
220,-0.7742597495510433,0.2619454502222693,0.21449101513537,-13.522110711605354,-3.8300142541963185,9.185716868457991
230,-0.8452555069353368,0.2742017683781662,0.20659869832067557,-6.9881269315170655,-4.667884115953732,15.951937491226936
240,-1.025468096557742,0.3213420723409304,0.2547425522398638,2.768343364348097,-12.724141875377313,26.817569481609194
250,-1.0600018416720303,0.08042077822871525,0.3082344173032085,3.117184944819876,-33.473374906840725,21.95418301774199
260,-1.022783364860715,-0.019114150720895496,0.363995641240756,-1.2186412266284044,-45.02808844209307,11.445764009802422
270,-0.5593642914606043,0.18249198864732383,0.18964938738143272,24.10802442924548,-66.1354051751263,-9.129572848868708
280,-0.4730903341017876,0.13805347701073967,0.1351232560487871,15.529892072536263,-55.466284605903816,-16.67934958316661
290,-0.45205671171080214,0.17385629058077062,0.1914127456090508,10.987035198673878,-42.76007869810529,-23.60023564559033
300,-0.4861020917606063,0.2968839613456565,0.24102238923991298,9.632358645246958,-29.264422309167983,-22.20908027445041
310,-0.6036988857194556,0.3205577832862738,0.18851134284716806,-0.29893176475981464,-22.142801285988014,-19.063749389878815
320,-0.6792012401413668,0.30738947904997416,0.15689752968906343,-4.04302882106573,-7.786355766955516,-8.301894619552401
330,-0.7567931627342387,0.2627024891906989,0.20567529721079303,-22.30718862249215,3.619295981650752,-5.431528950943329
340,-0.8339540089567717,0.19410104231670117,0.2487491367207168,-43.91565715209196,8.357752799161657,-8.710599067042923
350,-0.8278681471622205,0.175653261472894,0.2512965778233395,-50.12865997140769,8.58621055202969,-11.844169826229027
360,-0.8038264490629909,0.1732696158492164,0.25586662000481697,-52.04454835644702,6.0875748995722665,-17.00271466259608
370,-0.7526903217504286,0.15349336313140544,0.2598372195509959,-35.14772336397311,9.186463154222265,-13.620243851044675
380,-0.7373432634207738,0.10974913472362109,0.19903602956317082,-26.929255223094653,10.539462388423468,-12.998350118357484
390,-0.7102156476601592,0.079007803851651,0.26888311682115734,-25.4700255090548,10.136481099045927,-17.008895245284858
400,-0.6889533067345639,0.14886036077572468,0.2806221675453399,-11.339396611692404,-9.595280883780966,-5.785535705068201
410,-0.6961765716957992,0.1843839296583375,0.30516493145715823,-8.93440384286383,-17.07718989344233,-7.114711291967777
420,-0.6923832804020943,0.18546091071863188,0.42859492353703765,-7.247278070154637,-23.038003714096785,-6.541606205897695
430,-0.6985941122445722,0.04290474229281759,0.7855628708253534,-11.808398021918723,-23.095165926282654,-7.519960822169904
440,-0.7771266833253657,-0.002881235621291625,0.6075007819574747,-11.848695858394175,-16.07350232729617,-9.937132989908521
450,-0.7111819765468264,-0.0033747979567237546,0.36596300767297674,-15.966476571497596,-30.59769544270113,-31.19111296181792
460,-0.708966899878736,-0.15163688665314734,0.5356319507450613,-16.304320173804282,-27.91696576851206,-32.791609587212804
470,-0.8139263898458268,-0.3683710228574928,0.7827673425124874,-27.321239500802548,-16.14842886297322,-32.51630268976191
480,-0.8478681588805477,-0.06937188845724993,0.7390943997262651,-12.489930485536222,-16.891862888413215,-33.03827324945932
490,-0.8515329619537472,0.48650921170329936,0.5059262063807888,41.31498262541801,-7.790046609908493,-6.2858559046549605
500,-0.7133958323409013,-0.14021742412795352,0.19510385050515403,4.913867953236614,-9.664834323989597,-34.19874350445647
510,-0.7710453744332079,0.18256173473387138,0.01758653272688243,38.71293929961564,5.840651473207938,-16.859884367439367
520,-0.8374007651520281,0.29429157346112084,0.07247490328072606,62.14108234722517,2.6221030732327457,4.757279112040191
530,-0.737776731917904,0.2701602958444735,0.5805717186780573,12.791041120459735,21.25835678518106,4.083724855922512
540,-0.5693568660131203,0.27261205535093935,0.4337425748093376,15.409810844792787,32.28149422723454,-1.8483167123987374
550,-0.764342457810071,0.3052045438101793,-0.12833945528613952,53.73090810271835,30.817890014306283,22.93165765391962
560,-0.8197997689941099,0.2650658389800017,0.31255155559039244,65.82091576025267,33.00110528766723,38.401818529648324
570,-0.947787484625785,0.34299913774319407,0.6703867834382288,48.87696781842829,65.85752760796971,65.33991234806872
580,-0.8890111373876151,0.4678917515594939,0.08175571917857563,44.08861870334464,78.79423827768369,72.45617590571433
590,-0.8012071750415714,0.3014423755090135,-0.18299829729139244,6.526696253981179,66.36423909912531,47.75881514542556
600,-0.9575747710338035,0.1532908687344491,0.27802414259776975,-33.31791604141671,57.74211022998181,29.381290662078044
610,-0.9955309425181703,0.3114442737091337,0.657682880738215,-29.423639995444532,50.81298302740834,28.880638310788946
620,-0.8287145459055613,0.18255269391059023,0.4902814319665578,-29.17789308843356,34.730055045443414,18.78557196669088
630,-0.7187636921726396,0.21193714370067235,0.1387266753361673,-15.89431665527118,30.806079503777585,14.354803488171875
640,-0.9045285313104342,0.03881806674435054,0.46811460763819845,-25.92696741121832,27.937472833117077,11.010560569102324
650,-0.8623995555658662,0.0467398512873294,0.17365723394717655,-26.41279196618099,9.020286051459497,-13.134689400987407
660,-0.7688018744112199,0.10508328397665946,0.217024412630786,-1.0322076681310266,-2.4948892770223745,-7.822545023886698
670,-0.7959321059451467,0.13731169368012658,0.1635924578267211,2.4975885122291936,-2.3979909354494757,-2.601659769975649
680,-0.8168578377685479,0.1501395468531947,0.14066976351471927,-1.387647731048324,-5.52787398237621,-2.483457766083596
690,-0.7838339349164583,0.18856601883409757,0.1798185365707479,1.745797285815746,-0.15571890686871576,4.572232470423808
700,-0.78116526305096,0.17236954705454222,0.18871344184250544,5.8445111791935975,2.8437812627075036,11.270280766086175
710,-0.7933808320943283,0.1478106172902371,0.18459159372402803,11.398578323104374,6.01738143559165,20.45315254809392
720,-0.8612650384283869,0.015960673950153194,-0.009941901095535676,36.118178228669215,-6.754188574947509,-7.693471369642172
730,-0.9645990498402051,0.016291537849322853,-0.09229960874469077,45.19892805478695,-18.22170614984463,-46.33049296575767
740,-0.9834041420663477,0.15765639168812984,0.27724672358676894,37.67611876892413,-13.10351675107365,-44.95929686613845
750,-0.9683366953224728,0.06722111988920647,0.39859854664412886,64.21232572786965,-12.746013611305715,-25.68601084960434
760,-0.7065602646400281,0.4719217214039528,0.08153247006478098,67.58074082554462,-6.499457095380052,-4.155395269597625
770,-0.715419903659116,0.4105322596611666,0.2466109679999447,22.919079299770488,-8.016998610512944,4.8771621038989785
780,-0.7385573155844036,-0.0034528916998275982,0.1642580752242945,13.470423712774775,-7.342637400424687,-8.153535230868668
790,-0.8130758040864062,0.21125952973672965,0.1523856419329815,5.36564246075858,7.632385564865562,-1.2332907997037061
800,-0.7906877778718278,0.24076476479906195,0.1574835666183486,-6.323941044349229,0.2060652564447214,-19.313846318443314
810,-0.7783373085935437,0.21271542941586147,0.1736032651437815,-6.083938168789551,-0.31059778380371217,-23.82095545213612
820,-0.8017410011740698,0.16880891302572396,0.1522748658848397,-8.046647968465505,-3.6117587166670835,-25.566245805532272
830,-0.776192333499606,0.18263664659454204,0.17771269979128568,-3.129893525307513,-1.9190896657717005,-18.609436298083608
840,-0.7763887290103484,0.1801935911023201,0.17802565202750542,-2.951594137704446,-2.7215033158292905,-11.979657440138539
850,-0.797303438330826,0.163008065450089,0.16575673312746655,0.4972777635411689,2.567017668112948,3.1850889292233497
860,-0.778613960052394,0.19234951356970878,0.18250520812478147,5.139216228102457,9.16610716580384,15.1468845953962
870,-0.7996387714924993,0.19425516705276197,0.1478228451439889,2.5837488798146304,7.201628546532481,10.163646136119638
880,-0.7979183309693734,0.21908116969371427,0.1503383203437006,3.3842802283818,6.947079010792358,4.459877827962039
890,-0.7794340817346797,0.23619314731955166,0.16807973704038898,1.4142779020991643,2.3446014904161823,-6.045112281132963
900,-0.7870016928916718,0.2071804153954439,0.16285901786681012,0.37823378226511406,-0.1522832812525274,-10.28334403069314
910,-0.7608648399286503,0.22182479465849872,0.19722936058632984,-0.8156784933571352,-2.737426050910653,-11.107179938867908
920,-0.7899886379828167,0.18553956877502795,0.15977351222406985,0.5801855813698116,-3.7755062229106886,-9.148992056375924
930,-0.804810074512006,0.17566250338815087,0.15520882109469442,3.1279456116337556,0.8670847621431492,-4.552076429498184
940,-0.786529884633697,0.17912771398651553,0.17263889199890792,-0.7897075107350577,-1.8767974578257896,-4.109806887547438
950,-0.7940348113946417,0.17275238721059785,0.15524215256230084,-1.62974849648885,-2.8623992339261584,-2.0693232581273975
960,-0.7755948631293923,0.1955960539765584,0.1735340297262093,2.5703165936235144,0.5240457377270296,3.491705356653689
970,-0.816745567493863,0.15699268856278423,0.13357529904336615,-2.0009099414186693,-4.824975291449791,-0.8578033752185763
980,-0.8013833098746852,0.16915104308145465,0.14905694995162744,2.3147745699276694,0.4784724530738709,4.319757840344028
990,-0.7885084965329117,0.18386428418009765,0.1642186763336022,1.1013597188223814,0.8855475354460971,3.9849128147836628
1000,-0.7894375237200496,0.1875668505091111,0.16726397196771572,1.5360844311338093,2.31402553393994,3.8811181964977486
1010,-0.8111951864269902,0.1625333528442011,0.1482271965737821,-3.9537335118990704,-1.8447798156717858,-2.8890486295420432
1020,-0.7652065877957033,0.21491934562041068,0.19394163526544328,-2.8254405110677183,0.32391655626191507,-3.223090033204109
1030,-0.7836944535477196,0.18719906959329313,0.1770336519773519,-4.045155807793251,-0.2810515169442882,-5.373244375225555
1040,-0.7894160123167046,0.1758251449222073,0.16858838665807396,-0.8008407693836737,0.2212894072523004,-2.56454712383014
1050,-0.7914965735257512,0.1856038684360715,0.17307434884319714,1.5849460251038037,1.331791814520313,0.4528892251180525
1060,-0.7850492568073933,0.1889612591754237,0.17273775695672489,-4.293482564915476,-2.71051822661362,-4.365655083324722
1070,-0.7585913483878914,0.21157385902584816,0.2013885634545131,-4.31163701427813,-2.741888117513021,-4.418217934085348
1080,-0.769486380896697,0.20623538109692857,0.19196922983697523,-3.958562712681374,-1.2660896171839895,-2.709610931201362
1090,-0.7784385055294736,0.1872638323026956,0.1801268506281614,-1.5536956597260727,0.20532339937955563,0.49365726829729445
1100,-0.790986387174578,0.1673953090212102,0.16813143384638776,2.409597226957983,0.3685705212384942,4.10589640195133
1110,-0.7898357444936254,0.18310410462370996,0.17080181131547947,0.02608206741557062,-1.9194114113858556,3.058692828501526
1120,-0.7695134950264404,0.22081682287309884,0.19017724562277707,-1.1237246369724891,0.21374108937181313,2.704211272344707
1130,-0.7820983575740958,0.2085115669247777,0.17491242643149787,-2.1759719142276532,0.6399379621097521,-0.4059991274285847
1140,-0.7803076591899081,0.20141088904175536,0.1749807971401542,-2.2526414603340994,0.36932828949826035,-2.5652164334969294
1150,-0.7679327467471974,0.20335760517563864,0.1909330945630804,-2.0628418982459418,-1.2694274859734782,-3.7358122408658554
1160,-0.7844470820618819,0.18097015669503375,0.17723300734625672,1.331044480509746,-0.7797665086369758,-1.2923390678958462
1170,-0.7973699550077428,0.17406669179936723,0.15965672905440598,1.0045382971863446,-2.0930029859689583,-1.4707049703500323
1180,-0.7949733417047627,0.18278384264830844,0.16641757049976036,-3.637033895110502,0.6345063386728252,-2.036015239582861
1190,-0.7786838730426068,0.18829564181281508,0.17703490547836534,-2.241181339117605,2.3521285756790786,-0.32284567729359825
1200,-0.7747973146077247,0.19060318085022357,0.18848649437548373,-1.2466472444208643,2.9294749388176977,1.5219984117056655
1210,-0.7858760383912601,0.18167899504768126,0.17181090433203847,-0.3570325636750802,1.7342172444749564,2.8789342892952163
1220,-0.7711386360986613,0.20507554643314907,0.1842175852781498,1.121681661962211,1.2740759619963797,3.984223905930902
1230,-0.7723777453560193,0.20779842476468643,0.18600697033885627,3.242152490365636,3.1616113317876993,5.61888370426211
1240,-0.7783499136007386,0.19917737916229128,0.18213056400157374,0.06015912144648006,0.9445749148375666,1.6989904374877776
1250,-0.7873586393264804,0.1900464343833581,0.1736619565665955,-1.2393903470584728,0.16246675867333077,-0.6033499891969102
1260,-0.7754160340709316,0.20163201536499778,0.18343725078562734,0.15470014914156116,1.0093212880337759,0.1640510655503623
1270,-0.7754549786844153,0.1947446245425512,0.17951239105438282,0.3593128911035282,0.6284788342070806,0.5685682721023804
1280,-0.7879598169056676,0.1837031083842641,0.17030462069122018,1.3064087563034443,1.5864777829383152,2.284046092274836
1290,-0.7929058124063235,0.18926767340290973,0.16710587788171244,0.20933649768506257,-0.19080817436352365,1.7866014066279101
1300,-0.7896149602700431,0.1864894041294542,0.1715531423382079,3.36037275584998,2.6570960866831257,5.191686222493603
1310,-0.7805008803913978,0.2061415985148257,0.17390847852488908,0.1580906961556947,-0.9451068657037883,0.30954485410410015
1320,-0.8153643539348631,0.1625253770227346,0.14271020422333172,-0.5301210074543471,-0.0897567013362951,-0.4441668888478211
1330,-0.7983484868372432,0.18134995628509867,0.1600996779267143,0.9021823381851277,1.038702313334066,-0.16289160518003892
1340,-0.7795339522789361,0.19789410501239174,0.17845198048156885,4.19634258332762,3.5195848862821135,2.8849657937264506
1350,-0.7861292381070085,0.19354771103570095,0.16963663668146423,0.05253761686417602,-0.6872510978541977,-0.3842131771349899
1360,-0.7796763366400747,0.2002855724409996,0.17544625189426705,-0.2440837197069008,-0.06894755276373377,0.14724345078624979
1370,-0.7639888138258819,0.21747235002488594,0.19183900254257286,1.4128751866478229,1.0375122815613866,1.3091073342764004
1380,-0.7761241565909107,0.1982924488071093,0.1831732865255284,-0.4085991000778335,-2.6171419580957074,-1.8034282643249546
1390,-0.7709015494502891,0.19584967766514438,0.187457793750171,3.011937182988768,-0.34889918216338656,0.7278113450213315
1400,-0.8058716994689836,0.16802651171699917,0.14359599359486255,3.830636237824518,0.06286386926474297,1.4421891549272654
1410,-0.7794993419438168,0.19644265097500116,0.16984076384178656,3.865032884533276,-0.22532422328953922,2.0311359432469334
1420,-0.7824375927681123,0.20300960308294375,0.16962436167589184,3.397069698902414,-0.45315754950916287,2.005667342249606
1430,-0.7914138338513116,0.18584278962572418,0.15981353204356913,-0.25349703130687096,-2.525496377844429,-1.3239004736385243
1440,-0.8076750492258697,0.17605583963727456,0.1536630813994269,-2.4941299385558553,0.5302139555235537,-2.5878253663136217
1450,-0.7853053090131714,0.17937874060953468,0.16701920152975377,2.5469078556699363,1.9247785122843908,0.4471284975250247
1460,-0.8123756597627986,0.15750774336361723,0.14213730140824687,1.3272849225673478,-1.4028492773680319,-1.0908283663889256
1470,-0.8095136962593694,0.16212447961004167,0.1420938545663473,2.856976703164035,1.081124039694466,3.1293019267315816
1480,-0.798414045842059,0.18134376175109607,0.15734804550015088,0.31744852467276274,-0.9474012025754135,1.9082646396922307
1490,-0.7787976203865201,0.20310465989409263,0.177161435445116,1.7607221472252368,1.0946974162696792,3.374031339672509
1500,-0.8091325363563723,0.1714731497001714,0.14444837949428602,-2.9367211305077423,-1.9291632704658728,-2.3186346539758818
1510,-0.8119161489158675,0.16362501709596838,0.14378321275811157,-1.40931700771764,0.03811783515542677,-1.7762747683901012
1520,-0.8019909467887008,0.16743912849100745,0.155188277883828,-2.2391374555783834,-1.4292667488889832,-1.7824463739709437
1530,-0.7807939849495973,0.1906455266440484,0.1750902115551949,3.003531021982166,4.688346160808143,5.880126337083335
1540,-0.7795581261329272,0.19736285115398006,0.18057225225312296,0.7733280008042802,3.0892686449441387,5.08769208581157
1550,-0.7900268406645996,0.19121630411400112,0.1653070842119762,-2.4384321443152484,-1.2672275815629022,1.4163800732320855
1560,-0.7880321915941004,0.1966981128762253,0.16553726588695927,1.8151076872296632,1.2211139779585265,4.223387858791143
1570,-0.7563672664296122,0.22710220868112704,0.20163524891707366,-3.3010277044827294,0.37071088957177717,-0.9573302439928644
1580,-0.7659577785659164,0.21923542398532994,0.1915329621976791,-2.091569698598626,0.5142690663865397,-0.2695813477778468
1590,-0.7955035190707024,0.1848843322266901,0.16503329384458768,0.30273630438845156,0.5951073180640164,1.2750358232873817
1600,-0.8023187278393448,0.176638642696922,0.15393812746602975,0.41253906096668536,-0.07450439033708067,1.7894254304220745
1610,-0.7972245071746475,0.181446199469356,0.1597614600598596,-2.4271247636665594,-2.2923961637118078,-0.5959153355697993
1620,-0.7850451913505853,0.19947622707575177,0.17250707706344234,-2.490629238884373,-1.5033496268581905,-0.45870947424792563
1630,-0.7703597124506903,0.21308237124286805,0.1882164064676421,0.9279767486090097,1.9138602583375246,2.3209756961648247
1640,-0.8039048864473894,0.17553889418580718,0.1534613390715537,1.0189975527068826,2.3659455936003218,2.4609645009111185
1650,-0.8027442425839915,0.1780356283906193,0.1524971642487256,-1.179453875362369,1.3950713216017672,1.2287057024013661
1660,-0.7966503980480737,0.18599849559405038,0.15968003378854823,-0.9258998174815812,1.6950373180915328,1.1806407152422245
1670,-0.7781042207941231,0.20744840173139245,0.17746858123175996,-3.466997631994578,-2.8026422327969844,-2.8805054417019176
1680,-0.80765492498418,0.18268892036934187,0.1492187304788258,0.7227672874590438,-0.24537439371907466,0.227250319609072
1690,-0.7549201714952374,0.234943982894438,0.20469036371109076,0.45069368131879417,-1.3290551542108386,-1.6589469238277625
1700,-0.7987084135619343,0.17098723638037228,0.14970606501444061,1.1723796540294313,0.7566262568933253,1.2887463681013611
1710,-0.7757325416278869,0.20828907769862023,0.17994301725935183,1.2630270510475237,1.9373022604133667,3.03575596145265
1720,-0.7765213732180054,0.21196337453195047,0.1832439974318497,-1.614679965753113,-0.37474877518995153,0.7801783064278438
1730,-0.7759720871727933,0.20371716056286415,0.17708663982611816,-0.37339138270373384,0.9674579580140488,2.0334493825887128
1740,-0.7832347514989616,0.20236782727522898,0.16951189803047664,1.8257109728843561,1.9012153486282724,2.7202352465789335
1750,-0.7763649511320662,0.21168449809780623,0.17569814364164243,-1.1960843097769385,-1.4379872675152172,-1.4320111857320066
1760,-0.7756831301620492,0.2105306960077097,0.17992834467433774,1.0994361593909312,0.347582678133619,-0.012988208101578858
1770,-0.8039768122265739,0.1794986803020221,0.15438019622825572,-0.8080177892184993,-1.004403318759167,-1.4165024336011443
1780,-0.791066213612434,0.19108101275963696,0.16451800665938987,-1.0708297856864688,0.4650172851934442,0.18346366009289333
1790,-0.8088723876125106,0.1742759051231777,0.14601119916024155,-1.006859029805233,0.21346342803061769,0.831573189351861
1800,-0.7757656506262743,0.20780895300248892,0.181930978443625,3.7393971509974295,2.573622414825479,4.496606446581753
1810,-0.7955040954010963,0.19436829749447457,0.16237621714301953,3.594438430875411,1.2207140232441942,4.305765191365929
1820,-0.8073324339138792,0.16909586106768631,0.15326015052824804,1.988729444483066,0.12727853443958598,2.9679101870604283
1830,-0.7915730669170442,0.19058635079602598,0.16187207816516708,-1.1799461151918278,-0.36190838511442747,-0.8534808743501616
1840,-0.7415742679669167,0.2301048909341325,0.21310836494704033,2.7465687028619783,2.056612432751184,1.8758256804949751
1850,-0.7818926817658202,0.2069341279024688,0.17803945439280422,-1.2366163231358394,-2.2286617252599337,-1.793601609238887
1860,-0.7969789199093673,0.19361016182846258,0.15841656072298652,1.1955637205329575,0.08156359192842749,0.8576844647225716
1870,-0.7647145727128573,0.21775648706300513,0.1899938430893697,2.711067906576466,2.6950756877550117,3.369086078607821
1880,-0.7873017533151542,0.1967549497772261,0.16335153176549122,-0.5260017888972484,-0.7901717340485578,-0.08199026876718274
1890,-0.7804091089658876,0.20505589921923803,0.16960035336863277,-0.9474938340238949,-0.30993183556114967,-0.18114765340113026
1900,-0.765146188505297,0.2185207416164394,0.18886179915443885,-1.232610396523567,1.4394654059944645,1.0505238359023812
1910,-0.7794886862405925,0.2066323664243214,0.17895702372352237,0.1737106355285718,2.946671137277367,3.0380429086471397
1920,-0.7988698891606402,0.19233629678848957,0.16060268939678055,-1.2176873064101401,-0.2613804382884519,0.7647468521920227
1930,-0.7853637621699042,0.20574353283509494,0.16826817886307863,2.565345147660129,2.580109835261815,4.129135990029727
1940,-0.7639391576104454,0.2224127182763212,0.18658409719925206,0.22051330535370844,0.15098306940179393,1.5865778208214922
1950,-0.7839440407086653,0.20451636036931073,0.1663071564725737,1.5547122747218634,2.034099662114677,3.657152314514224
1960,-0.7849844895776612,0.20267942655785715,0.16568163752455603,5.823776706184992,4.596634192640314,7.586336239659262
