time_ms,ax,ay,az,gx,gy,gz
0,-0.89234238564497,0.24404347339298182,0.19127595744465734,1.9385190537996917,0.5182907575590189,1.7403147652422315
10,-0.9057174304313361,0.2246420054889197,0.17277689665402546,-0.38958820046798653,-0.3610714936058446,-0.9188332104233055
20,-0.891259333774282,0.24596377928939778,0.19350597530051236,-3.4178721007912225,-1.1352330027474933,-2.4453383225208096
30,-0.885513670125389,0.24832271341258064,0.19614198207172825,1.0766470134302937,2.5154914379192683,1.140362293646172
40,-0.8534824140185054,0.27498733481883325,0.22514097982524392,0.7415063688704444,0.2032638271902889,-0.8665530111987418
50,-0.8670122416839088,0.2636003149580143,0.2185016891912721,0.006895214116011794,-0.6157162758006653,-1.339415073629709
60,-0.8915602069180673,0.23380176637274977,0.1954833702271801,-4.553645322951224,-3.5638186453597425,-4.257848354465427
70,-0.8767082353167042,0.2518617048788348,0.20983964863250906,-5.9452704466543445,-3.500573795538477,-4.3360536366032605
80,-0.8971290648211716,0.23315557369358167,0.19007842492520835,-0.5506269740902638,1.9096914447895301,1.0240947706425643
90,-0.8883952423971098,0.24160213055862084,0.19675504128594637,-4.097425968799765,-2.5471916280315154,-3.2302090140595103
100,-0.8867899246871473,0.2450719587744223,0.19595307278776786,-1.8073444932810143,-1.0111868165106506,-1.641939711073794
110,-0.8910684472387788,0.24399893550552096,0.19121201863763085,-1.200571963282131,-0.38165868439099127,-1.394839743236083
120,-0.8537625888822441,0.2751533004031001,0.22837367004121845,-1.2411981626400164,-0.1408182207279721,-1.6883704898867755
130,-0.9167675026310874,0.20661136200851973,0.16902694332547147,-2.3261818946312838,-1.1931532116679118,-2.9543314989940863
140,-0.888763364511558,0.23522132600152904,0.19526152216556777,-1.5480036901909908,-0.34091922503127814,-1.5914066771962578
150,-0.9106114477406108,0.21376806873195198,0.1759206309921669,-0.7898232858833898,0.7121704876646227,0.2710827945826293
160,-0.8735634783187284,0.25340135309034395,0.21605710453420093,1.6606989465825153,2.67313876395995,3.1744407832642123
170,-0.9100920541907266,0.22196012035640164,0.1785226313937698,-2.6650604373167868,-2.7000543913298833,-1.7097473449961336
180,-0.8962196977262057,0.23748668928480954,0.18834024051416717,1.7989058458119604,2.339312716937095,2.3327991404355926
190,-0.8930135211339668,0.24145300319479934,0.19627091682331682,-1.394772997803878,-0.7342232851527365,-1.320159426612369
200,-0.8734067436404827,0.25246140210372153,0.2093202311791862,-2.068460958806,-0.9979133370619238,-2.4671751490907994
210,-0.8790409176071164,0.24590991193666387,0.20017826816319542,-1.027119689997476,1.5741310199464993,-0.7610176697347057
220,-0.8642675121360786,0.25965592806654897,0.2160796959635347,-0.5871363800493181,1.6650951914581915,0.49576013058984914
230,-0.8715809202152842,0.24832991019276052,0.21164686425770618,0.9044410269966848,0.6917787211842059,2.243265050828567
240,-0.8690213281213639,0.2541690512601267,0.21480609855719657,3.4452008917281516,2.6052243799651853,4.825766030501799
250,-0.8760728118006604,0.256569464905602,0.2033340602416136,3.7532082850419144,2.8969307977952234,4.862431497668249
260,-0.8959606328713885,0.2431099607534061,0.18525554821249368,1.7278450786331787,0.7464299225544281,1.9991136895707893
270,-0.8637693740652104,0.27050291332147414,0.2172999470969625,1.7886351579840625,0.5601249385274836,1.3516217916188586
280,-0.870333767371807,0.26181689133663766,0.21332144062336184,3.6418400026009694,1.799289656091509,2.77258670513367
290,-0.8804355576322302,0.2518252390196561,0.21203713550887449,-3.137414860638218,-0.7327744289799826,2.3950094887309996
300,-0.8967896624486791,0.2254835970229758,0.21048192568424823,-17.270596685720186,0.1395791049163767,8.91143281987608
310,-0.9590523230117094,0.19961294030200438,0.17534084843847642,-11.942987312606965,0.035522788137016426,13.66354933426304
320,-0.9648845845174775,0.21003648639649752,0.2552702167676609,-6.612618587340856,-4.201913089068215,16.7610518493896
330,-0.9506819395079652,0.21697609704274284,0.26270858114445744,4.576312435146228,-7.998692914017925,17.381871959120975
340,-0.9672317103730596,0.20840902823466997,0.22371815987828172,11.514489510345433,-12.641543803369197,16.629084649342527
350,-0.923491478568692,0.24565945954987245,0.2460189702176908,14.236570051946542,-17.078948216453874,16.525132741462535
360,-0.8330222849334578,0.2630659258677369,0.25480044371830224,18.77049199417382,-19.28929465007939,15.152975749538767
370,-0.8050119974843777,0.383055515242006,0.18362706582143204,11.400260273247973,-11.1709517453193,3.1754452315287436
380,-0.8544601043634464,0.35437772039686927,0.17849162432667828,8.581655435193897,-6.729070861684409,3.5514107007186553
390,-0.9079702805515693,0.2760019287837257,0.20392359739322766,6.041816709251818,-6.09282859144543,0.704077607341985
400,-0.8945315632797624,0.22668338700758187,0.2323351655572918,3.5275053309546003,-8.398757039174322,-5.087365258203539
410,-0.8515596551660668,0.20496695008369523,0.20645787974826452,-0.25540169752842656,-10.276419700962835,-11.218653212310665
420,-0.7925861315384821,0.24292808172332245,0.17787814087633647,-6.296190211380004,-7.980409248726039,-15.135535899894233
430,-0.7600551673345977,0.2860880041119633,0.24185809463482938,-4.679113997543594,0.19593874117967003,-10.988029100622573
440,-0.8586032502296885,0.25142647163217535,0.20926031564551695,-2.8898193150057696,-0.009661465988147128,-9.307058385230345
450,-0.8428114282001954,0.24879775366067736,0.2231333756991531,-5.789767245042178,-0.49367342943834713,-11.932525518354252
460,-0.8705579451397687,0.2538167276446299,0.22463414917713254,-5.686006683701221,1.4724503914014817,-12.92677310352684
470,-0.9344708574725272,0.2894318762962289,0.25562186858409597,-5.59175541306035,0.7089462311868634,-12.357042982226954
480,-1.0008243788166418,0.28803848509017804,0.2784546994194164,-9.946309074205608,-6.49170918427841,-12.018477985805545
490,-0.9142412386906886,0.27451484061068915,0.2263437310053283,-3.1827953738573633,-6.208673397599173,-8.430882359143487
500,-0.9169192456479951,0.24957498699575226,0.09605255629550091,-17.658026809440756,-10.817114507010805,-15.30045235121503
510,-0.9049304634378788,0.19568224967131329,0.2334394696171784,-3.8962293747311545,-9.271459513047716,-6.874928858321785
520,-0.9178831329767068,0.2586514651823098,0.13463149159529147,8.781859563491645,-11.822827010396075,-4.881396678969915
530,-0.9020394545491274,0.3441415208237608,0.015251524753112596,10.734457660702393,-14.989248017242154,-9.446295115671342
540,-0.9138434600535218,0.16001552527070415,0.1921659109123676,6.75017156821054,-13.550846864637224,-12.664324829539728
550,-0.8774438369740157,-0.03398878567693417,0.42655333656072,3.459339835875189,-16.88030001898582,-22.232937465060523
560,-0.8655292062049382,0.18604254557526487,0.1846908290104344,11.676162496408516,-5.6002690408753,-11.837920548759614
570,-0.8894123255485605,0.1821119914678681,0.15110110257950377,-1.3433738613784558,-2.325721498750326,-14.19772833545166
580,-0.9350941973235993,0.1150781971465892,0.1767427932539225,2.9619257078896495,-0.5239999276113496,-16.7859219963429
590,-0.9058380387626562,0.1393708552938546,0.17184205319449375,11.128092018701045,4.851090097061949,-15.911235378243953
600,-0.8952817352476518,0.16469200725955405,0.08003677709386822,0.7166572645643655,11.154658854727058,-13.065223367834973
610,-0.932086900621556,0.20731248521788362,0.4276378081926471,5.090186005306585,0.7006157054846577,-7.30125978849063
620,-0.8273133187301768,0.37110717696977047,0.48938905546111977,9.865914183848417,19.81108984391354,9.834797319203345
630,-0.8447131491255182,0.2658346913515932,0.27112271869788745,15.999880457692033,15.5997064861313,13.700402579323846
640,-0.8858806971317866,0.2289611478279245,0.17252471492113425,15.431576185225815,20.83457545177045,25.47528672219722
650,-0.8870532119808886,0.24107595521972341,0.15002313612799625,5.560571700079825,20.96686102176534,22.211566297731707
660,-0.8645559440856574,0.15779926075532258,0.08611741053317556,-0.37592089870947465,7.401751460647581,-2.199912646188847
670,-0.887489758823782,0.03613973364240936,0.24821312565353434,3.5578902510071275,1.4358149215583635,-6.5511077390707015
680,-0.9551087871721636,0.004866945243570734,0.3779754929225213,-18.162340241012334,2.314549522165492,-11.32396424794438
690,-0.8958860814943868,0.1730563167892604,0.2487174728555853,-8.364037744163447,5.572653365916679,-7.722649033691303
700,-0.9037571383880205,0.22714063644868082,0.1400294783964406,-2.587993150932424,9.492382899391659,-3.063527904999779
710,-0.8933618151220448,0.21888044848377636,0.18364811013685664,-2.2939767955026875,5.45893672738796,-3.197548825322351
720,-0.8923547538438619,0.17103413201071607,0.2293208735644637,8.89763197992507,2.5857461238564343,3.2438405022488412
730,-0.9096536111741637,0.19549567146629557,0.19130520213883503,10.759526578547854,4.042123655976141,14.117108815992282
740,-0.9455537549166777,0.1527085002757094,0.18669896480703932,11.005312883866482,5.469008445265619,13.607335078302437
750,-0.9353583420532638,0.10077989677172768,0.259680711435682,10.239097630890255,4.538460719724551,8.80768372213561
760,-0.9408933821880773,0.013147109118436487,0.04139260200909329,26.569826818894597,-4.211227434928622,-4.622696595254582
770,-0.9192382237988314,0.12899391885346173,0.0396860405119912,36.022161542288586,-14.412241023157351,-16.985530078800757
780,-0.9618592927875379,0.2621445739233798,0.3037694916691893,24.78886778102028,-15.188054747670543,-18.780263397723928
790,-0.898480875438486,0.036708253455006945,0.2678035770786516,3.674389356881598,-12.330711358336954,-23.27515717570032
800,-0.8791672233200472,0.27456256510261334,0.22648675519868544,11.398003747119953,2.956901728510897,15.775636838012892
810,-0.854761658512052,0.33628221001007647,0.24260057165663004,9.316931296051584,2.8659904910938483,13.180027559054624
820,-0.9329743869857888,0.24198876075615822,0.17088836827573453,2.666348249453313,-0.5401955774118805,-0.5517816533216343
830,-0.8938327583743729,0.2572538936046634,0.21076893358541654,0.25112163601701987,0.7830973365896988,-7.648886116120859
840,-0.9165086069199838,0.21648781311038695,0.18168689109712055,-1.3583053109852188,0.9297536402078616,-10.81180495367634
850,-0.9173374644768955,0.20404812790533766,0.18345736226276538,-4.140174603582571,-3.2845130513018628,-15.735173449873836
860,-0.8817574894405172,0.24504072872941407,0.2175358340032126,-0.49164641424071087,-0.8140711859706804,-11.165548527335465
870,-0.882533916019531,0.23565831303396473,0.21920539905675568,-1.4693507162859516,1.077574668858647,-3.3194845082669637
880,-0.8709391144647507,0.2235940740523886,0.22777163232762412,-1.5804629037293272,1.648757932753576,2.1248446576151907
890,-0.8851838281674757,0.2081581141078828,0.21019973263021324,-1.477796054627201,-0.13038750887975947,3.7661339593654866
900,-0.9137290836727128,0.21052527632352952,0.1838243451397605,2.5354106543870203,1.2963593811313596,6.781286620053434
910,-0.9198826155253781,0.22942101330329867,0.18484409530752488,2.581987180976143,0.5861065832949091,4.567430126387823
920,-0.8638775637113397,0.24612429427892837,0.23130518218295976,2.440962364422477,2.6577771486121056,3.9702395375835184
930,-0.8605883122436525,0.2602421156054893,0.22797476803269093,-1.823453434825799,-0.8830176908812308,-2.0370100781465554
940,-0.9249545198431114,0.19564353293643588,0.16872723233305797,-2.2390309582134833,-0.5997028945322375,-2.5269504177586146
950,-0.8889166390623947,0.2220405396105541,0.20831973607378798,-0.28561072267142684,1.8059832214161469,0.5409279531588744
960,-0.8867292370783969,0.21514876734467608,0.20523579398822786,-1.238163638979201,0.13311295602260687,0.7395070622700048
970,-0.8698627312822605,0.22906086240007856,0.21522594213840238,1.562505915236615,0.22253972370345138,3.7548923588342866
980,-0.9091100868103088,0.19971023554350736,0.19485715196690906,3.938061570616861,-0.012451866432086484,4.967905291774566
990,-0.8797931597523424,0.2391585305665825,0.22209566449845286,2.3873743330304467,-1.5716551354465111,2.7809952684225565
1000,-0.9117654969545825,0.21374522839837362,0.18578310715867152,4.258268186095201,0.8901417071901769,4.1952425761065575
1010,-0.8818701786764832,0.24231557278996807,0.21341385235614485,1.7674314093259955,1.0954567186421493,1.6306872436966229
1020,-0.891875824283423,0.22217639811716267,0.20422788326548236,-3.3361559520562167,-1.0045389470609076,-3.0835152476576493
1030,-0.8821739800891993,0.2196301931890728,0.21680824094057524,-1.6679361525357836,-0.15500559375453693,-0.8941086847173043
1040,-0.8854434327872578,0.23230906270605364,0.213856551329021,2.4306590233021224,0.6949378240557516,2.340945114405943
1050,-0.8762847167674745,0.24749866637941326,0.21964819132490118,1.1078733542010841,0.7454844377754193,2.0892362911947178
1060,-0.8633453238608613,0.26353203553152776,0.23922047023720575,-1.7708136892105135,-0.12908468044072197,-0.4260507862552064
1070,-0.8777349843368166,0.24793707035371346,0.2238280366947606,-0.18464976241705733,2.6193435858651135,1.0223982622164458
1080,-0.8879192306525898,0.23051408772892198,0.2070440318669243,-4.370983401990109,-1.6603017166442309,-2.534039636738167
1090,-0.9002312934864671,0.20714929880702468,0.19686614052054438,-0.8567784543504188,0.4188455768522502,2.7807239752427835
1100,-0.9041654497499608,0.2051497023773664,0.18942326486263705,3.8859031829262736,0.6022092475266094,4.958565287095208
1110,-0.9049126090364986,0.2184043931543272,0.18959227305490173,8.17113870219094,3.2109969461026857,7.725366346025062
1120,-0.8748568253870622,0.25410555446919003,0.21599607591293768,2.5728729162368555,-0.9597066410771208,1.5768402659458616
1130,-0.8908573076387097,0.24184022391931617,0.19998828647894035,0.9745931226721566,1.0596676511373957,-0.07244344778682621
1140,-0.9099396652562587,0.2230997256264686,0.1851243382373533,-3.265107491473836,-0.1546036616392508,-4.66931087193572
1150,-0.89792956454432,0.2260580230989579,0.20021923059424518,-2.5905906695434586,-0.2817220004276717,-4.840106831843658
1160,-0.8738666566054277,0.23483875162467008,0.22322964385520289,1.1057932926916285,-2.378007532062831,0.05476593095238247
1170,-0.8754301693367064,0.23111056531232582,0.22020424842043218,3.108716807943717,-0.45709348798559674,3.529933018878539
1180,-0.8824906787726923,0.23346846352526301,0.2126077229383725,2.252386736922018,-0.4860275045028777,3.6553626216223662
1190,-0.8689430658863209,0.25413688633625386,0.22749522088513077,6.756455821809478,4.087004219207541,7.782603360882406
1200,-0.9057319600448426,0.21846096400572063,0.19035645460797376,4.923334250225123,3.016814929082381,5.3993612255231245
1210,-0.8961567842960468,0.22750527344714377,0.19683005688289198,1.7709751758597896,2.59331260736153,2.6927556770354455
1220,-0.898376086795784,0.22979143749373568,0.20231321167563224,-0.1847156844816239,0.9445168319673758,-0.24930133453542497
1230,-0.8974878614680726,0.21910399324210983,0.2091796982947104,1.3696540475536636,2.176827436829648,0.5065371654950073
1240,-0.8744660750620191,0.24088876421962369,0.22716797759395957,-1.3467047291996073,-1.5579266007201227,-2.147966326840014
1250,-0.8837944159316722,0.23535071237622565,0.21244702460145315,1.824559687606923,1.7046423935467452,2.5662844555299102
1260,-0.8593032160471044,0.26194811378546834,0.2373499750343846,0.4625088715993816,1.2015921134011096,2.9682988503602927
1270,-0.9015426449119016,0.22029584747645226,0.20004765375699182,1.2676446619016153,2.3341415130972822,4.046130444883682
1280,-0.8810768200517517,0.2558517810190495,0.21879358184079947,0.3404060985975574,0.5839129424181324,1.5391404472947459
1290,-0.9017019605242513,0.2277116369434754,0.19474757091096329,-3.650662366966035,-2.3152584697479246,-3.35610824001116
1300,-0.9054482307234856,0.20749674186735864,0.18980532046853207,-0.11148202639715521,1.5564125372080608,0.5648532328077274
1310,-0.9041070204065287,0.20553036390752166,0.19316009673610787,-1.0436195391822967,-1.4730124935931073,-0.5425182839073854
1320,-0.8802890950843791,0.23606137230910007,0.21948035742697086,4.499356914433353,2.357580594880286,4.774408403547062
1330,-0.8611691573697516,0.25883940286760054,0.2379995235542708,1.2025777237897037,-0.1351017293698562,1.7571091713335312
1340,-0.8909962046434619,0.2223687661639064,0.20293695379442817,1.3192824736603206,-0.054491737396286766,1.1126060658960348
1350,-0.9019389605068081,0.22212058241123472,0.19420197034759573,2.31786725740661,2.5794436230137827,3.076378869145578
1360,-0.8572793992820866,0.2645521826440969,0.23401315233530517,1.07192430501613,3.4456905691946442,2.7837238120376777
1370,-0.8811961258557983,0.24208029459593683,0.20986603483451097,1.1412894184766937,1.9537191981930726,1.6978714884481356
1380,-0.8909534962885769,0.23273950410061228,0.20247114531012014,1.7556738867006676,0.2160084106425051,0.5298949984999162
1390,-0.8939741969404196,0.2254382061991523,0.20022294039275185,0.2469683859352414,-1.058581309859479,-1.4918134836158674
1400,-0.8739515082870627,0.2483965907026409,0.22141097431780202,-2.115553453734224,-1.5056284825082844,-3.131145946549152
1410,-0.8903109188965785,0.22489396717413376,0.21103032582505887,-0.45210284699742753,1.2427169229234256,-0.709333655923587
1420,-0.8767384395540634,0.2369627230190476,0.21840475634273543,-2.5432450842154015,-1.3079667049276806,-2.37093053747939
1430,-0.8715763833666169,0.24505152295525812,0.22517344179694998,1.5840647457602475,2.4354075063609573,2.2359015312809
1440,-0.8943272944392391,0.24260621577651298,0.20301142262467528,-5.149677919944154,-0.3811508476685872,-1.036514247064353
1450,-0.8466311979605372,0.3128399007661184,0.24641009394683,-9.406223029535735,0.2551484476280308,-1.69009373804866
1460,-0.8963282312890122,0.23347072897804744,0.20313912885798932,-3.5866448506770174,-1.486848793078817,-2.8009958209456385
1470,-0.8725276496644782,0.25025411537168185,0.21894272201399115,-1.1181901812342057,1.5346570218136664,-0.18039787127585893
1480,-0.8799647825368835,0.23718007779103517,0.22195084224367642,-0.910682931211126,1.6083638790792716,-0.03042011381150389
1490,-0.9129607518276952,0.20343292198760457,0.18777060166557288,-2.108619754925443,-0.38194546972538695,-1.0881862905562583
1500,-0.8852679393351515,0.23457713741075062,0.21012598221802323,-1.254971860319923,-0.6372504596831448,0.18532585706474425
1510,-0.8930142633041238,0.23010730387273484,0.20195344652004765,1.1214477865132033,0.6722508684104722,2.633663764809955
1520,-0.8599151713662567,0.26057078121911736,0.2366754995666909,0.474918882560599,-0.7333841172343212,0.6403044098346105
1530,-0.8785330959068247,0.24446800750106926,0.2214889453209963,0.7074619464681509,-0.16472148625693855,0.45535876027879973
1540,-0.8823205140880374,0.24773363793921865,0.21547478157678793,0.349484759083505,0.06320396387786556,0.144995506048944
1550,-0.8922452150683153,0.2336086319641756,0.20713963989063972,-0.570703473848126,-0.23863774815368294,-0.6757491032388059
1560,-0.9060934024953691,0.21459802930963645,0.19184639288775784,1.1182207094734116,1.4342248588615496,0.9352799336219063
1570,-0.8791709019240551,0.24143609906534014,0.2143106204224169,0.10985085472350573,-0.15033501307671956,-0.10219621428867842
1580,-0.859602004321665,0.26115030813253926,0.23637473412549564,0.42754013171758737,-0.09779951879003937,0.6648669067398418
1590,-0.8886031431128895,0.23838303508567338,0.2097869338720748,0.4504766185404121,-0.517740676669686,-0.08153245768653823
1600,-0.8945975338046341,0.22566821941248166,0.20235066830300716,1.020087525925343,0.039541275736550405,0.3207176139369892
1610,-0.8808469250213462,0.24309834724454918,0.21625487700237256,0.42439020340464617,0.7393728744383974,0.5234069949731259
1620,-0.8989339252343528,0.22787549587518308,0.19802918147237036,0.010566037738183987,1.5041571247643282,0.7916117623238026
1630,-0.886449879458721,0.2359131418658636,0.2087018774741848,-2.51966319973391,-1.057745008670863,-1.8567688695046367
1640,-0.8819533711273514,0.2343938842842939,0.21086665329439033,2.2201797831190846,2.3514333148710818,2.1100052282665183
1650,-0.8916522835367431,0.22730414544809804,0.20331220296499095,0.10691318552264151,-1.658404917966509,-0.7411122855195819
1660,-0.9232232815812137,0.19360249606590113,0.1698875576138473,2.3300313861225046,0.4955193273610136,1.4518011500496006
1670,-0.875934179788234,0.24875102385367398,0.2163480876293574,1.6907198778315622,1.0860593426452434,0.8692843954501276
1680,-0.8831003103456092,0.2453918392648851,0.2099412768747982,0.11106232123697724,0.6980102285705158,-0.48553866017051517
1690,-0.9091438019782216,0.2145133428195992,0.18481906949145793,-0.6365275053794692,0.6962468801012333,-0.7609528793716325
1700,-0.9013353114341613,0.21705509504282328,0.19274028244131441,0.8373237809186624,2.7992457755235005,1.2901297286540097
1710,-0.909024330023952,0.21384617126126237,0.19138505972826902,0.4997371191240092,2.033439504790714,0.8290664191993115
1720,-0.9180243319907131,0.2009708362095564,0.18186965815544537,2.9116305479457023,3.7425758844905936,3.2247577959297224
1730,-0.9135959043593602,0.20193143202075653,0.1829389294949806,1.2993798737973823,1.1105103145177841,0.9277672654893228
1740,-0.8906325274657141,0.22764235230762425,0.2042054017120501,0.9917609206836795,1.0360956069258176,0.5172327151416124
1750,-0.8847409355123892,0.24151313328415697,0.21292480399584415,1.7744183261098734,3.0084935921586924,1.7376568644355217
1760,-0.9150557847833471,0.21662179928817163,0.18756880869268483,-2.636753434483183,-0.7024552134500973,-2.529335921685977
1770,-0.9150527825714337,0.20472045798736604,0.1776537636397446,-1.7343687821005813,0.7104148268172678,-1.0434469194527778
1780,-0.8683744500480962,0.2504093405674321,0.224732668029337,-2.429130610440565,-1.9241950327123933,-2.671702849544389
1790,-0.8851196852476705,0.23492865880737573,0.20503606362702495,3.8549180235701788,2.8022896630584446,2.398025388842971
1800,-0.8846470017316025,0.2329441364174919,0.20792901639987485,-0.44674463527945374,-1.994106064305153,-2.0891570771276298
1810,-0.8823967173322927,0.23401713924621395,0.21402342655217935,0.1602656621257449,-0.6517152877943795,-0.6528235410948534
1820,-0.8705356974122425,0.2521432814214666,0.22421599746929596,1.9659964411173614,2.569101409376956,2.078683667147373
1830,-0.9043645670144381,0.21858729342267194,0.19793510771763595,-0.7715615367262018,-0.04900812390620102,-0.44576066768170564
1840,-0.8815744154819951,0.23492860471661953,0.20961908982643082,1.2870109863076182,1.9274108659114257,2.1909588752407068
1850,-0.8931193707580415,0.22286823773849931,0.20044317378575066,-0.15599604124999433,-0.12798405407249147,0.46558801117874715
1860,-0.8837781400077415,0.23697500754500261,0.2111899089424684,-0.8682170801648542,-0.7332130611429504,-0.2912992718001638
1870,-0.8874866592706284,0.23480641940858024,0.20745479762465902,-1.4980083143847878,-1.0280903991014254,-0.8512619600394353
1880,-0.8614734857214971,0.2545490476971295,0.236635135374891,1.68964809977429,1.8895807459205796,2.121017929169843
1890,-0.8860015611663462,0.23235065545959263,0.21040940441739048,0.8722774693152859,1.353559724596151,1.8141298174460834
1900,-0.9127376314254694,0.20918744571380804,0.1898042459160843,2.6501420974158405,2.8448292534331516,3.5978043130334685
1910,-0.9015177689085515,0.2198279225285523,0.19451774700171892,2.798499488550836,2.8562020798525616,3.6502674640788206
1920,-0.851005185984698,0.2679607362251137,0.23714296157574885,0.8849270523379751,0.901792325415488,1.7546389828347124
1930,-0.8930259946557753,0.22536972308384906,0.19407774257008378,0.7411568293065479,0.47362247922203227,1.2302093372365293
1940,-0.8593793350427655,0.2602693752714245,0.2337838900242261,0.8672286264770017,-0.05234299421610272,0.3037810814102194
1950,-0.8957617907690936,0.21823365890681432,0.19855511568777046,2.0793954311033165,0.7763927236828091,0.8518515749566055
