time_ms,ax,ay,az,gx,gy,gz
0,-0.8209518775310263,0.19325361677771216,0.3678865695346931,-3.758343427955207,0.017181777877560866,-2.2776160116616255
10,-0.8086256685673125,0.20331485660339474,0.3783417698903359,1.8201681053677252,1.7904076198058139,1.7531987994459852
20,-0.7951402032004194,0.22172439805081773,0.3916595172318781,2.2480732057942028,0.12758576016645362,1.4870817961100107
30,-0.8051082259934317,0.207307679904821,0.37660613400314263,2.2729040487717627,0.30924667495973385,-0.18016619432054964
40,-0.8110586564555308,0.2059330276473903,0.37163783541133955,-0.4967310093794517,0.9576682143844685,-0.10825434488920216
50,-0.8165335036738556,0.19485711848972465,0.37525738768457795,0.6157242031942969,1.9395783301367822,1.6162701108494906
60,-0.7991580324115617,0.2182332686420303,0.39177181494169744,-0.09697337128416295,0.2778391475824826,0.9691647034054891
70,-0.8352448837165365,0.1861156635619849,0.3572924712732245,0.5947556538700961,1.48301303813913,1.4463145464967253
80,-0.8107630469529402,0.1940594296162615,0.3710136127613822,-0.36055478798859514,-0.021957171834735112,-0.4082509750853277
90,-0.8152079927105134,0.1987000306395291,0.3674747226625994,-1.3077395135467322,-1.0150133474972423,-0.8868478080424507
100,-0.8195980852101795,0.20036610415633777,0.3705289510640911,-0.585275671536413,0.7777677961949091,0.07718781686709802
110,-0.8091774226685409,0.2082502076396668,0.3763035377497395,-5.683649702195897,-4.032896672335681,-5.153920820796301
120,-0.8064247966588534,0.19617457228550872,0.38669848525740474,-3.3329007996891584,-0.32786729780352164,-0.2805384646894187
130,-0.8548100499986353,0.1016697259052192,0.36880553835527585,-12.575355513142298,0.7711181940575614,3.48641384656623
140,-0.89456643220762,0.18541797676354463,0.4304368829249952,9.901447598665548,-4.975840852055365,16.7003881319821
150,-0.8761178767786341,0.06307841978681851,0.43382793637286376,-0.007505607572035888,-13.141063197040378,19.268917967701974
160,-0.7848182110557134,0.18722683011047406,0.3400117179265658,10.969013074212574,-17.55530916364109,13.567709841220239
170,-0.7192584388799971,0.2848007292089477,0.32310758178641563,2.3041619420720956,-8.754413472133383,17.226164588942375
180,-0.7277113818423493,0.3005864983826051,0.35379469506048594,-11.960831770704516,1.090069130883897,16.045644853226694
190,-0.7781786935383597,0.31142611938375075,0.3620815181418777,-27.212053479297257,3.1143127438897165,10.365017772093777
200,-0.7962655112794313,0.30715259219094504,0.3348851313039769,-29.432999794630387,8.87183257780692,9.962650699138745
210,-0.7882100484162027,0.2831165789464418,0.3954944622103456,-26.576588854384422,11.005364730266544,11.068763517240928
220,-0.8380163757093883,0.1467641312968097,0.37888658591868085,-31.21893499207779,9.314565288179656,1.1411835176211245
230,-0.7905115892009724,0.15053817041353812,0.4361574807990538,-23.361065177603994,7.626518724137176,-1.1229994849169653
240,-0.8195895094594083,0.07104337553871148,0.36741179766468446,-13.406307837426068,6.837928202794157,-1.9308445683128705
250,-0.7664698173025308,0.19958148306831344,0.39054900529470166,1.4656884263924372,8.814399109285864,2.112574339093162
260,-0.7185773430124409,0.2458341541534653,0.37310035462917535,0.7944085650247266,13.97834403673744,5.686731483746568
270,-0.7890133714832891,0.2259740660160224,0.4148834498301914,-5.210108527922079,2.754426554871135,-3.0605673694958417
280,-0.7886987618607774,0.19848322099776292,0.3859741278758267,0.9415143365957881,-2.7416131678425226,-1.6101052180646027
290,-0.7799125829650605,0.21414894868472534,0.4507722623272157,5.06078921904073,-6.1847736557210755,-2.3521025378183906
300,-0.7817810115678284,0.25819873928681014,0.4071878788791137,-3.3190273102660086,-5.932349063292998,-2.5327529130323247
310,-0.8189430521694756,0.15391930600615206,0.4281699420660416,9.298577770729468,1.6899088728781506,6.367382311667952
320,-0.7707660342273784,0.1682938884533399,0.2701600591645558,35.58988118319967,-12.687895444849554,-1.90687307663342
330,-0.813521192847117,0.21941930611734697,0.33161952726117905,24.304632572229483,-11.203924706454009,-18.49866685042834
340,-0.8030535608158988,0.3271189078397307,0.275562569856624,39.41256985392801,-6.962438078689598,-8.065245683225447
350,-0.8390277846559193,0.39770210835166,0.28220193730262727,17.460585841496567,3.455885843322913,-4.5097010691933646
360,-0.8044815458653995,0.295605166436254,0.4232108619329591,-16.314166868285042,10.916330019144759,-18.51406614449281
370,-0.8051811804184248,0.36077593310633815,0.3162179212617791,-10.011129586499582,30.832116234575025,17.528713001993275
380,-0.7620134462951597,0.1813784429068454,0.27639871099468805,-17.083236149187638,21.48056136206011,19.429273735049545
390,-0.8224364833402958,0.23378986547276143,0.21799943234660576,-28.186939281396896,33.267114960768055,29.1462693206442
400,-0.7588521986435117,0.18019324968680725,0.529996663445465,-18.04221558021002,28.396267398064197,16.67393757339367
410,-0.8010122053297725,0.2363198546843694,0.3213800977774573,7.407050886615454,11.299991331820543,6.192740883443381
420,-0.7878873156805825,0.1628297798625477,0.3961066607061725,52.21009526733935,6.810723376430357,26.91658715858296
430,-0.8360276141880174,-0.16046228577702903,0.5286097202119916,54.32060581839444,-4.9610312163410395,19.11701405500579
440,-0.8127254747159675,-0.09166124186127877,0.4052912954412409,51.09255008086673,-9.026147603161762,-1.1471564514287875
450,-0.7838175535074138,0.09451564049848893,0.4282541860315281,67.10492647240801,-15.29684109880177,-13.771204045878642
460,-0.7900686273113988,0.37683825019266726,0.36962856382258447,27.224812047495142,-5.4589428010388055,-2.5711954623465343
470,-0.8259874303886517,0.2706043939927946,0.32940942596188705,-6.781602915866008,-2.7709904107160077,-8.339301532326992
480,-0.8130516308418151,0.23532783537046587,0.3526576003898812,1.4196735732297516,-3.2451836892668173,-7.058609755379894
490,-0.7976250358506893,0.2538912886599977,0.3721433140146655,9.393214914035172,-1.5221093379862096,-2.0822818726470973
500,-0.8129938435872832,0.24755652871998896,0.34818626211339393,8.39001736633206,-0.6395839700478161,0.08282427502414651
510,-0.825302758945519,0.2198741689691582,0.3499238127703132,-0.23837522418697,-2.0477359156269026,-0.2495172907389463
520,-0.7908431009222995,0.25509077698368665,0.3704517777249241,5.218333030064071,-1.5943919389605665,0.7093378680227819
530,-0.8247576283282864,0.24792677219286383,0.33938087736022904,2.9870467377311285,1.3587773112877208,0.1381957979106152
540,-0.8557563492840773,0.20272530161009794,0.3080449347955801,-2.6397671748038563,-1.9165538294344944,-4.5934072104005645
550,-0.8011488743304876,0.2621076544456385,0.353885883083634,-5.235278000340562,-1.1556986785692265,-4.797024044038217
560,-0.8224898325466586,0.22608514058068918,0.3404862740485708,-2.4685150366802624,-0.73638363346256,-1.6695626800328012
570,-0.8043992085854015,0.25090303270321024,0.3618600467295975,0.5344064351631503,1.1948349024315017,0.8293926746959552
580,-0.8062583083847689,0.24343188508445412,0.3479837391636482,1.50368083265552,1.587232620531631,2.798393683028299
590,-0.8210239139491454,0.22475546912375644,0.3442960968427803,-1.591945781954493,-1.0954147725736902,0.9372029056201034
600,-0.8332401695263673,0.21542337982508059,0.3335818201315947,-0.34363284145397177,0.4347320163414796,1.433535089274631
610,-0.8139521471564254,0.2476560818770057,0.35552380456677435,-2.337395544610879,0.58556365956214,-2.187003354692145
620,-0.8219092310689187,0.22897898785617013,0.34217751109131794,-1.9053973530532744,1.218657821375947,-1.6515864892162337
630,-0.8002783049252451,0.24020350548760794,0.3637471682642525,-7.547357561875316,-1.4225475285914593,-2.016206100338211
640,-0.8264297213514392,0.20931357665346256,0.340519740418864,-6.843337146785648,-1.390202804356849,1.4002714959086477
650,-0.8392719441898066,0.20777872967844432,0.3300175002422137,-2.697957850257534,-0.2485019538664,-0.49487384328834966
660,-0.7979726396836921,0.25352607079203987,0.3674446558745076,-4.480327469126638,-2.7269422399061813,-6.714385370497674
670,-0.8182197314071633,0.22759375986230934,0.34602449709484356,-2.5808362423270683,-0.12283158429522023,-3.2684876511782877
680,-0.8052336496719497,0.22854441006076218,0.35711450439833486,-3.49475666750066,-1.9575837263018079,-2.2915962253486315
690,-0.8013086388958485,0.23874664124686704,0.35790244635400237,1.2426133510115227,-0.1422806224334317,2.6246039173439915
700,-0.8021104720803826,0.24437144997163207,0.3586066891348032,-2.644836820930592,1.5173962141443957,-0.870863340173389
710,-0.8003867028663355,0.23263788076530478,0.3685896608265561,-5.343534590119118,-0.6928561440270773,-3.3598956040123076
720,-0.8402722313483191,0.20442109216402607,0.3263081123882143,-1.7541328457299943,-0.5710796093932675,-0.2678496068030741
730,-0.8113837371750918,0.23390842249455343,0.350488720113473,0.3765855510194304,0.235342646953856,2.5304967408185077
740,-0.8215690070001855,0.22618846784237193,0.3488809659164751,0.13616978947695943,0.6275151928074453,2.140724536663908
750,-0.7905519977292863,0.25524192880132357,0.37677126537977024,-1.4447680990417915,0.6324358616819181,-1.2793948800059716
760,-0.8294100805942786,0.2412836444704077,0.33758316482355044,-1.6123517068142443,-0.25682670382021155,-3.695672866561035
770,-0.7994630573216616,0.2580041549138989,0.3663669345135582,-6.797341471513837,-1.5870354797851087,-9.359971413597401
780,-0.8468063843840512,0.18586371415051736,0.31859076220379934,-5.941294285365149,-1.605672043741831,-8.684676245950781
790,-0.8153783623442246,0.2429729435631323,0.348010815030733,0.6557814780821543,0.7937321732098517,-2.3712822021092794
800,-0.8275371905513917,0.2183488881998633,0.3337122191947053,0.3896166679589028,0.4607753749178607,2.9159467664937937
810,-0.7850364580246874,0.2645943678521152,0.38751660982942754,-4.059538005772508,-0.7647268457764496,-0.6964782342595969
820,-0.8375774770623088,0.20488451814883468,0.3275930911087121,-6.018734378964145,-1.5799273559178901,-2.9395746379797747
830,-0.8042378361554238,0.23920568945371473,0.36759507283237186,-2.212129460330015,-0.02810193437719499,-0.8035664479414102
840,-0.8373770622508055,0.2041623247340566,0.332301212212641,-1.4525717435535095,-1.1855264127306226,-0.9042129330800781
850,-0.8295649715383222,0.21019697945971416,0.34454965165612106,1.9074899325162762,0.014551654581115972,1.0828867386401417
860,-0.8171191456415358,0.22260772110508772,0.35670216088092044,3.74006477173178,1.1045917391147557,1.1253537849113302
870,-0.8081547487721094,0.24717134000687782,0.3690569894134485,-1.2813537877887793,0.6042428539424671,-1.8245761374554008
880,-0.8270524020747249,0.21732643991372835,0.3462008095288972,-3.5215148357414696,-1.0919876867285452,-3.1901146316788553
890,-0.8189856471727626,0.2156406664515687,0.3500990870081328,2.992635776633073,1.974805015328422,3.3289483453010607
900,-0.8221461457387351,0.22319760210362197,0.3523259294347809,0.9753850885264255,-0.45240912961369606,2.233879375791801
910,-0.831963637330233,0.22266578122953493,0.3343466087911684,0.2170648092456815,0.808841743213838,0.630167911783408
920,-0.8110211402615337,0.24010395419733593,0.36209754126206656,-6.595233071489526,-3.5435809672079452,-5.321708906205383
930,-0.798524355903964,0.23632899065181193,0.37340692704889406,-5.050415925201201,-0.4125636967787689,-2.1761438739238645
940,-0.8215460625607409,0.2146110882211667,0.3464939651823874,-0.10636521238273777,-0.7785143438313401,1.6425893075141427
950,-0.8064628698604819,0.23821320153263006,0.3589281041665211,4.639721907800336,1.9130323247048064,3.5306328816477253
960,-0.7854692482367321,0.2555105769646973,0.38182846924584835,0.021072009173591935,-0.20622771185440733,-0.8553166104216313
970,-0.8355678858119043,0.20366638712403104,0.3303719838783085,-2.495172668965882,-1.6023769642954393,-3.0716282733903206
980,-0.8207740534834976,0.21763151756640584,0.34994377456841314,-1.5778216562293739,0.22023419709455969,-0.8181419772746006
990,-0.8249852469451934,0.2173046918407873,0.3469780864773389,-2.2548651844753413,-0.6285335194377342,-1.0257684983945066
1000,-0.8232749365818065,0.2133520215145945,0.3479067081466663,-0.2140315427252567,0.5521785213803297,0.318782023161092
1010,-0.8072781570152902,0.23646485802590403,0.359216241316045,0.706893747306254,-0.9473128953028168,-0.9655035963838866
1020,-0.7945085157911469,0.2523209720546489,0.3714390257486954,1.5993074227248576,1.9679277674195925,0.9877605012888548
1030,-0.7936306914331012,0.2476892692866446,0.3758091705213349,-0.11215418207246253,1.4759663339492881,0.5577343343168821
1040,-0.8320484467237509,0.20695558760499302,0.33904827555231454,-2.070636040194734,-0.6160451439342818,-0.7951957413143598
1050,-0.8216088006376021,0.21885253897791554,0.3484390335020829,-3.2744596401635553,-2.631089751324882,-3.062263620648439
1060,-0.8187974129292872,0.2212558889281668,0.34799571614792063,-1.2444926414120474,-0.25006474052291233,-2.0315632882254193
1070,-0.8147334507147745,0.22717133133341239,0.3541578250779011,-0.44815888304745105,-0.31980342120626143,-2.1379704481072848
1080,-0.843041837445862,0.19332697869121743,0.32882757264542983,-0.08161759344342961,0.42137383693370767,-0.06702830623700912
1090,-0.8045065099403793,0.22991548350215774,0.36260659451772564,1.1212671108316743,0.5752823640700049,1.2733546368710857
1100,-0.8138159859843804,0.22927626064597684,0.35593234066935014,-1.6090800293055403,0.8016258074596213,-0.16372952482235337
1110,-0.81591674114997,0.2201779859477585,0.3594677817821757,-4.263564728162985,-1.644444173323924,-2.609932314610561
1120,-0.8109118273888726,0.21750644860894738,0.3494992776478775,-1.025628653436888,-1.4755790586236572,-0.4448509083628225
1130,-0.8131825461853446,0.21849043320067207,0.355260448592954,2.8372842715384894,-2.0075569440834213,0.1521348594727434
1140,-0.7921337415099273,0.2574794226685914,0.3751072566955528,2.131261084455441,0.6525580376112243,-1.2515921395926455
1150,-0.8178899552979133,0.22143569650375985,0.35184924541162615,-1.8965814668963996,-0.5851286379080364,-4.740032661346347
1160,-0.8212842525929105,0.20357869189057068,0.35024825407895377,-1.6149419923457788,-1.3164275267198453,-3.178760424638291
1170,-0.8520204782964277,0.17744299134232927,0.317681698125287,1.8854901487861528,1.2064187829137485,2.3101146771508168
1180,-0.8205342284900049,0.22285906406048253,0.35074673793835376,-1.576187876589438,-0.40632068665882437,-0.676589238861126
1190,-0.7969108653962141,0.2398365842014944,0.3711451474039899,-1.7627577440573927,0.7728071147480573,-1.0154769947082969
1200,-0.8398925240212687,0.1869718131831331,0.3313440383115304,0.9698547341182755,2.3510549495922435,0.9133057462465735
1210,-0.8006970081355776,0.23503795144397369,0.3793970845434266,1.842675509340228,1.785871490708919,1.7557806345619404
1220,-0.8157762847500156,0.21907729039195337,0.3586251964699834,0.1798831021812631,0.24819001964026066,0.9150400125237366
1230,-0.8040914642855094,0.23382827971280137,0.370363042268619,0.022082194916518805,0.37865328012754873,1.0443708665822293
1240,-0.8218185684993422,0.2154077203276759,0.3464613015961315,-3.0182654072362127,-3.017506686264271,-2.794466917303334
1250,-0.8131701623703951,0.23398759729002833,0.3684567264336868,1.5919531584904945,-0.24162061980135657,-0.4418117095196156
