time_ms,ax,ay,az,gx,gy,gz
0,-0.778335423732114,0.2175528382946929,0.507718244786899,-3.3896197249429636,-1.1288223789771583,-2.6763380900103906
10,-0.7613652550105301,0.22619657506827087,0.5158776740743525,-0.7027527011975546,0.42534632892904173,-1.052924675025873
20,-0.755287051602697,0.24133000803505966,0.5288212054837801,-1.5765790704404639,-1.304516620093266,-1.388995327442213
30,-0.7834675487550607,0.21621051641272407,0.4987131239127421,-1.1001907446612489,-0.28828649791128913,-0.49221441262221216
40,-0.8158884386681766,0.1814108502855722,0.4656038806714824,-1.6432611191011033,0.14902025885842057,-0.4256066131874793
50,-0.7830200908819543,0.2105674596938442,0.49924338491001097,-3.261218999885899,-1.3214635800378898,-2.172557952451638
60,-0.7972343663225692,0.19455872505430494,0.48801105413360246,-3.7572102356853057,-2.8702973247770687,-3.0398376886763216
70,-0.8059937019569914,0.18607484669491997,0.4785690509879558,0.2640838237718311,-0.13188863423981545,0.9992501849376746
80,-0.77579313434117,0.21959564249846328,0.5047978794652018,1.7371020696882056,1.1692624590969727,2.176703606742084
90,-0.7869048207741358,0.2138988712122958,0.49595363321769537,-2.2433938393206585,-1.6321855331070594,-2.6580426930878485
100,-0.7930836465702812,0.2032546509302705,0.4893971789951293,-4.165939228626956,-2.4540049053660886,-4.471829145969831
110,-0.7595115527367359,0.22262116949817404,0.5240780062165242,-2.4736379539031854,-1.9127010887206721,-4.132394512696703
120,-0.7774046672479897,0.21246973121493348,0.5007822148226475,-0.7805431539864538,-0.5682429046970119,-1.6804493842662502
130,-0.7793678111627136,0.2123719813310505,0.49922526815326607,1.7744036815755828,1.5827648776362233,0.8655265955681095
140,-0.7999329537564992,0.1993151188509413,0.49268674762641823,-0.21053752592892772,-1.283248438386244,-1.6213997404143092
150,-0.8186052954671722,0.1689749789463601,0.5699481643368297,2.4454254101533186,-8.162330931711608,-5.660227140794068
160,-0.9017911870418172,0.21486616187026703,0.5691161525314221,-0.6990283116740865,-17.44265560583042,-12.193278151655564
170,-0.9415361154607642,0.34757509241517137,0.646940078690891,-2.605766297342874,-26.25452210137103,-2.7228620820779366
180,-0.9131471498148022,0.307953322305189,0.6389065452771823,-3.0789495177115747,-33.565403980924685,12.061544631528346
190,-0.7933056372806748,0.2757228192726078,0.5929494612078828,-8.202868735621738,-40.67971625050687,15.835192629992646
200,-0.7262104198730646,0.35303226231810864,0.5808033494017975,-17.245905766492914,-46.33010980496442,14.868514855425762
210,-0.646504917735201,0.3388364580452257,0.5558637812471015,-22.757016843317917,-41.49191749612974,24.52301697181681
220,-0.4600806596149352,0.35810373400317885,0.5179643620125501,-40.45674503011107,-38.107177800608675,30.71001568453806
230,-0.4664731787127269,0.37551673018113035,0.43709168182346286,-45.60441359464982,-27.599278206290037,37.76770258476347
240,-0.4303379441874247,0.32726251707680915,0.556230770650671,-55.716000711786066,-23.040297649081356,33.78182525119777
250,-0.5153216937478977,0.32512838270809197,0.49749217891033437,-57.89123691341724,-15.719692764613844,30.146308307517913
260,-0.6197249883037583,0.3359976857577803,0.4239760376009711,-72.2839981114481,-6.43891038345962,28.154514965656826
270,-0.7071491606739602,0.2340688128212136,0.42536661016213145,-81.88930340818386,0.43899621947754897,26.39060029042556
280,-0.791075342859754,0.08470684550133128,0.6874227099498181,-107.45782243264483,-5.150775332188067,7.238099942669188
290,-0.8742769355628522,-0.14716477558873742,0.8020617821672454,-125.47449715722779,-21.336365496038777,-16.004804835689946
300,-0.8514604549113329,-0.26578762212165946,0.814561139491901,-96.26647537641203,-33.48954709319604,-25.88285281369447
310,-0.8540112731913456,-0.3851457079195524,0.7276155096584335,-40.88798925428972,-43.59231679251122,-35.19020797580677
320,-0.8253314942100645,-0.4195230302592161,0.5977243259329693,8.127634190512527,-44.03804264916704,-43.901065279606506
330,-0.8801427677083153,-0.29396325553337965,0.4611987611701192,39.62355179720856,-39.336854014269385,-54.64258137920308
340,-0.7652215293451924,-0.2665566891164077,0.4897490771885028,59.66828304610253,-27.440921873953535,-59.55507608386389
350,-0.6786392504225838,0.2998802980829581,0.8649967083753569,115.33717096099105,1.2755180295769315,-44.585340042451314
360,-0.9739457292438435,0.8194754588546594,0.3931074786394058,90.2686067175573,21.84811889646421,-34.23716631288608
370,-0.8707139950712487,0.40825968499307774,-0.47079101747148017,84.95816311743229,48.97066679263909,-17.23153188386251
380,-0.8517984571338589,0.25593708518893754,-0.2366442668203333,69.47470403892783,46.9120329123669,-18.57037715525039
390,-1.001358246592582,0.4394049151125644,0.10919478747835867,76.13797737799474,63.581580206276314,1.1955093701569615
400,-0.9166112616669466,0.4807628501925161,0.34800003191139744,21.755470059436114,81.5444643829423,29.939006103770836
410,-0.7642174971397558,0.3251278792359342,1.013962557305163,-41.99090210049793,83.13128749741314,58.95336555185773
420,-0.6834759012274488,0.3540860245703337,0.9192241281955246,-60.68170544109265,72.07451736135579,73.39074005561197
430,-0.5297850063037802,0.2895977915802433,0.3871139093320709,-50.67223596217913,58.77140163059192,74.23792097167971
440,-0.3942096306499106,-0.3365996930150494,1.5628900863230994,-46.7687579626507,46.1571517149047,71.42294978827313
450,-0.8950166392132747,-0.7901814569135159,1.8145906275245962,-71.34322946916923,32.447847619395546,34.43920571894175
460,-0.8859637839857708,-0.37750686646355164,0.3868196622835321,-26.91254024028345,20.93236633112898,-6.4524136966239505
470,-0.8020800114964818,-0.08924794464336579,0.59612306829178,-2.1466683099368637,21.002756251036505,-14.673958703321684
480,-0.9449090962825135,-0.5587584044331864,0.4521153254546575,63.798321769607114,6.467643510064247,-46.58610349417469
490,-1.0225033311421046,0.037216978972559905,0.1610915107533043,79.16160321633852,-1.6324330543584047,-61.65631821225191
500,-0.8873113508390821,-0.14477055905836198,1.0699686577933092,83.67903579805407,-13.061154829214159,-76.54580339143963
510,-0.5345965157134148,-0.19400863371334437,1.183852568342727,91.03301982870686,-21.944605794582053,-69.53407783544309
520,-0.6588043337616311,0.3428426288318138,0.5192860572285302,76.81656705899509,-15.228391704935657,-49.3064546336336
530,-0.7263672857263294,0.4870078313146378,0.20288368220493594,46.68542814725224,-5.972259503652081,-25.665593374428898
540,-0.6494645335080795,0.2585601512452189,0.33973391083605065,28.89510486615702,1.2941695269589115,7.390143877459217
550,-0.7526491994733822,0.39814063761177576,0.4785161255137185,22.01991915760377,7.331313083004951,27.08062222769382
560,-0.7779458829393916,0.3204291506292419,0.5224972789734409,6.261364084220028,4.384771300613674,2.5650734453741197
570,-0.7908355760550643,0.2727101684543386,0.47643759847550354,-11.012131706035454,-3.151544782109518,-19.76563593431742
580,-0.7841873103766631,0.24930979923776606,0.4924141807413041,-12.05905410264578,-1.6853127465876148,-25.860233273401196
590,-0.7886054842355944,0.23157347553471286,0.483331246770021,-19.334043775073425,-6.058589177059452,-33.984826429147994
600,-0.7906559851234384,0.2009184464443703,0.47752403896739104,-16.02573538976747,-2.2308647387104816,-27.8320717418218
610,-0.7992196501516704,0.1578499811506488,0.4845994154387916,-0.8907961365696581,-0.2530061196445198,-1.5535189226360786
620,-0.8030442588526198,0.16143747297599723,0.48202727610899176,7.9873987886388305,1.4399854652801234,10.641343344945994
630,-0.7822889986225724,0.20916901408212477,0.5019218422854063,8.222565781473477,1.5963568157388113,12.832799040219827
640,-0.769143959677135,0.23214738183053393,0.52146026863567,4.673534982436979,0.7006735983119772,10.702982300782688
650,-0.77973280692949,0.21758442128253458,0.512023198583557,4.416862049101461,3.123572277024409,10.697692938531405
660,-0.79133223625382,0.20462098470038384,0.49056950010892353,0.3178406621976173,0.9207067723998053,5.826287391514437
670,-0.7916248301927222,0.20355059640023124,0.4858606209433926,0.6269189132709528,1.695574550398101,3.1836948587555476
680,-0.7931452777582029,0.1963485412748321,0.49287965572818837,1.453801446701953,1.5764131246956101,-0.00548429424596697
690,-0.7746478569403851,0.2085620267574135,0.5062137078460939,2.0595575866686198,2.6412546212035104,1.9468419431551685
700,-0.7791493759164212,0.2056339678933781,0.5037536413376139,1.2211179412268955,2.2413620719892413,2.6985455234555857
710,-0.7881156798056925,0.20161863495780574,0.49874582216457375,-1.758715980230377,-1.2444590753532583,1.0697189100873477
720,-0.787998571930663,0.19034194139471158,0.49717008912439103,1.5313357252383142,-0.789713027318484,2.6588182880871143
730,-0.7897947418813537,0.20462743693602609,0.48778310915004164,6.912248603271134,2.1717772597490397,7.100420731966405
740,-0.7708993322184118,0.22798473285552648,0.5108114483273436,4.519725073808279,3.213812748293325,5.833461481014446
750,-0.7765782056973808,0.22032062550995504,0.5042848032645959,-1.4516023346391451,5.531435146866048e-05,1.1722382672470832
760,-0.7548270610870408,0.23602307448809326,0.5252323342787725,-2.0212188985029664,-1.342953104168568,0.07090763009704193
770,-0.7722135297104886,0.21791796474133138,0.5029707369026614,-0.18873271737314834,-1.697031973128707,0.4791036880901145
780,-0.7698661677751258,0.22956606724868295,0.5012979563780189,3.248176288139014,1.4872108446641195,3.896567960990126
790,-0.8066697330170889,0.19959080424495226,0.47649693906151136,-1.7332774140981095,-1.4783915072364255,-0.2541338416806449
800,-0.7875477036092526,0.217141411534861,0.4979739024762004,-1.2800628065320683,-0.3133584039884547,-0.4061625899594168
810,-0.8040056248240895,0.19065337697794038,0.4747515702494809,-2.585766796117389,0.1301750993530869,0.4742061449514385
820,-0.7893618492189727,0.20617204215890822,0.4963392725274658,-1.584062846335136,-0.8809313802689357,-0.4341428170036665
830,-0.7858875932521574,0.21750046904567774,0.48670543704982067,2.1503278096721803,1.5566712933454476,2.128397455648678
840,-0.831018946672645,0.17348455179639474,0.45129693528415527,-2.8617669643474897,-3.006937101604356,-2.85929614116651
850,-0.8174269753615329,0.18062865348291318,0.47055862587635183,-0.7973613823325424,-0.23590292458005185,-1.055079673710614
860,-0.7802411219357629,0.2184418032444196,0.5070729169346504,-1.6596782930486542,-0.633696459784517,-1.6413655723548053
870,-0.7703629272849272,0.22825284720036737,0.5104416601156143,3.9444698086601426,4.7491278533043495,4.5773818043085415
880,-0.8081197841680392,0.1902009643529473,0.4700002526132435,1.3985673365839733,1.5889364513694098,2.241616809922906
890,-0.8180449396322849,0.18316085992613662,0.458873034208583,0.7697106858643588,0.6077703389038096,1.180077253465644
900,-0.7593787005204219,0.2439787591445134,0.5159313187655244,-0.8542561578552353,-0.7904744746948072,-0.8675729719952214
910,-0.7619952183854715,0.2395818098122517,0.5203796315646644,-0.9348589197364773,-0.04570044467622242,-0.5986351361580248
920,-0.7831069940435496,0.21663683395451092,0.5020152339901871,-4.5769283796451266,-2.3630134779120415,-3.5391180607920845
930,-0.7809839505290361,0.21460996205564442,0.5094311775363847,-2.0585715298602634,0.3116186471466887,-1.0407824330628626
940,-0.8150439983364954,0.1653449250965343,0.4726123982631478,-0.9252782587307644,-0.022104337778895228,-0.16148847614633516
950,-0.7723445686515852,0.2186074803496969,0.5099208796555794,1.215068223164809,0.4805903216895178,1.5192624433378996
960,-0.8035661188549574,0.20573067445094176,0.47709351795121047,0.3723946843010856,-0.5106333054955177,-0.6009749822198
970,-0.7982609576957269,0.2089112071993926,0.4794732863537052,-2.5618981814340716,-1.6975217853245574,-2.7756117593004683
980,-0.7887867050994886,0.20738695185750075,0.4914429709650065,-0.8366741889747269,1.72354090378533,0.17208752353472567
990,-0.7565272752875514,0.23431870294679566,0.5246171063743769,-1.357891680563554,1.713105336954182,0.28382154345756305
1000,-0.7696274488825929,0.2265584295968079,0.5121717016538592,-2.2740011349578153,-0.4628341780228175,-1.0108524303387123
1010,-0.7620874196778945,0.23672759640546626,0.5188441503561438,0.7775845333151422,1.6733686599091808,1.915795602841343
1020,-0.801261243160849,0.190371883796805,0.4763023593309078,-2.622745906320098,-0.8740665625379549,-0.7020021399808557
1030,-0.7530034318609802,0.2390100380301521,0.5301285488684128,-2.795200463905042,-1.233272345929405,-1.1123521331001593
1040,-0.7626048270456137,0.23125018861238605,0.5241953721849675,2.1085392043705413,3.1736066407412746,3.518290863782308
1050,-0.7895493659627716,0.1996980871066695,0.4878995451118316,0.725811840625764,0.5822586209203847,1.373630381969099
1060,-0.7830662266192592,0.20697921293704608,0.49769649454915227,0.30767212775182695,-0.41617175969675685,0.6612377520194261
1070,-0.7894872997236202,0.20555411386251263,0.4882897002315475,-1.9328410428719716,-1.0386829384913003,-1.0578012895912614
1080,-0.7522936463387718,0.24335318284399474,0.5252457498237704,-0.8659601116537439,0.9986589531163406,-0.16379036709786865
1090,-0.7783765234348363,0.21596390884869732,0.5043726900106009,-1.8944038336439721,-0.2589357743618183,-2.281795632194718
1100,-0.7799257666687206,0.21288249617848154,0.5043499623104661,0.6224283481517345,2.055049144501172,-0.033626628820407456
1110,-0.802051306854869,0.19064262506616378,0.4780467562241795,-4.20590859431941,-3.1318135277349293,-4.173321138046504
1120,-0.7973642908310854,0.1934294482667267,0.4803670013028472,-0.7347487262666398,-0.36098188997530795,-0.010259724119883885
1130,-0.7411600990178919,0.25154539935065207,0.5369793854532706,-0.6443798282802701,-0.420719777364808,-0.07639429067910236
1140,-0.7857121706351128,0.2157279821139208,0.4925548149447643,2.9351078565428974,4.289823011672186,3.0091132902480835
1150,-0.7958619665577549,0.20131694596829033,0.4873107829503287,-3.2384101994209056,-0.8404653395483864,-2.7050281102440463
1160,-0.8000113941072491,0.1924660556273953,0.4782704461042403,-2.058313204313448,-1.535891109718576,-2.4956815283191593
1170,-0.7939216407504207,0.19671830251431455,0.4921707983430622,-3.8893955692442748,-3.8314538677593846,-3.7665140742376906
