time_ms,ax,ay,az,gx,gy,gz
0,-0.6671168188087372,0.16521537898724498,0.4339360126641811,0.04998872940122068,2.8013478236262497,1.749846846692833
10,-0.6711052421143906,0.16073588524210067,0.43292735718836944,-3.9025978085986335,-1.5325210689912732,-2.8013466052757803
20,-0.6596173653287943,0.16716545894542667,0.43366987198146423,-2.486185714050894,-1.1008634969536073,-2.168882028680681
30,-0.6581666982793505,0.16975900729622792,0.4383803022261303,2.0607404762052197,2.293171217041137,2.193365269851816
40,-0.6438060868893555,0.18103414235462878,0.45672863723661833,0.7702896338711126,1.4151580808626858,2.0231175659593
50,-0.669469182794764,0.15902301833659474,0.42823703606345814,-0.8529727653546537,0.07350347583042394,-0.17295010774214442
60,-0.6562078828836247,0.17535186846111134,0.4432495560489453,1.687089748393665,2.1832967245433874,1.6655424808842083
70,-0.6572116726571184,0.17321217854684648,0.44115846151081944,-0.11948163389273506,0.9172021975779246,0.28268190463554277
80,-0.6819981862342062,0.14766896212237143,0.4188472424967792,0.16815673514578666,1.9699286421903628,1.387851945539758
90,-0.66539570716358,0.16225455327194294,0.43597610811206355,0.7205243131887484,0.7756575196006077,0.11700054296274892
100,-0.6445722797225674,0.18355916790798407,0.45575044420328903,2.402452520901866,0.2883048835654264,0.664011639175614
110,-0.6602049538608634,0.17078963348485143,0.4427574875104503,-1.6282291776891495,-3.4986005567302985,-1.714669325896334
120,-0.669711770261358,0.16098259728771838,0.43095127391779703,-1.8987192693445962,-2.1982767057106827,-1.3867825693796227
130,-0.6740407134401332,0.15971037138663005,0.4215876191869874,-2.9306264064874687,-0.9116932549343015,-1.494619650798306
140,-0.6616290011149409,0.17056485826456605,0.4331888063395539,-4.134063246428907,-0.9061141012789589,-2.2830854988508023
150,-0.6622908039819146,0.16324256055114622,0.4370434136924509,-3.2679141543881256,0.1439399994418224,-1.7643367168086652
160,-0.647666324706476,0.17868032569833037,0.4478380696052094,-2.8807854536369746,0.14195047107720238,-1.2266188153271314
170,-0.645765740838084,0.17848512896484373,0.4543739450526157,-1.2140591379044088,-2.33729446318773,-0.9733276224413552
180,-0.6366842385349805,0.19011974053912578,0.4580292391510182,2.2783567607321675,0.9726558183416016,2.436940809306952
190,-0.6557313739283012,0.1799748985209027,0.44512739423424874,2.2205429083799526,1.407112659836083,1.7589169857671834
200,-0.6763254012613475,0.15802862299108272,0.4209283056435915,-2.725123203075593,-2.158449118611644,-2.908513307504461
210,-0.6777428970725071,0.15902746397201378,0.4198078856598031,-3.181486675959299,-1.2761174662271297,-3.2046446809388103
220,-0.6598721400279698,0.17152641356481543,0.44158524916726805,-3.4197743577036173,-1.6505505383103751,-3.780114622175187
230,-0.6856536027713966,0.14350514751688634,0.4246533990695915,3.1011078989676775,-0.11718867302452407,0.340800072324608
240,-0.6812031964322177,0.15459260081316978,0.44621713417694725,8.863066310882862,0.0013064592639151495,1.5483105015927787
250,-0.700454333282573,0.1484408300652344,0.44921526865092887,12.180185806231549,-4.9841997315416195,-2.8180840549139488
260,-0.7235898444209699,0.13567932162968843,0.5216350323368129,9.933676001849973,-5.896416960352376,-0.5249843831072641
270,-0.7944742105530418,0.2031380966679175,0.5461161376392082,3.0289171695703283,-14.477092658826678,2.5854589571542146
280,-0.8582313088468517,0.28060822668244007,0.497823686504328,4.24165979739207,-25.685813360250386,10.80660241918496
290,-0.7190022745931655,0.2832741477893592,0.46541963302209477,-2.928485066206793,-31.362635405924284,20.76547175338975
300,-0.4526329017130377,0.3222911570091919,0.4130764050514122,-19.200889604334076,-29.720948388531365,24.979849987932788
310,-0.5048235130612319,0.23291200263960493,0.32950247488378914,-23.258376669595883,-22.461819365738037,23.731706550000794
320,-0.5022625675601432,0.19900989074448006,0.35434194508511146,-24.116759797425114,-13.127094410420963,23.425069869028498
330,-0.46728752441037086,0.18131796686997909,0.40598731128054794,-27.72204785458855,-5.508337969804762,20.883687196713005
340,-0.4707733550825007,0.14507241416138789,0.4576281322372916,-31.61156285535214,-1.948696576172163,15.859554526970063
350,-0.557203093774407,0.14910388737404798,0.4315031432244049,-36.16318976138853,1.694369276508716,13.00259749118641
360,-0.665847313728751,0.062370983783615136,0.4911114493568923,-32.01431009867439,-2.9622382749325458,4.96672825167461
370,-0.6592597401489271,0.1329162079709918,0.49009204540383106,-22.058621933477944,0.6301302193643228,7.162730232509832
380,-0.639470461745372,0.16374928120158477,0.4413307462519739,-21.77276262441091,-0.008497878811502158,7.092762134272398
390,-0.6150097003189969,0.15908622051213492,0.4599966384175299,-21.43303097262975,4.310721301237114,10.303559832788862
400,-0.6106345946384751,0.13075942433217583,0.4392640870300569,-20.09525914801761,7.265202361086623,9.997744983048115
410,-0.6085757721688814,0.15298150099764965,0.49565679202963164,-20.45360459247677,8.612711580420363,7.970691589732846
420,-0.6467000398751338,0.1649524645392398,0.4890918483444336,-24.7255963770339,6.743978419605032,2.1427181132127053
430,-0.6226868000100624,0.16468881787372192,0.49160506015176897,-20.86697295189151,10.073648225909558,2.0225427625988903
440,-0.6050428719725073,0.1402249823403584,0.5032419748276905,-19.73831150147305,8.721347054592897,0.24398594631833426
450,-0.6766423831022634,0.14828308256366718,0.5556984661461501,-21.577413508152848,6.883041013262924,5.553018168258514
460,-0.7260770919012443,0.12145785177424655,0.5675413525813537,-19.38939604533595,-3.1585611904947344,6.10038043196091
470,-0.6351965297051424,0.05889238384392116,0.5169066757778588,-8.54137017958255,-13.772603467299206,-2.7299924089088674
480,-0.6050457142609896,0.010491812768414946,0.49111322778954114,-2.364191437758061,-13.120201284189562,-6.194816259336627
490,-0.5312859147793967,0.013699063780369773,0.5110516675155723,-2.0121604274284897,-25.182269273357328,-16.566739016763506
500,-0.6634003453067463,-0.007419454293628125,0.4447939865902644,-6.712661696048155,-15.21874871388098,-10.598943107512426
510,-0.6532854757618008,0.042448049112937355,0.36037424370657256,2.104209995583467,-18.085966351826322,-11.560557495847851
520,-0.4939787498168858,-0.018860578237016777,0.5336360718668148,3.7954333143368473,-28.820842572463704,-27.478048317391572
530,-0.5585965388606184,0.10657209282136146,0.7368263771560842,10.341679798615987,-16.683285530625298,-17.470041486288334
540,-0.517667087554548,0.08358995038589978,0.7087559518143624,23.431825211822904,-18.33134871140236,-21.87223328726291
550,-0.5940480995959847,0.24950868099125853,0.6355638017824289,44.664821810321406,-17.715012241908216,-21.275348011795145
560,-0.6690345422187494,-0.014697391526516758,0.4664824972568782,17.254645539686006,-14.182146244023224,-23.535190562142414
570,-0.6811138055196899,0.015237848072245304,0.4755750321905564,20.743472558633435,-8.45423685511123,-19.423257328849846
580,-0.676236019579725,0.22437743991839135,0.4839242964487394,28.69290759168127,-6.5954632404645945,-18.113562550900717
590,-0.6308175213154609,0.30153766486101397,0.5374646590702361,42.033393340416836,-8.999541330521973,-22.12387643336914
600,-0.6197684636165985,0.14598668660169178,0.6302486770561891,41.890254808857534,-5.944631746059964,-26.452450985374416
610,-0.6544615926247426,0.29510327960722105,0.6287205822977675,53.99496538547772,5.132068910706437,-16.34164361000381
620,-0.6379614362369329,0.2662991453417773,0.4958560032413621,35.41429685515933,9.49974895204295,-9.776245189828922
630,-0.6798030716893146,-0.01941351687077474,0.36813199535058955,4.6388741727773315,11.621368160882001,-2.9925991188681764
640,-0.6916499333361319,0.035874007189288445,0.4071583430861746,4.363394563589024,7.44868067938102,-2.8649052680752978
650,-0.6593210877035652,0.09114109569543577,0.4499529333684428,21.148681412333286,7.42221977844672,-8.04279142653236
660,-0.6306255018295899,0.2776204100268808,0.5831876327519496,32.29994152218046,5.179905498256273,-9.118797951313221
670,-0.6322959027612567,0.1286208270232552,0.48375505566497723,10.237873528118332,13.975163135191206,-2.7134375936193353
680,-0.62278880365668,0.10147240449047001,0.639359875026926,13.765399330066058,12.205633901413304,1.546800807735409
690,-0.6325412549158671,0.14057969905701462,0.6672790397810142,3.9860679964993446,22.629090424046836,10.881110983462424
700,-0.6884341886496685,0.08384536417485232,0.352993712824067,3.7448259116685456,17.999073815451545,2.2578942847532604
710,-0.6170897338885539,0.08084387874511187,0.6180948782351107,14.8202680905532,15.240425406414758,5.7743550853467
720,-0.7122650758524773,0.18968169080382818,0.2430946142813751,7.553911481696099,33.9200905122528,16.138899556984082
730,-0.6713565125565375,0.21388488552611812,0.5188406495685227,6.079507197042084,27.66262777058289,19.525195664516918
740,-0.6432761434996981,0.29391780399032863,0.42120502237881147,-12.42671058327323,24.356907259420925,24.635943979847486
750,-0.625850836484067,0.048781734071600816,0.5727528891105955,-9.488149077013308,17.215870851316506,15.03321905600745
760,-0.6856161839321009,0.041601516779272,0.4717522499466147,-10.186330419777569,12.747139771774862,10.596209999987288
770,-0.6438797444675511,0.12876396333805235,0.5057592117861703,-17.898010060418006,13.194916592655218,8.65869479773514
780,-0.6640563474159682,0.05497790157063146,0.5583925294667346,-23.284353604081897,13.042163118165803,9.345104489494043
790,-0.6398243455416647,0.19750220977365557,0.4942323535568899,-21.114899646143357,10.767382514649743,11.988030171773111
800,-0.5976604174849713,0.29842500733500094,0.47460613171690186,-12.160287842109334,14.796425853516437,16.893119138272326
810,-0.5955194695775667,0.2807078734496403,0.41617951902498257,-9.098238214104056,15.139414968139414,14.53151126664853
820,-0.6179333126373241,0.28474369441809705,0.317003053771808,-3.5739289676650072,14.060962448685592,13.418231644066084
830,-0.6522414477191533,0.11575064787480027,0.49548632404461035,-10.135473248817643,-0.27550650837225565,-0.24079877220534618
840,-0.6375928470011055,0.23008283522906944,0.4634002473812949,-1.4552432830024638,3.7923177654730815,3.1466291542085685
850,-0.6586860825129381,0.15311259782267428,0.4495035814907394,-6.053960583255937,2.2474506046024745,3.86505453939125
860,-0.6713399932960615,0.11239837394423424,0.45697636900057237,0.8598962823593009,1.4172076541446128,0.2851618695398972
870,-0.6355982413268839,0.18343849510948593,0.48046624190520715,0.5491854684582251,1.4125311043022422,2.8745820797037736
880,-0.6657205717427441,0.17757312912469442,0.4361482824192704,-0.3049400154201021,1.5963204079856372,2.0831375256070093
890,-0.6249534892095283,0.20755298309997364,0.48236850529643227,-0.32536867082198695,3.973681455163722,3.200589852471138
900,-0.6597469017745572,0.17162526251065396,0.43835897474544977,-3.726957488245682,0.8493815278217879,-0.5641473924413245
910,-0.6413021193336316,0.19092718021648847,0.45704508922432185,-3.4715402478491626,1.6472377236606226,0.24452824579521037
920,-0.6589993443282282,0.17270564845672862,0.4406367417824495,-4.48862141901126,-1.4154508161126667,-2.656032293173592
930,-0.6443890436350086,0.19047597952144665,0.45446983705238353,-0.33026207216004533,1.836903758350823,1.0910140340850485
940,-0.6675025459275189,0.16892091628738,0.43722217623701,2.1269772628821038,1.9050850203614522,1.2127559491871602
950,-0.6714301298067832,0.15819029325908804,0.43670353705833614,3.71703825683364,0.868936987026454,-0.383201726326952
960,-0.6475724081286939,0.16822485548734,0.4581676441296186,4.028555364622575,-0.7551943813902664,-2.9225125927722493
970,-0.669305728930272,0.10384648500915003,0.4596523875706449,7.340259412576582,-1.331017729864049,-5.601487482702206
980,-0.6638690236685728,0.1149161405886881,0.46823256861344026,9.582206938870065,-2.9088728506325863,-12.09802412968931
990,-0.656840603814026,0.12163906558289744,0.41492683313455553,23.224248039309956,-5.440406622283541,-25.472489879352956
1000,-0.5934520696707253,0.1736312589307529,0.5228437612554371,46.02512763306098,-4.826653553830813,-28.571055794309697
1010,-0.6562355409924698,0.07549022873482662,0.6494418179527087,41.07909608506026,-17.410596689350445,-30.458153182683905
1020,-0.631050381428857,-0.2690646645012632,0.6748989425310602,69.11437483610074,-18.614065710807647,-39.55726750303226
1030,-0.6500593198893746,0.5215250821053296,0.6739608122141597,22.334423853959947,-10.709767089375834,-12.4758877745774
1040,-0.7018080229486338,0.11438332435129595,-0.007437901937288953,11.947177391655359,-5.367521182324518,-29.12617186010254
1050,-0.6423039348619302,0.29070816562276164,0.31063718296230497,52.931307079026546,-5.31721075788228,-25.481443742058246
1060,-0.6402987633354709,0.19881171257577854,0.5208413577313245,18.673903669043657,1.2461298126060412,1.6836417770541465
1070,-0.6441930235037054,0.14257299808015367,0.5023338771038584,15.755102381960798,-4.752361985178284,-4.848686413003074
1080,-0.6490595654969199,0.14906547502513148,0.48339404228860294,0.3906691014575856,-1.3538586391511447,-7.959941362696608
1090,-0.654675761633091,0.210051276832468,0.4587014306526283,-8.165054455320323,-5.291594529399187,-14.5473669796283
1100,-0.6439099913776557,0.24803170940769187,0.4237341608897963,-7.762511752745173,-2.431946617064723,-7.240035131555818
1110,-0.6709795707418145,0.17018463833047176,0.4238222519400021,-6.533619601800025,-0.1885458618400231,-3.0038703722318805
1120,-0.6575522998628687,0.1559249260138585,0.4518534430812015,-0.801715032692594,0.32213070909261265,1.6576471062313163
1130,-0.664041279532373,0.15211803144531258,0.4441809356661932,1.9505203942780758,-0.38446119892953057,3.0051691962429965
1140,-0.6905831072183738,0.1356339328935504,0.412151396540393,0.9890648307400824,-0.020021720820367128,2.587523896887486
1150,-0.6706377251653931,0.15811866822022286,0.4335085170838448,-1.582002455417388,0.9734649548641796,1.9727853903893593
1160,-0.6434066407286246,0.18200292627812328,0.46676269147700705,-3.7886290113714027,2.3175606826452793,1.4390729961871025
1170,-0.6521335786013358,0.1716883390241495,0.4567465060725779,-5.942358403141856,1.2189384333277735,-0.4843269263348158
1180,-0.6671853579729611,0.15105150146688306,0.4433570948340548,-5.394309974656673,-1.0655176629566907,-1.580216096703901
1190,-0.6336553237731923,0.18198093266488857,0.4722717503818875,-2.5317262131461336,-2.471531128378265,-0.7917101022157556
1200,-0.6588802561092595,0.15136536207706439,0.442092447463314,1.3549073399829208,0.40337022202457196,2.222895061302662
1210,-0.6663727019399761,0.13530961842446382,0.43676768349375844,3.6242307053310534,0.8609857344452194,2.1779839213185026
1220,-0.6560991899907156,0.16804201743186217,0.4511502475685603,3.6107754062050486,2.239730332476159,3.5122022095906225
1230,-0.655618634102024,0.16927271551729303,0.4509034041989033,-1.2362722418201906,-0.9575573100513097,0.11207092105368299
1240,-0.6572676213712444,0.1638043956508738,0.4535208878466032,3.817419959126211,1.7914251503273795,2.4603502314375216
1250,-0.6349759307168737,0.1905812572036908,0.47156013586958206,-0.7490798310440414,0.3759697716741583,-1.3511886827428736
1260,-0.657943237460512,0.1600539265393436,0.4441981187157428,-5.07060894255409,-3.189247657637285,-3.7339878181412165
1270,-0.6463276577749338,0.16603250635221856,0.45751995424590786,-1.4034895538758139,-0.6528340898955551,-0.5302596619408981
1280,-0.6695358919733126,0.1518286451767478,0.44153137334008574,-3.917865615025316,-3.494448216616157,-3.689218264739062
1290,-0.6516345198279835,0.16654438611481828,0.46142651606475005,-0.6360270434882154,-0.027255232007997954,-0.5068941153174458
1300,-0.6490724245680586,0.16597900220581313,0.46269059961814185,-2.352158452275434,-2.424436097042224,-3.486986771772277
1310,-0.6858440636565175,0.13210247709409015,0.42037324170889623,-3.256120760802832,-0.4920667475260608,-0.5561857563137752
1320,-0.6354244592872615,0.1782190770492491,0.46503303197191104,-2.391203696129533,3.2426667880841755,4.762022444438492
1330,-0.6331887135040772,0.1713703822667582,0.46996600747968786,-2.064848933860598,2.2083585749373524,4.3050060202809775
1340,-0.6631800228974859,0.14835762393129123,0.44605804546687583,-0.6605767143955235,0.846517008002001,2.5718438983636296
1350,-0.6731988317834822,0.152359021430833,0.4350549436339275,2.075410059165602,1.9217906640896738,2.898934278669479
1360,-0.6443370815632321,0.1774573868682229,0.4609077612210684,2.5498773577000673,1.5303197498652676,1.9906506629518126
1370,-0.6613721660744009,0.1608930279393611,0.4433381476137829,-0.5899450271100604,-0.8944174936151794,-1.4275787409870677
1380,-0.635418759833309,0.177658149898186,0.46715047793052855,-1.8846510795134428,0.22615178798882174,0.1205583592684839
1390,-0.641560797621758,0.16317667671205618,0.4634200398582969,0.2312341225654304,1.9852222173221161,3.0551818132323643
1400,-0.6371225794287477,0.17696612044835008,0.47266075801076735,-1.0062521514076728,-0.9179407112594486,1.3140953718072632
1410,-0.662582548770455,0.1577318172245238,0.4465591377653457,2.8047974066753407,0.8779675590897764,2.8623282205654674
1420,-0.6251065111794415,0.19256906935495868,0.4786438058583677,1.176768026245462,-0.6283718114709181,0.24578787769326482
1430,-0.622648086849708,0.19927809830151438,0.4820493017157553,-1.1059562203394788,-0.48477736429510077,-1.34065195552057
1440,-0.6472142943579652,0.1716069501637255,0.459555414045715,2.0682591193672404,2.9225816056216876,3.5271574448029783
1450,-0.6770747654226137,0.13735952968748474,0.42714609246850643,0.6928479459973595,0.22111871425479562,1.7398282218002148
1460,-0.668613150008348,0.13835148837529504,0.4294755434484234,1.4834648983740824,-1.3835990260756754,-0.0916471230827991
1470,-0.6532097563648988,0.16099516287481314,0.4442953108612667,3.96017471739533,-0.06751385932682591,0.2726990702402039
1480,-0.6393694852555925,0.18152096995290956,0.4640454798255086,4.246080249979181,0.7679958973206316,0.2282027004097899
1490,-0.6679817673482736,0.156567799637871,0.4393082152344115,3.0791514464011662,0.904950407689376,-0.32889765179501307
1500,-0.6925035799551312,0.12825376022753807,0.4130846640014299,1.0614208893094335,-0.4086723744491978,-1.0511379957000724
1510,-0.6479477986161472,0.16702825237093424,0.45582029918799494,3.350193722753335,1.8396628030755082,2.531367892746468
1520,-0.6658937357579358,0.15289752221904093,0.43966524328527856,2.3391777027118463,1.4584461063064353,2.442970999929874
1530,-0.6500671737889359,0.17339056727544672,0.4578954397384394,0.7818813060047495,1.2268657926086086,1.6721946375978332
1540,-0.6557830866681522,0.16902215267746679,0.451310191939256,-1.259859674853974,-0.09469003309142515,-0.4548806390720208
1550,-0.6561093583988901,0.16969369759957081,0.44730071520174614,-4.503953158578551,-1.7914762610924047,-2.7154547969582277
1560,-0.6551602268811187,0.16864450667938596,0.4505528454845025,-3.426621536301212,-0.6979238685300406,-1.5067819715343433
1570,-0.6171540371000986,0.19832032299647,0.4844800535371525,1.5326650071148333,0.6602000377806965,0.6349412551283979
1580,-0.6654946093427697,0.14849176295098257,0.4359958455392985,2.8186130107434564,-0.3094088359623158,0.3707431799217293
1590,-0.6520161497151479,0.16117653505137972,0.44805634266326616,4.88873269925349,3.522747677578283,2.968461294398822
1600,-0.6306093664799021,0.193492037964146,0.476515442424258,-5.24260744866383,-3.292514474386467,-4.217940063041064
1610,-0.6371403717712671,0.1845783927624184,0.46444357481513077,-3.0713119258072688,-0.2433106279891214,-0.8894667082066813
1620,-0.6483742429185775,0.16404966623460454,0.4518296246468604,-0.7808609296891607,0.8590471163306003,0.6363114386020838
1630,-0.6495612742435549,0.16591513067126992,0.45094750155184854,-0.6855578149942294,-0.5894998890861891,-0.22662689169128153
1640,-0.667801345799844,0.14110211147466908,0.43701924945597526,2.2198649676815796,1.1993959076035634,1.8657827661910236
1650,-0.6462362696127819,0.17654819124846588,0.46456443925057544,3.3972481878592644,1.7291014428529499,1.4564147659033937
1660,-0.6360094807296077,0.19140335618009993,0.4744555008225197,1.6891780152407365,-0.06468510905393893,-1.331188754795321
1670,-0.6571249334946941,0.1654539543521685,0.4489923199861151,2.5344579954068136,1.8316820019233555,0.23229620701102793
1680,-0.6623450431504982,0.15592197553105253,0.43947413299983645,0.23302469085471134,0.5574677428934594,-0.9123672055475665
1690,-0.668236486600268,0.1474175011811796,0.4323236557629298,2.432879763901214,2.3273186288211467,2.004501973554268
1700,-0.6502074744130034,0.1691366219817462,0.4523891812395208,3.0572694736319805,2.008024827935327,3.117960115908306
1710,-0.6427393383757675,0.17881312723894288,0.46152528763959655,1.97032989084058,0.850092642205008,1.7898172391676697
1720,-0.637289961630107,0.18891609597764894,0.46962693658124355,0.40347254044981096,-0.04136452231043419,0.3401025880938793
1730,-0.6363094235762523,0.18890190729002831,0.4657290111608481,-1.4788417262956832,-0.7550348064992609,-1.2010426050285206
1740,-0.6505655421797822,0.16937998288224515,0.4503595686478231,-0.1304726193815352,0.7373296941454739,-0.774793451657285
1750,-0.6422152908724056,0.18330632498039076,0.4649066285338281,-2.1876196599796707,-0.5306019867706915,-2.2060465692842532
1760,-0.6644668229160419,0.15071772814647943,0.44279064952404557,2.468691628199331,2.55212403782262,3.338273632031727
