time_ms,ax,ay,az,gx,gy,gz
0,-0.6562218594854791,0.21327064985903052,0.5014965796474402,1.4899689538549858,1.4975998641849575,0.5994497851533409
10,-0.6984342695697301,0.17406105093811583,0.46634317801830116,-3.1990242594591796,-2.8748806337115793,-3.1832303504046853
20,-0.6942386179335895,0.17166141835554605,0.46838556376699714,0.06279402259238986,-0.2381798970042312,0.38307545345229055
30,-0.6826300165005438,0.1664496207272531,0.4766555598810359,2.015369974317097,1.6747143976244498,1.9670176958192869
40,-0.7054182148340321,0.16440935408005708,0.46292500736556286,0.7258928873429411,0.4927065271432376,0.08954245164890873
50,-0.6909386042240157,0.1803054950245331,0.46733801817153064,0.9968106166158872,1.7552066556078787,0.4754514058342401
60,-0.6827239906150245,0.1836492467513675,0.4724283119808495,-2.0250810558766696,-0.6990860826661938,-1.6903157519006626
70,-0.689150004216924,0.17248465475398903,0.4717312676446174,-1.1866595405893925,0.5245986076971366,-0.44822911053249986
80,-0.6684737476430089,0.19974804068185553,0.4844367468938813,0.14574782696397914,-0.7308456715565763,-0.6635638524485907
90,-0.6716805951820217,0.19678918175809412,0.48557581337670014,1.4470462710525702,0.6661743891949109,0.9976420575138549
100,-0.6598424871214273,0.201399576916648,0.5077444464032119,-0.1705346724044121,0.7293169108307362,0.7538369416559262
110,-0.6729068892943019,0.18701702797644104,0.4818499735993513,-2.216024625200193,-1.830012076228407,-1.9846887796313293
120,-0.6792440453086327,0.17927779646880662,0.48147805034267505,-0.14879529909620337,1.0888461607792883,0.014331904319276112
130,-0.6941824192525333,0.17038443996911645,0.46977382600909706,-0.18510098159410157,0.5110111910022879,-0.4634827946039292
140,-0.6872876433130818,0.19711052411011995,0.49615463862904124,5.426164458112209,-2.7592775415189292,0.9194355978743304
150,-0.7415466651668434,0.14410627791212183,0.470872883435115,-9.225353278010713,-5.572220222327949,1.911866376665818
160,-0.7484687931176073,0.24006952230986398,0.5164408716141733,-5.578892178961577,-9.074139857484255,3.2508119692954374
170,-0.7439576952447778,0.2752328381615162,0.5526935639897318,-2.314366684264739,-11.528832719241244,9.45802965060403
180,-0.7110115443277277,0.26264230506991915,0.5379014207931766,-6.669321844261457,-18.127309216982592,11.971638022457393
190,-0.693577087933583,0.23872583844751202,0.4855891047119435,-7.892966439014325,-20.810771674552296,12.555916498639268
200,-0.5635089643625267,0.2333060151700019,0.4232473349649935,-14.969566962574042,-12.947043964761473,14.131285094643744
210,-0.5618673354342861,0.245788191854773,0.4140553917201619,-20.42884804565604,-5.871406185757257,12.770025760457347
220,-0.5991397335847746,0.24286392366180112,0.41292767517151363,-19.601019933951235,3.1143114974136727,19.058389456726832
230,-0.6233480587280067,0.2498670154086408,0.45511661017901534,-22.691798208639973,4.530277580240087,21.244944188578767
240,-0.6497031170436041,0.21330247259379187,0.4699106038526958,-21.82553718981249,9.503471675178215,26.389087620912203
250,-0.6469210434207456,0.15216999550940985,0.5286500091710749,-26.28980882980891,8.816704312117096,22.034615097529894
260,-0.6618180963287663,0.18927546319314784,0.5226414349046204,-24.821606357279915,0.5821874366743105,16.5462913863532
270,-0.6976590001786578,0.1543027990026008,0.4975836616722613,-22.47675234735442,-1.323481613772206,17.288523161776645
280,-0.6679936782281694,0.11837640479609544,0.5043937910225523,-23.677387915965337,-3.4167263819028033,14.226696777276727
290,-0.6640771501744163,0.11472223922709349,0.4606478525782278,-22.23116542888233,-1.9134313167149957,10.298602754382191
300,-0.6317842105942238,0.1456067259598653,0.4869279905702912,-18.886103170972245,1.1245294339758352,7.946275385896103
310,-0.6525796665778673,0.1359131048079343,0.4147589081863602,-19.231724986100552,5.152239037387049,4.95167469610948
320,-0.7045483543257892,0.12324234361114195,0.5185570957180119,-16.675260862961885,10.913198449432661,6.729806565807794
330,-0.7096841513506398,0.10448663058761719,0.5344179179621812,-18.00447597734088,8.04622683704306,1.4545497278318908
340,-0.6676389773383912,0.1373363887191288,0.5247523398935989,-15.965390258509572,5.7602771790664935,-3.1592384048474487
350,-0.6732265265979155,0.10300708422282287,0.48887532113940546,-13.591156677884051,4.92507825630609,-5.397675367514303
360,-0.7101610333988221,0.22716872086990028,0.6321751663297578,-8.50414077775369,-0.3302369701192354,0.43087927171701257
370,-0.6892536517467891,0.17941057961740217,0.5383524136446878,-5.926678021608849,-5.592558197470087,3.3843266593179706
380,-0.6939823633582443,0.133037541728036,0.5106873783661461,-4.555674702215647,-8.66891480290978,1.86732414686944
390,-0.6621118718827089,0.18441666102167345,0.5217847426129926,-11.480763293093231,-22.085125592706984,-9.65330217534105
400,-0.7162922783958808,0.1803919207705284,0.42784082421560377,-5.3802661006556285,-20.925336436406212,-11.188462705995466
410,-0.549477155647824,0.1386719975877046,0.6100024938383108,24.121997361493502,-27.077721944118775,-25.233804776832503
420,-0.5872976855318391,0.1558546917187735,0.7046065333120941,11.113854472969507,-24.036195434524632,-24.18717156488088
430,-0.6281620661798615,0.062368504399863266,0.6683920979277066,6.37042069737087,-12.660801739583846,-11.39713745361083
440,-0.6426942064389511,0.2085084528537678,0.5935077871959414,9.287894411382798,-13.884043665355945,-9.52977484959639
450,-0.5663549946673483,0.09599496564242996,0.5862790286006787,19.54973305755746,-21.231857999252014,-25.661584936980468
460,-0.5975927248277957,-0.03559486473682756,0.5334314311366122,18.25364576320726,-16.50199814224893,-30.13787068121049
470,-0.7432802813820587,0.21384524545511305,0.4879208509663753,37.86833148091465,-19.92797092471464,-33.75919023377408
480,-0.5969319413053,-0.14443784389732292,0.572641148108796,27.636096021365514,-19.54076119776013,-41.37087603291436
490,-0.629772469663194,-0.15852496499657798,0.6571893852330839,-3.1486676384917316,-6.486424292469696,-28.923791993577083
500,-0.612678470424331,-0.05071883136897385,0.7397422546370787,-9.973332117657456,-2.528112158782208,-15.174390018532835
510,-0.5867385779438515,-0.14232723808868764,0.5438177340185814,7.131700499208833,-3.036505628841991,-26.635747992701532
520,-0.5580066226219189,-0.11463621563062457,0.7899080483432543,28.35896030180498,-2.3601944730292685,-31.394036057003994
530,-0.627366199634325,0.056034764329465456,0.76415585282096,13.652350915020547,0.27485571935889974,-22.08899353066217
540,-0.6033512259219518,0.1806337563152631,0.7493191782235491,25.63675243468355,-2.860921041697292,-25.441347187326876
550,-0.6699974648372394,0.051798767183877645,0.49698602128839503,-2.380180471097398,7.4847963277165075,-15.433255777106046
560,-0.6593460907905678,0.09339359419907972,0.48924408916079787,-6.948738161772962,12.025473679295066,-3.0082696092746484
570,-0.6422360988695912,0.17516088978936528,0.5542498914825374,7.034492791613675,12.511598008718812,1.4995888882000992
580,-0.6896212329097108,0.21341993001305307,0.3139796552789753,-6.676593202316455,30.014310290887305,11.739996639543298
590,-0.5499122738800278,0.19918351456320593,0.7916275128287242,2.898086017817225,23.521347168349106,16.204393110655143
600,-0.5437872898885541,0.25749285523060705,0.6686690660895538,-6.822793049923808,19.05042286562658,18.943573184646404
610,-0.6334817530509824,0.21413494072480918,0.4118873042832023,-19.82563242602219,29.78747804185569,27.343713124556697
620,-0.7677265684515305,0.38577678781175523,0.0357392692163103,6.31534440417908,26.97325961617254,22.83199680284004
630,-0.7895124784394586,0.5099967710667656,0.07901855109057539,7.211761258721173,29.894559869234467,25.55063982801345
640,-0.5992975998528272,0.29547278602745114,0.5199646876872117,0.07155060274739355,35.57818565132832,31.276132464943423
650,-0.5072354598442534,0.23721852812867755,0.7659201662382321,-1.7445835594691428,32.34454195894776,27.00813051413178
660,-0.6301779897671538,0.28683248719538723,0.6199523917999376,-18.663427909183195,25.845142941092547,25.20530926489317
670,-0.6884251966462139,0.2408660722089364,0.35418320247700835,-17.87688357507957,24.60308679064383,22.879345643420468
680,-0.7018163963729478,0.0444411497511247,0.5251132889434698,-20.804841964875166,20.83681334166762,19.29738993914227
690,-0.7083009719552055,-0.015280670765983941,0.6648368625716345,-15.14356767186188,11.857776763918539,14.848891684404627
700,-0.7365108689029994,-0.018915257103880777,0.6136289886850947,-13.175827664517952,13.020730163610091,18.134954279704903
710,-0.7212687734748015,0.11251387054755967,0.48388803812895914,-18.02815123601501,7.69399550643295,12.423525590595297
720,-0.6858459920853236,0.17588763796975926,0.4552767899582231,-8.31793880274338,6.399449838360571,9.194483990703052
730,-0.6956306903227383,0.1848304258260171,0.4502616645355655,-1.654558812547112,6.433417475504854,7.544888966818516
740,-0.6761363956758468,0.22196096625547876,0.45936815838189277,-0.9724981405085971,4.014782175079074,4.736161575656091
750,-0.6907388611131037,0.14772334911225635,0.47285804993827024,-2.1792697616762773,3.1803863202738922,3.6684746347138266
760,-0.6973487978705517,0.1355228486803777,0.4662624477349946,-4.163235739816979,-0.47340985165711147,-1.5919041174729847
770,-0.724029471196064,0.132877864220383,0.4374161043514699,2.6555854215678525,3.502438712838826,1.5463166158068131
780,-0.6947493738127594,0.1818684639997817,0.454960857970882,3.2916618255406678,2.5948345720329784,1.535580570638381
790,-0.7124683647605455,0.1707398803505795,0.43672457476355586,2.916331345541713,2.2094061600917865,1.8755917455980042
800,-0.6922549026198775,0.18914895644471108,0.46096344424007674,-0.21058002483694793,-0.361927077276767,-0.2995472817799252
810,-0.6958217126682764,0.18588922754299714,0.44894326619721525,0.06200398715291533,0.07968476910498457,0.28015369539314894
820,-0.705280347561638,0.17214119357745494,0.44045246669206545,3.1569614810036084,2.8037575808145814,2.420668445609567
830,-0.6964280915010453,0.17287539842566513,0.4535895995653456,1.7178148198681846,0.32475831076277006,-0.9719102318195401
840,-0.6872262540843792,0.19017759641065834,0.46520652308691895,5.503006597849661,2.07514445823614,0.08965759220852976
850,-0.679966593697114,0.19327470460815013,0.48036586223096195,1.2187825920988145,-2.2859452401085676,-5.544363581904763
860,-0.6924007675279953,0.15517601947883503,0.4924256527195719,0.40777657621961305,-2.784049905396181,-6.423757352959832
870,-0.7175079242468658,0.15841666500634521,0.48179566796496726,2.281481889244435,0.3484233216370354,-3.134364802047817
880,-0.7697604804327753,0.1219653304187428,0.3941554725847494,1.8185497753583746,-2.1455552671069156,-11.175235027859761
890,-0.7380739889691844,0.02325869462778279,0.39053168263831706,-12.420213862844395,-5.901765889135142,-23.346677143772165
900,-0.6587114863301176,-0.10106501369365323,0.27952618912699645,-14.920214627069473,2.869353142583098,-24.130183442270326
910,-0.6425503749482241,-0.07354499731034389,0.142603174277434,13.413491703652099,0.1507526097118692,-24.693695352795327
920,-0.6660792581334787,-0.0033677355850382715,0.19900573740961167,19.200974484794898,-8.659349002893471,-24.21858419130011
930,-0.6689318052760981,0.020585064900722736,0.251491039878944,27.75622025391683,-7.495482503672821,-30.399942086166313
940,-0.7814998733545999,0.3247324347763332,0.20112832707711778,42.781165882135085,-11.055045264930163,-32.58783243436486
950,-0.7498807764232316,0.438414593059834,0.16541136836643744,12.304546870331032,-9.528147206227095,-27.225729615398766
960,-0.6515723463753293,0.30787644357986543,0.3901125858629773,12.33677241362578,-3.357585596529387,-15.986854354143695
970,-0.6643243918804763,0.34786830863328366,0.5550506381444932,19.503341370943545,-3.053186892293883,-3.0335957035578907
980,-0.6246845285303128,0.22143587122907982,0.5867966169158998,5.7475893648664815,-0.37713414145674395,-0.39123851612146965
990,-0.7131703777905185,0.15861127262409355,0.4472689912227496,-5.829789797775896,0.21566003446141702,-2.780436466801943
1000,-0.6991437521724583,0.17213413526208893,0.45926149476987527,-8.445696849886145,-0.91185154791522,-5.132606503298977
1010,-0.6774178485450658,0.18368550128583333,0.4778239242095553,-7.422041353083893,-0.6235635070762234,-3.448507225874032
1020,-0.6842354018471588,0.17404281735676097,0.4722868154923128,-3.1158058287559327,0.41540444801700027,0.28351684674109384
1030,-0.6929387450749249,0.1608159347583939,0.4665744672417326,-2.3118278602104416,-1.1834692206798496,0.7387434930725085
1040,-0.6912013806988253,0.16848132922532993,0.47202691062509555,5.598159747651096,3.3366152331280126,5.561425632553667
1050,-0.68118910164875,0.18690915859312146,0.47372528772540046,0.4855046875888216,-3.470740755551532,-2.43349919915338
1060,-0.7319471581063187,0.1384757313274883,0.42486675416210656,-0.1828358524863889,-3.5573032268864444,-3.3821208189016048
1070,-0.709893871188671,0.16105767509822566,0.446079262450319,-1.8960249680263317,-3.343953473139819,-4.200299859220248
1080,-0.6771012169072159,0.1866636217294374,0.47766628969070984,-0.3918248341160928,-1.6722958015099396,-2.5445955396364894
1090,-0.6799840503044079,0.17921242468628287,0.4747650847362458,4.228541960009688,3.995031242069343,3.748677684159695
1100,-0.7143293349432671,0.15383498044944324,0.4456253753511687,-1.8441920039207307,-1.0408289187135786,-0.4614113368407037
1110,-0.7049731329913116,0.16824113576513156,0.453812572294066,0.28923647173756417,-0.8798790404608136,0.09832024191488387
1120,-0.6682464539674305,0.1967649522460039,0.4882767339884,4.844541755434159,0.5089420761681805,0.9029820147037677
1130,-0.701704925428299,0.172742551528949,0.4516064157326861,4.053041315437139,-0.2984490302756815,-0.9434763733914304
1140,-0.6979337707746881,0.17259224134736428,0.4545673452358812,2.0106033838222817,0.7706034963069216,-0.6880213488237724
1150,-0.711352005035063,0.15414307401306168,0.4434306475667158,1.0748665090375105,-0.4706709024791702,-1.4176772053308968
1160,-0.7042089758457626,0.1631829961312038,0.4512284596135027,1.739429057661562,0.3661300201840126,1.1453044793048712
1170,-0.6982426012796701,0.16720192344563806,0.4625242729639087,4.184201043779588,2.719755328307777,4.988785990251845
1180,-0.6712230357922151,0.20332300544724213,0.49125848679271933,6.085970088047366,2.279167396413963,4.028518753445822
1190,-0.7091800846338089,0.17445847901785724,0.4457018475928095,1.8283789160124941,-1.1511501482724535,-0.46143247763053874
1200,-0.714285545990839,0.16534065098108128,0.4361649030511716,-1.2040617510223823,-1.1167190661360658,-2.7090078016184362
1210,-0.6910577105151685,0.1804029205232939,0.46586485094196123,-3.272428193759448,-1.1129187460568164,-4.120847963994943
1220,-0.6729287913919835,0.1887225661744909,0.4869938702145593,-0.7507285965996962,1.2502146666789635,-0.7551745330615414
1230,-0.7076967374838018,0.15270564254495847,0.44817201554971337,1.7890941934991473,1.2751473874244508,2.541050039939492
1240,-0.6704961491062866,0.2014602713753551,0.48668774705779994,4.805047313925508,2.801218275569834,4.558716530637696
1250,-0.6702075890897662,0.20738089539214313,0.4899661604130871,2.686834970801236,0.31666772357738365,0.7613246972288132
1260,-0.6841222525853157,0.19302110581584253,0.4665492789466982,-1.3184408242489856,-2.1567508952139014,-3.369744994913696
1270,-0.6889591094865984,0.18539680618416038,0.46177305026658494,-2.9705218424837447,-1.2218787392860222,-3.6529757127459
1280,-0.6959496533625998,0.17059221468615232,0.46041566006227935,-2.8061802569928505,-0.5446719442485122,-1.7641154493375613
1290,-0.7009862003990703,0.17296137422087546,0.4565500322066434,-1.871544940754006,-1.5959374975186489,0.022943837484108442
1300,-0.6747711497702931,0.1931449433757579,0.47925030221695564,0.4722209512446556,1.859044321253838,2.228890893880958
1310,-0.6936524109721858,0.17530746777539272,0.4635057311423256,-2.87446836754866,-0.8289364322378505,-0.8581028633381442
1320,-0.7118745259313067,0.15427411786020287,0.4387147309729431,1.695551762600602,2.4564625331626844,2.527710381140908
1330,-0.694241403912118,0.17708148126754253,0.465690623067529,2.292564044342327,1.8352294415980428,2.488020374663563
1340,-0.6907776904586183,0.17223489879234172,0.4654341161554834,-0.2033521953049573,-0.6236190039552412,-0.21683388445355467
1350,-0.707687291554614,0.16346727017022064,0.45008955692561736,0.20864269192999307,2.5346169495221673,1.8280529269475374
1360,-0.7047787246442837,0.16542860142479013,0.45320555092715803,-2.113126011818769,0.24202477689005247,-0.0006393859974344329
1370,-0.7170963280189829,0.14937740161402394,0.44109529096805167,-1.4799954527151153,-0.29214990052206613,-0.22164461728462903
1380,-0.6927235642643527,0.16870390390438544,0.46640064296412514,-1.766209362462658,-2.037389929661397,-1.4545918949412535
1390,-0.7087858148125051,0.16216474400323008,0.44394114313611677,2.634332063452054,1.6941609403947608,2.233553680497728
1400,-0.6933613467847011,0.17776426894894956,0.45794728667043777,-0.6785716836191347,-0.4848254121054283,-0.8004011235433611
1410,-0.6748210782150736,0.1964332102847264,0.4819403429457246,-1.4394134028057062,-1.336123951087583,-1.6360504765064072
1420,-0.6747413903586765,0.19223715824605844,0.47509349893131286,-3.7816666096860163,-3.071167533117899,-3.4414390977921347
1430,-0.6930583076427729,0.17791249122698555,0.4600930803448941,-0.8744962663116127,-0.1305925153950574,-0.35575667840928654
1440,-0.6985734013002376,0.16717059496288458,0.4602378319493839,1.1279196922313985,1.7067762980563521,1.73125425042972
1450,-0.6952886726544638,0.17884801171746048,0.4645008167784021,2.509744556970865,3.1578912614471335,3.707548053921326
1460,-0.6915273242496383,0.17833982550914046,0.46029179121126834,-2.240459863218349,-1.0512665109626949,-0.19642681980051524
1470,-0.6962630611541798,0.17780812512295863,0.4568408962303665,-4.059838700498565,-0.9191376735288308,-2.347424734178965
1480,-0.6701770462420397,0.1863158929649382,0.48553388158162913,-3.661872638234695,-1.3371469120825903,-3.4299845680515713
1490,-0.6887455596225133,0.17911144142006707,0.4723753226563409,-0.13987792771714608,-0.10800505596773446,-1.8277546448368156
1500,-0.7078535198910777,0.15917763193204842,0.4486009678583224,-0.6624108851701804,-2.0111099809706814,-2.285618992712611
1510,-0.7019457375767604,0.16238291380223238,0.4513581329529753,2.9947200376011702,1.5070453089676332,2.2272253397089496
1520,-0.6822625929097381,0.1804220880926557,0.47113316401030353,1.2183483858417976,-0.31865808056862854,1.5942352943920277
1530,-0.7087737739453414,0.16871304186114236,0.4460336891757961,-1.0108041931007996,-0.8186393421806626,-0.9628951823645748
1540,-0.7081923768054618,0.15893050905132117,0.4463009111634002,-0.8692995150372546,-0.6529040832892645,-2.661813917680557
1550,-0.7209603834664845,0.15342287725347722,0.43472873804181034,-1.0717769779151616,0.16964205922006398,-1.8618186279470652
1560,-0.6727226581206354,0.19429892392289488,0.47925653582048916,-2.924390585444584,-1.728219733515494,-3.061570072392435
1570,-0.698284541360446,0.16383000803815878,0.4535299025271896,-0.32849601164691944,0.707384831600059,0.680486239634075
1580,-0.7089402246542588,0.15117899921141925,0.45196265263461416,3.7107230192460685,3.251896941741185,3.835985317888075
1590,-0.6847430084808126,0.19635261712249083,0.47382938152213855,-2.027866821041319,-1.1315377050849786,-0.9611428725593906
