time_ms,ax,ay,az,gx,gy,gz
0,-0.9988919962730457,0.1491327342798058,0.14966535056734667,4.792252895439276,3.522669976974247,2.729547038032844
10,-0.9884563886918968,0.15354030219795264,0.15228919144527056,-0.6752300922344425,-1.233373666600661,-1.4349235578624016
20,-0.9919852760732892,0.15491739010115851,0.1477792316516876,-0.0710034879723273,-0.823528299309428,-0.3984962618398322
30,-0.9968014783989257,0.1410978984206724,0.14342201890314754,-1.792284343201805,-2.1038832315733402,-1.700342435094768
40,-0.987713926145782,0.15266411819006684,0.1496080188871199,2.250489885678416,1.773706866719393,3.720702477812967
50,-0.9946130040543947,0.15098513092660448,0.14479184299766193,-0.9734634710157158,-0.7609044407576587,1.2261954810990237
60,-1.0115135455628401,0.13511606868816367,0.1305829366173678,-3.3310902177789004,-0.2491597353225572,0.18344571180243485
70,-0.965069765383264,0.18062703947787512,0.17531663892030852,-4.197654568565193,0.2900383437306302,-0.4882428754795962
80,-0.9942774720283074,0.1502863227638793,0.1450896416795307,-1.0021087118165823,1.564559324533294,0.31275314442551355
90,-0.9801161061845785,0.15968431041354125,0.15209015851392138,0.6899494747409756,1.9957269656145413,0.343303888719944
100,-0.9873356630454582,0.14980626626360208,0.1605861371385928,-0.46772825507756266,0.41672772526197754,-1.648085391065103
110,-0.9851204728786718,0.1609435592969623,0.1502468113979966,2.519405226747441,5.144319855758043,2.241323352706533
120,-0.9904294741569808,0.16177920899200607,0.14823316343419937,-1.6972157229658433,1.2810586748135568,-2.344570847015102
130,-0.9983978584874444,0.15058239940487225,0.14202979505832702,-1.4547731731287643,0.34930720629120593,-3.1679625660723545
140,-1.0029239620631882,0.172549339370297,0.17521730589476175,-4.102288066329542,-5.984116852823732,-6.670653349704727
150,-1.1651618069425307,0.13327279150718332,0.22352814569163468,2.156102868902988,-21.841890118508445,-9.373533553678909
160,-1.3801031440145806,0.09818302235137236,0.25237498058541763,8.973799357950737,-44.66128064564154,-5.749970524359102
170,-1.326389730362415,0.1584467507214758,0.23668839245039947,6.367747829108242,-56.10514333421862,4.909922426812635
180,-1.1319645910060379,0.25856614470865075,0.23373043811933458,-4.971866526218721,-68.39928188351418,-0.27443948909799953
190,-0.9322649457722512,0.43756572328059745,0.24317598515538694,-19.496819682809477,-71.59400168838178,1.0300980027420246
200,-0.6114243463822696,0.35067285847929736,0.26401956786670816,-71.84258996025206,-46.97294969609944,43.4551234436984
210,-0.5583816694239803,0.13031223220354202,0.2130732161143377,-85.59950441652734,-34.618799960678324,34.353530432449624
220,-0.7013763157655075,0.1754634298089353,0.23370741750738472,-84.36365095858086,-16.61203172965579,18.238331483671253
230,-0.8245049641620017,0.2672787813727347,0.21613449313651006,-94.61854061636069,-8.63786558005594,2.9550731804390398
240,-0.8689797429029619,0.2321554222733202,0.22120987311054766,-107.5056135442104,1.2584461022571927,-2.147461418587534
250,-0.923417866822963,0.0926993717681501,0.26548214605862647,-105.30697557553268,3.152178351508322,-9.164982506833859
260,-1.0214373715800655,-0.08892864838736926,0.2517254772513369,-114.37081841503097,-1.948066652957042,-34.2160998765906
270,-0.9401164665262409,-0.11164611524292711,0.2688488785400751,-105.66344785137994,-2.874099068119347,-43.58953157212395
280,-0.8570747263882245,-0.16548663002370217,0.28017161094465054,-75.14943950179614,-3.8963838327191227,-38.0298214127409
290,-0.839373532832791,-0.3064123671741915,0.29475928432281445,-53.7958176542749,2.925021759813685,-33.25076010269514
300,-1.3451311520392868,-0.345935247791351,0.4497447414568831,-44.207307171033335,-6.777668893604471,-47.925181824906325
310,-1.0163897222826448,-0.2212983856724856,0.48086586952282556,-13.641995487259846,-34.70724088729725,-77.9605285124092
320,-1.0126913690313437,0.16216008080408129,0.20974943730708462,-40.02432251749121,-31.583024604200627,-73.79926474795005
330,-1.1240981209291137,-0.3441340439337593,0.43139611366878183,34.376637329997315,-29.998069543227455,-63.47809566964874
340,-1.1032651233229238,-0.20255721504160273,0.02317713420340284,165.03425519162346,-13.732068084318005,-9.88385464831506
350,-0.748433278773752,-0.2916673830539646,-0.3758840084163018,140.3891243751368,2.0664692435150678,-35.20160810792523
360,-1.0715565739106594,0.12022815165552955,0.0160852095016447,135.38538076183266,19.8749131009075,3.587678757224123
370,-1.027700428947045,-0.04375182921038097,0.16873428289917786,124.82200713092297,31.180715676933435,34.378817878242494
380,-0.9709297482696171,-0.07780030412564465,0.33809722080688875,129.5545730968165,29.51341237710465,31.03805228377022
390,-0.9089621450187668,0.2934855593499172,-0.5371671087564693,127.48282546872687,40.74402705132603,35.27672266367851
400,-0.8450694322627864,0.729239875696265,-0.37611259695274885,94.33945685523796,73.79884406640242,56.24615277132754
410,-1.1513601279806465,0.6327792690459945,0.5188176621268159,16.413729756967257,97.87098826231683,68.21454356442842
420,-0.7317973838189047,0.3805960943307768,-0.014466081365531375,-46.42587741663055,71.72776136473684,51.00412196942088
430,-0.895499477281061,0.26765958099264586,-0.12088140501928006,-77.74637256647762,73.82827063289741,42.13750667095421
440,-1.1158976248540682,0.40777346645076396,0.6084871659339305,-43.95298728412033,41.05502454300675,36.73998352506416
450,-1.0355529844854467,0.09914452309074284,0.32304958057981703,-64.64227108040934,54.542810006840824,41.39818756698426
460,-1.0822397648232687,-0.055500370480522934,0.4422250455630604,-84.62162557642797,39.50649445698051,25.250007023603587
470,-0.7742319397225687,-0.0016299245180730008,0.19380765274845055,-65.87093587567874,34.88098370769607,9.384935301051067
480,-0.9436897643759462,0.055623175877329484,0.5429228423361249,-45.820203455364265,19.80597991098355,-2.1217547247707254
490,-1.1240342083374502,-0.149341504428407,0.3394287467414642,-51.3497911308216,12.2411792907424,-13.783799238423216
500,-1.0105423587455267,-0.25456751805534694,-0.05940838827750027,-9.859451060666757,7.3226689409031875,-9.238092247155253
510,-0.9999108198075322,-0.24698776266932365,0.12159035242376443,22.301427529540167,1.2731965727539027,1.8046228639475135
520,-1.0173676555080466,-0.23549498433773866,0.08334832588698265,61.385856858361564,25.255965194976312,28.81404067147648
530,-1.184865482599003,-0.5502644265188052,0.31536645039316885,151.99120378092599,21.803986672573952,-2.3582376456572414
540,-1.1431072975148953,-0.009112474695414074,0.5836180521858949,93.9897178200193,24.150597562442172,-16.99555968126695
550,-0.9032004526851657,-0.028251260727790335,0.3592992859418565,93.20540668199679,4.848922986255716,-23.138727051254385
560,-1.0685021321554542,0.4367039164052401,0.12891094598731895,121.90020483668296,-7.458971716387029,-1.4316760107745736
570,-0.8270702196631434,0.4497121883056871,0.047246198512708254,43.914092257654175,2.1165924446709665,3.336391582545245
580,-1.0024056968561315,0.6797299758867732,0.07532413087582027,18.44396346600681,2.8595816429912304,29.60381703743304
590,-0.9830540851271105,0.3634186515513691,0.08988475863802603,-14.124185247096136,-1.3632354106369629,7.477565351621238
600,-1.0116864232198324,0.2287792678105018,0.1063440931547516,-25.78920412596856,-2.9944348636934763,-19.639691977502768
610,-0.9823188343976152,0.1963726015190547,0.12908555611719208,-19.585470199815397,-3.4456485871196514,-30.568068000673854
620,-0.9944201136826717,0.1673941235143301,0.11088890948939535,-13.776404356227534,-2.439448128156345,-29.827252332265825
630,-1.0396793603810248,0.1229434187299985,0.04777811604031544,-8.722238672958282,-3.5334901434046277,-28.844531984860843
640,-1.0317945842615057,0.08891446668734901,0.09490966411057478,-12.943908039990355,-4.5516417020071,-17.00166086779107
650,-0.9658111206587001,0.14444497366529235,0.15201311163128906,-8.66041971509618,-1.9165335522732558,-6.93387213816477
660,-0.9983774363517057,0.11431459661897277,0.11368206594214625,-0.4634032798714849,1.6956652468825009,4.943839372223804
670,-1.0081417142612925,0.12374086789142283,0.0991342770787603,4.276771252242886,0.9885607511989676,10.435516257287947
680,-0.9946828891390752,0.14863677228998118,0.12949988925951017,2.4228364696018465,0.04112251745923867,9.527243998142142
690,-1.0079369724555274,0.1408484442004113,0.11673863909463912,0.09462874587864178,1.1301719010848674,5.88343237863044
700,-1.0104000371149517,0.13307429018392877,0.10704662343611566,-1.4953202182264835,1.3981189913175298,2.7732520792193123
710,-0.9941740169812915,0.1422183943698368,0.12794063064894,1.3550441060904286,2.3008160381263014,2.96154130796679
720,-1.0138386436967535,0.1409673025875772,0.1003042093507986,2.5314850846403205,1.1486660492802907,2.7942627391436736
730,-1.005426051132143,0.14796645462731872,0.1081152815684797,5.126711078805705,0.178339275968612,1.5792770250522805
740,-1.0220031869031243,0.14124001635440905,0.09796617929970719,5.069362868031394,0.06610084236961022,-0.5029186490898951
750,-1.0286338032426523,0.11512097400908297,0.09063299761353108,-1.6040074218510028,2.426810596796575,-2.177198313686403
760,-0.9653629387447811,0.1697802294612494,0.14525451725359803,-0.21102597207071705,1.3328842257456692,0.08076173365788408
770,-0.9851015125002841,0.15830180556015316,0.13195141700397725,1.0408653162690358,-0.1771831534658943,2.815456971000744
780,-0.9702156916121023,0.17833610308386794,0.148129427034929,5.170625238631713,4.238174981173604,7.599823582671235
790,-1.0101435668315424,0.14550333285722492,0.10659458120298643,1.1885448726166832,1.297422673735067,2.9394521095019917
800,-0.9983470725486943,0.14534106757794746,0.11749953689164391,-0.2854680667575298,-0.06949875906607583,-0.9035934809981734
810,-0.9964649035757469,0.14547086576867008,0.12078249716919778,-4.460723059643395,-4.794945870544539,-5.361856883906572
820,-0.9862517292034365,0.15287728333796738,0.13980354569631642,0.7105259000175738,0.9488502073365139,1.4406151402789227
830,-1.0066954854185857,0.14120371482963986,0.1206207864876859,-1.2828397900523067,-0.5869282441109795,-0.45262783538709406
840,-1.0031646958901548,0.14688165654351185,0.10312270684462677,-2.87570079764412,-2.1355377191849745,-1.2434951577862052
850,-0.9902282795916456,0.152319643356803,0.12654004772041985,-1.7421387947512943,-0.7983355404904096,0.29624140506821905
860,-1.0025769567090201,0.14384537873897432,0.11385901318105313,0.6414699999875787,-0.9559141441180138,0.36146722361180317
870,-1.01056975600076,0.12995560978618798,0.11769845579263419,-1.7899300550889738,-1.544027562007091,-0.756743987955961
880,-0.9848554015292815,0.15605067856500549,0.13593669273469,0.5028926879193591,2.08049753486912,2.624428297379734
890,-0.9960584523512251,0.14768564013232968,0.120708642378008,-0.7066341295065257,-0.13106388028136512,0.8110125166276596
900,-0.9969580479560178,0.15533794264833156,0.12492772117708145,4.080561375221166,3.3450737204105714,3.8697053161503385
910,-0.9731597576288359,0.17958926281847878,0.15561134972854934,-3.4768568728191207,-1.2758199216711668,-3.1516984876555703
920,-0.9987865249553276,0.13721844720521897,0.1254214596516064,-4.892783357139163,-0.3857734784788621,-1.982078929767964
930,-1.0025586607478756,0.14006001334091467,0.11978542419719457,-1.1952315400615616,2.4510090140775773,1.5583387114710185
940,-0.9842839964056229,0.1733125981171647,0.14117802739025082,-6.108989156567709,-0.554830443544676,-2.150550435190539
950,-0.991478441961854,0.15747270611986688,0.1247713941602996,-1.8286025036094347,1.2853122288349348,-0.5680126879122274
960,-1.009947090247933,0.1309895007575268,0.10315425520074259,-2.380842691336179,-2.0459174649965495,-2.5193909006668633
970,-0.9859802004884111,0.15272067694342176,0.12036539508694598,2.349248488375047,-0.5492825951692536,0.9047902247709297
980,-0.9848140493317608,0.15957135070180478,0.13463922217490523,4.5870763926543985,1.925532665381047,2.6202683778905445
990,-1.0113282032474529,0.12675904729500748,0.10985971291503076,0.7430924059954318,-0.10371587592060838,0.9541192057081964
1000,-0.9763896223006403,0.16596571313853187,0.14400874047432008,2.1038955691663386,1.150036242815449,3.9116956784375247
1010,-1.0013806955990971,0.14682099312791508,0.1157106053519332,0.09894040259836229,0.8413167199672225,3.539068562562137
1020,-1.001855427933049,0.14797321111565023,0.11603664742236626,-2.191663345579401,-2.4418758457268686,-0.8316271930860186
1030,-0.9964541217205156,0.15610908726582132,0.12268260682978574,-0.5831187572255476,0.6746021081474138,-0.2126623115750113
1040,-0.9744437895006536,0.1734147851969891,0.13807488864286377,-3.264033594314369,-1.525075139337249,-3.8665504231244796
1050,-1.0153512217572793,0.13241006326696794,0.09543318206453184,-3.3037904103133844,-0.8682712688181113,-3.803806684442449
