time_ms,ax,ay,az,gx,gy,gz
0,-0.7660604498536641,0.36137178963612365,0.4333240236660057,-0.6672187025640792,-1.2625427634927555,-1.0447685859307931
10,-0.7852757725771291,0.3451100807771542,0.42102629885395415,-0.3185904815098406,-1.3557096151949355,-0.8443629509823684
20,-0.7793917857768732,0.3557377422098145,0.4250065976745696,0.6553903667008876,-1.2468138692311972,-0.6987896047061604
30,-0.7839432189005169,0.3490235477099359,0.41925475879466356,-1.578987810539085,-2.475044102738458,-3.363971843274667
40,-0.7856919877389834,0.34695825237019945,0.4163548770827976,-1.0803320828148184,-0.46529299295808124,-2.4761953759024777
50,-0.7989469752761279,0.3349580028545225,0.40306068962362085,-0.03711703525965726,1.4556714461469342,-0.3405646483731304
60,-0.7630246121238232,0.36887395082012864,0.44239410864820167,-0.8416530621786816,0.840035088903657,0.014828720334556511
70,-0.7740675698350523,0.35932023590589457,0.43483097239721386,1.1005618801280765,2.29986429683645,2.2166963056302125
80,-0.7714440185512788,0.35878816468729763,0.4284582350386431,1.7784602207958344,1.2586701203093233,2.3916644328797894
90,-0.789984508734006,0.3445131834936399,0.4153324102350012,3.382763918264402,2.617569118080345,3.1565837015005056
100,-0.7722638725478408,0.36268148508216985,0.43230932720736515,1.756212524866356,0.936789338968505,0.030279492013630893
110,-0.7780100879394749,0.3562041080460236,0.4273553100579851,-1.7565554342521086,-2.686448665633833,-4.212981515821364
120,-0.784636595001406,0.34796167934154565,0.41894547600467125,-0.42703001218775716,-1.4643531293986467,-2.9612695936198534
130,-0.7825978669650053,0.35044335729911386,0.41733999664220267,-0.06648068505152321,-1.1268871803010279,-2.5845376088980547
140,-0.7671014632812934,0.3713019023818801,0.4367024489123303,1.6696639743229937,0.40995258384292654,-1.0283366187735368
150,-0.7654024195901983,0.365794329906987,0.43563709530539396,1.5189380400674994,-1.2166222089391008,-2.830948435031787
160,-0.7739300093391371,0.3630035714593315,0.4324672582562289,2.4511192115144853,-3.7378151722516257,-4.447245792531014
170,-0.7919664171626303,0.3734948318754327,0.41088461719328506,9.551816097635792,-5.449074793266579,2.7818216155724746
180,-0.8218065010005029,0.4153999431141787,0.4584999556207441,6.159330907468109,-5.353056316106709,-1.6649628274176809
190,-0.8313919771333205,0.5022299355833656,0.4947280518258674,-11.234552713823597,-9.513788875452208,-2.0678562663326496
200,-0.8694585011763385,0.5717071456810421,0.5740425941378368,-23.023406056296878,-22.255624870954453,7.736287463684218
210,-1.0263722148861794,0.4847250311446858,0.6397132769167034,-30.209885022123377,-50.60284765516057,8.828873526171515
220,-0.9861588172317268,0.4356309555477069,0.5549256909477663,-44.40612632235899,-61.20957098709642,18.247527109882306
230,-0.8792319765909924,0.35839008080171086,0.48816286885799137,-45.04733840528824,-71.772753129377,21.723049689029942
240,-0.6894338764885173,0.43265704057843474,0.43712659235636403,-54.7718473008349,-60.08619837161058,26.730262086565844
250,-0.6633177411889538,0.43229598931147917,0.4371712438007631,-57.05228677945942,-47.57954953654904,30.56140059127241
260,-0.6326662035178073,0.4216949067572061,0.4667503484789746,-60.39112111254357,-41.391051189392726,27.72496607229544
270,-0.5965526700819103,0.3570453462673522,0.46255446198626876,-57.85474745617967,-30.476078864502213,25.625745405049422
280,-0.54592509313463,0.29888744108518733,0.4785722848503456,-54.14128738552908,-19.955632000524822,18.311186582746238
290,-0.578376761352118,0.24166497272918186,0.46842292487905407,-48.03237086011272,-11.324481693530325,8.467506700997877
300,-0.6181593313673399,0.23820053528458865,0.49788103442566106,-42.14064494605561,-1.151337705755053,1.132403168746039
310,-0.6531069845579236,0.26581533381921496,0.5033534933774878,-29.56368170770066,15.80350504577684,-5.948471386926505
320,-0.7072682776462869,0.24900405287580804,0.5115240549395028,-26.765712411959687,18.979383469458913,-8.933910076232154
330,-0.7403360639376887,0.27603786998758,0.5066107128095507,-19.997032641811302,20.383056128465064,-5.491602077258998
340,-0.7795905844649628,0.2774395469450643,0.48689905563578506,-14.719590172254033,17.228847022108592,-2.8666498116702748
350,-0.7536560252838467,0.29119875428190106,0.5124998462919557,-8.803047584790841,16.130674556998613,1.315830782156145
360,-0.7639197000598802,0.24450514427217981,0.46787109734703736,-7.144068853833683,14.314647388597715,1.5518662535084373
370,-0.7287742918216922,0.28174206002160773,0.4964410327915366,-3.8566718424146114,10.629711492132895,1.214965560328011
380,-0.5786039106708727,0.2184145479097105,0.6046552713106971,22.5888960873627,-16.828349627642297,5.388338166672115
390,-0.7246385269926425,0.34310787841422646,0.42486178757201704,21.909895867491425,-29.47361893518984,6.125539857011719
400,-0.9717054399471368,0.39693277198594373,0.2019804228691855,36.39347220585577,-18.943359065858687,5.59285804482341
410,-0.651589147541365,0.20920871471615235,0.27065573515439334,30.960794982695965,-11.537690507709106,5.358873120031259
420,-0.625676821376071,0.09799886334787963,0.4892903104529606,23.68128256553132,-6.593092492664793,-2.977534225930394
430,-1.175646465330783,0.3325627457967285,0.7458960824747919,34.540370062705996,1.0658867949379738,-13.589261034343394
440,-1.3647416194875917,0.4228994841700545,0.7845463588453484,41.827587466915055,-0.5002477452987331,-14.556874111686811
450,-0.4441983072031901,0.061534013216041,0.20755077042582937,40.1203621574157,0.5653369414343055,-21.759101313067514
460,-0.5168955434492674,0.3201149888695061,0.47868818580732836,12.515709638405022,6.775628359143658,-0.06737988493599821
470,-0.9671064073179657,0.3989979011378776,0.9738265255113754,15.60848368966399,11.811184193941914,-4.639815284307818
480,-0.7004089573617402,0.2450315708401492,0.6105906028548107,6.763209268520504,9.826198828335764,-7.3365829600206345
490,-0.47271920108835175,0.13813782681253445,0.3103724118190895,1.2171900274606167,10.467911199684089,-11.376255004508673
500,-0.6555645313650703,0.3009861089645152,0.4300633625461684,5.777806541905261,1.6432063537269634,-14.002221601763395
510,-0.9008338318926492,0.5365972933848652,0.4684484302821701,17.139992060143374,-8.30117348981429,-2.3568003563606896
520,-0.8381594035942684,0.31526975484520925,0.242937118467548,8.007185150473008,13.285176191547952,-10.051121521795332
530,-0.8096015937390321,0.25648781963857253,0.354768084143975,1.6766689879268304,24.23106162430888,-12.268250998938406
540,-0.8042284227293586,0.3843367044693354,0.22993325593384994,9.59983088318989,31.64282087972458,-1.1281468193152975
550,-0.7734794793764437,0.36543673220361594,0.9887962405897888,-10.786464928696603,32.20946642433723,-1.5058265433587814
560,-0.8041024670606374,0.42784368281145396,0.6482104439745009,0.5783361571600326,34.00964067509364,6.22904376881744
570,-0.8139078381543977,0.5321252046346967,0.2026760151193618,3.1202297529291236,25.626667891859338,5.105651326592993
580,-0.7506928574567358,0.497750129915729,0.463465081427053,-9.11014200130543,18.79681629172428,7.632826531036802
590,-0.7329136470976141,0.3199666594897062,0.4076371710738113,-5.342272017733732,14.113587784215465,21.425572767248276
600,-0.8644295028919413,0.5768188127935084,0.7968254541274853,-32.89224392650287,17.75419575582364,8.33654943780819
610,-0.8011958941752322,0.8585450646178486,0.6440563368864691,-20.170241030069025,16.61677992563957,28.387671368186563
620,-0.7976224629591483,0.46384830229835405,0.9534910459614363,-34.391839497188876,23.030662218019984,3.5810148818596232
630,-0.7544759827912877,0.3603125223079603,0.9249922980830172,-27.420647229857327,9.361449387275611,-8.818303931699782
640,-0.7192277410867736,0.4345572068392594,0.8663292204988335,-11.330544235958527,1.9004177788546555,-7.538819755651396
650,-0.788482169275678,0.3010006319562949,0.7145080280349767,-4.612625466889834,6.2597825838414565,-4.856570243422857
660,-0.7772459984306302,0.11688034842559507,0.5004610285389862,-20.97200344612864,3.7014412884974512,-8.679043957125936
670,-0.760185094437052,0.13780957816443365,0.6047392757077918,-50.26360191151365,5.512240786585241,-3.1217839021275995
680,-0.6648781112602925,-0.05905663985990777,0.676092363526613,-3.037407595389635,1.8151451420375921,-11.538059812648495
690,-0.7656340459338193,0.22089685897693695,0.5054665890693572,0.10072210456938402,-2.378089420836596,-5.41810468707087
700,-0.7439075578794793,0.3549516085080517,0.486826033486206,4.6211142550363284,2.728299247940903,5.5989841420123145
710,-0.7656289703760446,0.36114773988694987,0.46128986005556527,-1.273578321205842,1.0488929097932898,7.262764373320387
720,-0.7606226753045098,0.374769064264248,0.4729364365433505,8.165649968538961,4.937305390941284,18.418254824702032
730,-0.7640671617787242,0.36291444246235477,0.46938789606761416,20.73312988750459,2.87247380896959,26.763745854997225
740,-0.792131674389116,0.3476229931052136,0.442905153875772,22.530083164037023,-0.45263117038087985,28.882666718880888
750,-0.762010119178819,0.32239731702286367,0.47868208258589334,25.96632633637751,0.40350615773068504,33.4807577320443
760,-0.8442309020345701,0.164315042006553,0.1219846221117007,38.32573895444501,-11.222694755135144,0.007472043095264613
770,-0.8553887685846918,0.34499200583919065,0.3367354582961902,49.308408520107676,11.176043914473802,-14.529811444287045
780,-0.8347164934849782,0.3168499777156383,0.4321030444693506,49.80776870506917,26.969775815764926,-30.10665061287463
790,-0.9237653304747168,0.10613246273086423,0.2698486862096881,52.90453093713234,16.82310842051224,-27.48158275238164
800,-1.0333019051079269,0.3025174449726726,0.278449389613967,54.98222829325252,5.187674638932426,1.5834049408191668
810,-1.0334078390807349,0.9367714417424406,0.6037260020019587,30.542439274097205,2.2163616623834304,19.76813420884686
820,-0.9944627110898421,0.6650405080630575,0.45997206238816596,16.465228074580125,5.5992459608107366,13.701202242597624
830,-0.583469578170576,0.5958223809063508,0.7559472007715282,-15.403742925469505,8.891442216860577,-9.45768181794141
840,-0.7948565418554746,0.6130964024695239,0.5567681233492743,23.201612221914296,4.591704456452043,5.1096673525284615
850,-0.8033277180802372,0.5571848692208978,0.45864549393068144,5.239749566316068,2.7989834639975166,-6.747306717022005
860,-0.7582281256419012,0.48674240911292127,0.4575854565001207,-5.666620736996185,2.4875881687693364,-8.703190223792124
870,-0.7609505615010111,0.4259088374309455,0.4597437183187343,-4.5177727160130186,0.7177975006484892,-2.238183758397432
880,-0.7799912667357416,0.3966838563018156,0.44659018071400475,-7.145573167606716,-2.614274682225629,0.36534034515141856
890,-0.7665709020514095,0.41155419487683176,0.46264545647566685,-4.39867638664461,-1.4058081647664924,5.85226772093953
900,-0.7803901645171482,0.40642207016438275,0.46113082320166865,-2.9001588287752584,-0.7145876877892865,8.276092074480754
910,-0.8001590638109137,0.3938581577064771,0.43685035220538176,-4.434126782775119,-3.148144329107909,4.3008108834209375
920,-0.7840420209986286,0.41241943680145154,0.4521930269435189,-4.029816514726857,-0.8120763222444902,1.0360426280147665
930,-0.7735542726194993,0.4099799336361736,0.46242572921789704,-5.3401028180795045,-2.0666776357202257,-5.328109200624788
940,-0.7619388833371292,0.41312469404541224,0.4692206353488227,-2.995780039328378,-0.05384049647982603,-4.930589424598091
950,-0.774582150251393,0.40134660246101245,0.4526084338783119,-0.42918285975516657,2.4734266182846385,-1.0741044539130702
960,-0.772192452714141,0.40472262183009927,0.45675555071006096,-0.20249496730548566,2.2397867685901502,0.22618021776325314
970,-0.7539905409247744,0.424250349575595,0.4719072341076969,-1.3370425619360433,0.7178906888870031,-1.3247487916464695
980,-0.7848193066180492,0.39332177215552294,0.4523231687507192,-0.3561974783575617,0.672559619840317,-1.6046095161478187
990,-0.7376496226349594,0.44191674973393574,0.4954615885537796,-2.720252757279845,-1.1485917222813278,-4.508116926688268
1000,-0.7798937209757697,0.3948517333683215,0.4531296415879319,1.6215177898088935,2.224725920021953,1.4651821823935394
1010,-0.7571064997334526,0.4177008136794798,0.4720001333358028,-0.605167466384346,0.7330861254736226,0.9002830821215422
1020,-0.7622186451298212,0.41542902288430894,0.46775443775082437,-0.68467657431348,2.2843148427054465,1.3576389015420158
1030,-0.8053264111211624,0.371817018394422,0.4293085084928989,-3.8925328752494144,-0.40948116269310575,-2.4540931910745893
1040,-0.7862451155237409,0.3876380677625438,0.4422768679637223,0.11364981125767759,2.8104242824493495,0.23107638132136854
1050,-0.7602310182240318,0.4154255788769206,0.47367667561049154,-0.7041752849509333,0.9882447753724302,-2.535220555608393
1060,-0.7757931209219484,0.39401915567607526,0.45660403832917296,0.4903571810546965,2.3511762882925664,-1.0718847523704644
1070,-0.7570846550748672,0.4155558663780253,0.4749217894260471,1.6196389637373836,0.8988468411588305,1.0005585090428566
1080,-0.7853628913196193,0.3883129458868918,0.4457919868407229,0.5143102098076886,-1.8361241589841857,0.1760989080165476
1090,-0.7510077499373664,0.4230580873169535,0.47585903927259743,4.549691470837603,1.8618055794677124,3.9621117282822973
1100,-0.784747495410687,0.3909242583159842,0.4405083967293511,3.2749043152174426,1.3784567378639059,2.422580699658886
1110,-0.7827439098366289,0.3929763745547087,0.4477097853972624,0.9808147129383309,0.622432435367409,0.11726136885621863
1120,-0.7677721464242957,0.4008635649021406,0.46202180220310557,-1.7293938832080635,-1.300875060941499,-2.541763618040599
1130,-0.784329434805642,0.3849807802718349,0.44582420584416554,1.1780305162897604,0.2778912288757913,-0.008149730098496233
1140,-0.7671420150881697,0.4057223160090284,0.4620706528963083,1.179991854064217,0.8879303183074122,1.4376649465256666
1150,-0.771097449309585,0.40486870343785375,0.45698356270602,-0.8834958864182576,0.8850230105585066,0.7054132792521989
1160,-0.7851320475875656,0.39525281695170794,0.4439191466372221,-3.4591635199415034,-0.5988222515183566,-1.9008347273915223
1170,-0.7750493054288543,0.4036797034343137,0.45434283713037144,-4.358571964408758,-0.8188595310272856,-3.28151187641243
1180,-0.7781375975736644,0.392963773944741,0.4512744251040684,-3.686011211681624,0.40133674416067117,-2.930037085678243
1190,-0.7782575170086825,0.38987324069256724,0.45477404146702527,-4.796904437786928,-1.5595440009187778,-4.761037478648211
1200,-0.781745569258368,0.3814705834461137,0.4504037069245198,-3.49898251367529,-0.886474449380171,-3.293545843657398
1210,-0.7650621615698602,0.40383001059344814,0.4598527486897893,-0.2785674047610186,0.46641456052504077,0.7328375519865364
1220,-0.771170545414672,0.40240821801554166,0.4574656856729947,-1.123578696317766,-0.7475646101836045,0.1415674371823068
1230,-0.7941151935585243,0.37688025707173256,0.4355774771176917,-0.1478668006180458,-0.5972773221462042,0.4691687002876921
1240,-0.7835543567400721,0.3859298800519399,0.4415988526506369,3.9549263000853587,2.6616973019832173,3.881581288133585
1250,-0.7538768323528434,0.41799967726609527,0.47276469543938004,0.7106944102205914,-0.622630114108518,0.2055177229145409
1260,-0.7585552436001637,0.4153847335548872,0.47813279839704736,-1.038281954917369,-1.6210597107062605,-1.9234309289134386
1270,-0.7444934536770677,0.4286483772085197,0.48352627739081927,-0.23777708744155612,-0.3552260485654747,-1.2154488466232012
1280,-0.7638642179868911,0.4054420250582714,0.4677966908901002,-0.6983538282301635,-0.7232866983958544,-1.0676376642380838
1290,-0.7805664134947544,0.3840164864555866,0.45001986853110293,3.7290925159886035,2.980217603378413,2.6198028368410275
1300,-0.7800262533921557,0.3866597962521809,0.44954470278898473,1.8988979045065402,1.3141084483387977,0.26334051999746366
1310,-0.7727479597319069,0.39433269775208935,0.45665170101351626,2.8542879678310697,1.8257874679271575,0.9960707334090092
1320,-0.7818100652043282,0.38464565718162935,0.44577936152328923,1.515858007577532,0.029263514497144205,-0.32223068606248256
1330,-0.7742322356932041,0.3922087305513602,0.4518572564906985,-1.5924976107527278,-2.4116844053154116,-2.9957115843320397
1340,-0.7535322455753074,0.4124947182551648,0.47675813014139495,0.4298315343169668,1.1685186505205452,0.09073911818564173
1350,-0.7772712599835558,0.397971946228758,0.45468066016515263,-0.2644148019728143,0.8664865209841318,0.4374333490865481
1360,-0.7778525940597294,0.39129950174364664,0.45114385484697483,-0.5729722342894685,0.3805974959666462,-0.29553152363742424
1370,-0.7660949411739704,0.4015001655220412,0.46229408359887164,-2.6175033852896465,-1.830376309352518,-2.1259596591097734
1380,-0.7522799174320265,0.4158935985740717,0.47473669584947653,1.3238243152415572,0.9858490692685477,0.9916890005408033
1390,-0.774918936018999,0.3964644589560042,0.45236347630851964,4.721710053455425,3.5389633484868397,3.651749243362297
1400,-0.7960137618567071,0.37575101371443403,0.433183480087346,0.20324947534425886,-1.3957433119128797,-1.118053159688783
1410,-0.773189890270785,0.39407238315586834,0.4558364962245069,2.538088609703258,1.0167253487863936,1.473069257235728
1420,-0.7675250060915333,0.40280412880203553,0.4559238354944401,0.3648286253662619,1.2924524354217946,1.2376675374874804
1430,-0.7719635808806969,0.39420502443626565,0.4510654725398177,-1.5746350817916905,-0.8705893799938305,-0.59733589732813
1440,-0.754074005580631,0.4194996058582056,0.4765028266918544,0.1844374413167487,0.5108219083639399,0.8809505916202508
1450,-0.7780513777666855,0.3958938007139656,0.450019389358912,-1.2912830124085963,-0.42622582851371293,-1.0742008222038242
1460,-0.769092637226837,0.40457170584770713,0.45876837935872067,3.06268327408204,3.8058227454948663,2.836135925010007
1470,-0.7580607878812652,0.41503173458566833,0.474140149821417,1.7401297824186859,1.747726902632956,1.4414254911102322
1480,-0.7919494659344645,0.3794097230079794,0.44081316035041246,-0.4251990530698656,-0.43617530866157306,-0.8392469697897664
1490,-0.7587201419216012,0.41278248695155323,0.4668431029952399,-1.9898661562674174,-0.6329283623528166,-3.230079627404161
1500,-0.7783274778436206,0.398051619579251,0.46005792085098607,-3.24767509128802,-2.1527391194907124,-4.09988765845712
1510,-0.7877032527935133,0.3774287018390341,0.4433018358136398,-1.176806483290862,-1.1737805402001258,-2.1276421451273855
1520,-0.7333894099012511,0.4320192752253886,0.4960900229128294,-0.437665135918165,-0.4560054994045132,-1.0393820573377535
1530,-0.7830366459605648,0.3858244345006406,0.4460408959480641,-1.1601918421982205,-1.520260656279851,-1.4601570102093593
1540,-0.7902946418775376,0.3796868794305198,0.43776740451182217,0.5710864426178309,-0.18666797942342422,0.4591090385774953
1550,-0.7693766416395575,0.4005775104766987,0.45820365791081663,1.1966965816963686,1.1276162883840837,1.2719422438955619
1560,-0.7651565329193805,0.4069171394533632,0.4644790899213223,-2.3333950342330985,-0.875846753339412,-2.186647097609664
1570,-0.7956903687286446,0.37807163041848346,0.4376503705359904,0.9730458165020663,1.727664918693513,0.5455945039304666
1580,-0.7864585068866805,0.37874798769539003,0.438167931385135,4.027830097085332,3.846974182842271,2.9587724610206108
1590,-0.7761728750230401,0.3852559106795658,0.44952056933106116,-0.03163658252777102,0.8717551597399569,0.1317297872369374
1600,-0.7508372303081345,0.4127437973291557,0.47905816400020523,0.326573922000374,0.7972421408496354,1.2567754651435559
1610,-0.7589049780981252,0.40534683492663626,0.47153664423363484,-0.11494428775999735,-0.2010826912164752,0.9808085164626361
1620,-0.7561796432303366,0.40896583200424763,0.4725887849812659,0.34560734923368924,0.07912425824065458,0.1721113952258495
1630,-0.7640531922288194,0.40306134634147395,0.46317539024527693,-0.17694041178460992,-0.2193989288855975,-2.053490175500301
1640,-0.7641996605889659,0.4017906063589885,0.4617071074369463,-0.46504365597660824,0.2263391469632923,-1.9091252600622561
1650,-0.7671434198732352,0.39896151758167414,0.4642146564245366,0.11709310050997912,1.334955565893221,-0.75320788479458
