time_ms,ax,ay,az,gx,gy,gz
0,-0.8595891231675235,0.1220484141236685,0.5326496431555572,2.3889301494993416,1.4723364308107532,1.8924654536246768
10,-0.8370482477839021,0.14395838968367977,0.5490818452282787,1.9468786039656778,0.5502072378985532,1.6952959867426958
20,-0.8351657804737891,0.15812744294031955,0.5490716560159375,2.242325135760225,1.5252338517396424,2.323294940099804
30,-0.8237732975838103,0.1606347306684092,0.5646757851184204,-1.2675167111722114,-1.5960435578203414,-1.5635083016489015
40,-0.8354242910976661,0.14861719238897997,0.5457895025387867,1.9696229754057015,1.9320859581755299,2.089066766504635
50,-0.871717116553847,0.12174409753548082,0.5181617650078677,1.6491806430684888,1.2862919712921306,1.934077534808293
60,-0.8590991015946301,0.12997387812807001,0.5242646944626994,0.19116255913499425,-0.5194209871427774,0.49258799770196937
70,-0.8570120499525695,0.1329117146704789,0.5289833987166569,3.4911630718505284,1.9001855179394755,2.7699762215868406
80,-0.8376673920065469,0.15254143097624062,0.5507543226162644,1.1077202562186594,-0.6182907136465166,-0.3436799158442594
90,-0.8310580973151388,0.1611001429288184,0.5565675871605766,0.4312189076844286,0.2286644686459115,-0.24957598298445768
100,-0.8386998672948208,0.15197591482471873,0.5439192304709725,-2.299450338027281,-1.2080572878199274,-1.933487018821559
110,-0.8631256274015439,0.12469692580962123,0.5150155791733535,-2.650365603466824,-0.933133762364496,-1.591424745092714
120,-0.8579466657368104,0.1281735687244392,0.5244142761725811,-1.6386696889798245,-0.14197437769845483,-0.8321697743934348
130,-0.8646832537586506,0.12303504564795002,0.524588224979252,-2.235872762261408,-1.7322342781071856,-2.205487816815725
140,-0.8568520743879343,0.1313122491950591,0.5312827903729798,-0.5867053461407703,-0.5502113433146567,-0.5156759522872747
150,-0.853986424307125,0.13714751580589338,0.536412113307218,4.19246791003136,2.2204481245577887,3.0293869535473723
160,-0.8913354233409002,0.11366662061977102,0.5069955739913701,4.455837284719234,0.8135472754067922,2.5570553970701413
170,-0.8798604802411777,0.13303758752653988,0.5106990029544997,-2.592542237182231,0.12312787751688176,1.447278957796612
180,-0.8551787385135591,0.18390038622087446,0.5455501596417003,-12.342512646701485,-5.09968310912766,-4.5377250835286045
190,-0.8828696251425526,0.16198561599485245,0.5947517919358017,-15.527295941371223,-5.819656784751188,-1.5280682820650864
200,-0.9700641148002874,0.1539062268191203,0.7914824911258194,-15.576040278433984,-16.20344779444619,4.370376562644133
210,-1.0302237342159237,0.20296979549331598,0.6926559424927804,-9.601599488039938,-29.43510336347362,9.563331049195899
220,-0.7535405962024297,0.23540412799030852,0.48163774078702026,-20.1095064349956,-44.98593095893652,18.03611233464674
230,-0.6097419713539229,0.23856624810164861,0.5223675329479099,-24.979744092427193,-38.91809096014256,22.63380569971995
240,-0.5692907467722199,0.2718857947080968,0.45631607691339887,-25.376118296676374,-30.897148200974254,22.467109078251422
250,-0.6483932768410096,0.26140848440426895,0.42374355131182534,-22.439339627143365,-20.57968159476725,28.05134972933129
260,-0.7054994891904304,0.2244166832225747,0.5711329853906332,-19.305989629251126,-13.332260712256579,31.696429516327946
270,-0.7586162989486028,0.1886677198041751,0.6158367411466014,-23.64968753778963,-14.59144319793387,29.00953198739182
280,-0.8234219631692012,0.20255842485922163,0.6189934445309011,-38.7377978965663,-18.41992541243475,10.480161045045147
290,-0.780496310180206,0.14906480720924076,0.6189925362701417,-45.11142939511655,-21.04049928075991,5.099027370947592
300,-0.7408742825952941,0.10346986976150016,0.5823180835150779,-43.32895435256751,-18.123940008562574,7.285149769533764
310,-0.7290650053320246,0.03973958924988321,0.5733720500734856,-39.13341274696288,-14.74394583597941,6.922322998659546
320,-0.7389076446688526,0.0417448765566679,0.6073712673225558,-37.37454496835837,-13.827757348213149,4.701706524609136
330,-0.7761585757102878,0.08723359943284135,0.6470579080995984,-40.41253156024967,-10.112012965887525,7.135485402298422
340,-0.7888724264931345,0.1333693475438879,0.5980495809529192,-33.09258205144115,-6.968572630478808,7.9878694983221665
350,-0.7737226223578964,0.11127814830021074,0.5986949506862261,-22.374646466709372,-0.701225725658591,12.846466425274262
360,-0.8090187064449886,0.026749406255399528,0.6378260573717928,-28.817829804507568,-4.846846187688513,7.664926775329214
370,-0.789277728331295,0.07147348449580727,0.6243075437524256,-31.707423448066233,-4.55220800634878,3.7212703460656416
380,-0.7710879778316386,0.1114790344526926,0.5148947732388832,-37.535342376186875,5.559540238426024,9.343665213621035
390,-0.7255797168516442,0.13356651221506755,0.4950576117431825,-46.39875311273579,10.928113663752121,11.58530803332312
400,-0.7323915982141976,0.07878064963493134,0.5481061109600592,-33.86137180611634,21.719971886453923,14.22424597055351
410,-0.7744573199382718,-0.018048312394570037,0.7129080159023359,-30.44275235266688,21.867811260103,1.7945187884822082
420,-0.8650602796634375,-0.07432340056673524,0.8963520271821227,-29.862298080364447,13.059106374133405,-2.287494328024702
430,-0.880159875455547,0.019879007282377962,0.9819930552521138,-28.086232917850275,-22.302261755873324,-10.684152548710133
440,-0.8216708113289747,0.04560706280805053,0.7415500949398077,-24.807044062606266,-10.394295526416297,-2.7067594517101266
450,-0.867416566257639,0.061543696882450614,0.591130518040753,-29.191833786709047,-13.668217648741818,-5.796558657549551
460,-0.8150097351311211,-0.010148696506412508,0.592220125395013,-34.138260144849646,-27.448108248510962,-6.3438819964737405
470,-0.6437330455120535,-0.26053199254208614,0.545371824955739,-39.789409995084775,-28.413780420446347,-24.558768408327076
480,-0.7947560054551459,-0.09874720577857547,0.5508178590975671,-40.024306112575594,-18.708183271234663,-15.247691206672158
490,-1.057778363200574,0.15657755837740775,0.349026075217413,-27.41190095134021,-24.89212260982094,-28.86089345226865
500,-0.7300132411591734,-0.3272146514752178,0.35859723942988514,-26.648510340052088,-23.58384982549687,-34.76330791766948
510,-0.6262367457451545,-0.10957236967175892,0.6213010283501763,-24.003229799195548,-17.55380294096466,-33.73341606446082
520,-0.9229261104066546,-0.3698277130801588,0.5359490362767034,-3.363330353604775,-7.11492731805296,-33.211868872110934
530,-0.9408040024320363,0.15772844285007476,0.8481088006666468,56.643948774187244,-7.649621682023031,-39.494678958062
540,-0.6649749597417696,-0.05383247928892815,0.5112178564306472,54.05945867934498,-1.3642904001836667,-45.96582725100515
550,-0.9347246207060471,0.11242256685621746,0.08752329075881345,56.310535643510235,8.628026626218098,-36.03358369734939
560,-1.0200346940572058,0.11264323146644309,0.2616585664252683,58.82863170490876,16.911133909423224,-20.579450161500517
570,-0.954258532626843,0.021120630062289873,0.24416443393293882,53.31336866661732,24.429993109502526,-14.12572276176666
580,-0.9690890604917479,0.16944615727006662,0.1621410243558851,46.06450077242562,30.441025693828387,-3.1400288564756336
590,-0.8733763182142574,0.28752049816543346,0.4127135696892212,37.83230081677553,25.48405692845954,4.472931967820204
600,-0.6306496086066167,0.3402252253145238,0.9455902894102783,29.750900905783737,23.16279312743354,7.2478509102374975
610,-0.6883260713605464,0.21924896790807605,0.9066981477715205,26.5096899927799,35.37087999035812,18.954827147117694
620,-0.8039133305160341,0.45652037104968857,0.4941046964468812,44.11398588432126,55.53110542378124,42.55433688452699
630,-0.6726895738357401,0.621892932881944,0.9043751660983361,15.727558005154382,50.22719260010245,48.39290189867077
640,-0.717783547967622,0.12346906773740686,0.5928591166787283,-10.51944421902674,39.980469158193536,40.87925493632997
650,-0.7894894275740142,-0.1714855449022648,0.768291423903039,1.1349254508156805,44.65774254387961,40.00609878728164
660,-0.687988128707195,0.3551754265338956,0.32108369756828975,17.92932479082755,55.36633099892931,56.74629968244953
670,-0.832131415713043,0.226940465393776,1.6938326730725302,-47.04235027436524,63.77981015498963,58.84765573119036
680,-0.7198403163209176,0.6110062001701616,0.6047205732510806,-50.05352628464098,57.32440542927513,53.962542868921474
690,-0.8714646104886897,0.03355972359138495,1.0583139989782768,-45.57342742825683,32.250043952050596,43.038311528486595
700,-0.5996743360810937,-0.5298247965981899,1.3056811165770654,-14.024574685776365,19.647746064890644,10.585550705423094
710,-0.7432515209272152,0.07988721378791391,1.0418381943516821,-20.992392952024773,27.518132799809152,20.681518039852335
720,-0.7757017387787318,0.0872678171796441,0.7343763946394303,-7.795114898453155,6.115067787035658,4.760642059080094
730,-0.8302406129532541,0.07948010048257859,0.6021234355833652,-11.507769294536015,2.5614532961916834,-1.362597474010224
740,-0.8621686745149573,0.10452724647881106,0.5122963927437381,-1.424548953239219,-0.3929646620059205,-0.025603746430508334
750,-0.8875571078969124,0.10603668414992504,0.4938601328051705,-2.3472992560365293,-2.616590147081008,1.2136689096343982
760,-0.8525929231275459,0.12702122657039158,0.5342554509420785,1.8584441503936893,-0.320717611913802,5.054795285706386
770,-0.8455761201388303,0.09192244237970948,0.5464397108792539,12.618817206353222,4.637406718066622,9.659173601698683
780,-0.7941108960630435,0.498783750967591,0.8567547193669283,68.88888345210236,2.196367517431289,-22.849742178289155
790,-0.9381348567798095,-0.259556068286846,0.5152854628484566,30.931902236033586,-4.916900476881689,-59.41320469974561
800,-1.0870701528953788,-0.4512909188432069,0.4308206113476444,28.963740775443377,1.1237701776584432,-60.52873938644201
810,-0.9538968048585896,0.13323028180152344,0.8519174694387918,73.0602616698995,-0.5093698042802204,-53.59457447419954
820,-0.8014880643455816,-0.11160795163718536,1.0304989703451777,68.42033898489963,1.6478432767413829,-42.25518585654069
830,-0.5086253013247309,-0.41119763935515996,1.0961827519644103,41.33875655418743,-7.233543145676098,-46.703172854247924
840,-0.43761322563332117,-0.1609672459307397,0.8474336728408239,19.038225883881687,-6.416993290953913,-24.74830628722909
850,-0.8516697727918257,0.08091883404697568,0.5303598994135867,-2.1952288929982737,8.116241715732457,18.99000613446291
860,-0.86598681308456,0.05899749188059547,0.6954605249628025,21.50019588703085,4.711080134883248,13.12201429123821
870,-0.8701215126784985,-0.08622672433609715,0.6030457886072748,-5.432717423277004,5.2358636331390285,11.380233392964554
880,-0.8993537809960033,0.19449304124511543,0.447735502888606,22.418325671043586,3.1668471961329976,4.900589129777579
890,-0.8530505563355733,0.24655578260982874,0.5298487435993303,-11.100677562089574,-1.7536124185373339,-11.084829424016455
900,-0.8633991478471185,0.17995324663525733,0.5184609329546361,-17.755733920285518,-2.3730071924317,-19.138591720446517
910,-0.8732673499602852,0.08204246538809393,0.5217578805615367,-13.42896196350846,-7.127851515220085,-18.93854171347594
920,-0.8247376635004194,0.13262287008108764,0.5488270613000803,-5.046732841432907,-2.5841184067889023,-8.254751085256837
930,-0.836776003256628,0.11284512897053271,0.5489440496390081,0.04435781644813558,-0.9051894724524135,-1.4302169684802806
940,-0.8635093553556051,0.12028606086196264,0.5168758605024197,2.59830096216331,-0.09402497740618698,2.7896167443068496
950,-0.8703378201940657,0.12143135148822283,0.5074304884252867,-0.896321965781059,-3.0351352426461284,1.413013156830166
960,-0.8800130651463152,0.11761570774923319,0.5116974376254415,3.2793703480610454,2.3256272478313953,5.882638925429219
970,-0.8582497734413486,0.14269834601740486,0.5325757040788186,3.4378103110467992,-0.27685099286765347,1.1308194889867578
980,-0.8472106243563046,0.12044712691605416,0.5301888917758822,2.7552083801357274,1.8314967517936014,1.930251530992356
990,-0.8750162633165135,0.11933927482485848,0.5090940704302627,-1.2445869108041479,-0.5724969367840198,-0.9715602174062744
1000,-0.8609575649599942,0.13276599996949473,0.5235624732670227,-0.12805417562300198,-0.44699647725549535,-0.4398729263789279
1010,-0.8461763147026462,0.14163011704416303,0.5403335021951663,0.7411886024682897,-1.061978632823747,-1.0858958381345576
1020,-0.8615074957527716,0.12900634200192307,0.52064242956251,-0.5675990266325042,-2.8164853673153214,-2.2891464108863735
1030,-0.8426586773410303,0.1467737686717639,0.5404270361857101,3.5551891194401914,0.15461290041665354,3.2573297653717304
1040,-0.8788817578024487,0.10846178328792774,0.5028971963065494,3.723776314437644,0.4154756874135479,5.034994936162733
1050,-0.8607164776212862,0.13266810354938444,0.5149514613419474,1.3303104838299276,0.2473482145933139,3.836946402807613
1060,-0.8751698788073559,0.1284765663220557,0.5030147446120788,-0.3115657734879931,-0.2772299245923721,1.959140168769447
1070,-0.8575755441621545,0.14722579087309132,0.5208313074424736,-0.9358918771359722,-0.6444135838198536,0.31688722150464055
1080,-0.8461389831840301,0.15014519092522072,0.5287213600876866,-3.0376663561370543,-1.33430864323405,-2.270698093929705
1090,-0.8388106553131941,0.1463012237572207,0.5426773678760732,-3.4539208434409066,-1.6266771987883257,-3.388318608543078
1100,-0.8540205630667748,0.12052469409449003,0.531032793324215,3.6606342170813035,3.0302016246636074,2.489439993512341
1110,-0.8956406926103953,0.08759244453208626,0.4979852694581675,7.990091462626904,5.450626125755406,5.181834893385784
1120,-0.849031531991444,0.1513032032439729,0.5392094086545943,7.30353966391827,4.90450614488538,5.848318936206731
1130,-0.864378548976579,0.15429036640349272,0.5143068287612894,3.4374867432371454,3.166088269361363,4.33537903717579
1140,-0.8475285029513276,0.17325426635987626,0.5397673611516627,0.5763619317258255,3.1015981500369914,3.9348849254616263
1150,-0.8722166829452279,0.14552314298615943,0.5114508234064863,-3.3027471542855436,2.4126053501076763,2.1950182165689345
1160,-0.8509252558986692,0.15799922811261777,0.539941400069416,-3.5889781274550643,-3.219519320415427,-4.813013327914328
1170,-0.876660245207081,0.12290786841366566,0.5000172871820447,-2.8399844349261256,-1.6163420757702376,-4.097141235894649
1180,-0.8486942674363965,0.14474625797203128,0.5288072323890511,-2.823465514245128,-2.103435827809691,-4.823580987367716
1190,-0.8804096657098425,0.11467665342092495,0.5025970198815443,-2.487092928059738,-3.4146719375139574,-3.723508316176532
1200,-0.8443609828429144,0.13858525065486052,0.5400719097502209,-1.7302356223303619,-3.206153477528152,-2.0902736372067374
1210,-0.8647960222624732,0.11742397642428806,0.5151125563029365,0.3006587036140794,-1.4002425774572544,0.24544165530498474
1220,-0.86608857794404,0.11831838816576017,0.5152593930240081,0.8452812415727509,0.262321196693982,1.4802606129575602
1230,-0.8469053385125561,0.15017063243792522,0.5378443640180762,-0.10776001037995941,-1.0039554899205538,-0.0054595385595177515
1240,-0.8605675243293638,0.13708933019701397,0.5206241718638299,2.2910759778137777,1.2592697936160282,2.045725273545711
1250,-0.8501887845710777,0.14830478354657486,0.5284203231255797,-1.8884411279164584,-1.6000786850449897,-1.192821129579022
1260,-0.8649429016601565,0.1301546812302018,0.5224381715407049,-1.523063581970676,-0.3621110750488903,-0.09761460988445794
1270,-0.8715906666502337,0.12391564566004652,0.5157560442460474,-2.585950422370682,-1.5722681236250668,-1.4856510980989988
1280,-0.8660578813528825,0.1319760269694391,0.5177145433124448,0.7026951443582751,1.4462476630611203,0.9873075096925152
1290,-0.8569675465548957,0.13711218600226344,0.5234823412441915,-1.4228398708450232,-0.9668881039300778,-1.9372127430626715
1300,-0.8492109750203815,0.14158882995711214,0.5267032246922115,0.16652843441500098,1.0620834405124602,-0.2507975132374406
1310,-0.8615228694844401,0.12651291976430823,0.5211624163661829,-2.1000885079291254,-0.2726999700780448,-1.6612680809870741
1320,-0.8707087745475077,0.11676279104825071,0.5080955219628505,-0.38819502188676847,0.7286254039110271,-0.06316816228310412
1330,-0.8590086216147815,0.128961177761075,0.516241636764583,-1.0992330103845136,-0.5537045587952251,-0.8328370184442221
1340,-0.8675823962830942,0.11927023094468858,0.5101844993051238,2.1854176012023605,2.456128262101955,2.7164912588668213
1350,-0.871936394617822,0.11592084875407309,0.49918516151045494,1.1119818645006037,-1.5302380160971079,-0.6535687855381687
1360,-0.8718845680739291,0.13137704075341344,0.5138952316769744,3.061804226461031,0.18767229884053088,0.5528773300516097
1370,-0.8789826421783177,0.12118092109896422,0.4979835492723403,2.280552801593303,-0.8619587970614959,-1.401169421450643
1380,-0.8561146918254349,0.12960063134752475,0.5245104271593456,2.624626808301853,0.6821405912313898,-0.5305145194864589
1390,-0.8576700032603956,0.13813791756288774,0.5221429711089804,-4.424397758414978,-3.7640532237168505,-6.15072496636351
1400,-0.8819231791387073,0.11379478163443506,0.5068151764388049,-0.5101682869063595,0.7413370877402852,-1.640877408486515
1410,-0.8674074072127291,0.12509503596860527,0.5206002503651507,0.2157886780153707,0.06821417492753096,0.9420668180743013
1420,-0.8799523712616882,0.10613123833747959,0.498071949046019,-0.5906859127099727,-1.4114301671831102,0.691325447116155
1430,-0.8738456006132831,0.1180615665168365,0.5066046837874008,0.7975739887777815,-0.9778720925391055,1.368992001584635
1440,-0.8547824951097378,0.14593018642260097,0.5290620938936248,1.449913982115313,0.113164848165623,2.344887619263951
1450,-0.8365043979437264,0.1632095001481426,0.543221594408434,0.6454974561242436,-0.6353112988105749,0.7724861144244849
1460,-0.8789078064832113,0.11315083313839791,0.4945707732326834,-0.3052813301033057,-0.1734795993973559,0.36960957098333747
1470,-0.8329856019791256,0.15513056486531757,0.5452840324977563,-2.0447381782339455,-1.460924093116654,-2.376245232902276
1480,-0.8695987590591151,0.12403207926480433,0.5162388684535543,3.0898681046513103,3.038003120149327,2.2195535394141834
1490,-0.8808619337730782,0.10684867317066701,0.5025493625555714,-0.7683383513027875,-1.7421393998565264,-1.8833788697606015
1500,-0.8549366448037194,0.13220766070851261,0.5290867198287512,3.3090547845534966,1.3130957894060462,1.9041892005837338
1510,-0.8361874995111159,0.15449964312836478,0.5489514371074676,0.02882648459260828,-1.701685097660808,-0.2970053476768364
1520,-0.8410330460058817,0.1503018613475264,0.5406172854918355,1.295258202174009,0.7720976045567418,2.4962478775658323
1530,-0.8642171560531376,0.13444498762376264,0.5176633551955429,-2.9933656799937127,-2.308680050391776,-1.2834325031583382
1540,-0.8576094970330503,0.14183714435923891,0.5268573730848206,-4.7834500067971515,-2.8755800905895703,-3.3106508171711964
1550,-0.8848948728215404,0.1085580542658307,0.5009010257042137,-2.900699047923532,-0.7478301819031192,-1.9513530338545957
1560,-0.851761948283503,0.13930602467950892,0.5301452083784789,-4.253714922067082,-1.7216592158843724,-3.2735182436923127
1570,-0.8649960596158589,0.12839047206594267,0.521004929996247,-0.6815117123600833,1.1326518015071878,-0.2422775750461914
1580,-0.8779036848273868,0.10942401670180395,0.5043391648354777,0.7655590059934262,1.5915156280127276,0.724562303373654
1590,-0.8331648420888652,0.14794796000095534,0.5407352785584798,-2.746496819955015,-2.84544850938012,-2.700111840197582
1600,-0.867493865233895,0.1314819629225999,0.5124682062372209,2.859605684399974,2.279583823624231,2.6842819963016473
1610,-0.8811628364875737,0.12053594668035729,0.5018703977327902,-2.8799615707578963,-2.850157292937957,-3.065264914709813
1620,-0.8428170358640987,0.15414557105923277,0.533735933283759,-1.4491945861225366,-1.8098823966131337,-2.1973022891887344
