time_ms,ax,ay,az,gx,gy,gz
0,-0.7689466018896224,0.24687565900249253,0.5344215410959544,1.745961679361523,2.5055127017589562,2.576019601544033
10,-0.7459622399704378,0.26874257531136286,0.5486728710149161,-0.4963744620853745,-0.4791689586706348,-0.3298761919796027
20,-0.7379390002973046,0.27285594137620023,0.5580387702885423,-3.44887548446279,-3.064082773804148,-3.526971996270209
30,-0.7474676341091401,0.2633915861838144,0.55071858934837,-2.866426945341416,-2.7306303663090987,-3.3922894031108655
40,-0.7467550455366492,0.2626258691218225,0.5549626082599083,-0.2598200737643129,-1.0322909319454272,-1.3050925838233514
50,-0.738959254756778,0.26492589970704905,0.5659100708495947,3.5891427692784985,2.073985781648445,2.4425356601320827
60,-0.7303073143319689,0.2732621775727719,0.5696482621968282,0.2888505409473008,-0.8975250471482785,-0.09073702256655491
70,-0.7643673727205839,0.2578682262373462,0.5388605275205623,1.7238541884089806,1.7387048972274757,2.6790281011884787
80,-0.7663561360908724,0.24773944506136714,0.5327748667894298,1.0047138699406761,1.249669345426755,1.1209434661352122
90,-0.7167979577119153,0.28871806478310347,0.5800602712253158,0.3126628957668701,1.186710263702253,0.5238832676965566
100,-0.7657069755326692,0.24029175746076578,0.5335313840739272,2.001754821121027,2.641899819547335,2.1150765458240084
110,-0.7543111892903797,0.258110726974865,0.5491194000107583,2.24280778021636,1.6485822877752705,1.6746896059791547
120,-0.7521849249198949,0.26436194755413567,0.5529533734093861,4.014947547110334,2.2499427111918266,2.9256127301095534
130,-0.7846700687336758,0.23770897435990831,0.5241052829510469,3.8772561210027456,1.3524389187720005,2.524791811088544
140,-0.7689907695270222,0.2718604078847047,0.5409793697062523,-0.479327040049297,-1.0938510664367282,0.8283956605682975
150,-0.7535568101914859,0.3061010177146254,0.5579412785466034,-3.707209923581752,-2.09789393866234,2.1010253686032723
160,-0.8651095766596848,0.28161621317771796,0.6285043495077047,-5.104441289031486,-12.38021852896487,1.4931266891692183
170,-0.9443614723091887,0.3217000275008647,0.6936931683987184,-3.601235253341491,-23.094839017456607,4.454655790316526
180,-0.9137257503830349,0.4058486589781555,0.6418783132077515,-9.153077022467683,-33.40482677319516,5.843510363204978
190,-0.8472854670404092,0.368732662684665,0.6354855200848213,-11.383971864964725,-35.779061550972955,11.93527718424954
200,-0.7297008051227727,0.3653044948054614,0.6285345065233796,-17.44657147306168,-41.86241367991648,12.66435743401981
210,-0.6060431433472714,0.3198906918381199,0.518720017542408,-22.444523673721896,-44.39818664556419,9.794686082373623
220,-0.5005436133728043,0.28854222745767255,0.4234436327593495,-22.565316960360693,-36.30831337008,10.893775679428147
230,-0.5164523116500938,0.292244086056628,0.4703290956232612,-24.36335706379767,-21.910851301251526,12.772116497227039
240,-0.6424773416681409,0.30010251866376003,0.5911987057539004,-26.692659308790695,-8.483430302070381,16.308076540385557
250,-0.7087829518349346,0.2893772098944731,0.6044778816018299,-29.987761767515636,-10.46547035879438,17.18119197940173
260,-0.7314892958144503,0.2660855796485959,0.6017881802611397,-32.871717093978006,-13.509496953675079,13.968011354900025
270,-0.7146919354854564,0.23583566748540505,0.6391830128583874,-34.2720972652988,-13.468225440742868,12.702682406899571
280,-0.6916949473832998,0.26322712147908817,0.6450478406860353,-31.675171507351394,-11.124837004329859,15.81138731636339
290,-0.6602607739788207,0.30249473608079486,0.6530591293015144,-34.70933334985568,-13.942319466057874,15.01218837429906
300,-0.7086364405755003,0.19706437694126175,0.6081130664267961,-35.6024549574578,-12.95820714584592,15.575927410928095
310,-0.7019835133140243,0.11032700328561029,0.646762162759625,-39.013620546984846,-13.001813411554377,10.346162574714976
320,-0.7476482901800494,0.18977366288190917,0.6014187197851129,-42.85882727223616,-12.894703917069,5.099006925909113
330,-0.7940931050188765,0.21592810348866237,0.5557752918988131,-33.39787118394422,-7.7151857201996465,5.463889350515641
340,-0.7328699588477703,0.23647662286727258,0.6187632923145723,-31.78560596676405,-1.9163557242590126,12.700869270047887
350,-0.7000536621687149,0.20705085179579538,0.5898119542329706,-31.208759457461518,2.9214640763503716,15.261087821906743
360,-0.6803593465351768,0.16316371489914624,0.5554568955343722,-33.65934861295118,5.268518077070233,12.148206711577805
370,-0.6700813780220145,0.13705959758955583,0.65458522451755,-34.70312775717734,10.016199007837118,9.246237583622452
380,-0.7583252345902267,0.11321464931001768,0.883701380994181,-41.17195538316293,4.861964978972901,-5.598812600057231
390,-0.8973829170110746,0.20999150078317813,0.8654652681344007,-39.569976037643436,-14.92596045370113,-0.003280883351802877
400,-0.7160781127264837,0.07684527828531389,0.7953896859215177,-33.72099935966049,-14.41925674497961,-1.629695091504372
410,-0.7885594220942651,0.13206989788253132,0.604243177083629,-22.115907822102695,-17.826720570953256,-4.244245582035033
420,-0.7550789319921165,0.08813324403420225,0.6147759762756219,-11.341872058275749,-22.94432075363795,-6.40865190596634
430,-0.6605073051948597,0.015894970287354225,0.6627957242026014,-1.0294584390483674,-26.964590476250986,-9.504847595804426
440,-0.8032328541848321,0.2311849862696798,0.4067797380436191,7.185238638139988,-30.63845924682351,-16.5765651669587
450,-0.7640723608172857,0.5323045515637683,0.4462073283031564,-5.7216999110052695,-22.640052094397788,-17.235090046295603
460,-0.653729125784638,-0.022904608402075324,0.7862960294485166,-26.96415577530805,-16.634568711854804,-11.147961391846836
470,-0.6932774096061229,0.11192453493037274,0.6255978757224507,-27.308561743539546,-24.705290164694063,-25.98020458105539
480,-0.7158379421637779,0.1441327861468471,0.7197660695241316,-19.506808844965967,-23.561619423582467,-29.346302931677524
490,-0.6080820251253216,-0.08001640432173515,0.8928470263980597,-21.7342804254947,-19.32504838388277,-30.197798757580333
500,-0.5214149595413748,-0.2602250360073559,0.7816303096287385,-23.587353954702138,-17.807553605722187,-37.06920972062739
510,-0.767714134094692,0.11142360987275621,0.7158180283082928,18.572894509200125,-8.696992163702443,-31.74515783443171
520,-0.727487931858485,0.05950067500234041,0.45160042284602236,15.15144083136332,-0.5997597878937744,-28.83641496530134
530,-0.8719328428743179,0.08752303050222766,0.3816744264303491,23.0931788986318,4.813543441410095,-18.981966766887584
540,-0.7449869051512527,0.3740705607517054,0.541984471158704,52.18462743696125,12.427455922010422,-10.488423235717194
550,-0.6665519365467231,0.4893467674413617,0.6537529934256298,57.21685819654971,13.966190682233272,-9.44222744168276
560,-0.6952259836216977,0.37316421171053793,0.67213260307091,45.266623089704574,11.390582149219284,-10.549213433852712
570,-0.4997877077765518,0.44246339609681656,0.8061330749258758,62.74266316867271,13.108690987270789,-7.870283767227022
580,-0.7935133849690201,0.14863603072847822,0.27023804771826304,40.46520596939379,22.910425438243806,-14.685959449400428
590,-0.6908273258854415,0.22366931451021718,0.5663256456642343,17.984825549911285,41.149372210474844,9.467479954940563
600,-0.7022496232166932,0.24164366169162338,-0.32588878235528934,30.834729768072464,58.083431039805724,22.312763442593283
610,-0.6155014717292397,0.2517635182195984,0.07935626809141219,46.23201679276249,52.134417929868206,20.825377940494974
620,-0.5081430200174095,0.29808722281672884,1.0608205986280184,51.04929765363614,41.685846380249245,19.228590182301595
630,-0.5539144548175149,0.4168284380361059,0.7395589223259921,40.74034564087814,47.70484125247852,25.772286997101666
640,-0.8527136042004481,0.4569272506953224,-0.26682307027877317,18.026903586037502,63.349526701298714,41.582086486190725
650,-0.6776855333088203,0.31249714502660103,0.4935157934589392,-2.3718842182432818,56.542003324358724,40.064548212275085
660,-0.6659534660970716,0.29941850103468126,0.46073938955835186,18.521983987346886,44.97704632885428,30.165990104584743
670,-0.772287193764425,0.11408616442918809,1.0055242991188933,19.56228330893436,41.681087685926535,28.791793475652966
680,-0.8399922871204909,0.019427482989346382,0.8945968719789826,15.672759334107663,39.2259183548976,28.123305668685408
690,-0.6370209543151699,0.35512035851259316,0.12687035460729285,15.01745267104771,30.97897160199465,19.708970664326227
700,-0.7285712097128753,0.41952100113807494,0.2603577194064844,1.0044912909696462,34.30215293152236,20.23988146227389
710,-0.6909163754248165,0.27464440617947816,0.44361786230183425,-19.11450096115737,33.76027501240002,20.838356346349336
720,-0.6982421551939167,0.14615135708405427,0.7093962325031041,-4.029872142881536,15.91979129922937,16.25183324296256
730,-0.7289654355593786,0.31699246922805907,0.4555502777120827,-2.8943942105179574,15.722010343918289,15.254810233166143
740,-0.7495849275389885,0.22497898129635618,0.4394054078389632,-9.616046767093199,12.88689803819603,13.006516090136348
750,-0.7540501238173581,0.007243056305291954,0.6598682265358989,-11.686283302953601,2.7233106658859785,5.607048283643829
760,-0.7702751162291515,0.1479392600600014,0.5754029590810065,0.43300541295673545,2.0208344414353396,0.5844742202003672
770,-0.7505236513047542,0.2091417282990602,0.5439300426609944,1.749968788965544,1.0797628507329473,1.4684272533611695
780,-0.7352874500082642,0.21277756861423708,0.5721535584804045,6.0051647044229215,0.797722648328969,2.4292355286233605
790,-0.7737198388422137,0.1826424327739605,0.5376390427506581,16.387540728829247,4.125951401202805,4.74574815319991
800,-0.7886425552307884,-0.06624853921517798,0.6840685745575232,17.509961992369746,7.788988152918327,-8.634148372300313
810,-0.7786257327269483,-0.33975066220579164,0.7672825820546364,17.56247224516013,1.3261775575471235,-36.6977150950526
820,-0.744742591146091,-0.2984217388099595,0.6147253918755596,23.51810915242261,-11.693416398546772,-58.62822453168317
830,-1.0486673705911314,-0.18607243454495062,0.12369978847510751,21.87453859700419,-2.700712395101556,-42.649786219957804
840,-0.8066851274608235,-0.2318689341233282,-0.02466153461537969,-6.93710285554607,-11.144595012834785,-61.48056088215287
850,-0.8585781150024412,0.41395550467667425,0.1648691149365664,31.53659132321235,-2.118826000995178,-53.26916271545076
860,-0.8813976185208432,0.6427217040413337,0.20632146872112073,49.71208626277294,3.3798854923885138,-37.24689935540151
870,-0.8495117799672747,0.8245497156081018,0.5271316533950563,63.654441126882254,-0.48596647532391046,-18.243661289463706
880,-0.8041065133878932,0.9876696992787288,0.8758935122379032,66.68377308585556,-2.277648361532148,2.7602543503100723
890,-0.7948137049405609,0.6636677528364126,0.49001533144012943,21.25640310583726,3.8686158156229116,13.98267588280165
900,-0.7186614442913478,0.5026365656749748,0.5500576800579802,32.08084095866517,4.29691580923966,17.4882765804002
910,-0.7036832157751391,0.5348162235110226,0.5457726696966135,33.75855724685673,4.7111416015993814,17.12086992875595
920,-0.7396128344853414,0.4031249453909533,0.55423369661207,18.94279657906977,2.9037471695921244,13.305695225410904
930,-0.7841311077290976,0.2914002947150447,0.5335392319129372,6.643728968246402,2.33407421906911,6.885317911444822
940,-0.7660601337407126,0.2741611491138038,0.541849265871155,-4.646500383064823,0.3955853721015235,-2.9372374960788794
950,-0.75279205617802,0.2310496356144825,0.5442606768835296,-13.448521700011936,0.2519503934288767,-7.924975314497873
960,-0.751926089003569,0.21890667608116718,0.5481132766927665,-8.831433907470055,-0.84009598747805,-5.618124937798762
970,-0.7995614981327374,0.1620198708954337,0.5038683392848827,-3.990359063750863,-1.951967147035993,-2.6389566382134078
980,-0.7400245939830725,0.23123656406318047,0.5713453253166788,2.9227878630966204,-0.027988670005210103,2.7852120503672912
990,-0.7760247012976766,0.2116152738543391,0.5356294495082525,6.336673204348566,1.0779975365018013,6.18455585006316
1000,-0.7666321200633575,0.2331260733122185,0.5436544550390348,4.9063423109805395,-0.33307946467384797,5.693375240465749
1010,-0.759509598282856,0.24488495885120576,0.5521162566935282,4.150386891219954,1.3374125995319464,5.993267783137488
1020,-0.7767858860856592,0.22917672587248153,0.5334589277882642,-2.586120493889985,-0.3545691836204802,-0.25885817756090623
1030,-0.7666390115089787,0.22870522809926172,0.5359823742844925,-0.7650341828713904,-0.4211954726624301,-0.8526283210503441
1040,-0.7659100776338119,0.2405542827600684,0.5343372666642384,-1.2328629997252272,0.4705818920597214,-0.8040423076860577
1050,-0.769237350559198,0.23795108241238602,0.5356349526219464,-2.5015096028155255,-0.3508911716054191,-1.7181201286277867
1060,-0.7810855533498349,0.22124780862392834,0.5251788672133777,-3.2617134499012552,-2.0199924252131924,-3.262608973094382
1070,-0.7614939596206772,0.23595591054342144,0.544311211649675,-1.3511499943190564,-1.417258370226805,-2.4066837737315674
1080,-0.7839153839682808,0.21245100911655948,0.5261896711503599,0.190352442548392,-0.29845672368164133,-0.5052666902995909
1090,-0.756794799473083,0.2518413575005206,0.5532999812242185,0.3325688968562834,0.5626129906075676,1.9411438608795395
1100,-0.780410498239915,0.22828437206212393,0.5296235311754598,-1.8212003472651555,-0.8024560189984496,-0.1416130532197717
1110,-0.7734700686378794,0.23280229364249536,0.5300483026795932,-1.2510932450568246,0.15500296339841446,-0.5784383617727981
1120,-0.7748884307416681,0.22904885322193272,0.5259541756519193,-1.2793826942456594,-0.13688655612721867,-1.4943198759820815
1130,-0.7638726621588835,0.23867835092601028,0.5385458694700903,-0.2768942501100891,0.3081311041080791,-1.0624615614978223
1140,-0.7956856339786689,0.2056516211707219,0.5084296619323166,1.037230596737818,1.6921433695243104,0.4255696576813164
1150,-0.7851408252836743,0.21348358902931658,0.5176638028730443,-3.860338233813507,-1.5222661106211537,-2.266645634276687
1160,-0.7415711232867641,0.25720571432331907,0.5584877368550195,-0.6526761971564324,1.377466871977823,3.5105317120694624
1170,-0.7800464744928692,0.22861379503177442,0.522021698109523,2.464747145791004,2.064918017466692,4.633227815645932
1180,-0.7662629024756177,0.24345443478519493,0.5399243454902017,1.9284199942598308,0.13155939954771115,2.2697342322836276
1190,-0.7855299721781637,0.22501881340861415,0.5232053847824911,1.4934379298135536,-0.16053103239484828,1.1131008413876864
1200,-0.7615702034198369,0.2513047308559121,0.5461577817159923,1.1332312972854315,0.607452069089064,1.0694626140227426
1210,-0.7599563619561831,0.248816200685538,0.5442279447432474,-0.22662942209468068,0.39272219445985185,0.5692360302603549
1220,-0.8049264326623276,0.19807999555427755,0.4982998060773876,-1.1942154953894981,-0.23014475925106676,-0.458571081331405
1230,-0.7689280127696042,0.23303265335645168,0.5313362243249219,-0.8035682444335439,-0.25246466147591057,-0.919365621898532
1240,-0.7572216038773298,0.24325465887524694,0.5437883726115609,0.7480672191402643,0.3497128163320621,-0.2998290499626704
1250,-0.7333252795512064,0.26975340073178833,0.5674218460279158,-0.4830677227156781,-1.8692183464699135,-1.8819254798583447
1260,-0.763746334320213,0.2405614416027673,0.5366070182444044,2.155595269560088,-0.04934054892293277,0.535766012223369
1270,-0.7998710830758248,0.20028823360231252,0.5020669688400671,4.598522438340417,1.6771497046103392,2.3196749321348022
1280,-0.7475885591980608,0.25437693187773225,0.5547912032327093,2.935985581931396,-0.7913123485317496,0.11878842801009915
1290,-0.7730557256191691,0.22601222353846664,0.5285688881135837,4.278013607111987,0.5564284040072153,1.3045729134076702
1300,-0.7408470984631652,0.2742952881577448,0.557404535328226,1.8886991925547427,2.7432355812169837,1.8342784160809513
1310,-0.7622706560583008,0.2631122019547908,0.5384408980818822,1.4611876511423099,4.774597569159513,2.7578266437009678
1320,-0.7685011541548372,0.26108226238930193,0.5336775863342597,-3.527885141542286,0.750331009137712,-1.6145664356353355
1330,-0.7653337607908913,0.2621826427664848,0.5341775734857312,-6.118269655779377,-0.8517964622448658,-3.287245808742103
1340,-0.7455833330911021,0.2679610307853403,0.5531456938822437,-6.938249455449692,-1.1354846614053915,-3.8425837838344483
1350,-0.790936132851601,0.21864007555426315,0.505370760303536,-5.668500740618011,-1.4168136466758325,-4.38560763472592
1360,-0.741432706918533,0.26216710079105593,0.5583729372761516,-4.383599062136687,-1.280491440863154,-4.4201778764691
1370,-0.7466403220563442,0.25518339132082374,0.5550561376218119,-2.813388206226727,-1.600909111572871,-3.3462649492416188
1380,-0.7642637616953033,0.2411313022127339,0.5368183726547288,-0.6387299333394513,-0.49253041441806633,-0.9475284699351642
1390,-0.7523706378078306,0.256178723064971,0.5498386559154609,-3.097739897658519,-2.866740623597669,-2.705468114797709
1400,-0.744871819042979,0.26006487933823236,0.5617134629652384,-3.1118216245984236,-2.5421773536759056,-1.9423358384297111
1410,-0.7633749192734778,0.23585753078748767,0.5360492746585853,1.270634692122497,1.565488918976449,2.5993469052575113
1420,-0.7925431966435081,0.2073247666255682,0.505858838717981,2.3445318483164983,1.6121716532169916,3.0748209475218284
1430,-0.7874518912470899,0.21207998438071698,0.5128394891231716,2.708867635073325,0.8679350240339024,1.9966861642016496
1440,-0.7610563556636697,0.24314937164901151,0.5401477316234738,1.042748826920814,1.636534574667825,1.576775548809104
1450,-0.7618827280835053,0.2463873078346656,0.5377066246313211,-5.494058739664132,-2.0187781127879645,-2.873525464553282
1460,-0.7398330897292078,0.26504255050090136,0.558514961594523,-1.6246994267362602,1.2882744500691679,0.2627950352657278
1470,-0.7562298606397931,0.2386255007894238,0.5470954854922173,1.383076957234639,0.49234739919061554,-1.8485812339334684
1480,-0.787008708710764,0.2079117085087575,0.5091812342789451,0.33590546790198206,-0.560394629877847,-2.001234318703902
1490,-0.7716654911437708,0.22969167847779487,0.5306925987764874,1.1858021418490197,-0.3665448639241924,-1.237907576671588
1500,-0.8114416599666788,0.18734466996782126,0.4973173032488472,1.3019104303702695,-0.4920445500571752,-0.7627385829401583
1510,-0.7606236629970449,0.23575300132008023,0.5471716662748278,-0.6676765592371174,-0.8172259279854223,-1.2991116391817268
1520,-0.737407140364137,0.25974788044680225,0.5647236537980497,-1.702402087456273,0.4947729487862875,-0.8099256142769004
1530,-0.7538954471444862,0.24170930297756818,0.5478167797727601,0.10429585349553072,2.5492383614123493,0.9589071608771702
1540,-0.7529353050822011,0.24204495244894988,0.5585168224976073,0.33414385860425955,1.724922911524607,0.5202978366314
1550,-0.7534787289274913,0.24687260533675515,0.555131320230522,-0.1616122056682324,-0.0939706991341263,-0.3060678946741493
1560,-0.7710023241259911,0.22111831829741332,0.536689092531472,0.5772528470636213,-1.1773008621241021,-1.0011894059224893
1570,-0.7620508574533887,0.22604921760284719,0.5390552982583228,4.651162831657315,1.0148925037625478,1.187874750784761
1580,-0.793163243962046,0.20345434828591427,0.5040494970957329,3.2226534022198763,0.09518762352998089,0.003410929566736054
1590,-0.7649282657130771,0.2452294394649081,0.5387371087405699,-1.0715645692710525,-1.1704007351792018,-1.6002918142378184
1600,-0.7937113807641142,0.21226555852980197,0.5136599795939156,-0.4970248564200497,-1.2227475298543036,-1.6125416737167535
1610,-0.7768380416060652,0.23005346404517293,0.5183455993373409,1.4590655149717495,-0.4293061591715534,-1.075486597965616
1620,-0.7696660426660528,0.2431039319771005,0.5292557438632591,-2.6976665262444692,-2.1991232855495553,-2.8051613621743288
1630,-0.7528705459387963,0.25211590588051913,0.5528699845213252,0.6811462265155881,2.182180986421226,1.5383695710675078
1640,-0.757937099479793,0.24409176853475398,0.5470052233902548,-0.7046380692350618,0.8638060311394634,0.6055774054532016
1650,-0.7451818877368919,0.26124713352096784,0.5549316399097451,0.35557938609395423,2.2089970889358956,2.4736767889911495
1660,-0.7627231704510081,0.23323995093558217,0.5429020548119734,-0.010862921161876038,2.2473334785812713,2.1190328271425414
1670,-0.7587877673977731,0.23367322116755423,0.5460643272506058,-1.9160382727077576,0.017819573727378663,0.2682579201518204
1680,-0.7841814089404875,0.20807879340629098,0.5220009215914782,-2.399734008722237,-0.5851308744623014,0.07896538390710517
1690,-0.7798032860304479,0.213550487276453,0.5300025561986783,-0.3713207088571306,0.13859565727498457,0.39443140765199236
1700,-0.7889699494295954,0.21208614742606677,0.5178941586367934,0.23749528832711236,0.403859160900084,0.39851518014647613
1710,-0.7450404220194498,0.26147635494116284,0.5575910150730023,1.0192773661236822,1.8278912527430131,1.7193850649559637
1720,-0.7807639040541245,0.21778276175035938,0.5247987847927602,-2.1601172684706462,-1.1348699754734812,-1.6041327755960764
1730,-0.7733566762454389,0.21463746270026415,0.530151182069391,1.4417918730488344,2.023696492519832,1.6780023843870389
1740,-0.7853150319329468,0.20589072763707683,0.5225247779733752,0.8656146533917115,-0.08557382522706941,0.27408480054731243
1750,-0.7771493193398292,0.2182306138312297,0.5294037428723867,0.23421356854787523,-1.2533588858345066,-0.857061507438298
1760,-0.7643754382924113,0.2334236311473159,0.5418138128566186,6.642721879878334,5.683443728753523,5.621717355141725
1770,-0.7597234819848936,0.2397089389432076,0.5439911673443505,-2.0639236909484997,-1.5907461171336914,-2.2903973636064423
1780,-0.7622673700347405,0.23873464156512184,0.537407590248247,-1.145670341429982,1.009255228020026,-0.17379371058418333
1790,-0.7690029696687868,0.23151961363417223,0.5348577583539378,-2.4519111801854128,0.37470281629456365,-0.8363170989539004
1800,-0.7749706729388454,0.21995469777326537,0.5308575563930367,0.28680125725744876,0.7943248098202227,0.7151377691048231
1810,-0.7336730545798373,0.25990481024309187,0.571698880197992,2.2343341589270693,0.9441422466968754,1.6269142449361382
1820,-0.7700773427113001,0.22939888260259658,0.5342591753721797,1.1119777414635537,0.11625278229573932,0.7373313481059167
1830,-0.7804977892931088,0.2213859632666689,0.5240529422642387,0.19882691782016393,0.03646312932052259,0.48540085080918904
1840,-0.7658578487049116,0.2319741029511367,0.5392873865675024,0.7216381884878014,1.1317645751085659,1.4393174630248773
1850,-0.7584419772901324,0.23552313671866587,0.545689529904496,-1.1865903045648192,-0.21233907749834577,-0.3818037499932774
1860,-0.7513459894372073,0.24528013252871086,0.5531605262998319,1.0667685996033458,1.9354844893955465,1.4642739901505606
1870,-0.7904317093725253,0.20694168089959386,0.517439384699063,-1.2618852010940707,-0.5208271439642362,-0.702235427618357
1880,-0.7460360249504941,0.24088583342779582,0.5601549909428062,0.041423671065978065,0.5451136780719842,0.26423025034247216
1890,-0.7849721198919805,0.20598538045039833,0.5213246978728038,-1.7924013944417776,-1.6534075543159426,-2.233952254664667
1900,-0.7628484396017635,0.24043224006378208,0.5422364005717303,-1.587091113247179,-1.3783050591178747,-1.8962545514209768
1910,-0.7545038809559925,0.2536414988392176,0.5483438795695802,-1.1079038567656145,-0.10150498885383252,-0.14666545859486507
1920,-0.7748696001991658,0.23261177354363016,0.5403928033653487,-0.19591257529930783,1.5028375607795619,1.224323376559909
1930,-0.8070975897822021,0.1942128048501518,0.5047332443756718,-2.685567364361354,-2.2863450677323836,-2.2412193813588797
1940,-0.748544818380576,0.2480533461146503,0.5584510871903268,-0.6985024411335398,-0.9950483514122173,-0.781035136247889
1950,-0.7528572744504626,0.2453641710879502,0.5504521520790489,-0.05972470385208595,-0.46236625958701616,-0.26866952940090316
1960,-0.7508827213183425,0.2495290440021458,0.5526338367037437,-0.13459914480408097,-0.14319035825751242,-0.1135704310946059
1970,-0.7498278820693645,0.2483163005058916,0.556660388043409,-0.011031400073925675,0.20286045920978057,-0.13393828948605355
1980,-0.7780250320406747,0.21516708780185587,0.5291971868277532,3.9823119539487317,3.5158050259840086,2.554643414556673
1990,-0.7675319496612979,0.23286272136423844,0.5357347199851263,1.1531973230838524,1.409638075530582,0.35017233621095967
2000,-0.7453738086556553,0.25293032647092734,0.5591278391045957,2.131257513937883,2.7127580842396632,1.7867400228689339
2010,-0.7740625324157291,0.2234011693471815,0.5289297194646234,-1.593015802390464,-0.6860242861008365,-0.9733993965990849
2020,-0.7783597822673565,0.22252605550003093,0.5245213998580183,-1.596796816592981,-0.5082110432527729,-0.4101144026254567
2030,-0.8084179444162081,0.1917894657376607,0.49496401499429454,-2.582393183042421,-1.8283960015068381,-1.6205438305178694
2040,-0.7694755003200981,0.22181346465360405,0.5330139276529441,-0.7659534706386149,-0.7779084339260723,-0.5019660353303077
2050,-0.7565855986379003,0.24166348821320704,0.5493970407918372,-0.9288475370905597,-0.6692689306703754,-0.9928175937858419
