time_ms,ax,ay,az,gx,gy,gz
0,-0.7477868163398016,0.995178881157625,0.7938369712336917,2.5644546905017633,1.0457640463249778,-0.3986639384155287
10,-0.7296787955109243,1.0108228860050357,0.8160789220192131,0.8126159000448347,0.7365732450291049,-0.7222215999324333
20,-0.7624362779943924,0.9822883551105076,0.7886721713772936,-1.9413994131095706,-1.7189913282257872,-2.2942248062256017
30,-0.7558799322180488,0.9895106576229016,0.796401623465032,2.689010747297591,2.4556043050913283,3.1128417261353967
40,-0.7325020792136442,1.0149755586974667,0.8168026656224957,2.9463332580703776,2.432680556521951,2.931657419812605
50,-0.7559306180329549,0.9979259832967704,0.7907745345845039,1.4722133426980868,1.3499801634762405,0.14112598985767713
60,-0.7426016834100769,1.0123606988482308,0.808349497170025,1.4012836868385041,1.8683498416240218,0.135149769587267
70,-0.7161404687041693,1.0336573398212743,0.8372344120361234,-0.24754135322287385,1.1588441710744544,-0.48485517206956485
80,-0.7442402374881386,0.9971488834269895,0.8008358061863002,-1.9379970551966799,-1.1494190606262205,-1.6479470640153155
90,-0.7610005110443702,0.982755868788303,0.7873873451321118,-1.2316827857347747,-1.1663351457484505,-0.2095196798668142
100,-0.7658890442340245,0.9814160199511923,0.7867729454387693,-0.5514016418870727,-1.2167766930928468,0.9968764898566429
110,-0.7444051303619279,1.0064026968405002,0.8082350346735563,1.6719913648892213,1.102987451048656,2.763970329974586
120,-0.7380686806758063,1.0237220036034507,0.8166314320698739,-0.23836340771186676,1.1383155198140529,-0.923183200333711
130,-0.7498229892297231,1.0053962545647679,0.8022831679723461,-0.9620819658078734,0.6419261569233374,-2.366053144821927
140,-0.7345801738892758,1.016909498815131,0.8188045719698549,-0.6051426894614005,0.5236529469910718,-0.6938123575714484
150,-0.7663808659030107,0.9809151121959946,0.7855897102087614,0.06661484071933171,-0.09314621466993755,1.0698452530538578
160,-0.7579321620971975,0.9919833058419268,0.7911606074766961,1.9885847184242134,-0.6715701992244792,2.58648051692515
170,-0.7374914081660033,1.027408203236086,0.8107924732192118,1.4716654330976757,-1.4955453744055585,2.419197646959725
180,-0.7440602925306229,1.0636172070513767,0.8083563496682007,-14.510104219018048,-0.3668947451920497,-6.588740626431685
190,-0.7636274109784378,1.165033083285574,0.7962418216353491,-95.51358744928503,-5.471928806340354,-64.69250388397766
200,-0.14870972697662513,2.5717758954569314,-0.14225054420631025,-105.55771271810646,13.162016609655172,11.440730744902744
210,-0.3582392592093541,2.431749851151734,0.6908653994806323,-107.60451842294982,26.125297569620688,67.39749723153267
220,-0.6764095353952881,1.8172838972716858,1.0128038610301084,-128.85851090547862,0.35128785470378404,99.43054336937988
230,-0.6697761634745415,1.2941075315278712,0.7924312207836506,-139.54694150775643,-18.963859595342765,117.44966563947429
240,-0.4793846221506177,0.8628255101927794,0.6329379778634109,-135.25542092164488,-12.730780429225502,106.7167869633929
250,-0.42344749147353705,0.5634315149295904,0.7012511147451147,-128.95488211242906,-0.7804374143889192,73.42387181279157
260,-0.7578996266827186,0.16456911564515167,0.8392977718659167,-93.88805850011325,4.455247735588486,21.16595727814382
270,-1.587919739926373,-0.023862712710221893,1.558906157059155,-84.03453960368627,-56.24361073633801,10.363623743662474
280,-1.6047855630236079,-0.24042498379221383,1.0266203541269798,-6.771261191275995,-42.47128771253689,17.053609520295264
290,-1.1533829813200398,-0.19653114943637726,0.5769928584086458,37.31611072840269,-20.37512426770206,12.171358552397178
300,-0.8788182324405962,0.18655165656376424,0.8741572588485692,24.491248538748124,-38.00051845944581,-6.522391685370309
310,-1.2828619037580344,0.411452126927017,0.6265651046536892,69.6505038192762,-52.222368080045214,-9.646340899286006
320,-1.23452637121168,1.2618851740643109,0.32162605735068617,150.63537437032682,-51.50905396093681,-2.9443128122240285
330,-1.101989501467199,-0.028022517414406773,0.7279503014872297,61.65988294430525,-15.049708240677052,-70.88258495775862
340,-0.8804791638334755,1.4298065747071,1.3116243844416842,167.72653820697005,-4.925419667002902,-63.41166375377715
350,-0.7937674725984284,2.5590474834745622,1.303466862356649,188.5466628007654,5.737019765458647,-49.34293161828155
360,-0.8518294284680289,2.1543736956533333,0.68040107369879,69.70847828074567,29.142766651158546,-47.698095123004364
370,-0.8525992708755161,1.4203365566252626,0.1473642074538453,-24.9087551332956,41.59298978417609,-38.44358614779916
380,-0.7557413058734109,1.0099677282450332,0.5015552360483154,-12.403811116661123,42.00246578739961,-28.462122665312684
390,-0.35249787616714,1.8702528974270012,-0.617686334752004,37.69161091778028,52.444403810882044,30.534141837358497
400,-0.007956037691348148,1.9857891489415074,-0.4074317872247999,45.39401368024063,39.727497394957126,69.85772731561184
410,-0.2978540628298966,1.3533229279757495,0.04386640598506962,-4.313571063290615,27.49884544522866,42.58579990035278
420,-0.7142683708835631,0.7388063942199737,0.5124528029616596,-41.358662693862726,15.239799966707368,-1.3818968143142083
430,-0.7402107679545262,0.6583700108507604,0.9507623030502099,-1.6437625316876288,7.4447559452792715,6.61798627519225
440,-0.79485113749399,0.644141492338961,0.7972261820236268,43.554119808372505,11.50562263973059,30.224362930752285
450,-0.7097665150525405,0.7182174023587826,1.552934884203694,117.27207477725017,27.07572962249844,45.793819882473656
460,-0.7604366522264511,1.2354234378490698,0.9054021462678452,186.02241998384122,23.5732499475313,22.290840771779152
470,-0.6632372242530685,0.9220307592220947,1.1932273947436915,135.68161736759782,3.7640457698943965,-24.441031732783202
480,-0.6231418756742154,0.9149459212964085,1.3205561445165677,92.91804156131985,-8.315165559323352,-51.36606499939282
490,-0.6611045266087416,1.6535171269763485,0.6393369726804397,107.1151123763782,-10.631944254626458,-52.95389057372613
500,-0.6047508101208336,1.6483949865898755,0.31536002085927056,78.64176512945356,-12.810762730665717,-53.94088178726446
510,-0.613240099993148,2.293535289954247,0.5442637748793462,251.75960500317493,-16.673972030781282,-27.43648186433347
520,-0.5420029751972211,0.6943121093697622,0.5256358089856717,106.70464144604033,-19.020491199867024,-55.38447913775755
530,-0.7380489514322676,0.6786689023315928,0.7002718343464389,8.168488224971728,-5.4666516736676645,-31.357057837424886
540,-0.797140341474101,1.045557962181873,0.8576851702741339,-31.725064092435098,-3.1364899252905016,-19.85211749187447
550,-0.7283976462280902,0.9634722260768925,0.8328092433482898,-30.722970571811672,-4.05715438960687,-23.709780683008923
560,-0.7511910821141495,0.9029641130420551,0.8019320560825243,-16.52788904400001,-4.160694497488331,-13.218614602782115
570,-0.7593616730035307,0.8896672190741247,0.8254656699661251,-1.8703735984922605,-2.0006780021061163,0.2897717470396013
580,-0.7455730486530756,0.9293367003133046,0.8280141754475043,-3.5126000536222897,-3.884662297540884,0.8376290968052816
590,-0.7528567011215112,0.9344972182175139,0.8244733029894881,-11.383464926396208,-8.617478121189784,-4.827856871126827
600,-0.7419176416019743,0.9425919456362344,0.8336504972626928,-9.882846302081738,-4.9809182426803496,-3.804560523274376
610,-0.7596553389794487,0.9157226869427252,0.8138967614853215,-5.867502447630607,-3.1511177606828236,-4.749910766633992
620,-0.751267089870218,0.9190675979903953,0.8307241801388174,6.167261680591219,3.3925671824825705,0.3108511249514292
630,-0.7766209102698614,0.89485258338115,0.8029649001484991,3.9133184102574456,1.6024817822900896,-0.38410045123056047
640,-0.7540358884293465,0.9100909320141642,0.8337670499704516,6.233263795098102,2.864052474850456,2.6681051941098133
650,-0.7465410235480799,0.9253305943181285,0.8337917230760615,7.3057401339652515,2.3524348271714652,4.032761865697395
660,-0.7939281252158612,0.8888700656597741,0.7828108828450691,8.760305290205844,3.2366584127772455,6.173081306219712
670,-0.7424776936916262,0.9451444239991247,0.8352643402255434,4.241785758730328,-0.28275316099071157,3.3489493372781682
680,-0.7700765941486334,0.91685046129808,0.8086989501969379,2.8542908695679037,0.03070985848912626,3.2232855979897876
690,-0.7370202129142559,0.9549907536633764,0.8425306519099484,2.2465968420821176,-0.20258771765960437,-0.044258613674634684
700,-0.7598919572363422,0.9283001075308532,0.8260670495725128,4.2378873155447785,2.3114894204814425,1.1823032431739007
710,-0.7406547020906649,0.943603968751094,0.840841630105061,1.5804704090832753,-0.15628137217415503,-0.7992621541724897
720,-0.7605165777278314,0.9194621122408712,0.8192480625230498,0.851127331388978,-1.5041958497565429,-1.3318095108019676
730,-0.7634998460460918,0.9166888869115233,0.8123948331234476,4.286830352249216,1.1490131742731258,2.1901780321299125
740,-0.7435575842389789,0.9411666776796024,0.8301640308949524,2.639994211882908,-1.0172784222874869,0.8875435779573149
750,-0.7717992344029596,0.9172986586999081,0.8116237106088499,4.788451234889233,0.6252715666430333,3.100394227924204
760,-0.7405310834240776,0.9584390768794598,0.8418547538487836,6.26148625372142,0.46595321096506664,1.769075896292753
770,-0.718382092303858,0.974413060042468,0.8559328292447046,4.389798457343996,-0.3855674072040284,1.0499862692701791
780,-0.7664808206774202,0.9219798087291456,0.8092233614762716,4.219894833156669,1.815334846154036,2.6323450805914304
790,-0.7790966192158798,0.9122127521027943,0.7980727102665632,-0.21462698326991525,-1.8039215213795319,-1.1263703329978745
800,-0.7576216549815329,0.9368769159714319,0.8162457426910674,0.9061062419527495,-1.4069469292627037,-0.5282193511226747
810,-0.7551329236415805,0.9357268427353104,0.8141191968547904,4.943503498584828,2.2130749355212767,2.780631149970909
820,-0.7475678093680439,0.9454310818045042,0.8273582154980041,2.960492215191047,0.8802725713200918,1.0872210030789413
830,-0.7593337232902715,0.9283658991437583,0.8091546247063245,0.5916105562457474,-2.0436247000479213,-1.8451953371763004
840,-0.7508487599955621,0.942876583515753,0.8243954912353485,2.2581308884549194,-0.3360439454735424,0.10370397936439368
850,-0.7845711502482401,0.9121834714607765,0.7945534362647244,3.4131220994761122,1.2938060856090674,1.7537433974521746
860,-0.7435097138312039,0.952416482629416,0.8328208205949684,1.8684567080246444,0.1995517908042734,0.050113786663933735
870,-0.7742886095906087,0.9215728447300313,0.7974683978080099,5.045044991263102,3.8826238526482197,2.6043507957391783
880,-0.752419083921465,0.9460172168308755,0.8210216477029504,-1.076437774390322,-0.6890234304514842,-2.722214436763588
890,-0.7482358348213781,0.9464069045178543,0.8269332979443221,0.5676017084015424,1.1082133335781388,-0.5079303539198288
900,-0.7625224533660401,0.9351368601217035,0.8119876408517597,3.3464528617516685,1.3268515994420065,1.793644484170443
910,-0.7652404993043237,0.9330772384873047,0.811445050741149,5.494218459278729,3.281011523630096,3.398828074344217
920,-0.7424895133147897,0.956965482572876,0.8333578203686625,4.2398836448989865,2.6604934415014876,1.4538709361929307
930,-0.7678631704347231,0.9322950585397766,0.8036476957859425,1.6788838992900872,0.21927614683329388,-1.5374131612630393
940,-0.7364227355744428,0.9585272137078017,0.8347213879832269,3.8383235975320016,2.753625546115515,1.280503016423847
950,-0.7697956825537752,0.9301135380099229,0.802241252423468,4.737206709336037,3.5632668032725863,1.9734753358216817
960,-0.7682924887590444,0.9383791990498033,0.8100955722016399,0.6360079549282692,-0.6390648998529884,-1.8564845064105917
970,-0.7640583226163478,0.9419166563434898,0.8169566506564931,-1.6601490166882118,-1.1569706235238626,-3.492585839198245
980,-0.7769013325711279,0.9198630590758091,0.8016267032806708,-0.9254689229088116,0.750499704030594,-2.5544334749656645
990,-0.7580709867947991,0.9312362553304219,0.8186869695804668,3.639247609967863,4.793691319286433,1.9887494087457487
1000,-0.7466121214836657,0.947175895380617,0.833646736831411,2.6499509828424364,2.272462036721645,1.598929548560724
1010,-0.7675869327679828,0.9277729259771461,0.8065587542102424,1.6908757433940185,-0.13117064083068258,1.6798754984314952
1020,-0.7405395720111394,0.9544094969053429,0.8331111275868118,-1.3486906587068914,-2.0797727342554397,-0.30855626346469567
1030,-0.7761830513301452,0.9255313612669449,0.7966046640598031,0.9654996752302035,2.151703707889935,2.140108886172478
1040,-0.7558115614377182,0.9446963988988334,0.8198296220187434,-2.7559021304170948,-0.6437160358684035,-1.4983698879365899
1050,-0.7324050988537998,0.9621192681269087,0.8450872912618768,-1.1807405890522606,1.4168043361357432,1.0014522819435727
1060,-0.7388505850711051,0.9526842529944908,0.8346267616277807,-3.4936547179465607,-0.9245586521748081,-0.15578523361283658
1070,-0.7611188406035857,0.9274184367524421,0.8070476147165689,2.2029757518936353,0.8654040350776364,3.7851773216117683
1080,-0.7331843526619157,0.9700280040151111,0.841709988158494,3.28325718912692,1.2449193210433194,3.9901664599743913
1090,-0.7497650369994104,0.9479809830193024,0.8205480613861977,2.5941538623984925,1.6187411994019647,2.5052225766062612
1100,-0.7400310438080678,0.9580215390294603,0.829121446732877,2.0789178174747485,2.406948419728043,1.0482835600364746
1110,-0.7734025214171414,0.9228328886660533,0.797096573818318,3.541096435197191,3.411424962258954,2.4891306586495205
1120,-0.7556403365494422,0.9335891450237065,0.8159825058327754,1.9157041926187222,-0.21121381597329736,1.4545050612016617
1130,-0.7521528252044515,0.9399944163666485,0.821784521633524,1.994248446765345,-0.796056249087902,0.577105278663838
1140,-0.7560991154388238,0.9472524623935754,0.8216679932786186,4.723972007007761,2.410619465670096,2.070230071923842
1150,-0.7639200769490649,0.9374720039504518,0.8093107498386333,3.12630702881215,1.322347930112899,-0.4996118726836237
1160,-0.7769268197055401,0.9214314750620528,0.799512397387411,2.508211207212607,0.6272079436560423,-1.5299300832870952
1170,-0.7567868333197437,0.9366487600130701,0.8208779406331799,1.789876586864532,-0.019812444893100994,-1.951440961329399
1180,-0.751955030738804,0.9422116568706663,0.8268629484449118,3.8883270723487735,2.7779268684820937,1.6485712192028918
1190,-0.7669277930294868,0.9399368059780608,0.8194549362489194,0.22387976583010877,0.14831299331788045,0.4988010242247937
1200,-0.761179379821387,0.9367343231950304,0.8075357713077294,-0.8679510411364559,-1.1108425112312041,-1.23078828692086
1210,-0.7860333040553013,0.9221532126662365,0.7915314325130482,3.0868567144705485,1.1752690750318173,1.787858544457686
1220,-0.7639504999511814,0.9415585608940213,0.8082540454095234,2.4163448392351383,0.2012745332518212,0.9434228373333243
1230,-0.7533906193727561,0.9479752796426536,0.8171500169348271,3.21558152771804,1.271994509985918,1.691347400779242
1240,-0.7575913785101958,0.9407682373988174,0.8145383309516847,1.7383543487302404,0.3023307603367208,0.400570086701479
1250,-0.7500898500508495,0.9446724193246566,0.8196649302189783,-0.7206391042096245,-1.9030422314019981,-1.5653593333796272
1260,-0.7617233677158421,0.9333998884567903,0.8093198585552778,3.256299879796535,0.390462738461497,2.037043350314142
1270,-0.7564065446406995,0.943212729358796,0.8156880668545937,6.347951041209855,3.0930656459338257,3.8608897328009695
1280,-0.7626660989076324,0.9389936556864996,0.808219055538089,5.141096713945483,1.0167159350881612,1.6093311230596656
1290,-0.7611467374184951,0.9432300111757883,0.8111128885799627,6.876943926879293,2.315960408479704,3.2105100518634826
1300,-0.7572790020916748,0.9472572374291206,0.8142317154719364,6.075347957423762,0.4731624910916432,1.7083213290202544
1310,-0.7579236294924575,0.9445351665854164,0.8095011017895064,8.137489963591447,1.4407981037878024,2.7083032741403112
1320,-0.7665108762786922,0.9395980247361038,0.800780717180437,5.358394914948591,0.2593093369913127,1.16323176427103
1330,-0.7562330588973754,0.9570240300214985,0.8008035337920819,13.28857826377668,2.160505201676952,2.0754026140528152
1340,-0.7304504141156675,0.9862935951039973,0.8336954174728939,4.750819508634148,0.1227448851151054,0.13661578587239775
1350,-0.7375107790119797,0.9713890392897813,0.8289777211357027,4.203112584442952,0.36181894229511247,1.058275061278746
1360,-0.7571664994636101,0.9517697407215912,0.8096683522403227,6.427300000210399,1.4973996943328607,3.0905923441929826
1370,-0.7390846645862826,0.9768853696799835,0.8276922777287562,5.189152644601086,0.977320674083276,3.127962210525377
1380,-0.7546128339892663,0.9568081798415035,0.8091816044696015,3.1567044470441155,0.38585936426650447,2.2507050399519217
1390,-0.7588853345761013,0.9564780914810075,0.8073016531661031,-0.5981030849385925,-1.5839027674183728,-0.367246163462283
1400,-0.7667566626039399,0.9401252199558944,0.7944728392342427,-0.2421647483828041,-0.7839497308543033,-0.18265537031154966
1410,-0.7693362119994946,0.941967291877828,0.7940953537070072,-0.15210332045342345,-0.6157886897749422,0.2183615250943307
1420,-0.7528038410475894,0.9607346896322295,0.8081118751274263,0.884795493923964,0.28371778213226867,1.4637692148378039
1430,-0.7387280603366319,0.9745404409440132,0.8215336732761715,1.8101009040178382,1.0632373153074564,2.3425267175797986
1440,-0.7474786656995858,0.969259841011454,0.8228717091803149,-2.786869341627008,-3.430597317982817,-2.4253277514521483
1450,-0.7545220353901463,0.9595049042825726,0.8147328238567046,-4.170501263706591,-4.274164737246425,-4.408359714505593
1460,-0.7425859302719021,0.9692621674548821,0.8242118496885494,0.7823250806434567,-0.29523078794634827,-0.4078472129775653
1470,-0.7404399585002012,0.9669260684623326,0.8252999231743116,-0.7834830889799813,-0.7800896842441734,-1.0933512445080455
1480,-0.776560471741714,0.9293956011691243,0.7931191505573163,0.05542592686807489,0.7648517897080331,0.751213701344466
1490,-0.7497604025509057,0.956515113345607,0.8215546926997879,-1.7283427861035259,-1.2617318176970311,-0.5071112280021837
1500,-0.760372195715742,0.9475615016627243,0.8037228578479981,3.0300749170387955,2.599539399675235,4.024197190009014
1510,-0.755059959515966,0.9608155771187541,0.7971873278932444,-0.7448505747048328,-2.35733335100323,-1.1733224448567041
1520,-0.7549067410091455,0.9598374440561583,0.8083439505129726,1.7200615996953679,1.1193774393760592,0.4917741163665468
1530,-0.7529871451466764,0.9657665552132271,0.8146522253591298,3.6544444199751798,3.3910148661706194,2.0437330040791943
1540,-0.7387270821871278,0.9747630454918679,0.8311413705716569,0.7615071180403501,0.23496076636769248,-0.843210690959477
1550,-0.7601304028426916,0.9518298623236947,0.8092816795072166,2.5581129021586007,1.5845688135311475,0.8577221051524169
1560,-0.7601024910648702,0.9583408675136998,0.8068957466808461,-1.6018023685439544,-2.6175281065187903,-3.512156734549215
1570,-0.7401866839420334,0.9809641640108193,0.8258831452590918,3.0374827545012657,2.7884226708646525,1.3326970199058932
1580,-0.7601619560303546,0.9583584514659196,0.810343263541225,-1.0337122394664633,-0.6729146249298197,-2.3339977177684235
1590,-0.7484832336385226,0.9627119235822674,0.8185843191471399,-0.35739949575269364,0.2170548608840055,-0.6724300970220576
1600,-0.7402975610777436,0.968134326498651,0.8257777464583569,-0.005185947321693363,-0.13836338255294964,0.3533694383357747
1610,-0.7684182606612675,0.9412552182630285,0.7951905166324358,-0.1416567683275096,-0.14090039790285255,-0.08074419355515869
1620,-0.735589745171003,0.9768513243970744,0.8296042082527668,-3.5642050803580103,-2.436978399288938,-4.094158023033494
1630,-0.7811055192812465,0.931362586903504,0.7934104231128783,-4.2557773084434105,-2.4532627710214903,-4.780492329831954
1640,-0.7552729916986602,0.9459607832342921,0.8081654514930661,-0.9556101415786709,-0.7292483432106311,-2.4057573560530505
1650,-0.7756329730613443,0.9264882372982427,0.7827219746207065,-0.47550598014367906,-1.15196684557817,-1.0490642982962348
1660,-0.7370306305429272,0.968919655389957,0.8304540478411757,0.7341542613972072,-0.9033851433114785,0.03862969246041392
1670,-0.7525197301348859,0.9579873223921467,0.8216164623057723,1.7485121153768168,-0.11709348796212726,1.4922051276634476
1680,-0.7558062723695246,0.9579520586022532,0.8154959073973226,0.45028683405573533,-0.050016909067175985,0.31607305193858903
1690,-0.7460396984184366,0.9681971460597804,0.8164774432570827,0.1207259243945249,1.8240153521932538,-0.8249566252220615
1700,-0.7523198489375145,0.9593194465740412,0.8074943273219938,-1.1062692578555322,0.19327195116946716,-1.5691787690640808
1710,-0.7573200451936059,0.9519169872129049,0.8111193751376603,-1.354732952880306,-0.2439365099869133,-0.8637392732074671
1720,-0.7656970676002279,0.9373828481430457,0.8016583372646106,2.7467621455930096,1.803990809615377,3.309689995046222
1730,-0.7566201847478026,0.9505926889425447,0.8063155883342031,3.4659482485926025,1.4385689668036867,4.677100767344906
1740,-0.7291274371913528,0.9837144487799491,0.8314032791629822,3.3031945207228626,1.2354487606741962,4.651821031793992
1750,-0.7551167877024393,0.9554510023901032,0.8042491222549775,-1.0296531561189375,-2.021765344806447,-0.7912047173582877
1760,-0.7479677061057863,0.9536750341842373,0.8060006688511747,-2.546898132885479,-0.9137607642008533,-3.6442521679353472
1770,-0.7556874994631714,0.9472873028928926,0.8034206505555657,-0.5598946682790124,0.23582576903793384,0.3048057837259617
1780,-0.7839410379049514,0.9212358070700096,0.7832865043380121,1.5508740730661883,0.19159674467263862,2.605526530733247
1790,-0.7455405836257624,0.9630199776933573,0.8194608774036494,4.162024469933575,1.3251624342121813,5.4948586091923985
1800,-0.7750623398609664,0.9380992659490577,0.7866815568773657,3.8960695620083188,0.9251390914892231,4.751961197906427
1810,-0.7524855858539977,0.9673026513780904,0.8087792027666368,4.288384992554104,2.3810700602659374,4.065034549861419
1820,-0.7602248985036201,0.9648378627771628,0.8000070187072867,-0.012404637722086664,-0.20763388228801205,-0.5912166780701608
1830,-0.7344821378884685,0.9723233565639994,0.8245425279570322,-1.3631546563414036,0.7352875650185088,-0.342674771774902
1840,-0.7558145798617237,0.9591031145800385,0.8066722715182475,0.06078960969155178,1.4949285011605309,1.1237174557056278
1850,-0.7446117768448931,0.9717686288284453,0.8195456220112655,0.29838772306795047,1.0357205880578557,1.1988622083059748
1860,-0.7409513719814937,0.9725757045804101,0.8221075348649787,-0.45726570640848857,0.4445193035219711,0.6705655370808759
1870,-0.7727680233241095,0.9385157690363938,0.789590097878585,0.8262291757259466,1.9226227499466413,1.9363097699552316
1880,-0.7679690350021239,0.9452383414229368,0.7970111216859707,0.09677242820654545,0.8702330910897791,0.7547974300575043
1890,-0.77685352753042,0.9421750842654876,0.7915399285181779,-0.29303924873304266,1.6252476504349063,1.5973529882389002
1900,-0.7548683103665181,0.9610400439330936,0.8031455414049916,0.7325984545262043,1.672450223635456,0.4557749540908429
1910,-0.7399750759773881,0.9668473993354555,0.8248975353180503,-3.715033598810421,-3.541167590379504,-4.318295425361075
1920,-0.7577421941355358,0.9481426040086699,0.808740842528344,1.737683528698777,1.7432666524695233,1.8967128458681595
1930,-0.7814016447689267,0.9291753985491796,0.782965426345723,-1.0252677135787893,-1.0968309191155434,-0.11742767334057946
1940,-0.7719686518553596,0.9424929554928484,0.7915742274150036,0.257651933477249,-0.2962606335650725,1.0708156157850648
1950,-0.7513875057252846,0.9637636060346249,0.8106044670391677,0.6840810491997917,-0.5937314662381492,0.5598287857497888
1960,-0.7726139551821904,0.9427620960408358,0.7937433184797944,-0.08279160719633727,-0.4607770730553463,0.36315651710358554
1970,-0.7712739142447557,0.942579593460238,0.7952862863199712,-0.9659959403462645,-0.5674899901645699,-0.5327215202907534
1980,-0.7545338975997229,0.9578948743812591,0.811016400904858,1.847983711371455,1.90737607636924,2.3600403536176215
1990,-0.7584088195443485,0.9537880653049748,0.8062503275009935,1.6554670638715367,1.0684237449441496,2.4457963389132527
2000,-0.7435040151988388,0.9703566713778614,0.8202310270414775,0.3335036133212641,-0.5207815570279926,1.3460949478021587
2010,-0.755869015263183,0.9613114505881256,0.8067851224760043,-1.6723248232565098,-2.4286961692839872,-0.9293868532835194
2020,-0.7582039428049472,0.9607492223101954,0.8087491884614953,-2.8709537976571697,-4.037750024479438,-3.1247817965637035
2030,-0.7759491885705467,0.9422711514335717,0.7907678023427201,0.7317656456349785,-0.5160559422569745,-0.5551265629294009
2040,-0.7610666406400406,0.9526904938695779,0.8027772960693031,0.4100995177197555,-0.21015908436320674,-0.32223108585047133
2050,-0.7743644898778822,0.9359769363218595,0.7902804660887005,-1.2791500100392716,-1.6839044239930914,-1.2636653103955326
2060,-0.7382942100816374,0.9716876950675366,0.8270957512244472,0.6563726782869295,-0.2789229973048528,1.0331849568668448
2070,-0.758426814402672,0.9546650277388189,0.8038431123955381,3.607128829729998,1.8483255858420813,3.906288553907756
2080,-0.7780998708007051,0.9437135855441355,0.7902767375683454,1.5023913359145484,-0.5504379599297184,0.6992594124911431
2090,-0.7380613039516182,0.9852608973615624,0.8251523780692309,3.9821331671567686,3.3498299704610206,3.147324338686953
2100,-0.7663163020563201,0.9553213241071531,0.7948605183230893,0.026997748908378617,0.43662528466848816,-1.1585817011781476
2110,-0.7290966412313284,0.9856760218337668,0.8335922899793423,0.4562454481448976,0.08372913199013751,0.029091055692330392
2120,-0.7261136151203111,0.983381275585173,0.8384948513138935,3.1776709530778042,1.5335242271330347,3.884028617064291
2130,-0.7636761965194954,0.9483645379528406,0.8005487995249307,5.494226262989343,3.220638343544234,6.335418827550517
2140,-0.7279179391182184,0.9931617896924717,0.8343862822595557,5.958431001069027,2.8995808992008274,5.394644911587632
2150,-0.7349136028116955,0.9933633645430338,0.8295167521720657,-1.0349362605774546,-0.5548824208209915,-0.9964263842338489
2160,-0.7564849814426566,0.9653548977923461,0.8108248873446393,0.29938853625882866,2.306109502355158,-0.7173170189517981
2170,-0.7549295037464091,0.9628001585251225,0.8117909548593302,-2.2598257868132263,0.2025366648126523,-3.594646007394281
2180,-0.7589402216483783,0.955545855568894,0.8050095680475138,0.33289765139724015,0.2786536998818286,-0.22051999911246084
2190,-0.749859579355198,0.9664394783753909,0.8130020796328203,4.158603277644054,0.9956548963273232,4.664898325170453
2200,-0.7597397069632424,0.9719463025707094,0.8063509913487447,1.1241922414176155,0.022748037391917997,1.758083568822138
2210,-0.7442677261277469,0.9905893266159886,0.8187495131241851,-2.0972154386051995,-0.3993830858964702,-1.7360490054862006
2220,-0.7501654925593116,0.9778790250770285,0.8114528273278838,-3.6097940259773558,-0.5989335849328887,-3.84118629767133
2230,-0.7609031776884193,0.9584140993364982,0.7989923911561067,-3.2249520472932884,0.0020074041965256473,-3.9025319518384975
2240,-0.7450841542800256,0.9668543371253979,0.8161168845322654,-1.4075697263959006,0.8093404669532075,-1.8557426411677296
2250,-0.7585182037268573,0.9534342274115735,0.804184580839895,-2.152847505341435,-1.1305692634566797,-1.5884924896967783
2260,-0.7453408273486767,0.9757480911444356,0.8156917476453585,1.0397451536410565,1.8755195715555684,2.695474974455008
2270,-0.7657548050932392,0.9562074555214125,0.8003122989962269,1.2300214679500274,1.9584342016338971,1.9237812132849432
2280,-0.7378009082199197,0.9833129577495923,0.826361947601625,2.657852491700837,2.926738450019787,2.755113536280114
2290,-0.7373975309259816,0.9761937759402749,0.8228300532903177,-1.743228445522539,-2.0678124989944213,-1.6933677746251754
2300,-0.7645597061687409,0.9523552787263261,0.799099042890754,-0.32691700271029245,-1.066294334019641,-0.2475647151479421
2310,-0.7653087389473521,0.9573787007416589,0.8016973017470864,-1.2850236500358307,-2.200563651336409,-1.2237864634129196
2320,-0.7635382886702076,0.9554476062415147,0.7996967557808475,-1.543304504151063,-2.089256746067913,-1.3024981632988173
2330,-0.7802895296870216,0.9320208477587033,0.7811492522444967,-2.246618646488595,-1.0847470627185305,-1.1933570482283704
2340,-0.7504852684384073,0.970635016513377,0.8205131034869144,-0.8174859859331113,0.048398182574111326,-0.805261030302043
2350,-0.734508310217293,0.9883092429196275,0.8310281848159164,-3.1854870615587787,-2.8135945883086175,-4.103889760875298
2360,-0.7400285302138192,0.9787448912619753,0.816494367124506,-0.6831160061522639,-1.0398490255123216,-1.9400137195517078
2370,-0.7350667213081932,0.9793037074602698,0.8188130366201095,0.6097278267572226,-0.031074761422161812,-0.4007872234884345
2380,-0.7507177594907103,0.963177379604966,0.8091889773442289,-0.6483712241918691,-1.2823679799694367,-1.2871360768155033
2390,-0.7552004800309612,0.9627627970442417,0.8120887735075694,0.6640462910697619,-0.6013670319293791,-0.041870255329741646
2400,-0.7651199335552601,0.9583563113315736,0.7981731965799901,1.3532689204330364,1.4681309077183404,1.2959167629337889
2410,-0.7550517320246832,0.965049255336758,0.8089442240302259,1.3269566280304612,2.9376300211390243,0.6974307416008168
2420,-0.7681006330196608,0.9523399232978405,0.794658361616373,-1.8893133050703632,1.2490897756769548,-2.162734863575432
2430,-0.7576599579840784,0.9639106958627903,0.8049958047937312,-0.22898305467854652,2.6002919283378936,-0.41122244970097865
2440,-0.7419780925809489,0.974134444559555,0.8185733180333259,1.3870519861283874,2.582837582149414,1.2348133688976988
2450,-0.7134642790878595,0.9906830519821427,0.8407979572165024,-0.05742770714084591,0.12151117960049707,0.7914588345496534
2460,-0.7688650357293445,0.9491378391533135,0.7988437741461489,-0.032060509317088925,-1.1093195450586415,1.1243870463863783
2470,-0.7513498753684305,0.9693489588396851,0.8171119581833561,-0.4006287014188039,-0.4845124575846823,-1.0004485262040708
2480,-0.7280204145669755,0.9899327493104613,0.8392722856988823,1.0896031181348431,1.4469170251330974,0.09645862843495023
2490,-0.7461323678716825,0.968373517534568,0.8216606404141766,-1.1751400141784996,-0.579409478812791,-1.739192724521028
2500,-0.7528346608176215,0.958957860955024,0.8137969637545955,0.010216480003262252,0.5872984080752175,0.033943643936902745
2510,-0.7541906661904024,0.9556675324539824,0.8077715299181438,-1.2451642850277458,-1.0830930768629015,-0.8191186118063484
2520,-0.753119751195195,0.9568765946029376,0.8092996095247484,1.4408811093443463,1.136135680113552,2.268107468332955
2530,-0.7508258343136393,0.9680232794245822,0.814143239784076,3.4508857716884895,3.1624255664939316,3.8662905458647057
2540,-0.7417619248380906,0.9762173711695415,0.8234407307611724,-0.4373464781406886,-0.4436473587355553,-0.7983109721729564
2550,-0.7691048113290312,0.9486965085083292,0.7954632571891177,0.2785612393081813,-0.02486023719322649,-0.41893885431222805
2560,-0.7631946393281118,0.9558482704973082,0.7995045458556194,-1.330483170879932,-1.534540674014854,-1.693584035145844
2570,-0.7706275830765477,0.9488862677206776,0.790310025558942,-0.401536680623961,0.24040246207240873,-0.12400390870862751
2580,-0.7634252967208821,0.9548469275483606,0.7998096448045047,0.04206652736239391,0.9732816633429712,0.5174751808641931
2590,-0.7349143789615046,0.9836021398239394,0.8344532031987678,-1.5620681516538018,-1.4555807078024785,-0.9300586052533725
2600,-0.7509787244152165,0.9627040736453588,0.8080857930633801,-0.15881230831942805,-0.4601073522282588,0.73986117176076
2610,-0.7381490391338771,0.9813572065803948,0.8235418968557459,-0.9182226565925549,-0.43767723459621816,-0.7341981777374946
2620,-0.7495751725109291,0.9701467718961982,0.8142963851834426,-1.488845955624288,-0.20929976122369745,-1.8128373087479037
2630,-0.7360628002041785,0.9789136675792036,0.8239861616822154,-4.613607822284212,-3.107476174295253,-4.813766692168646
2640,-0.7849241252408702,0.9349154539486146,0.7744542552868968,-2.0614116374376006,-0.5520960426625506,-2.027260385134497
2650,-0.7579565284844781,0.9573981795688549,0.8113102712251127,-4.7624633326633745,-3.140582236381009,-3.978368908613342
2660,-0.7421163278313329,0.9757326482420556,0.8241604125027626,1.0133511096448449,1.1966263323194573,2.0866440781505933
2670,-0.7765291339617575,0.941895006069295,0.7871651466267496,1.119435893870115,0.21721662645472095,2.1111558951190674
2680,-0.7907710334552465,0.9306604382665822,0.7702130051011492,2.1162367188657507,1.7529580493358694,1.9571007089608805
2690,-0.7554709968383524,0.967356173982704,0.8060622354730841,-1.183343460415316,-0.292037612700802,-2.3858337240686818
2700,-0.7891911113862178,0.928457618599636,0.7776517306034401,0.885587565663559,2.101326470055976,0.0451831650238268
2710,-0.758059916986858,0.9549901637644289,0.808616563478986,-0.21516213081247126,0.3021921413295607,-0.6313257238567969
