time_ms,ax,ay,az,gx,gy,gz
0,-0.915461446248905,0.11083607012637066,0.3871197596534428,-1.705420639445435,0.29076265095356496,-2.0515433154555995
10,-0.8913308923020162,0.13895939507001678,0.4207968300476262,-0.974070698611673,-1.43103058015297,-0.49543665028800365
20,-0.893692694335316,0.13906174770805346,0.42063099688540845,3.6890784566545207,2.23478112008861,3.028581255275024
30,-0.8790140711353602,0.15709420096172644,0.4370272022691535,-1.2096930026753856,-1.294368524029782,-1.8001529920590609
40,-0.8831241775179295,0.15430860260341983,0.42560189338494786,0.0026944622306614985,1.8976538094952247,0.021565874839228005
50,-0.8948484559501486,0.13566286651512077,0.4119918944551936,-1.8087828518650473,-0.07414460093940427,-1.8810433975772134
60,-0.9050904100042826,0.12849221877914055,0.4092503637375185,0.49633711655144586,0.043778210672329676,0.46486540900076
70,-0.8922989345086861,0.14191283548009062,0.4155150694275695,0.4478376922740901,-0.006678277848651437,0.46439629213994627
80,-0.8574341155497013,0.1780101585574792,0.44430503890029094,-1.0655268448032453,-0.16900955561129088,-1.4610512234481297
90,-0.8834734551762432,0.154211107209778,0.4310518425091158,-1.3977756583169851,-0.4199551858108266,-2.3901158974674575
100,-0.8730528662604926,0.148845886364992,0.4399652552291131,-0.21106009299451145,0.5957104134030358,-0.13798232735732707
110,-0.8997000765664659,0.11982678694411283,0.42279486053148113,1.5841531246454204,0.698633493411486,1.5353392059986968
120,-0.9097206709425433,0.15243611714055577,0.41322695064942155,8.721812600614587,-0.87809915755043,-1.3962601129790866
130,-0.906382894879867,0.292006104804688,0.47638763521218536,2.704518351297807,-6.512192478462529,-2.838472695819458
140,-0.9939192387776219,0.3112358235210869,0.5158089622127009,-7.1027435467337785,-19.32916791387691,3.830310837053423
150,-1.0288443525840159,0.15782680916886194,0.5594675925672005,-10.55294695957817,-29.56188165636077,8.530675373155713
160,-0.9472827726304246,0.1714983492646581,0.6850271965142543,-11.421139920408766,-47.120772016649454,10.670889829260712
170,-0.7174339601874277,0.30150440017988267,0.5185566120591755,-44.01863912850109,-32.30876090983081,35.60284011534326
180,-0.6528569994179542,0.2867080149987039,0.3714774118019685,-61.4236830984039,-15.555039663295783,50.56842041247108
190,-0.7045460366293439,0.24351194716010138,0.4067726073942473,-63.70278796049106,-4.9048724826644765,52.25719691810986
200,-0.8011544886254642,0.13135702522217707,0.45037688283227373,-68.08779179731577,-0.24202123405241327,39.23946425358328
210,-0.8389363635724723,0.14199016328991568,0.4652676611887463,-77.70870077047277,-1.3231295193483974,16.495717911909118
220,-0.8178737490696874,0.13585044462062099,0.4350535054769525,-77.029887482695,7.38984385717191,6.241172517322449
230,-0.9466379950305154,-0.31444388874943746,0.6515494360653091,-72.47482869011952,3.307504950657927,-12.631326231607158
240,-1.084534480166125,-0.2710425857559901,0.636898847760922,-67.50387797968162,-14.504090913847133,-24.60043281298423
250,-0.943291268996387,-0.1970288369218233,0.33182914417281034,-43.74265727334596,-23.536281125823383,-27.158469867850226
260,-0.927286873027727,-0.18489361365834447,0.27876010251052036,-0.18733300881729742,-29.459511168828723,-28.34492924286504
270,-0.9839586019729629,-0.059241117177333345,0.2849369635396448,47.828588385809404,-25.472621168730175,-22.70321976593874
280,-0.8505799478861951,-0.2115521599011363,0.6657296602460148,86.69149964470716,-20.554594867461446,-42.33333914287727
290,-1.0243350400778073,0.1693603265183975,0.5326271719574155,81.95753809048924,-13.637383982212297,-41.01556182588044
300,-0.8542386883145747,0.4169616919600207,0.022381321405704202,52.94969757817959,3.8686813486770566,-34.475145726308305
310,-0.998365551515994,0.6295492845512136,0.8102100738037673,101.56131033452546,8.897546945076027,-6.174860397419097
320,-0.973566497616564,-0.1740478859961575,0.3438108819527789,33.26738511048921,30.922919624248138,-17.746235388818114
330,-0.8421634129676272,0.34634292440356407,1.0365125025550508,52.36916512040296,42.880309098194395,-7.895816989653131
340,-0.7912950389962781,0.3088256024233145,0.5687082824334847,-24.19863105375288,56.63848653362546,9.106384393840196
350,-0.8755044371298996,0.4184548258856675,0.6016047586703328,-37.49030575507576,44.275596508345735,13.125394563010703
360,-0.8308150458182825,0.33514290421423254,0.6313488993998538,-21.97732308353352,28.57536306770605,16.859225046856512
370,-1.0036750025115182,0.20058220492020043,0.49392507727875196,-31.35611711290482,47.21425313607067,33.74665487928881
380,-0.6799679756198765,0.16921670911302256,0.31146958658012575,-41.27948299946669,51.81457909306314,44.52491004822484
390,-0.9068793140842681,-0.07787609965269776,0.3792023770825503,-47.38836623946855,35.978813655039126,13.497975250807606
400,-0.8644675830659152,-0.2163979246732439,0.6612751238340387,-9.23247294177449,6.026496407492424,5.680247265818271
410,-0.9089248765869659,-0.7052798954719082,0.6330929711938091,-7.034921680893168,-6.950061293955281,-19.5141172876466
420,-0.8831430163873504,-0.20216981764572395,0.5833075191696433,14.223266668202175,-4.560335029912752,-4.001632100926672
430,-0.9954565386262414,-0.37878456949733164,0.5214359894385859,44.228293448549415,-22.90372248293239,-21.044956112481245
440,-1.2136886257151012,-0.0781048089119397,0.02347200370057877,72.27535669192396,-7.09982208669339,-28.398115545411294
450,-0.9326554671146229,0.14839312280251069,0.15721829231090287,59.88313738244097,-10.88657510861266,-28.37257388280631
460,-0.7215500182831093,0.5233391928430512,0.6165133701540626,57.56303139153165,-16.72773276492882,-20.89144860667897
470,-1.0008337020556777,1.034036197769968,0.2972857780402163,63.76782770736017,-3.171222709763896,-0.3516806458615054
480,-0.910525411660346,0.8334448755495338,0.5048239316355904,75.3721018111923,-4.542252098430283,3.6939118119596133
490,-0.8038961264221396,0.47172363560963676,0.4494643356193536,29.905647609422626,4.979628676397012,8.814433279829979
500,-0.9056517270901026,0.1204165540425646,0.37660689355962934,-14.356860797425854,-8.848178414183941,-30.062964160878202
510,-0.8799576314890489,0.13423600806953054,0.4327583670298608,-13.638950573200468,-8.702783017844713,-26.225105898221983
520,-0.8915424102567898,0.10997481744004989,0.4296377189582355,-6.102109459875365,2.5617513950008446,-4.714394654663051
530,-0.9054682377669748,0.004691337388240662,0.42953864677248593,-4.219378449125838,1.1161733627747572,2.3311373196395206
540,-0.8907584594844721,0.06334668473068661,0.43654052899068374,0.3987119353215919,3.2457046106468947,13.080134691365458
550,-0.8884000036275794,0.11874515571658602,0.4310835930078785,5.1367487589912315,5.195117752139192,13.221801549145258
560,-0.8960495280374932,0.13678164063007142,0.42540212197405824,-4.945567470911123,-1.0475350202567664,-2.435026796768894
570,-0.8880367354728756,0.12354105344429207,0.436980849526605,-5.9913862905922635,0.9838006449908282,-3.820801150471433
580,-0.9117264992883066,0.08108672147751518,0.41581328411328483,-8.233704047100607,-0.483727125505938,-2.856794287795432
590,-0.9075999165978005,0.092332555714522,0.40421934424779704,-4.345632034470329,-0.8494968805409688,1.049677999330421
600,-0.8936466214455712,0.12698190163404094,0.4042584938784815,0.6242316877434599,-1.64639932825441,1.126340397889727
610,-0.8831867044370301,0.12036382362850827,0.43748752651437856,2.1913491201376862,3.253431979401787,3.6491641967479387
620,-0.9072783238438815,0.0934815300001709,0.41170808425434413,-0.700798840919844,-1.6922707796001522,1.1278847751222483
630,-0.8843788490582012,0.12475944865838699,0.43372425122278807,-0.12586386074149614,-2.1229677645086578,1.2090135818083785
640,-0.9050251047808568,0.10622613978024517,0.4075217438577295,0.9634276467458173,-0.2467686993789021,1.3761395889342256
650,-0.8998549653141558,0.11320558082303495,0.4174565216187112,-2.7181897022878436,-1.0630071905203202,-1.1999983296538352
660,-0.9001764149440744,0.10247213621779278,0.42701068368666667,2.312910009843992,2.7563653219949993,4.6250237436186215
670,-0.8865473835201897,0.137427389349132,0.43716371023578016,2.4114331535406026,2.0935956924599095,5.631752771051282
680,-0.8919631089942905,0.12835504836961514,0.43035401352404185,-0.6707799504376833,-0.3314029704927616,1.0234859413892652
690,-0.8953260903424043,0.11993020243195474,0.41256585214621894,1.9793368056456837,-1.1645432014639985,-0.7576503271209376
700,-0.8917539470455841,0.14700558914352602,0.43157971490038777,3.609059986364209,1.0067415528978232,-0.5823396338974918
710,-0.9153194097060725,0.10508924891812649,0.3950270084517708,1.0777443503154558,2.2871279653044163,-0.6555507247960186
720,-0.8934075863619811,0.1175490833599804,0.42919123887345084,2.4172223859157738,0.45059323229271747,4.993839815187736
730,-0.8878457757286985,0.13067630886751977,0.42569379819612885,-0.04890447497832473,-1.5364267727692278,2.466386819356029
740,-0.884651882352701,0.1258337455204933,0.43129138056289645,-1.3924260020201737,-1.4689494695086243,0.7506527897796709
750,-0.8690554811066676,0.1447878172042264,0.4519680629841677,-2.755534861996914,-1.0317068445285151,-0.3706093842004119
760,-0.9034013173017484,0.11463027862170794,0.4115777323423197,-3.1580658090226565,-1.2011756284657418,-1.2264361239323656
770,-0.8792443900863567,0.12962115274142766,0.4394187778963117,-0.2283689513959574,0.19083600839546533,-0.04303401692145559
780,-0.8551381878428123,0.15357911551938933,0.46377031534478064,2.8179388793995463,1.6298972774350209,2.4596394450216286
790,-0.8973255595302296,0.11290334026715985,0.4155677140146862,-1.2927970638118582,-1.9134995084126856,-0.8354399534068793
800,-0.882635644653574,0.13827887069973072,0.4378018710222764,-0.7073995417253309,-2.1952440254828627,-0.4808568300720515
810,-0.8854498655699475,0.13866976222433253,0.4320053161846415,0.9281531136843977,0.4139331067466053,1.3287774527689888
820,-0.8883809970425641,0.11408406323274521,0.42365169284827664,-0.8471972752961023,-0.29653449313997343,0.20715436822648392
830,-0.8930550560480763,0.12329135622233933,0.4227262497494673,1.5012181257524162,-0.5246674836274505,0.010826927280449428
840,-0.9084901089796662,0.11252251564748295,0.4053003856368882,3.9678501537885165,0.44440415914649467,1.6668270483750864
850,-0.9092530304334154,0.11305165323447026,0.4095404697983702,3.5616172058619133,0.8164004188679616,1.6076126913430713
860,-0.9274832130812062,0.09130858588451347,0.39183616755372686,-1.4088177191638043,-2.3047622149758684,-1.9394918951205744
870,-0.8738676347920313,0.148101519555012,0.4441246995216844,0.9001146287333651,-0.005382495675145704,1.2725639612768127
880,-0.8785107915161051,0.15523224436052502,0.4373636698165528,-2.109970867262095,0.7916942653023376,0.007661382705965281
890,-0.8950876590039184,0.12906377401183036,0.42237576046408537,-5.413781259666466,-1.2829642996298065,-2.907683387755057
900,-0.9123032978115171,0.10638354212929209,0.4010459081629195,-3.088839129423217,-2.149362669206578,-2.4910305530919765
910,-0.8831445803754963,0.13553994757585638,0.4450660480804049,1.4280481027652665,0.9986003698574585,1.1925587485083597
920,-0.915491334031039,0.10811698032952709,0.3997418842402586,3.3158106288057985,2.04608489753397,3.150401748903612
930,-0.9208412699595843,0.09572360544038112,0.3913360812924632,1.5495127068789945,-0.39781592594191695,1.0583939733678593
940,-0.8792102075585958,0.13634496721112438,0.43496106798583367,-0.5207175521273567,-0.013062672927718233,1.0377013770241668
950,-0.9094647228513457,0.11453696986712802,0.40923426221886816,1.3728656742727823,0.2791448633097833,2.2042367466609356
960,-0.9133633633500544,0.1166906627036915,0.40568789063332256,1.6662492643563018,0.07796397606929212,1.3920149477648183
970,-0.8751858045026781,0.14559827969144631,0.43435276062952993,1.0774277295275725,-0.030340217608231024,0.796751775419485
980,-0.8656606142468689,0.1599571382075463,0.449935313378196,-3.018345502833726,-1.8538029744836586,-3.232434665000211
990,-0.8963083459721067,0.1283687727304511,0.4196974589190778,4.58863860484613,2.165555293761993,3.260717760247468
1000,-0.9047502399434028,0.12236856760044819,0.4138150637598165,-1.063173258589342,-0.10337338883582303,-0.33812194659615846
1010,-0.8887376751585311,0.13371661543712618,0.4205426194391921,0.420498231867958,3.4874473972858118,2.094181805610818
1020,-0.8824132149906502,0.140390927482297,0.43717701206309073,-1.7933665983247256,1.4693055126407164,-0.12709949380666935
1030,-0.9103619208088352,0.11272416901397254,0.4073511606496444,-3.3321174806018248,-0.9200382276472571,-1.8548054515289198
1040,-0.8988540637074628,0.12238605557538466,0.4158754251285041,-3.623571431865189,-1.5452306410786636,-1.8257111838767541
1050,-0.8689929579229897,0.15391319073493306,0.45083363608926097,0.11039975726345813,0.11957764906504856,0.22734282957680382
1060,-0.8883551854859927,0.13493718740587335,0.42593935324120497,1.0396755932561847,-0.22221862229513123,-0.3820896035716679
1070,-0.8995895731840658,0.12296001183517716,0.41108361380124614,2.371547836378157,1.570061656193673,0.987098180465907
1080,-0.9087607539685336,0.11314909082203205,0.40741381858702264,-1.8766484158512275,-1.4324503080851403,-2.167707656427143
1090,-0.8889914447012823,0.1286115841024658,0.42746217834476086,-1.011235741141421,0.3255017792201519,0.32335524713771613
1100,-0.8899088901545766,0.1366695203870237,0.431331836828877,1.6472228111249871,1.8173287531974882,1.4054967771146862
