time_ms,ax,ay,az,gx,gy,gz
0,-0.6546035340592499,0.16555404340884883,0.39877527898533816,1.2992092059576967,0.866411854618329,-0.3383252063670361
10,-0.6523653461909317,0.16160366665060982,0.4011848398307605,0.7176311356391285,0.031969053203085185,1.0055298775131096
20,-0.6805574852179465,0.13665067797720895,0.37724098150334145,0.1792181676567529,0.2887014623202758,1.7585722930202543
30,-0.648783907704669,0.17216766313572002,0.4036337876328742,-1.7439474070458458,-1.8927965942431022,-0.4623820132868488
40,-0.6609808758618341,0.16092783568538194,0.3878905830419868,-0.9350727380202746,-0.7937440603609134,-0.320879474679816
50,-0.6500375965230413,0.1722144606395383,0.4029468439480703,-3.655642461255727,-2.13473619415423,-3.2259664694151033
60,-0.682388405961677,0.1376129989614086,0.37478472493625237,-1.3617996171121884,1.4446075241072567,-0.6249568340810514
70,-0.6819435745519379,0.13263975684018697,0.372079743111825,0.5097085504214838,2.6961762773049536,1.5035354912257946
80,-0.635945130623815,0.1811948484428029,0.41581885047805134,2.8945928981121942,2.3138505043209774,3.726488398242329
90,-0.665494933236354,0.15461980057726937,0.38893431119454686,-1.0389079564296955,-0.8841123525897926,0.7909840075206864
100,-0.6715952466441634,0.14779166389379347,0.37825552490958275,-0.12022910915143348,-0.21542961872383545,0.2618136059260462
110,-0.6689298144527263,0.149203757409595,0.38269361594154994,0.7221238634092993,1.3795785345163647,0.9248418285044377
120,-0.6679268256804392,0.14846767697211716,0.3856057202901407,0.9604309695786406,2.0194063828639504,0.9681452777426868
130,-0.6436659678659696,0.1736648118194419,0.4111257573760925,0.31138044990800884,1.388025715283254,-0.010606061492544283
140,-0.6673292071425142,0.14680158672834204,0.3902099987468992,-0.90577568857029,0.3291058282029809,-0.468136845742651
150,-0.6572381858240113,0.15533362125885564,0.40055300806613486,-1.5978149607754248,-1.011796156737812,-0.8653913879619397
160,-0.6436814505535026,0.17506706208148798,0.4092518521693226,0.15852637778441325,-0.529914952668161,-0.5470895347375294
170,-0.6444861163473679,0.1684236150965207,0.40927605151909296,-0.09017902834329726,1.1363811846256258,0.3935669605711789
180,-0.6578116641360273,0.1639623747949429,0.3962086069588393,0.3918696441049563,1.2286449540055635,0.9998942646031714
190,-0.6900088088739778,0.13122995795787012,0.36666076134348385,-2.3559206459547224,-1.9439349728668722,-2.8727280977109735
200,-0.6693967894049322,0.14998177939032845,0.3824867654736064,-0.2699814083704295,-0.6574235946783024,-1.224420742132868
210,-0.6652244629199806,0.14865526965703285,0.3948873115596314,3.6655550057996864,1.3149568963342528,2.7820323004394325
220,-0.6493057704098045,0.16832283556663186,0.41460672018139066,4.252613510657931,-0.013202046142820834,3.890411274337219
230,-0.6736042061804502,0.15715893101320053,0.3974014335398741,8.948866887569835,2.5126556132593083,10.309483191688345
240,-0.7015589223881518,0.17168140922819394,0.37635820345438253,22.181847391703368,1.4952922353836335,17.50540919552302
250,-0.6904053790309945,0.23154155968048745,0.4627637616341774,44.65667337263906,2.2128489917748246,31.217699137517975
260,-0.8145661024967037,0.04711447228124918,0.6291995659476823,33.38633863592859,-2.6032520137896875,39.660991228548724
270,-0.951105602808915,-0.12647722341207265,0.5424111882246272,39.72776191479165,-39.77042220606707,15.222146059354777
280,-0.49855093537628975,0.25589816211206123,0.2400890702020369,10.13479078909967,-40.4939261486418,-14.20747350123386
290,-0.41363999065636925,0.4271358671859081,0.267701251693412,-1.3663751819401124,-30.022029625283942,-4.995805507568032
300,-0.5002161847454918,0.3363382951598987,0.4011638099136143,-5.256843837578936,-26.843501710640084,-3.7267053571809203
310,-0.5532085614191466,0.3292863057397986,0.4601034642998321,-13.201123785169399,-27.365865800693797,-2.406621677301872
320,-0.5314665083950171,0.3257294267259191,0.4373255941805886,-29.146449689410765,-26.49015249096022,0.45691524184572485
330,-0.5363877887078333,0.1993823067568403,0.39587726254400707,-39.89570971647797,-21.846989491755004,3.3337051836871225
340,-0.5790438508848484,0.14018696764509217,0.41514027624495,-38.070570855307096,-16.43937032661485,4.567025831713766
350,-0.6422774633823458,0.212056768966727,0.382601421555957,-35.758931323469156,-7.777387827860814,6.355957586739148
360,-0.6185853780366456,0.20240777411982264,0.39259254501076385,-31.72687877592277,-4.138678736910577,9.091415231587252
370,-0.6423316447919655,0.16084590475313515,0.37950039323111134,-39.42812196009816,2.4258136359802385,8.79259651901585
380,-0.6744210126879088,0.1997561802910362,0.388826268214393,-38.63248285372641,9.535863400312254,7.012732609479472
390,-0.7093329939811466,0.18067445692932896,0.47976108052344574,-27.58254343321084,7.747870217958394,2.02044166186026
400,-0.6944260068896803,0.15880321792107144,0.4746284947725905,-20.57742297111729,4.778581542655103,-1.784755392570557
410,-0.6178426755810812,0.19843158243543674,0.4493120360635205,-23.45585496177109,4.610556672811774,-2.1602087883682826
420,-0.5846077383707637,0.20843809321204348,0.42169334122557706,-22.428058047460645,12.988756279433122,4.591692367329472
430,-0.6113224504137281,0.16053484342833585,0.4393503760957283,-26.8376917225463,10.838085591375187,-1.0592026743869798
440,-0.6855103690400689,0.08504001612730379,0.576309074271672,-23.811114526358107,11.976244789283573,2.0337645128310586
450,-0.6742062730032963,0.04820856123065282,0.434300625717688,-15.96437769330322,0.5034772047413234,6.306496201093656
460,-0.6510319816243747,0.06544256424725424,0.49941664504423566,-20.062361692892544,-0.19068935403592868,-0.9763949904222728
470,-0.617993970343515,0.1446897495581796,0.5021498394851226,-14.089081611188199,-0.04495416905959093,0.7589383457791201
480,-0.6268858158405557,0.04593495584051414,0.49551783034147207,7.142231263121097,-13.363138676686331,-14.855556311431993
490,-0.6183871228090043,-0.09657708050772532,0.5464035778918802,24.008348497904052,-20.499417366678596,-26.675820788627334
500,-0.6091735938142929,-0.003461156572510237,0.546061025854503,20.74174183212619,-19.933013004700175,-32.84955846125945
510,-0.6776377546818101,0.204276178759548,0.363179231794281,31.563466357865348,-9.103754367363583,-26.620447251681714
520,-0.7319534946655382,0.27578783749783875,0.22759606916004166,46.47851519729547,-3.1077511165593843,-21.967038084305084
530,-0.7433990437439445,0.20836478833541727,0.3769130199383449,10.625017309587678,13.295174816420044,-15.263029359717672
540,-0.6814977415494077,0.32857045249425365,0.287959741149225,29.221249076697674,5.014790229208878,-28.041440862322965
550,-0.7823817926591622,0.1922418352822669,0.17463702100516929,9.233777986537119,26.592977132817,-8.993372211947555
560,-0.7908001122410508,0.337566173430754,0.11971014679185586,30.14178055339778,40.611955399820154,10.887761833981772
570,-0.7468576313096927,0.3929003186351976,0.12470133453078991,48.51019956293199,48.70469643862329,29.05555350382332
580,-0.6992803137297505,0.4087283446449156,0.14861894575043333,54.03951389555143,55.47203929495583,39.933978804290106
590,-0.6857394869625296,0.3242023473934529,-0.021999369206571497,41.306072121371066,62.10496280983294,47.448604721116844
600,-0.6091052269372482,0.3028325826416849,0.028831371383415218,10.606932781822357,66.11380718554304,48.64990768013626
610,-0.6091986470274519,0.2590736674457248,0.4292386603509764,-23.003754858834167,57.29792004313843,32.50405384578171
620,-0.6119208406778708,0.014887287617968599,0.5070894456243789,-29.181793990558848,30.645734510792607,7.439913556466279
630,-0.6111421468029461,-0.14850245080515417,0.790637834786119,-37.666940511628226,12.485248769957163,-14.172066649601813
640,-0.6498043973269841,-0.258748151254089,0.6800086235631841,-21.86675588587794,0.7239111809059471,-16.30984289762688
650,-0.6638412107129267,-0.028384646971906506,0.4565124497529334,19.632362797542157,0.5225515771022984,-0.13521997046959466
660,-0.6802436542724196,-0.002773005516155354,0.42887082273992116,55.929262891860766,7.7762634614536585,23.03574057730711
670,-0.7528251582106791,0.023260335481870523,0.4531845628861147,79.64290194555456,-2.182544380668967,13.489827900125947
680,-0.740155186463788,0.053777410660925624,0.48347740665884015,71.0149575113233,-7.529235136917563,-4.173758082527669
690,-0.6230424502305707,0.17902601962775597,0.5744483605676062,54.852569860517114,-9.7144928890783,-11.399286089631426
700,-0.6371299158455882,0.3308955485747124,0.5629326513505032,73.99180813768693,-4.832610158824067,-0.05315997072834439
710,-0.6751444825546715,0.1824487844682401,0.35659544910912017,16.854883234841193,-4.49443344032746,-12.574619197171558
720,-0.650354970846288,0.25611942936853394,0.4023767281722509,-10.621189973301327,1.5777181315780577,-11.627372927933244
730,-0.6437548970841377,0.2950661216734391,0.3849971936752159,-10.516530601694855,1.6300928827497,-6.787921879260056
740,-0.6859037244780328,0.19926646036020523,0.3681231948952508,-10.652197940297313,-1.2256350410329113,-13.598937687620086
750,-0.6771219753073698,0.1606131981358106,0.37948883527930904,-8.942088580910832,-3.0821537207481526,-9.57122154247685
760,-0.667839257939535,0.15008853358077864,0.38354318011573113,-3.5097078136530593,0.1410032475038796,-0.30388437621628395
770,-0.6568940899419966,0.1655794947017243,0.3944194637534933,1.4840136395849273,2.594921868487143,5.745549730335779
780,-0.6707014305626083,0.16255307526811394,0.3805922744352098,5.206787947474596,2.4947222200196957,8.42001873838323
790,-0.668934166638129,0.16844141901177784,0.37917927399724394,5.661832964681513,0.704669266286252,7.531819416868264
800,-0.6585803573816658,0.1877260264544952,0.3948508760247651,3.8358531384659758,2.032461847544447,6.51680440598605
810,-0.6652490701832904,0.18005317352290878,0.38452270709122577,-2.2390393949478424,2.1910007516038084,3.662478264133001
820,-0.6799259238310517,0.15832702401576704,0.36936660293354995,-2.8333411392104013,2.6154539818335207,2.626349262023564
830,-0.6480605756717429,0.18242221162754713,0.40038555245848795,-1.8690127398382166,1.3188989314369866,1.5320506088611356
840,-0.6519343270783043,0.18034179046511206,0.399394580831583,-5.192551624658084,-3.8529019769799966,-2.796970738279542
850,-0.6547559540850638,0.17668156264144214,0.390449845348502,-0.27723976693544117,-2.5165741811909044,-2.06574798792251
860,-0.655608941394322,0.17911617928759663,0.38601594421499796,3.309886623351369,0.9951337108234006,-0.4854217747900703
870,-0.6766037500891546,0.163601864013342,0.3696083218624987,-0.669970401810508,0.38257488105447324,-2.6377733920262796
880,-0.6653011223055297,0.16979601256401644,0.38407935105428703,-0.7117049923558927,0.6140543923622153,-2.4617144353235614
890,-0.6712482970632248,0.15446043508719132,0.37892379154225014,-0.9891169155608258,-2.0073952675459963,-4.329447503015073
900,-0.6576388864576115,0.16048851603249348,0.38779344048300673,-1.4489430689445597,-2.7991177255624873,-2.976417120514411
910,-0.6984959822957465,0.1384397624096837,0.34939957074776895,2.358690658780348,-0.5215359363754212,-0.24679206409478593
920,-0.665214437433915,0.16347443395456146,0.3847771935880415,3.8203789188812975,0.23417762339111414,0.9346660616972235
930,-0.6516230335729656,0.1701915526180318,0.3975246169417641,-0.733122647552602,-1.1462601473637464,-0.9046994319042263
940,-0.6747369401212975,0.14799869841573834,0.37622203767609586,-0.31666120196770764,1.4433076147205501,1.9257263111801053
950,-0.6429310639076095,0.18633725611716823,0.40932851422121547,-0.6668519263633823,-0.02995565113113463,1.9715726256451722
960,-0.6678213948128269,0.16627932898659353,0.38159645709522594,0.646400760617043,-0.5900744785422303,2.330707750096294
970,-0.6896861418705927,0.1447451795176005,0.35595023627167766,3.2571458293391027,2.2203212265500136,3.9773882975258976
980,-0.6505879187825047,0.18798350379225734,0.39563693851626297,1.0416495456260848,0.42428767310354515,1.2161016457959186
990,-0.6553058940278386,0.17973210094851516,0.3907005501575257,-0.9943412036761713,-1.4095241756235994,-1.323223455856371
1000,-0.6550214309855841,0.17962439863707233,0.39065949561585755,-0.9269302939167468,-2.4888631921896556,-2.2513201928481115
1010,-0.6394950838685144,0.18832219974381956,0.41122374315237603,-0.4977231401168298,-1.677482615971141,-0.8853787636865432
1020,-0.6484262067749834,0.1863956787588304,0.3990090808039017,0.8365773211106322,0.49243927235028895,1.134513185965754
1030,-0.6691776791573564,0.16960133659283513,0.3787875740783907,0.5792289346155471,1.7533402814284733,1.890170540855067
1040,-0.6543531526131896,0.1844188332413512,0.3953853364447363,-0.0018131840852724235,2.3086590985775293,2.0085632622048397
1050,-0.6622079683001327,0.17394272448933076,0.38683217723261976,-1.1315233261466202,0.4425273940045997,-0.0071362704323686965
1060,-0.645722514711013,0.1846981026385005,0.40385122002914653,3.6292729407840008,2.655370630353387,2.476786567086336
1070,-0.6562633169965221,0.17611372686611917,0.3940356660366995,3.068754415486474,-0.282336995971896,0.25713619746842964
1080,-0.6428748796125805,0.19052960531171265,0.39729774909544685,7.369130341374591,1.3870414669900992,2.4822104078115412
1090,-0.6734144246367302,0.15805159396097282,0.3721695809636301,-0.5769488337835053,-1.804909725555771,-3.8947476579484026
1100,-0.6440620039511132,0.18680559780325479,0.40549141167010283,-0.32093825023728484,-0.2842817380932038,-1.868818249730734
1110,-0.6956971938687292,0.13663183683790547,0.3529409902184435,-3.7617786197026515,-2.810119949964737,-3.363630544421592
1120,-0.6523934997402936,0.18272994726041847,0.39170653366664987,-0.22933784818331832,-0.07410102240169808,-0.4199228639321147
1130,-0.6708927378084875,0.1700609051297449,0.37126331888109604,-1.2429833034744988,-2.4791724403134046,-2.703236677790631
1140,-0.6428717613708569,0.19970633169915525,0.40166126523176426,-0.12977492253096767,-1.5590017041629851,-1.533862173088581
1150,-0.672828919287472,0.16223709113771215,0.3746428059971058,-1.7541664419920229,-2.300185977632525,-2.160510683261041
1160,-0.6545619211275764,0.17940146555622882,0.3944717931365414,0.7707318383555635,0.6452596980747651,1.8893852707750263
1170,-0.6678924564037567,0.1631621795422352,0.37837624008210413,-2.0903336863117397,-1.848392701919631,0.44597520233564136
1180,-0.6596945803810378,0.17357247702910072,0.3874668786138079,-0.9247440418480085,-0.6100959464248351,1.2869678059599412
1190,-0.636976503611012,0.20297760853278185,0.41100090288992625,-1.9956315073373454,-1.8801154212622393,-0.7401821369913485
1200,-0.6802934785962159,0.1575655934523895,0.36561011311092634,-1.9205083090006174,-2.2201087121510437,-2.19862050729735
1210,-0.6321452935800477,0.20651023888431486,0.4197963521967869,-2.7289968129360136,-3.760763009677272,-4.340162412126045
1220,-0.6585991056739802,0.17911040585210675,0.3923258709945742,2.4924122255286654,1.875743158137734,1.876547201772663
1230,-0.6620230258613815,0.17213537261400486,0.3812163792898693,2.251939851456566,2.5836064895082114,3.743572344365245
1240,-0.6540932103264286,0.179462575115948,0.39086325444418424,0.3960120478772353,0.1624493835730706,2.0075576496541374
1250,-0.6884487721055438,0.14100936258785393,0.35723856003448085,1.816018655961036,0.6442583123491316,2.794250823326919
1260,-0.6383294738023481,0.1971266770163288,0.40773462023026324,1.4188367341804307,1.5741299437421883,3.28504572390271
1270,-0.6426395723398676,0.20088473907577695,0.40549461001578796,-2.654431202345222,1.2585225362838395,1.9435341992478552
1280,-0.6701298123553416,0.16863259545183784,0.3777629329700841,-3.4056701511001446,0.6607185425604694,1.6514268284622
1290,-0.651677227801852,0.1861722157675753,0.39481899213387817,0.5063180822156224,1.2579095621578749,2.0326078066395796
1300,-0.6688441597992882,0.16768163762313149,0.37603833069691467,-0.9624688564921982,-1.10604285677464,-0.6839492118289301
1310,-0.654288851186632,0.1818502021565158,0.3917166778862408,-2.175361337918671,-1.1921126827619475,-1.491518464550516
1320,-0.6412477744639971,0.19390844314189387,0.4056387534436154,-1.8931151320501838,-0.12131955198559287,-0.917330992747055
1330,-0.6643554852836393,0.1684760212011183,0.38117856590195465,-3.0890497546629696,-1.2956394813986918,-1.5786021769806942
1340,-0.6859256498091634,0.15366346147009075,0.36539477984618124,-1.5537279485548254,-0.5160815761247823,-0.5223624290366135
1350,-0.6540839344081043,0.18196663584144634,0.39685238333335693,-0.34028530904118615,-0.5180454360553551,-0.20729275726944552
1360,-0.652627893523893,0.18250061941019363,0.39489237127146576,0.7006243800490957,1.373858174801814,1.8448710754325914
1370,-0.6565591204002695,0.17694923005677923,0.39347945147795027,1.898614416882004,3.0418894788625304,3.7524058253661767
1380,-0.675034052037871,0.15804698697986808,0.3776581775156182,-1.1068970980319695,0.2777781850731108,1.6154268030382704
1390,-0.6980089405545652,0.1367280121842137,0.3519846345330931,0.2991363891338769,0.7320276440556438,2.4411388911762018
1400,-0.6627735428805626,0.17752672931333668,0.3859805399726338,1.341321854326802,0.38188035437938833,1.394616989157888
1410,-0.6731779594673012,0.17256486460198017,0.37690024742564715,2.989124448029723,1.9441243456041128,1.8422345782243115
1420,-0.6523489975418697,0.19027740572594204,0.39712910245093547,-0.6290961003215574,-0.09744755415766998,-0.5134416197676588
1430,-0.6299402669062891,0.20155884263152749,0.422782994397298,-1.3666115255488642,0.49321396575388876,0.06187243233733758
1440,-0.6594426138179509,0.1783051176620625,0.39509577842920673,-1.8948241773958652,1.9664902628757868,1.5324046574490122
1450,-0.6528855303073101,0.1820290410553804,0.3970977032904291,-4.164092855155138,0.44881506306941166,-0.03654176191533087
1460,-0.6948392220033474,0.14138132472493842,0.350990549809695,-3.849954979533232,0.8694975022485874,0.7617230945282175
1470,-0.6580743192926031,0.17285954849825605,0.39165185847965067,0.21704715666215257,3.0710005929813775,3.8551679182027665
1480,-0.6660493595932164,0.16688769812880655,0.38424403373387733,-1.5390551379024584,-1.6117861452558704,-0.404411848046919
1490,-0.6706959722524243,0.1625856821291372,0.3785447368620352,-1.0249455149758515,-1.534700507448426,-1.7000463364484186
1500,-0.6645621932548297,0.16315983344402785,0.3827003100831365,0.26541880501178183,1.5538268348514,-0.236085699912834
1510,-0.6603775424078877,0.16652681593499263,0.38385427678136397,-2.855242493139758,-1.176294359326812,-2.442270806747926
1520,-0.7079386419338795,0.12402515351657734,0.34315812667294715,-1.471401997140567,-0.9281810561704521,-1.2890241589951537
1530,-0.6772709848318593,0.15608871448270306,0.3705050752653096,-2.0032052359603756,-1.7517090833790019,-2.629870096597572
