time_ms,ax,ay,az,gx,gy,gz
0,-0.7717781389220556,0.14368626970599463,0.3536665088904229,-1.7405822163150186,-0.7962149318859195,-1.0517433163742587
10,-0.7389580853528777,0.168049881755521,0.3793448055163684,0.9637358812456417,0.8296836122361826,2.13837778771805
20,-0.741631859331492,0.1787800055306415,0.37746099685822654,1.3635625582718964,-0.0029110940856484913,2.077637901621769
30,-0.7588196225981942,0.16716505598106718,0.35893262663261943,2.528958479935973,0.8694000499479188,3.0290272539963174
40,-0.7414746357306148,0.17729916913664018,0.3780069466552968,-1.1353228866038574,-2.1394019831900364,-2.0823984479867335
50,-0.7854895676706083,0.1313625436416806,0.33756288763926895,-0.5389087423748281,-1.4162552488178748,-2.66687235096052
60,-0.7655622707083761,0.156963065052762,0.359463075910857,2.6557404591705165,1.4372920630541988,0.5125705023268528
70,-0.7767613008838468,0.14466530994532803,0.34674702722617917,-0.24583842724753946,-1.4637209742593704,-1.9861993212198392
80,-0.7486099898730156,0.16523388631348632,0.36998796927516636,2.407988384880953,0.8389149043679093,1.3557463762612052
90,-0.7541121079916865,0.16504676845069177,0.3656533734155192,2.0052566482966068,1.0707021626576467,1.76551997583416
100,-0.7677866137694143,0.1609699326011607,0.3559592535727475,1.215686428017542,1.5786826731453125,2.442884567233042
110,-0.7516189274063532,0.1688628509406954,0.3673510922404673,-1.1483720681781673,-0.5397307460189572,0.13550951049337656
120,-0.7435638385172844,0.17541900909414004,0.3795253731387737,0.7313803478546766,-0.9982381305096887,-0.13713635236391383
130,-0.7655806347434995,0.15453836349145866,0.3579259230308001,3.549565622158341,0.7157695319485531,1.4663693345820143
140,-0.7569262452932758,0.1653708043877966,0.3658084195496781,1.6046058916086168,-0.18643610327296573,-0.34480681018673176
150,-0.7879251931230706,0.1353034508868876,0.3315899993371395,0.4287925362148988,0.27259612126550564,-0.9667461542867621
160,-0.7622397244685449,0.15967498727080962,0.3521244027172525,-0.36272963712762285,0.7199762351797785,-0.7887239975661532
170,-0.7791397758382439,0.14365190701723934,0.3405790090970487,-1.2795080388053708,-0.12662109580147513,-0.6668760992950894
180,-0.7855849914787211,0.14473831353054809,0.35289183374268746,5.875174390423402,1.155049788035381,3.21406941255725
190,-0.7493506423161435,0.1821286138910263,0.37934258145149624,6.7845139702014325,-2.5250462869062202,4.090051085726653
200,-0.7805854237964938,0.16611701470258003,0.35582305029032046,23.309842254803545,0.8053079509526623,17.30676603620814
210,-0.7377527561172511,0.16601423205487864,0.3976478665500496,23.905855457712622,1.9806775313636513,18.190554794413547
220,-0.8094288179304668,0.13660595608985102,0.3850583446993512,24.16896467213617,0.48468010646505544,15.963768147645169
230,-0.8392836244440253,0.16422554281804702,0.3958630135208378,14.082409095560225,-14.879700312726516,5.139585322162061
240,-0.8091209101239568,0.11410183655709172,0.3849735045548918,19.263032816129563,-25.186672764325806,1.5981531014675865
250,-0.6788353460057946,0.09565607224140454,0.4227480734228512,25.02162931941563,-39.19453835134832,-9.676546523669712
260,-0.6618327901396076,0.11580433016490278,0.3627101843930971,21.159283846128915,-43.41353301977019,-19.215946433068506
270,-0.6446091488295653,0.2213031865289028,0.326211418490588,1.782016697498934,-36.30146338656261,-25.287885009630426
280,-0.6728623306806503,0.216821903349314,0.33910990184828615,-8.85589100606903,-26.19113751505425,-23.13056559394571
290,-0.7353106025917697,0.18821105182663375,0.4311581761158649,-10.969908867056397,-24.58661949078971,-23.792301821562628
300,-0.8029193099649766,0.037030617484757944,0.4776978077789295,-45.35716716659669,-32.90683906736084,-38.181410544839935
310,-0.7102934923373226,0.18206367564630938,0.35327686469480085,-15.442466226571177,-12.08508043364327,-7.2841363873028575
320,-0.6693957983252257,0.2313234597865517,0.31102831910609957,1.9853172360701974,1.476518166193492,11.584909876015582
330,-0.6928696119945408,0.17667694659808234,0.3675383743828862,2.1852389530477314,7.821221969243107,14.725959858773592
340,-0.7404570516299491,0.15108211278285777,0.4399279708692108,1.4350728172645066,10.020938797376292,11.31725225946837
350,-0.8336417599485793,0.14160631703762855,0.48860356637201274,1.7892398766363233,4.78822327916767,4.443168437430403
360,-0.8771415212272335,0.15147099232394085,0.5066717635769574,9.89010621262408,-5.841466323809186,2.2623036384470416
370,-0.7283232083818127,0.14056037394329426,0.41344472339807603,23.778954483991814,-16.06826249908093,-5.193596735958393
380,-0.754871825284656,0.3069034414875654,0.34993283430740785,25.293095043148245,-20.250626222723945,-5.2164111139280855
390,-0.7724185058733974,0.16886387822180499,0.2913743774019313,12.553162862222244,-22.63510953809835,-18.903990861468138
400,-0.7598937276081654,0.06364369268637421,0.33427161644228276,0.9867434081716837,-20.035096295068904,-19.159208764653012
410,-0.7421167365904254,0.05918373431986426,0.3709824454013806,-3.694916826996164,-11.611769443510289,-15.525016608946192
420,-0.7572099197212927,-0.06975527224076154,0.4215355574037055,-17.677041680160563,-13.106569284486104,-25.021033562699948
430,-0.7196690704666951,-0.020963804559307103,0.5089262274119676,-35.07259281274486,-9.069501359153538,-29.961794945494695
440,-0.7444897112698343,0.2306758966753587,0.42731660476118405,-31.86371186789535,3.817237596858315,-21.8237844510846
450,-0.7377736483196476,0.35661985841194344,0.3541349581793742,5.016081827861996,13.621201700974154,-10.093102103988349
460,-0.7253312478023356,0.3384145058632031,0.35119978813194186,-31.07817393772672,19.463293819974634,-16.5036436350368
470,-0.7557430381058965,0.2853077735290992,0.4261016590816248,11.30188760659108,30.64939697446081,10.63229425028328
480,-0.7579532950732971,0.2724509674642613,0.4079807623387287,-10.49579010546039,33.323649258231164,21.68533217349851
490,-0.7412432297185455,0.09693496139521764,0.6896112970791201,-29.425523575440028,31.195534569918255,28.357147546777252
500,-0.6657103349047487,0.08405064452973919,0.27301772241844763,-33.28951690867263,37.49987156605682,33.13767932798837
510,-0.7274427450870445,0.11169452087546976,0.036556681437584115,-39.35542369008081,35.7446421933665,29.11185953002152
520,-0.7739036038928836,0.09947610925371547,0.2577808683343474,-37.549818837467704,26.75515410208557,19.08959413463007
530,-0.7774750657996201,0.0024978839865829466,0.4002178414764111,-25.950801451513293,12.828935996228237,5.872984192414805
540,-0.7387895192599785,0.02156539549921191,0.42658371041595644,-10.779915568563462,3.5139834661768594,3.061596183079379
550,-0.7550694100962277,0.023133217590742907,0.41913303473367314,3.5555500184596665,0.15385986235906268,4.186962095796892
560,-0.7465739400622379,0.1059311608951413,0.3966463842977902,26.174111147448862,-0.4041986670000852,10.133557252762566
570,-0.7621423672072346,0.08361808662800072,0.38347557295908524,35.80259342751777,-0.6009717646787056,13.74351436203396
580,-0.7245468072676747,0.16248054553202437,0.4156497250251339,31.82456127976272,-5.179323155599622,-1.734438233851029
590,-0.7472706339820628,0.2597814262349242,0.3339833901048565,28.684456810936965,0.45716741356660817,-7.006804329609233
600,-0.7928865773971935,0.34467546265527915,0.2539878579521745,37.1234681326853,-3.278326929620709,-4.016437600234463
610,-0.747125440547392,0.41721626796239225,0.3580014413635326,42.404493538514586,-0.905827309923261,6.606134905444364
620,-0.7601057871158321,0.23208730977775535,0.420817316410269,23.260602566600564,0.9325816833033498,3.5940098053987484
630,-0.7217424845211986,0.09088829485355608,0.44789710286335804,12.51421503751558,4.629220255360099,0.5673449519438687
640,-0.7445286096620798,0.29684853793224664,0.39658455999587616,16.025220025915115,5.323429233780483,7.255541358092835
650,-0.7639498286079135,0.16240576796749606,0.3694048775403277,0.1996424580346412,-1.6599287151431743,-7.140371737488573
660,-0.7254975571564912,0.20105197782154882,0.4137248587314821,2.980753403512945,-2.0776461603167027,-7.631225835558959
670,-0.7538532664278007,0.15969007244991681,0.38105107946779065,5.8875375843210405,-0.4811688931020731,-3.798430917080017
680,-0.7476397214823943,0.14933092865558367,0.3834137291286883,8.890170067343037,-2.506369814424257,-1.2693742254135572
690,-0.7604668607572959,0.1451065834856575,0.3711628627568958,9.79560969117684,-1.9848296099738558,0.2626162489218766
700,-0.7592847753973139,0.1542808411538064,0.3796334931262581,7.497410408341636,0.4748318016495896,0.04197937936750251
710,-0.7581049775137372,0.15835986967828883,0.3801449806620865,2.760322432580303,3.304328105156128,1.694950513427337
720,-0.7243648452192792,0.19717708749967464,0.4029439138284087,-8.512789966737511,-0.566837654400036,0.13174624261523743
730,-0.7534444633066669,0.15675536732386638,0.3774711315194867,-12.98642224678374,-2.421391792580155,-0.34890800607843375
740,-0.7421828159465267,0.1650691278881737,0.3887588367279019,-6.134908105036343,1.343365260941726,5.615885991177937
750,-0.7543989591223986,0.1561411702329616,0.3817582407285162,1.6767022042661117,2.7345121299107946,7.454566743264555
760,-0.7474597819380726,0.17087124822211922,0.38705629697735594,3.1017327538679846,2.308174980268801,5.90462115661161
770,-0.781992185291374,0.14485654293725428,0.3516954055790597,1.4717141562430536,0.1409648141583557,2.0603511793245546
780,-0.782062115180292,0.19326239096491415,0.38445487576853626,23.3211092132229,-4.737128194233153,5.84184660940596
790,-0.8965106739757825,0.20065903537374946,0.45663440021074875,30.7580041835394,-15.10909514971241,12.889404416929
800,-0.959017886453468,0.14447654211289662,0.4790841119596059,31.15101913641124,-21.916888012244115,23.22248601155679
810,-0.8448983702958439,0.09165097384186832,0.3917653193807333,31.169313088750286,-31.360971931906313,21.06780920542937
820,-0.6437862254045892,0.18386375866461166,0.3369673114574335,27.84903892632201,-32.38489994882494,13.49206770067278
830,-0.5408734680311907,0.2857378545634652,0.30394088002653497,21.76474572274913,-18.39396452307756,13.087968022000313
840,-0.6252257963899592,0.29245046654461365,0.35699044011915065,20.530728465798074,-10.94002437538334,10.958663005628356
850,-0.7206149061256101,0.2259624823312461,0.38617886907356613,12.571735999931843,-1.345910068080424,-3.4975575242919987
860,-0.739140996291908,0.2289252104311098,0.39878760357736087,2.631439867189872,-5.283208824869931,-11.164807407137454
870,-0.7429258611814286,0.1871840956673121,0.3781247941393189,-2.458224462962762,-6.010193488198823,-12.345502557804531
880,-0.7159316225237232,0.19670457960645613,0.3926346697759691,-2.3983073477217465,-2.4364113025568206,-8.836175548934317
890,-0.7057296978156012,0.20947833828916065,0.40069977371541865,-4.720251262133857,-3.286565517132212,-8.707099201067217
900,-0.6965008843404576,0.20974840798391337,0.41321740330165224,-0.6031430483895166,-0.2225083035985025,-4.112231437107912
910,-0.72971603940893,0.17171528533459443,0.38836687330865555,-0.2284682702683094,-2.2876440231351154,-3.951338080477047
920,-0.7265429821850017,0.19975784518427256,0.3886857360098854,3.3651526035955586,0.6547820310737575,3.3444150477317103
930,-0.7119847733933663,0.19683506291457303,0.4045382821171617,0.8557995397220758,0.9046091108663686,1.5763843380797473
940,-0.7328965512959053,0.20043499673865334,0.39438306090003666,-0.6098454790898398,-0.10279951483655547,-0.33514580550093354
950,-0.7409871799461254,0.18913011934601337,0.390745636300173,2.5614653520187045,2.4903681789211634,1.9665599195404222
960,-0.7492333362447656,0.19202079587719123,0.38827452098689935,1.3741179890222628,-1.2816378333906777,-1.9088654298561583
970,-0.719173520590666,0.239441006941933,0.42901655724206517,2.381351541070943,-1.1605437355953818,-1.5696112353403726
980,-0.735684959934582,0.22065261545121623,0.3951267347135473,-0.4541027623860625,-2.3479593827030447,-2.443063935423343
990,-0.7060315962964685,0.2254334574887902,0.40208581611373406,1.4292750439800084,1.109434669619898,1.154456287853422
1000,-0.7424414604744741,0.17124387685943654,0.3789436036123839,1.190003755056595,1.3085483728572587,1.1226445379064722
1010,-0.7302225252051494,0.20132569772394537,0.41537565389565506,-0.40217522031174013,1.0982337019611499,0.34359309250417835
1020,-0.7636979134409808,0.1911711358421835,0.4066541913824208,2.268947043223138,1.6427131051527053,1.044098369885431
1030,-0.7692254699326393,0.1799781127012245,0.3731987827293274,2.4854900748169726,1.8691618039171671,0.7530582922620273
1040,-0.7292618548145106,0.21782846475010373,0.39121573281708416,0.4320478707345577,1.190234219274523,0.33205978778693
1050,-0.764606728993404,0.18278380825946516,0.3886810697753842,-2.650286248731141,-2.222094762868419,-1.1394082105765782
1060,-0.7389322324041868,0.18988690630147181,0.40690411634167056,0.0028384050008517514,-0.8206279077842096,-1.102226906547403
1070,-0.73607587173417,0.19484441688994186,0.38774412251529644,-1.422854587968847,-2.897703649456389,-4.331530429484957
1080,-0.7211489170496715,0.21199261258223093,0.3891793977636347,0.7616170885290714,-1.4326834224665004,-3.0420579408117905
1090,-0.7714402144291517,0.16336580561366204,0.3446381616481861,0.5922716117889328,-1.4531442331206743,-3.495450168246914
1100,-0.727611132597294,0.25087665751832866,0.42097228733452813,-2.1929084225834665,-1.4181182282199025,-2.796001279499616
1110,-0.7491331184129697,0.20824160529621624,0.3882703759590725,0.04427172037424876,0.19658447276945756,0.29354846075239455
1120,-0.7414454613014146,0.16693634047295933,0.3835614773443859,-5.738369318209758,-2.3825019876888156,-6.642637819532929
1130,-0.7395419460765758,0.1953286067956005,0.3842690277844476,-5.046595939589389,0.46031030628370107,-4.9025310052617685
1140,-0.7339596414248656,0.19540999444095408,0.4012087580733117,-5.370743062709237,1.180476648475914,-3.771934446140209
1150,-0.7294074833970637,0.22498592026585412,0.42943768403909544,-2.6409460436834604,-1.596470600879481,-3.1216043178528605
1160,-0.7777709294684965,0.183201443710134,0.376344252910418,-0.920672360139733,-2.644382655336398,-2.11403372518142
1170,-0.7455178317054073,0.1994941511460422,0.39145164550654105,0.659850772520185,-0.8372300927242589,0.06696412372410193
1180,-0.7458128082028547,0.1812422122011866,0.37995861815586696,-0.21202135956436777,0.11913220250284469,0.5988274366599743
1190,-0.7198641809260803,0.20048918163643284,0.3966017090201472,-1.4077653341053034,3.360667017076498,2.9041259357335236
1200,-0.7033048022366537,0.24434915292782997,0.4267744352124446,-2.9231342824912416,2.7554977920928945,3.676337101689454
1210,-0.7143966602806641,0.20827777901019298,0.4033365815642681,-0.609878557479985,4.394066968098166,6.024687635671512
1220,-0.7671929990898527,0.16363729424825144,0.42126982978331573,-2.449842851515962,0.8401462064102178,1.5767970402628295
1230,-0.7942215532846112,0.17431843241883446,0.39317400029454125,-0.038676139107639645,-1.1687320870078348,0.4003165517307615
1240,-0.7641998374308206,0.17943940584687476,0.3712654614194251,1.5830817207808696,-2.8768815039721725,0.5263082243270693
1250,-0.7300357151346889,0.21594555083564843,0.4023066665779875,0.20068516819956383,0.04115932980587797,0.06961757326299248
1260,-0.7586103250191829,0.193200713094239,0.3864285599830208,-1.6524755417626271,1.9409137981143183,-0.09287044680523382
1270,-0.7485100028066742,0.1918508518266939,0.4013429280081458,-3.6280772211115386,-1.3564551031882157,-1.6012483096883978
1280,-0.7612290351390408,0.16950006165472062,0.3988953886148439,0.42867596596136465,-0.004754193689327391,0.6461768895766222
1290,-0.743902219416517,0.169103385148873,0.4014366969320914,2.4437427463509787,-0.8550706977089733,-0.7230545188428987
1300,-0.7041735606055618,0.2249969645271698,0.424293233793679,3.2147998249249956,-1.3515342769773409,-1.7200756245413311
1310,-0.7058139391274713,0.23989278638666728,0.41283467187552003,3.344902910311535,0.9077138046115979,-0.7128451601430981
1320,-0.7100213696347951,0.23560831467920543,0.421410213217971,0.27224617326157885,3.0000323555071775,1.6355907179487492
1330,-0.7259034884851098,0.2033724614528638,0.4196801914904676,-2.47208589418697,1.3420487807942083,0.05971175551119979
1340,-0.7614129634641245,0.16909667790156724,0.3921433310045169,0.13698382512559304,1.941863663991266,0.15370314423161968
1350,-0.7541258070048771,0.1958108303184213,0.3966869735122332,-1.3350537165041203,-2.687222649961859,-3.65113186959502
1360,-0.7107510468317438,0.2356296374282826,0.4203085814961045,4.724412665488503,1.8272534475243407,1.9485439905790634
1370,-0.7319684526131137,0.18950053005745898,0.3774120651080825,2.5988523307982274,0.45829912886127555,0.35953645026472214
1380,-0.7443733738838128,0.18570925236254926,0.37111720862406894,3.2953599203425368,2.1254613381472622,1.988888321175927
1390,-0.7331203335002697,0.19429120115150664,0.3946033565577868,-1.4933370261958474,-1.0599030972132224,-0.36270292116404224
1400,-0.7412591260399212,0.19164825241983424,0.39011489284989065,2.6186146237263324,1.9393802188853724,3.816474516960506
1410,-0.7676017322315879,0.1771499236464405,0.3764112203137641,0.7038663477700278,-0.7863421621653413,0.9566814145247222
1420,-0.7366834920545449,0.21062381842352826,0.40805749774318784,1.491277760603094,-0.25793452098393155,1.7446962329192646
1430,-0.7377419220869258,0.19817731046291343,0.39851929533263075,1.6408504012705438,0.17980981790373363,2.363418272949494
1440,-0.7311644041494026,0.20721760717623042,0.40240732269180846,-0.2502454809114812,-0.3291996654198765,1.3601136801171942
1450,-0.7526755998055031,0.19050130556132538,0.3759449375138439,-2.501654526418658,1.416282129292636,1.2072858071892378
1460,-0.7279778764405004,0.2077909739139941,0.3985057418461567,-7.966593849704616,0.22080048157384224,-2.39569779661576
1470,-0.732711546612885,0.1991327939184876,0.41191013226242973,-6.135701865936776,2.0494066116034597,-1.5558985940613164
1480,-0.738668207002233,0.20298973763890305,0.4169251292159982,-5.434742545284559,0.29633434881691656,-3.049994136473267
1490,-0.7603740643738106,0.18661170025623697,0.39139078213367884,-0.2915226876839361,1.6507072596521117,-0.08443742400206422
1500,-0.7445196867163056,0.1980508561053526,0.40395444407988207,-1.7868005905231656,-2.6118391397064267,-3.0980044471245543
1510,-0.7125040049328524,0.22146115165062202,0.42658244408180873,4.0630971798514715,1.552120546602485,1.9704273703569946
1520,-0.7305541472861365,0.1944939616711654,0.40655547787520585,0.06303400768680223,1.0106213942400997,-0.9836701138347735
1530,-0.744805998975207,0.20475779961886906,0.42348214369976755,1.5562490740039223,3.2814661924706447,0.43987743571653004
1540,-0.749062876720847,0.20688831522856135,0.42913011749752183,2.20340557517499,1.6717537470868502,0.24334084162461012
1550,-0.7103321966648002,0.22387046238031638,0.43723562880275435,-1.1257917656545615,-3.1198524416179048,-3.3080670917251895
1560,-0.7307077294874901,0.19487570819915084,0.3856745454586891,-1.9457904291300627,-2.82399003410522,-3.0943592132101116
1570,-0.717282093788668,0.20181714032104378,0.3851065468310266,-3.558176516129865,-1.7083874918473594,-2.292833810386103
1580,-0.7220053597602182,0.19980262842095575,0.4049319712804036,-2.146593475402259,2.237487625891558,-0.08641989224644586
1590,-0.7240457675747386,0.2020895355630836,0.428438173583752,-6.087321956486582,0.13868566857246423,-2.5587188657177116
1600,-0.7688536548427449,0.17539694736332032,0.38248523660900124,-1.262831403201381,3.3268720333552637,0.8690902008398105
1610,-0.7429181470408067,0.19598343199304494,0.3926427809545481,-1.466127473548535,1.1167362613754768,-0.823085838122757
1620,-0.719969275081747,0.21831195014865976,0.4121827633072031,-1.170690576179751,-1.4727495597664375,-1.6018148723411016
1630,-0.7321038268501121,0.20080405558118072,0.39514453274255923,0.14671766291989385,-2.141792427254842,-0.4885228558192747
1640,-0.7582958637097902,0.16105580434449795,0.35895358981890796,1.2407749304083473,-0.32523210728822055,1.0515820969850391
1650,-0.7242314473308699,0.18847057384414234,0.39348033445713754,0.8580651633287164,2.0663959578733797,0.9912391149596863
1660,-0.7518119391219557,0.17785245932563135,0.38901936156296313,-2.813497251387459,0.07239066277848694,-2.737741730615769
1670,-0.7920403723636567,0.1897818727781037,0.3970407698045806,-1.9332374737519893,-1.2738420129720438,-1.3614683341986955
1680,-0.7356002185979584,0.20203603295522327,0.42567534610589,0.5000166172150984,-2.850980596253646,0.7856053294019372
1690,-0.7318354621638081,0.19114818974180614,0.37228130144744626,2.252909761736707,0.3787113394279187,4.0384956938834815
1700,-0.7135774415594734,0.20980277949725157,0.3989211143816634,2.9303358692326196,2.4317768122212255,5.077907414155279
1710,-0.7358617686665058,0.19182965799708954,0.4059325666193596,2.4374110606792394,1.8863298128755446,3.2676163770728777
1720,-0.74114863496856,0.19387141056708548,0.40505726212930393,-0.1660648869561765,-0.3080763553049495,-0.1308237868985762
1730,-0.7515044642085184,0.1919426382219997,0.39478282323181674,-2.3486363638728385,-2.3334710986087472,-3.1393819664419853
1740,-0.7656166943607693,0.18147423981673966,0.38523950603170914,0.3068781500947022,-0.8947236575432198,-1.6811266648958512
1750,-0.7406354573515606,0.19721576064521035,0.3887558642618275,1.5095688075987115,-1.064765680635434,-0.4687570821064768
1760,-0.749354477957204,0.16305417884175485,0.36110074670945574,3.0234820011857355,0.33810427372401664,1.4142414544478952
1770,-0.7207861279407781,0.1880893487921055,0.40326156208713027,-0.39953730944536703,-1.033013945730066,-0.7274542824080423
1780,-0.7261349918568011,0.21873209677243924,0.4174534673907524,-2.260565049982673,-3.672755656222956,-2.302487147315921
1790,-0.7209286840267397,0.1871907362613923,0.4066461166160072,0.037121130132559216,-0.5372475338427329,-0.7154283515898301
1800,-0.7461386865238777,0.17167491437434196,0.37717452258124706,-1.746051728138205,-1.064778650129864,-2.7173552392543474
1810,-0.7277106962937603,0.20888247463905196,0.40240743384851857,-4.1488318639217034,-2.9168083964306977,-3.639011186506388
1820,-0.755115071738257,0.18320698241510136,0.38567498404506706,-2.576161118250778,-2.5966214379621837,-1.4910160948042226
1830,-0.7466346019696893,0.1886403384660681,0.39544805811680817,1.7498343499535034,0.5123319385481446,2.5510817464388413
1840,-0.7566947040477982,0.18113680901799184,0.3711803387052354,-1.728511460861909,-1.9188870744179756,0.2482183415040169
1850,-0.7476968493688089,0.18341973201347098,0.37102920544189555,-2.9977381556079727,-2.7040521148524657,-0.6079055701748552
1860,-0.7618467333167799,0.1600237116972339,0.3577899112636154,1.5379367518708835,-1.4065341387762738,1.1841162821846947
1870,-0.7089570118350962,0.1706091522172418,0.415086451470283,1.7499694392343452,-1.326672994355321,-1.936985940435753
1880,-0.7438689636943696,0.19046765838978164,0.38853130198107894,2.228604513725025,0.11738746539408251,-1.0176262812844366
1890,-0.7026037648605349,0.2402797353334108,0.42525503522957653,1.2346819448952326,-0.015031417212713727,0.1841457340725835
1900,-0.7360308652339956,0.19325073547215194,0.3906097922694129,-0.9170975363925378,-0.5390940872326706,-0.3950044035366834
1910,-0.7514303903173488,0.1833149090514465,0.3832977235845742,-2.4280657061973976,-0.3891705211082979,-0.7303541033121996
1920,-0.7430720145858606,0.19144286560775337,0.388375547261626,-1.534920870938957,-0.4911570266686275,-0.5343231289594903
1930,-0.7437836898617318,0.16943615765534206,0.3715315931187493,2.613185867825713,0.9103765381057425,1.559943629083005
1940,-0.7549750755606743,0.1702974249848891,0.3715119589871449,0.4537266552564758,-0.4694366494640074,0.6154362316544155
1950,-0.7691016398580435,0.17053562579750842,0.3848354881439804,2.4727589863201924,2.399166810185672,3.3494386690212687
1960,-0.7433447153079698,0.1595758348828397,0.39505046413913075,-2.8340147839941374,-0.9909420315752627,-2.1863696985290364
1970,-0.7618721835829014,0.17050040715410142,0.37369688654589067,-6.084872184586117,-1.539907330467173,-5.163115300234811
1980,-0.7360766883005855,0.21181190794821114,0.40253666812192235,-4.17238409361048,-1.5057344974338007,-3.5230425248657093
1990,-0.7226940453289271,0.20722664937188412,0.4058683422790766,-1.6146113007112004,-0.749568091271787,0.9221763272195243
2000,-0.7245525783907683,0.18836578520697503,0.4123796612317352,-2.386094303329811,-0.6731546763132077,1.2017246589934518
2010,-0.7556548228745111,0.1441120405523834,0.3882079505912823,-1.5297780361895872,1.4082164678144409,0.6446134370392008
2020,-0.7260391192489725,0.1760020611626479,0.41242586094046635,-2.6204893049079034,-0.6288800248471105,-3.491678047585212
2030,-0.7447909930399611,0.1983565213870585,0.405929217638559,-1.419604017292962,-1.8500038814262942,-5.214458537942329
2040,-0.7413724058108397,0.21277274667642473,0.39992368053866895,0.6966203867699227,-1.9311484642544388,-2.975706130906455
2050,-0.7665119924347559,0.17466651101828545,0.3432308647846891,-0.4962504532044444,-0.5853724419999182,-1.2722005743454143
2060,-0.7117710139013853,0.20485369651842353,0.4219720670743291,3.2459714566659645,1.502150083468447,1.02404946442432
2070,-0.7488227229247573,0.16838539868427066,0.3900917230642149,0.7283941615361007,-1.787763346772735,-2.203889695467444
2080,-0.7093260557154484,0.22139144597997978,0.4229125338333082,3.728624762547649,1.6004079507142803,0.9637514564594214
2090,-0.7438422557254982,0.19043767791627744,0.3816013493228858,-0.03447847582712643,-0.3647031954265857,-1.2348690764712957
2100,-0.7436496145834074,0.1894587376791031,0.3836533681199204,-0.3162054548291464,0.9773787006237576,-0.01736768045841164
2110,-0.7359492993047567,0.19540140315519566,0.3965796500270532,-0.5555371973226154,1.2885681363970964,0.192112212188649
2120,-0.7436529974933322,0.18450169054284424,0.3926331443778335,1.9823029184716687,2.222321532406746,2.0141465520254576
2130,-0.7409245085972236,0.19719361876655636,0.4061375864387829,4.88405851126832,-1.0021538516432362,2.324353195244389
2140,-0.7157686737324545,0.20237779495031188,0.3930491662596982,4.092379258727635,-1.7083421704313762,1.7176724798653278
2150,-0.7069965072513593,0.19600238998502598,0.40032221215989755,1.5016898870530118,-0.3085914621710507,0.9838143887493097
2160,-0.7063366206061978,0.2158939120050108,0.41324344085094566,-2.896009100224425,-0.9044355263189865,-1.3294415930191832
2170,-0.7237706268347225,0.194930764450112,0.4011487293509126,0.10877319655489703,4.21044300024719,1.9156538622030732
2180,-0.7431306349840129,0.18548955898875905,0.40385264993482867,-1.092790353609098,2.8791770250793176,-0.25424720637428466
2190,-0.7578107117707048,0.17528428538107063,0.3839526993131538,-2.0920433337413322,0.4255317180726518,-0.25529812459658086
2200,-0.728743229975133,0.19517854649452257,0.3899682396834888,2.7868011717318497,2.9506566647254244,4.702120734256573
2210,-0.7254778285414519,0.1967852734445512,0.3982656304206207,0.8709368541949418,-1.0491523240666745,-0.30355502245632193
2220,-0.7302788437476552,0.1983816227888645,0.40545540801807606,0.9745121184369303,-0.029390426534716768,-0.055568751479541455
2230,-0.7476388563588865,0.16647960506864345,0.37578649360504096,0.15076853977269333,1.5913701165902938,0.723272323904776
2240,-0.7310323705255106,0.19233478667286963,0.40574549017633377,-1.6368274483965326,1.357375441300851,0.3644276949785624
2250,-0.7840695985680999,0.15112820343433284,0.3689790515095517,0.9885360331500805,1.7741508576936724,1.7810712863264326
2260,-0.7148868971429072,0.20894789998872532,0.4154471918016467,1.4864002095049997,0.08873504308279315,0.10946382568412433
2270,-0.7256046599477692,0.20221415399841258,0.40207147985769254,0.9946554841024423,-0.5696546514041548,-0.7191331871395079
2280,-0.7214375323139964,0.20790022237905248,0.4122209595914491,0.9949699072700134,-0.31377913123840506,0.03211851876393301
2290,-0.7273160636097932,0.19906865923507158,0.4105060011165074,3.544738949273908,2.3350167478289676,2.9228553632155316
2300,-0.7106583862975596,0.2173138835639687,0.4326943737642237,1.5099658354439365,0.9254029088095113,0.8598855919029619
2310,-0.7449280790084384,0.18435675511814764,0.40069884699517805,0.9124743243895281,0.947813017255806,0.5379080302670393
2320,-0.7497743843488389,0.19088011001675775,0.39369903454822847,-0.603733981472036,-1.8096870200672142,-1.7960620360374755
2330,-0.7075878953002865,0.22928347153260492,0.42620792790919315,2.4044165132557684,4.005891595413972,2.207590230618832
2340,-0.7593090708283478,0.1815632282870003,0.3890703360391361,-1.7397316808367762,-1.0658225891324573,-1.6157525332420615
2350,-0.7263193868750972,0.2211128731722561,0.4299683363024629,-0.42958378183206825,-1.4676326302606588,-0.4930651259133657
2360,-0.749458422159506,0.19097800902161202,0.4070437051426646,1.4616220269654452,-1.5314140075566045,1.2903626492034501
2370,-0.7278284418969931,0.19775924179085433,0.4150526966305507,2.1954930154490477,-1.0436753705049682,1.2935643892099007
2380,-0.7351835326447238,0.1876607502770722,0.39755856863407407,-0.8349538625662167,-2.7892357921074318,-1.7886662207353141
2390,-0.7393934821749103,0.18577790534544275,0.3894240957316584,1.426649423329273,1.1257165183095352,1.315987095191569
2400,-0.713089919427127,0.2088595410206601,0.41338505357726346,1.9513889762286016,2.759372166622882,2.0955129058300717
2410,-0.7654783526667499,0.183226815884432,0.39140914644800573,0.32177245481117345,0.6408100553067925,0.5639089216344932
2420,-0.7437795623783522,0.18186536167081738,0.4150939710600271,-2.9182673128937484,-3.403724949795264,-3.481710944440543
