time_ms,ax,ay,az,gx,gy,gz
0,-0.5461115906574472,0.0871853616980622,0.5570236575688952,1.8681254426322957,1.666704631653385,1.393693039409499
10,-0.5468152717623312,0.08515013058134699,0.5477254685344477,2.321930686003771,0.8057317529311179,0.8104219422236685
20,-0.5378697655890122,0.09574131697782849,0.557061730407053,1.4838862737429321,0.27333959386777373,0.8876095464801372
30,-0.5461787451315363,0.08757608903706288,0.5512961195870153,-0.5492454661298474,-0.5096658947038162,-0.2748013923066171
40,-0.5463900536486466,0.0991387555234867,0.5531606764478101,-0.9423159099276255,-1.1766422535159256,-1.6543373829701806
50,-0.5488943443296098,0.09878623742214784,0.5522456697599671,0.2245165842378746,-0.14658183252103607,-1.1074434411407528
60,-0.5403313530761686,0.10138584495770418,0.5561763862983123,-1.7568416985318036,1.375067915127743,-0.6484686418797099
70,-0.5372785217143933,0.09786328925215107,0.5564222169691786,-4.333715678896761,-1.1734056901012275,-3.1330640037338835
80,-0.557370252265743,0.07804832419168004,0.536769707439647,1.8691865229741906,2.3840334623040222,2.8204995294424653
90,-0.545106006164111,0.09502607537130904,0.5480179092063974,-3.273174845281521,-0.5734996582339122,0.13867293822280113
100,-0.5529236803345857,0.08255762020434397,0.5416173889831171,-3.0051265121180073,0.2697193199668983,-0.19592404879683445
110,-0.5733004174677011,0.0619789457325112,0.5234643212552245,-1.940919386204047,0.8175596531340047,-0.1778979473700668
120,-0.5704127919985514,0.06100363270359339,0.5248330008241887,-1.2906635810165163,1.105072182030057,-0.8609217218510234
130,-0.5291094808254713,0.100673011683223,0.5742157928788802,-0.985803468717948,-2.391197764000402,-1.6135610651055246
140,-0.5709387071355597,0.06618744657208847,0.5358440889953362,5.915397214322564,-0.5335005731873906,2.125396895019769
150,-0.5502352321187893,0.0861861936551965,0.5597643742906295,11.546943672118227,1.8034991600761634,3.711883672757301
160,-0.577586172153018,0.07067228560127825,0.5465018947041573,7.366500063842127,-1.677327066924315,-0.6253546515491306
170,-0.5745971464146876,0.09041342894583514,0.5341342181448013,3.414293726459209,-2.9312757072689233,-7.164110068297379
180,-0.5507844933724346,0.23308785141189253,0.6135465858895283,-40.13935731420298,-30.813454404021034,19.23718277348564
190,-0.48820339582554934,0.17334177905928483,0.5942848926249125,-62.97227130833846,-34.89476756944311,24.377365024890157
200,-0.5501845113892152,0.15735779871401914,0.5285601970395114,-81.94692293473598,-37.966762470185934,29.992379348120433
210,-0.47749594288691377,0.1450466086616285,0.5318120784091167,-79.34063603238174,-34.992639345821566,51.14540787221028
220,-0.4201741563101436,0.04150894824147012,0.4106564045927931,-92.49753332983414,-25.76934596835881,47.627408571715996
230,-0.5543106891071877,0.042399392581853934,0.5440055216081321,-69.63577490115215,3.625031225631524,48.175639557240274
240,-0.5276995542313545,-0.037241190747496586,0.5223852981592543,-62.80015809830442,0.7733744621437406,49.701721995752365
250,-0.5244094690340387,-0.014470707936290555,0.5157986853731309,-57.24379268018148,-0.2017836754974255,50.597402160440424
260,-0.5524109539982583,0.03500641753209163,0.5384924762278467,-52.816015331081594,4.645214445821823,65.0943844261743
270,-0.5408252297277278,-0.07354653166908726,0.48078461191442157,-55.030250726446404,9.417757901214355,69.08077378906306
280,-0.5143289795767133,-0.07373803038306548,0.5000062380190093,-24.44728642604867,29.56842955347875,39.87825008906218
290,-0.5228844631873892,-0.0289262599857588,0.5077422211086033,-25.423206598851433,33.33007874234811,35.513895274152226
300,-0.496166628539396,-0.03831184233722499,0.5018857332666703,-27.789842438225218,40.05932586829617,28.866216872290106
310,-0.5157691635018087,-0.11286206966121054,0.48815335608586263,-27.02643931381347,50.874027647702974,23.850618997279874
320,-1.2183941781955394,-0.33122290035817714,1.3707395070606005,-43.14637091869547,-29.451058956596704,7.06882031479698
330,-0.4572873914151731,-0.010095978135216906,0.7304802301376485,-11.026265345344688,-15.149523678390336,-0.9841301273387204
340,-0.4985803956308757,-0.02430858300100413,0.6118383609551159,5.5938006209445295,-21.777790446865577,-0.6221858938026388
350,-0.32740916483175575,-0.10727379256760253,0.7074315717337425,48.78550520594656,-29.206009713764953,-8.71592951906383
360,-0.7796657304341417,0.16045874810755342,0.47735679633019007,21.29652341401896,-33.33671247838572,-17.288957076808273
370,-0.9342620846174258,0.19079618447912275,0.29664290524955544,40.14401598284057,-41.9702530735037,-21.414435258913883
380,-0.7196984698524143,0.2221530918369373,0.4002376762347238,40.58297605983068,-30.544343979563912,-33.74118070318573
390,-0.5176098855261921,0.020759804692668936,0.5234039621669428,51.380292817924875,-20.069392365633714,-32.25179140975101
400,-0.5429194714255332,-0.07287903432268036,0.4503225819638052,18.225036484519944,-26.05124952609442,-39.993768141443475
410,-0.6331267215205187,0.38134352536061705,0.4201993607083192,-5.58180793675294,-6.0236475334397035,-19.021936138399088
420,-0.5963996841789637,0.340837741481703,0.5430545645251338,37.57573859549921,-3.420393388132678,-8.154968778541505
430,-0.5288075801806567,0.17592609911034335,0.6054986998634497,56.402517984460864,1.8379840805433372,-20.078644193136267
440,-0.4641259395339854,0.2082941895970088,0.5181994568192709,-4.436178218573205,16.97790760061995,-9.943273410220673
450,-0.531454635726434,0.12806381981005371,0.5602806936672862,-3.806525158698122,22.44276398511992,-12.437514984113882
460,-0.6515050575248307,0.13352481664679022,0.13433869710687268,-3.3532233871384887,32.54711700834311,-5.422868708546519
470,-0.6762339943042941,0.24774004811481906,0.2134408982796216,-4.3185057919903835,41.1982968300044,10.475704883062283
480,-0.4208624841352344,0.20642230504606665,0.5241485084765484,26.8284399143885,36.116288155328824,17.837951076611176
490,-0.5426060829177406,0.36466962713813095,0.16287715480214018,5.783013397712116,39.21464790330654,29.592593404478404
500,-0.6955121739430055,0.11024712790387463,0.2670761391910179,-17.060460828587146,27.270042467561762,31.43617818502241
510,-0.5137001829391574,0.2401920538429789,0.5538703204235416,-8.641100234742645,18.253251678246276,25.800148746500774
520,-0.5491916245808283,0.2946364112458515,0.4440416509173116,-19.569364162874596,33.145018117528956,37.9410831852902
530,-0.5603391890939754,0.3172040863531724,0.21721903707454143,9.012040778916937,21.626241242985508,24.17407587919019
540,-0.5258578274134245,-0.04575271122210503,0.5237853476041102,-19.271702625629704,7.385570623571189,6.798857850622653
550,-0.5411714237380142,-0.14105960175044138,0.5992223600225114,-37.77627995459447,3.2863985470436985,-5.5559896705959115
560,-0.5566904045054051,-0.018828897930037558,0.5465664483620389,-28.254706292951695,4.447615949376469,-0.6391306152054341
570,-0.5445176164127419,0.0063869059415414976,0.555127013282522,2.378667491563556,0.8218854447736327,1.7819450998504298
580,-0.6902279685852821,-0.19658414632166193,0.432533692416974,35.20288305139214,0.588555019989481,-8.527254775992647
590,-0.5587904264201871,-0.4695532667806185,0.46239659801195604,42.82801163715972,-0.48430028325106056,-46.35625083107571
600,-0.7053525001429165,-0.1542935938441927,0.34635642764710073,71.28204087380391,9.094415063115239,-67.19366783729112
610,-0.708886870267623,0.05309189279211125,0.45118768467203724,64.6536916167092,-4.227797796123691,-71.43858194850766
620,-0.5666169150001334,0.04538780330643824,0.45962622426256416,48.30589972959033,-8.272602885069265,-25.551077157445636
630,-0.6015455569511614,0.21415800573654828,0.5613927801058267,53.47977788599802,-5.024163100426093,0.24941997994908438
640,-0.5415824010004547,0.17873941036469804,0.5115211670071734,10.675289531200761,-0.7492407510819972,3.6695313089702353
650,-0.5377134671236083,0.3823237844761846,0.7397344145265459,80.58825767448171,-5.139961654836966,-5.977010542971133
660,-0.5100808274868031,0.2182336269763918,0.5252405164933287,28.582611813176314,-4.482169537004637,-3.241182798267216
670,-0.5356372731176664,0.13445246787070692,0.5343404862384301,-3.9420715776276873,-0.9751789988213555,-5.169546034713327
680,-0.5594478358632735,0.08144247006811363,0.5344893563952449,-12.498976244698827,-2.9290834597214133,-6.924450989405948
690,-0.5766001906309189,0.0536193482831335,0.5130609309676889,-0.7754237249804619,-2.811445625308715,1.346350039130789
700,-0.5601913666488015,0.08166187821467483,0.5262931101925585,7.994311448727946,-4.045285411375848,5.72520600186291
710,-0.5747600857583229,0.08378069441569537,0.5163023380788686,10.709684442043738,-1.4597082158439396,9.703826820569875
720,-0.5686499077908513,0.10295422183776219,0.5234987995363113,3.890441576874835,0.9986525446305423,2.225514181786734
730,-0.5646895194622443,0.10799364037917215,0.5245513100906187,-5.419139497633873,-2.59526550676732,-8.224878029949773
740,-0.5620885589833258,0.10236729028972201,0.5331685716999451,-8.22924535283389,-0.34581178421940906,-9.813542048136346
750,-0.594921773209209,0.05225231613220743,0.49596290826251593,-8.866188764162308,1.7476146413195768,-7.9527458201582775
760,-0.5386251873909271,0.10718165160268928,0.5511092695867379,-7.130447975462432,2.294349467675371,-3.921525141036791
770,-0.5522197603886144,0.08860660073988758,0.5409934399746857,10.724202327675284,-0.3732123891819845,3.7096284367147154
780,-0.5740565780697039,0.08112478042137704,0.5111172274695021,12.195132850386456,-2.656157503166434,1.303317567659425
790,-0.5566664634214139,0.11706497620984423,0.5343008036804504,2.351577927716254,0.6115083926037621,0.191172478803999
800,-0.5577320698264924,0.10227653230688938,0.5349146185459728,-3.7754176501268524,3.298077961634217,-0.5918194455236168
810,-0.5573568683143575,0.08721646973668126,0.5369561869504256,-8.956618336532992,0.5538887671975933,-3.1802269036879083
820,-0.5424432868549055,0.11285275765848651,0.5490534265831091,1.4706083995710304,-0.7096488342835906,0.6047347650863192
830,-0.5537353118214182,0.1003810112987464,0.5353387984891889,2.234793820602571,-0.5442107864418504,0.834871955400821
840,-0.5919180466243485,0.05738641177060201,0.5059907836094597,1.1687665722499208,-2.4995648642938835,0.2832968041708941
850,-0.5687363777235105,0.07836063465615628,0.5257643718231897,2.9713865541431215,-0.34535125340214806,2.6322820768450668
860,-0.5519106773189069,0.10098997299059033,0.547525724522,6.234681702972043,1.4982289101984947,4.487078589194024
870,-0.5632721479308773,0.09344648371647724,0.5298982607142793,-6.117227203346041,0.37931888110971174,-2.2741416745614527
880,-0.5638406495332542,0.07748032077935503,0.5289331443936074,-5.131760132950333,-1.4706016510348916,-2.5966720203829574
890,-0.5570838314722238,0.08363646133311219,0.5365164549787889,-1.284944055488118,-1.585961797502479,-1.1754557084823634
900,-0.5523724082797359,0.0956763579841947,0.5418615673660646,4.878816316665265,-0.4963915913154102,0.8427341522048892
910,-0.5664325350364194,0.10316038655671843,0.5214034834090054,4.0270002839981895,0.2561836225915045,2.6987796526350616
920,-0.577787016052745,0.07236447089486378,0.5197288620637679,-2.058287888139509,-0.16476048226992718,-0.5774202615864599
930,-0.5536497821886783,0.09564062593272074,0.5393238811041207,1.3264202733826005,3.157465151475659,2.4879427180979925
940,-0.5997088380078736,0.05875561527323109,0.49573963995249815,3.027765500383754,2.9573262672360396,2.6593903040501266
950,-0.539064312925511,0.11737502111620202,0.5577616328410118,2.5524929144587913,0.5985678512134579,1.1886717417758894
960,-0.5609786064534479,0.09268878720042421,0.5354125939663136,4.060830636556002,0.2089242727805658,1.2443997451838142
970,-0.5690349062810125,0.08221855306676294,0.5237921955773723,-0.5596965653297135,-0.025170133282557572,0.8078491876120746
980,-0.5813092010046647,0.06827969947883573,0.5111999876521371,-0.3644856098761306,0.018491974313244036,0.5195701897322413
990,-0.5467228436675299,0.10458496838285389,0.5444371808000618,-1.9575409163275999,-0.8845952803965508,-0.5104612517103768
1000,-0.5806700167252812,0.06264990847888316,0.5096697668806123,0.8927517611290051,1.4517867096122112,1.9549567183929009
1010,-0.5761973584702057,0.07102655434504289,0.5153689368537596,1.9294668744590089,-0.11461318171468518,-0.06692726358007174
1020,-0.5623912220054109,0.09332606125650394,0.5321262450405975,2.4553146619978494,0.4637719335399728,-2.854875128851851
1030,-0.5879199106884325,0.06150367071948234,0.5094588780147454,-0.25516562064272597,0.34161451609259064,-3.4438848124069272
1040,-0.5717833132501863,0.07641072477452107,0.5144734933554779,-3.606614564148292,-2.0533351623217366,-5.332925959786998
1050,-0.5671105199473264,0.08530641561037022,0.5199131554459671,-2.730096947263884,-0.24449950124585107,-1.8169006641603538
1060,-0.5685822913875107,0.08421865362659263,0.5226844146481933,-0.40330416097750854,1.3341077947303068,1.4963595606037927
1070,-0.5891473484800889,0.05790814484058458,0.5080132526567831,-0.48224678197471427,-1.8811920029784224,0.4250152708122841
1080,-0.5678329823674299,0.08640347062547363,0.5246800714438506,3.8401430891439468,0.9723470653055796,4.1801129104274155
1090,-0.5625048820804862,0.09670382443814367,0.5293324080693421,1.0687316102520892,1.177472091363195,3.1134428823876035
1100,-0.5435242286176902,0.10498079527041684,0.551740262065323,-2.4042698392310027,1.7340319413055414,2.165527494167428
1110,-0.559570679027534,0.0913448768231862,0.536651067662125,1.4703353031052053,2.129358442044442,1.901153189577535
1120,-0.5424400307857822,0.11071548412772056,0.5507025058389394,2.503849321405948,-1.1318180587044457,-1.0066732302317423
1130,-0.5715143954723164,0.08530460054970541,0.5241264427950071,0.3847003176373542,0.4739291786845591,0.2340486188424943
1140,-0.5630586011587647,0.09937458239624421,0.5300295537348746,-3.3239688857553693,0.5910823667414918,0.14073350776820542
1150,-0.555732925666536,0.08869859340195829,0.5383076805353252,-5.286108285328484,-2.5872957613228427,-2.7803876568460417
1160,-0.5601783231476283,0.08974767823057121,0.5372732633872382,0.5284572526318918,-1.50985027241509,-0.9029629700665339
1170,-0.5631301715298085,0.0928810177123511,0.5288848186547009,-1.9294447297312072,-4.687573694762671,-4.262088549244751
1180,-0.5615801019919625,0.0905059036486739,0.5370406600896965,0.533928611578633,-0.036623360697418686,-1.751789883608312
1190,-0.5763632593055606,0.07671521110952609,0.5175158577135526,-0.03890512876001484,-0.5587002066154314,-3.136827016088022
1200,-0.5627068503410948,0.08500425337200283,0.5336692041931859,1.8915535899479199,0.6298866865928698,-1.6355539933563443
1210,-0.5643032401325948,0.08527227605738714,0.5294731235802654,3.672637681893911,1.2751055375986335,1.2972158921198407
1220,-0.5618131329398992,0.09015256134860078,0.5296792686810453,3.1737820358786966,-0.04561989321804971,1.5714051589714875
1230,-0.5585218674519674,0.10800312620791867,0.5321830642910815,2.8696127672278484,0.8441761793992487,1.18095891910614
1240,-0.5890440269279313,0.07094781977166889,0.5021001642699721,-1.830181538010276,-0.006911900439826368,-1.6928367314386583
1250,-0.5715726343957169,0.08242936903719714,0.5157029938810437,-1.6657457700935245,-0.3028763680599599,-2.31024308196762
1260,-0.5862573002288636,0.06534872817790156,0.5082727657070588,2.045214192371464,3.66505575803071,2.2367530159605407
1270,-0.5532505006420668,0.1070165577367983,0.5383093235871208,-4.178322492087384,-0.0013739762209045159,-1.9350372966805953
1280,-0.5580498808110579,0.09152989022150082,0.5354470049377211,-1.5849522745022082,0.6895277073058637,-0.5871779842867935
1290,-0.5577259799799457,0.09025114033112727,0.5352735271910407,2.477806264432724,1.9129654478179106,1.8689727704044947
1300,-0.5805980808025604,0.07573520177495792,0.5095833215353576,0.7764304496641757,-0.06525483128051979,0.186311793456723
1310,-0.591079514141444,0.06529787552397458,0.5009402763261575,-0.2550099745012712,0.653280450631285,-1.0295805604161472
1320,-0.5864776823265435,0.07299367477776787,0.5088448765828578,-1.242640415086348,1.1539665439778104,-1.0976846457520941
1330,-0.5917733702144518,0.060434018076305426,0.5013496089947215,-1.3206249791508347,-0.13676720321419875,-1.5063069593571776
1340,-0.5825030064770559,0.07225996131067962,0.5089543028347088,1.1867694575389212,1.543365882057274,0.3767426391460833
1350,-0.5614873682644166,0.0906438553028329,0.532110730339238,2.2448259349953696,1.2166750481977517,0.8686317878303413
1360,-0.584532198841828,0.07391575942910117,0.5112128885195544,-0.013415868484175086,1.075318974026315,0.7046442233243503
1370,-0.5579430113215054,0.09846122351858773,0.5355080859405908,-2.150518274792179,0.45729224069474717,-0.7120565017313243
1380,-0.5381263084303883,0.10929802237840652,0.5548625864421843,-0.507452679654028,1.4586076796461653,0.6068971724594299
1390,-0.5542023330049051,0.09392470111420463,0.536324240919185,-0.020448144923965128,-0.11060282660635945,-0.4637227285752269
1400,-0.55289743669699,0.0993827043402712,0.537632335771523,2.2874724498286367,0.7600220781352228,1.5049822907552723
1410,-0.5747108697495551,0.082348786083386,0.5223176988248139,-1.21099574126288,-0.08637386878192443,-0.7980815272068976
1420,-0.5445745595872521,0.11080083557271818,0.5507653021525514,-1.5846405634569332,0.09610291913318869,-0.1290899557206722
1430,-0.5861049639580694,0.06694572799271707,0.5061682149335657,-0.6294326897229041,-0.5053348709114236,-0.15815105980207367
1440,-0.5620944762487471,0.09238042129527868,0.5294460011665533,2.842541986430405,1.6219731930365278,1.9787470681067743
1450,-0.596676001399023,0.06023760531282488,0.49754655848256607,1.2505449153591894,1.0267982342072213,0.984901386462825
1460,-0.5796114280714088,0.07494198547046556,0.518469725673571,-3.2800329290662584,-0.6910142312452471,-1.1401597710177365
