time_ms,ax,ay,az,gx,gy,gz
0,-0.9101058134317739,0.168307092004836,0.24905214402776915,1.8465052033201819,0.2248650296766277,2.214244449953279
10,-0.8892270250658809,0.18663566977662785,0.2604794425317612,1.4448571279768763,0.6771940683449067,1.8826832663763529
20,-0.8648875568308746,0.20967224756573127,0.2836983996944941,1.1834820061933684,1.0509914969303231,1.2021229698397102
30,-0.8757757610183968,0.18647535381619731,0.27444742604676103,0.7433277746970359,1.3444317699354151,1.2025925716954076
40,-0.8714409248244596,0.19026297782748242,0.27695251780362146,-0.1248567123464207,0.15856345338867778,0.8946883581706095
50,-0.8607350258921602,0.21099281751433976,0.28707345712571286,2.2349259276925664,1.8266675876712632,3.4583504187354426
60,-0.8842114589841701,0.1934487805633977,0.26850995021612317,1.8082371466073777,1.7218926789270048,2.9181723505455963
70,-0.8985706778871652,0.18350897312709008,0.25595345416991405,-1.3112495977986718,-0.39303664150029205,-0.6820642619139532
80,-0.884508189954771,0.196357539938392,0.26952663741443605,-1.1267657910837197,0.14486146009937595,-1.1121504086930583
90,-0.8442203290121706,0.226223243377294,0.3060134850319403,-0.8736478972900285,-0.2685259829766701,-1.3494830621911258
100,-0.8757631208511968,0.19290926819605125,0.27343087671962596,-3.2702972452858603,-3.2016801597716196,-2.3397786491459884
110,-0.9014322399136294,0.16914256235705707,0.249770959945549,-1.2102107478217827,-0.7670489517934082,0.511414092532468
120,-0.8741678776830343,0.20060247578442147,0.27951527489521605,-1.4887560550463244,-0.6434605583373556,0.23329886836639246
130,-0.8853313116347423,0.19042151172641303,0.26811027343547406,-2.823386381303676,-2.1596759842020834,-1.486905941189372
140,-0.8585538836201518,0.21296769002189708,0.29287491303014923,2.146398260888741,2.134797781461584,2.7513755600390386
150,-0.8914642931015063,0.18459557339507157,0.2637519519919336,2.9727569560950458,1.8998947645140438,2.5489185121358386
160,-0.8989754835292071,0.17818089097518253,0.2577147140585653,2.3362623537891,1.7903800162094754,2.1046196076286474
170,-0.9100495554248255,0.17494591802145612,0.25436990370283935,8.77671885512718,0.2506659811258141,5.9083116933479705
180,-0.8686542536698858,0.22045138935964867,0.2973020371806227,12.249441042669394,-0.4362493559562166,9.139918268303568
190,-0.8813182862024267,0.20669488084708282,0.2714974351735263,12.209440266687547,4.179134629631606,15.021643566675419
200,-0.9073202495846588,0.20780958788707232,0.31199774371073785,-1.505012522121201,0.029952022459499572,9.401002427447684
210,-0.9897251659674865,0.1965595051209622,0.32917213471812934,-3.4346368048991938,-1.955372096432523,9.869359376839775
220,-0.9559129573655403,0.29105315581654345,0.338780851756049,2.4712132057239753,-13.21313289420974,10.767819669329226
230,-0.9223402855485217,0.24135259060548003,0.33434809724472153,-3.0761474329501475,-21.946262133358985,7.653805406005876
240,-0.8810333484139001,0.20260047282054325,0.23338422114415952,-5.935066912270603,-27.234747326481248,-5.876776280564307
250,-0.8819863035543031,0.2410888120140324,0.2488996373981053,-5.850533112377814,-23.01480597980935,-3.602738615666876
260,-0.8676472352895924,0.1828602112891461,0.2675021459722479,-3.489197961614543,-18.40677255382582,0.7196687023948608
270,-0.8138329465654556,0.16223919482350274,0.2809369233890796,-3.916450901002296,-18.21539728790619,-3.091739233924417
280,-0.7736776606496895,0.20941136695436832,0.31266233427546924,-3.102218380996052,-15.943170751375268,-6.001873055437674
290,-0.8327516233478991,0.2228957498876104,0.29501267761270794,-4.428041803830693,-13.913607706484854,-5.324397984664918
300,-0.8127336265372178,0.30191303895375504,0.31642382500829713,-6.267773516388932,-9.916789771309286,1.1282654926095836
310,-0.8207894110959228,0.270735718881894,0.336437880009844,-19.954955390130888,-7.10568893357849,3.0588090264490084
320,-0.8512570689891171,0.28274144386165795,0.31184083921348466,-19.933782126815,-2.2496570662769226,7.715043547940051
330,-0.8917414004457603,0.23728201909790353,0.30843982570115075,-18.690840279089226,-0.2554025134979778,9.72292083187452
340,-0.8601762314504346,0.23349701255383642,0.34363069160200294,-21.48946007981453,-1.9016065452099684,6.361487591464686
350,-0.8714841693483021,0.2102374078579193,0.2990843302578482,-23.008407497702933,-1.5914365921468634,3.857462158645934
360,-0.8283270564623796,0.2198790363478902,0.29547614157573354,-23.692627358694327,1.825674626766288,3.8506204315335193
370,-0.7970564388777891,0.14852812437054502,0.29275863461063445,-32.41382883963812,3.3597597863620856,-3.0479220142513834
380,-0.7451562347702422,0.11552721817903146,0.3440710441494902,-41.695878473521866,11.617587007986566,-14.71677272777604
390,-0.8521065759352779,0.05798404110760366,0.3069711178569979,-46.43629446429892,12.022327963258393,-22.52684899925884
400,-1.1144183642043257,0.15008849598096347,0.48965495970511996,-39.848037920093255,0.6869763930694679,-15.238965983637264
410,-1.0508838079517726,-0.06964753728489044,0.2579236745870404,-30.049131851068697,-9.556310983808542,-15.947435754465426
420,-0.9128929026485253,-0.050781161311651654,0.3419960533957034,-20.289770163815938,-15.103017444544811,-15.69597709108579
430,-0.8603389195724043,0.13900839000422133,0.4110768352630957,-12.181836928546126,-21.137413629965906,-14.872818557358558
440,-0.8238662713385357,0.14241987980549972,0.5113511326324,-6.591749183675036,-25.15588274037619,-17.65292611347108
450,-0.8346499586985431,-0.1609291727028232,0.7298089292658975,-1.2244795046939265,-20.83277994972491,-21.312310685249372
460,-0.8625655355659336,0.14366367663486668,0.5002025424855049,0.5020195828162872,-25.747421848490035,-23.065809285055295
470,-0.8095839127254405,0.09000497749498236,0.6346248347635423,22.141912463942194,-25.36649817369552,-17.512111315693595
480,-0.7514398960437763,0.17253412772007326,0.5124314129920596,26.74328159308147,-23.656345311843477,-11.886533709870045
490,-0.8278421019801709,0.07085627999954529,0.47376493666420916,17.7676830950334,-20.589370915879844,-16.967057700898675
500,-0.840675539841171,-0.027502923303593912,0.440848791884821,25.06315375629805,-14.33376989399692,-14.960978639751914
510,-0.8417329612451875,0.04825032783767101,0.3612163279826886,35.09024024434133,-11.592881599998604,-12.341882624337321
520,-0.8951873291735563,0.20957370709557321,0.26523272570325956,35.44005321287054,-9.554441797028396,-12.760808371279069
530,-0.8898981322743932,0.1492248581244845,0.2583734587370854,27.535320243129895,-5.362098376870556,-17.37452813869748
540,-0.80162389000597,-0.44034408144738074,0.30526125168862384,11.058872873104436,-8.78245209158165,-37.11795453048347
550,-0.8791143954807498,0.29161994369835165,0.33210651341087044,31.393251130721197,-2.4167278184200987,-7.319599733444919
560,-0.9744315218441277,0.09250729802567743,0.38884037054744996,6.768217676638529,-1.1394050646008063,-12.266464834744141
570,-0.9944396974213241,-0.18854125318294315,0.2032811743675365,-7.198265494011056,5.9657268748444094,-19.957833239566888
580,-0.9002599540186801,-0.06495688692951855,0.26206616235587543,3.638872773190937,4.9379120168630655,-14.378569708872694
590,-0.8564932619230509,0.14793231449502392,0.35948572475812374,15.345145616661283,8.382444226871687,-2.4278555365123524
600,-0.8770885833949117,0.1652408137650769,0.3107233457295153,6.781631152749403,9.216463987080683,-5.337418222506605
610,-0.8788263274159267,0.11178311429415531,0.2926989809833397,14.504434956356235,3.4527749555121483,-4.6431304127204385
620,-0.9123918790634215,0.10253979015159347,0.09202719335472088,2.5389606961955455,12.990460883604547,-1.4574018217802351
630,-0.8964309165987896,0.14063636435688137,0.28626386159151174,4.718333267283683,15.817225847197378,0.991302122276131
640,-0.9332341902964925,0.17775745350655361,0.16324485443536402,6.817952093514425,17.137011106902655,5.930778014920955
650,-0.8679218473970653,0.18759003758956314,0.367761036464931,12.455675895431725,18.44488147420684,13.741961530042897
660,-0.8333911353839564,0.21901006444852253,0.427724197679506,10.90546281455479,19.84890009120412,16.133214948017272
670,-0.818656079352082,0.2647192796142317,0.3420134236157246,-0.6108512198926284,19.12710381617949,10.645046436038601
680,-0.820039394864805,0.24545149933652355,0.313310150089222,-6.644408706206662,19.33226216465409,7.404640137241964
690,-0.8759502050616841,0.2701723586883695,0.2451200250756258,-2.4340321605647572,16.120201331049593,6.881236917430858
700,-0.8770023530180858,0.44492830174302905,0.5612302777930114,-6.0993872714176085,29.82548622942001,22.09092675704426
710,-0.9386710690142713,0.06197376209537635,0.37121625411805115,-11.377090323084229,21.990750749114753,16.836552153467963
720,-0.9296372134812768,0.08735120667036944,0.3842677172326183,-23.486643077185434,22.978080648571265,15.72016219303615
730,-0.955222290465418,0.023380332873577755,0.26251611736146024,-12.358655130141253,17.869696418611305,11.141263646996682
740,-0.9535639050568511,-0.029230091708818184,0.262884054940319,-16.072290467892092,13.19991376707694,4.738840071799521
750,-0.9451415648681358,-0.05527034260842251,0.45996308742822267,-25.419047990367424,12.2568784851143,2.707383458318529
760,-0.9424278526916285,-0.11325961212493073,0.6618837684751475,3.218020573377982,15.64599550059246,13.3661235627907
770,-0.9319737899700561,-0.07517141697402994,0.6530584721995029,14.840950117500975,8.59900888178106,14.576639200360098
780,-0.9079899918045191,0.10904598130485807,0.4073049251515091,-2.610936386618615,26.031985966712305,19.10648715344808
790,-0.8315314532597716,0.3663881393402149,0.08469375221629956,-7.825345351846859,18.681496923192228,11.018249993540346
800,-0.8308225969054993,0.27187887554889884,0.2208005481759835,-7.922336133828969,9.076926769621414,5.074210097738273
810,-0.8375627717643455,0.30683877670085935,0.15593268746486344,-12.092676805509035,5.831162939084324,1.3398989490540796
820,-0.8368978387245408,0.3596046382651841,0.12353452459829425,-10.853153461922142,11.779593110684777,5.875841977819565
830,-0.8715980523338674,0.2447957418972716,0.2671619347929719,-7.24768613484771,14.706099543885614,10.212250945790055
840,-0.9021183640670998,0.13388725126313558,0.3471872641981706,-7.85507004513767,10.238244659117639,7.9754906918302755
850,-0.8918268336635738,0.12104515945760165,0.48143166516542923,-10.913592500171278,7.506542279396291,5.972095552606442
860,-0.9140463279079934,0.13131276204796974,0.26474256819744807,-14.524539682297936,6.521272350194007,2.9103533990534123
870,-0.9230056847253215,0.09952650522018253,0.25654106649436187,-15.567883851371212,12.095631984960336,4.9467816008688335
880,-0.9074737172355174,0.14475192504490206,0.21943513325053662,-10.06987950967153,11.918028954385868,4.189479768045533
890,-0.9048188071392517,0.2256738136785844,0.13596611619695959,-6.539391798035325,9.055984590370004,2.6471568805335406
900,-0.88745898584468,0.2923080756152248,0.13407283393917632,-3.3948244553281675,8.985005540491478,3.2787490510418666
910,-0.9134578521183111,0.2438670353193756,0.18647040683566052,-6.941784925962245,6.17174990872047,-0.22852491280707304
920,-0.8903623684166474,0.22371267254586047,0.28227735212721383,-7.6299943112860475,12.288149986723477,5.340989521329073
930,-0.8487415198039737,0.26098701027358373,0.24532338846714224,-9.485398489331388,8.313952699659946,0.8133022261908738
940,-0.8914465251521141,0.1310977660066031,0.25120236766430293,-4.759941748342081,5.7075346002658165,-0.4989690120195137
950,-0.9096023243551821,0.09716153521514966,0.26129051345937787,-0.6560540609678522,4.266686494633543,-0.7402115745650817
960,-0.899316646983003,0.14190581043078995,0.25303063186072583,-0.34568231556768025,2.482271484771062,-1.7359950705049387
970,-0.8844378681259952,0.17966183274646216,0.24745159996480923,0.10396311837639804,2.3178127652590494,-0.54237548034528
980,-0.8904336517962337,0.17804139890408405,0.23558841850550505,-2.8431304095836136,-1.5337112001879083,-2.0841274596687933
990,-0.8987156622559402,0.17823301151777662,0.22430026611939788,0.12484360220428312,0.6080048460160171,1.9235845216646446
1000,-0.9078838827220335,0.1745507567298152,0.2146351068544787,1.349485004266481,2.661958863128662,3.1160021759879872
1010,-0.8820727769321591,0.204731373406667,0.24619127251442244,2.9925935698807233,2.7123877893082486,2.7046804896758787
1020,-0.89399603763553,0.19741267264826382,0.2340904124714592,0.7722610771573735,-0.11275803751915214,-0.6463095215758512
1030,-0.8965443746324928,0.1882537838897531,0.23100061699743932,3.6161168454553763,0.0951026345969406,-0.3499340869027904
1040,-0.9018248040883304,0.18443428358890607,0.21887332498033021,3.997498667965517,-1.6552377334034272,-1.7467114099271503
1050,-0.8642052294959812,0.22571903918497024,0.25913293082521266,6.425982497621973,0.7944574442676979,0.8592815800037714
1060,-0.8886416096922329,0.18488589209229717,0.24378314027476258,7.092951884293741,0.009050522683354045,1.0085958345037618
1070,-0.8932939951308605,0.1450936186412782,0.24570018304181213,13.024741095267647,-0.11764937806193831,3.1400213346659256
1080,-0.9096141188730341,0.12788396461762236,0.25571754406872105,15.796994005666077,-1.016178549197209,2.5836227145489046
1090,-0.9168965577306568,0.0903200958367169,0.2396076378826336,10.419355109143993,-3.3337855370458946,-5.410250284163478
1100,-0.9362280193533326,-0.044668749750907594,0.292189741557394,-1.8884947404995902,-1.5943977341737678,-10.812927612404282
1110,-0.9177780481007486,0.14699774693358142,0.34384647995640005,20.41167435568136,0.5828831967388353,-0.018992274450080338
1120,-0.9578082486567078,0.173318086046291,0.2601682657318543,5.123165768701615,-3.460585846371087,-7.227672097216669
1130,-0.90767081044587,0.2652132373286233,0.18755775572431824,-5.539958381818714,1.7668288836129231,-8.356433578391982
1140,-0.8821478630167666,0.2862275508679109,0.09754583420176165,10.699847626916657,-0.7782550508461425,-7.636323633065624
1150,-0.7789023158597094,0.21009086116543965,0.20546379264327816,32.54140799027515,-10.974944134970595,-10.691930503007736
1160,-0.9103969988758089,0.3584613853737444,0.15031168667773107,15.87527758079176,-0.1396849681851391,0.42536119502585956
1170,-0.9058419574027194,0.3278820683364336,0.2144819258474177,9.106329728938839,4.3680695220468255,5.971697115674365
1180,-0.8894362690178869,0.11087399896705312,0.33408094383421266,6.933742542373362,-3.8149413192957216,-3.378664597664889
1190,-0.901406446050352,0.31365860075008156,0.2137224043844694,9.312329030449902,-0.1857322723343518,-0.5150759561536948
1200,-0.9085956029689792,0.24549980878841343,0.23302177481088512,7.976989719398915,-0.690410810828296,-6.576307785136216
1210,-0.9273896926726031,-0.06724816788582776,0.39740765800065464,8.443260538970879,-7.424564525304241,-16.541125217903318
1220,-0.8692894709834595,-0.0178387691479428,0.48261114300931224,15.624932548956783,-8.28459236721663,-13.275914144425995
1230,-0.8806181271681984,0.33734400567103856,0.16934406434589167,16.67016766726162,-1.80505993648384,-2.481368897626809
1240,-0.856116321114747,0.19156718612526602,0.3317626999379352,11.991200522301733,-5.5375915212145,-2.549704170157994
1250,-0.8232777133609869,0.18019301597384912,0.13439747436459787,45.07909730500953,-6.5019392987412274,1.0696304727085133
1260,-0.8560270446642866,0.2959264713438415,0.1949854951033646,31.907861089958935,-8.584158160623447,-1.5461644947290043
1270,-0.8514635292882521,0.31853913166065295,0.1526555009493696,22.182552682290204,-3.9964051032409653,-5.114649899227325
1280,-0.8517277046635724,0.28399259445154224,0.1284923955099797,24.54094511401492,-4.176889735413668,-6.79556896245883
1290,-0.8371524882618103,0.35423045323933866,0.17762678509667146,25.64211385049832,-5.553511807485002,-3.360658201297411
1300,-0.8835416241962155,0.42323995986023133,0.1776448897256588,18.26333186730965,-3.2923527362105665,0.024211053093229573
1310,-0.9426837300534149,0.3325582693136525,0.26638606792425823,22.275443102197166,-4.4812821836542565,-4.453463287883849
1320,-0.850699390022155,0.3983494958042354,0.17862240668300447,24.552870655209734,-4.6737378848626205,-1.514822193985646
1330,-0.9352424014096445,0.470104466599913,0.22024450526254757,12.938285896652946,-2.912183388091262,-3.6083419606596236
1340,-0.9301993825542374,0.27063953655574224,0.36695909662607246,5.59856720696862,-3.8505563763755104,-9.199301863102153
1350,-0.8841393725696233,0.05454048854106291,0.47902482699300886,2.545484823587782,-13.539952169625643,-18.188247676867256
1360,-0.9139320077448868,0.08812221585574267,0.3340063441745138,9.984443027850002,-5.754050601434938,-6.489531599031987
1370,-0.8958460204408969,0.3157145367748081,0.17869505532949415,7.083590993555242,-2.493071921597993,-1.6614885374574144
1380,-0.8690429374263261,0.28398888977254527,0.17365119003362028,12.108689324846372,-0.10701087870626314,-1.6328258555486503
1390,-0.8407154658735293,0.18840748438870067,0.22456108954976514,3.4523898199353553,-6.445576073464878,-7.471889507964215
1400,-0.8993617562157193,0.19747651562312266,0.22365023859436256,0.5525264680917898,-0.5143485333743687,-0.9565661056089936
1410,-0.8838801093722957,0.19858028269824846,0.2565496317531421,-3.281773128918614,1.2905185469845928,-0.9522242202026319
1420,-0.8775377105228049,0.18298860852524393,0.25722896074083823,-7.01307670504333,-1.9408269728687735,-4.180428738236776
1430,-0.8646426877721801,0.1864600688454399,0.2664953330784406,-2.807672771487644,0.3103903532611336,-0.33072173342372635
1440,-0.8731851832323998,0.17617177235114154,0.2605385634026336,-0.5749945309145881,0.8608587428652126,1.9779558560081572
1450,-0.8729824823654678,0.17974287284065266,0.26320326449583425,-0.2818600802529023,-0.0317641654028647,2.190617371062689
1460,-0.8712944386734566,0.1922855697196971,0.2644317091765229,1.9228377143729791,0.14597110010565362,3.101783289444285
1470,-0.8930677742278165,0.170797936535301,0.24629776630146105,2.457226110597525,-0.7787421854383512,2.663537056954278
1480,-0.8525301374371463,0.21296332239415391,0.2888671613274724,-0.4705283279011871,-1.051661174088521,-1.1093713428913485
1490,-0.8956258048604726,0.16498545953334542,0.23801235055414482,1.7818268767104524,-0.08790665665876762,0.20035515640934604
1500,-0.8564678653637421,0.20566096375976084,0.27804293322613344,4.582250085566671,0.6994222371394493,2.046431593885372
1510,-0.8780677880067935,0.18315088757678818,0.25907942484434565,0.7034311683002752,-4.364852518013096,-2.1046198968707133
1520,-0.8996343320538426,0.15948093385438714,0.23775570522730147,2.723716828573153,-1.5009837467713518,1.298389894900043
1530,-0.8930624338816396,0.16883821421003176,0.24453049704878854,3.7656676458280804,1.6023285849385667,4.512774172860693
1540,-0.9024819002661699,0.16678666002035944,0.23792789046217097,2.2214536720662914,1.0684689697002878,3.3207652631036284
1550,-0.8996555073195048,0.17431978809777465,0.23807060417757214,-0.8013537116947576,0.35457502921199163,-0.35325796519340297
1560,-0.8838814432612424,0.18482865421055727,0.26076739031944424,-1.5252336569480673,0.3939006112009453,-0.7761549857790749
1570,-0.872356748258347,0.19064894440175775,0.264499819892637,-1.620599920470652,-0.5502809359609192,-0.36942266286733355
1580,-0.8933731560344635,0.16883423255079144,0.24051069254076923,-0.8802815599727571,-1.0772739029837641,0.8120253565159632
1590,-0.8732197770895505,0.19333115893011601,0.2627479765811463,0.44958912579346244,-0.2005217230551185,2.7030217712191797
1600,-0.8766243964682433,0.19467984214210582,0.26106600975816147,-0.4136013343804651,-0.40733147422278326,2.2363931359355242
1610,-0.8672627384100872,0.20499845521494392,0.27069694362051766,-2.319677758424155,-1.2093168889613901,-0.12484197797044327
1620,-0.9082307715022052,0.1621235858462776,0.23224962706573624,0.1864793724295346,1.7174554347732622,0.7187057720328986
1630,-0.9215838598952222,0.14338850139504733,0.20877834537147172,-1.7458480909093035,-1.8106777288821705,-2.8052238072520934
1640,-0.9071134146914814,0.16020351213168751,0.231819686227641,0.1539683541194779,-0.4746569654240197,-1.251227749569257
1650,-0.8808491010996612,0.18595245350212478,0.2583734335379381,2.558547307289136,2.495266726468192,1.91992463389037
1660,-0.8946632348621023,0.1664931885077402,0.2389691513583997,-1.1271780999858974,-0.0942863145536198,-0.6797111356922119
1670,-0.8836297658997931,0.17646867079410983,0.2495060284316697,-1.0784224841844154,0.38849948589011307,-0.1634917994094382
1680,-0.907782466689313,0.16111350388507356,0.23109881989743858,-5.038503773623037,-3.7954091755968604,-4.186552537434344
1690,-0.8899096425112727,0.1882925780398005,0.25285771707685184,-1.1487837683142663,0.12673587465942626,-0.13077440829718318
1700,-0.8873212276183984,0.18131536281115954,0.2544396757783926,-0.8796844838164906,0.7109884108936593,0.611038864532836
1710,-0.8721152350820576,0.19264563471176502,0.26891837462277696,-0.4074567178395132,0.4026107780504135,1.3201765230074145
1720,-0.8743271972835428,0.18375645406327384,0.2692128076644928,-0.1820906944981978,-0.13753544736355294,2.365604164932753
1730,-0.8926934619833113,0.16450507503213763,0.24780591455157558,1.4599604913883522,0.9439668390235343,4.206057036536428
1740,-0.883130504580628,0.18781218857865525,0.25435892840223656,2.68425154610629,1.9523811823452561,4.884299222236139
1750,-0.9182693983058413,0.15764117041720352,0.21939950033054828,1.69844346688991,1.750138220144488,2.229698133004582
1760,-0.8787471705533934,0.18944977204712476,0.26192716821294015,-2.6444523353649876,-1.3988303932880344,-3.524726016910032
1770,-0.913104597303863,0.15553355115756334,0.22891950480445572,-2.4957182051607445,-0.994698932460002,-2.39832666608388
1780,-0.8698858635504896,0.19167176953550574,0.2625045299483884,-2.7519913329232586,-0.9433738854148559,-1.0336442818909355
1790,-0.8930460900786829,0.16514266902790406,0.2391348401453291,0.5191921058133138,0.5081221295192909,2.5410521255914515
1800,-0.8816138483610019,0.18625031200737577,0.25759571570602074,1.9345835777585958,0.1396404750635203,3.4115948211871623
1810,-0.8995422375707344,0.17999735096837505,0.2417619202901261,1.7656410873921908,-0.10147432196523165,2.3219571229913094
1820,-0.8744925099083986,0.2026830283304858,0.2593110370925649,0.2316107914019474,-0.2101320450154448,-0.2494557343729478
1830,-0.8657913268215237,0.20410948664728504,0.265744761915916,0.07754262997882438,0.38061524741897257,-1.2008494665468383
1840,-0.9160969587947304,0.15238536733696928,0.2229342191847212,-1.3614923914713457,-1.3786816621846556,-2.5442081162587975
1850,-0.8828095656592843,0.18450967237174085,0.25633122549844944,-0.3600068529856433,0.44074884800899106,-0.21905542181798446
1860,-0.9118393883501893,0.15826709448128845,0.22958093793250037,-2.1348044799322468,-1.6062237356191398,-1.4452450602449918
1870,-0.8630687451862054,0.19715904305486812,0.2705216669329008,0.17043164006749545,-0.7684754807800366,0.6847943004427739
1880,-0.8804007454485321,0.192099167156811,0.2571845279642044,2.2405227595719963,-0.3367990726300679,2.6508355208856353
1890,-0.8959860266806405,0.1844037500436573,0.2440367851623066,-1.5576268028791547,-1.0986024169192252,-1.4445974188974693
1900,-0.8805520076253419,0.19879366481922797,0.2625081013537606,-1.1271234246784534,1.5583501610842547,-1.448945950914267
1910,-0.874971662786737,0.19603743385692501,0.2658982205336564,-0.9119011509844417,1.4845591040024746,-1.1159582464608127
1920,-0.8866316280950857,0.17511251711739928,0.2445082514418584,-3.2122983279149917,-1.7856601324584729,-2.6737370284125146
1930,-0.8856848162060638,0.176074572216961,0.24403210098144074,-1.3228320068748083,-1.6403136328142371,-0.7425183010539342
1940,-0.8870549071720399,0.17313239700376434,0.2498123106660884,3.290954188244212,1.1916211716297362,3.752865145956246
1950,-0.8878411447678449,0.18166155227715672,0.2490829776831403,6.45169583650572,3.1074393700583767,6.133202136229883
1960,-0.8936698584937187,0.18832279362180387,0.24454964468185525,0.5360231356837653,-0.26885969691829464,-1.4235917780855403
1970,-0.8821486579728822,0.19649787203178484,0.2557980143012794,-0.9423924059439784,-0.39926698305382585,-4.073509273642606
1980,-0.8778358316746743,0.18949273367128672,0.259254098619474,-0.7548793089909993,-0.44697184463298134,-3.6956939461965277
1990,-0.880269396170382,0.17912590676611753,0.2568834457837187,2.354714406067427,1.7583130911941123,1.006363554961575
2000,-0.895677814475978,0.1632626556978738,0.24204255140835834,1.2018834482897465,-0.49292094369422734,1.8662790676294736
2010,-0.9013116956317362,0.1641736749914388,0.23540599315333438,3.9633935603462356,1.4539295931217575,5.424037508203966
2020,-0.8825455450733259,0.18362550730051408,0.25417776553637034,4.001468720789207,1.6172227316507612,5.672561340132815
2030,-0.9027122756399795,0.18504187226356403,0.23558135198508745,-0.5688339352056366,0.6763239170799199,-1.3604759653341483
2040,-0.8767529355678845,0.19829959916202983,0.25414735841155356,-2.9540990836096985,-1.3492846968857202,-5.128456361053685
2050,-0.8841294605932608,0.182096647276519,0.24771309741421338,-1.7790128507776464,-1.1896644042885267,-4.0388259559883375
2060,-0.8709743517598154,0.19157914958106453,0.265584531192893,0.9498088896635424,0.3662099065024539,-0.351948624549434
2070,-0.874208689406632,0.18892217339899622,0.26464277604161146,0.6110611069218594,-0.8901992148419411,0.7263476485581943
2080,-0.8944649641876422,0.18231139074292974,0.24796015186201906,0.6327660630338285,-1.3884397954167926,1.6139108031489537
2090,-0.862296209962322,0.21807334686333937,0.2850673575033692,3.7486848980282765,1.3725300032643137,3.8559976636875186
2100,-0.8909352557933936,0.18986141249847527,0.2503721790780116,-3.778260305933707,-2.801947851906879,-4.381016752574709
2110,-0.8813121072335882,0.19559547676778613,0.24805680589676735,-2.355579337024831,-0.7601299106707018,-3.1857968301699695
2120,-0.8913558549177119,0.17249873160643536,0.2393530121833649,-2.6377787287360333,-1.6198713668377525,-3.3229239981724
2130,-0.9019483590125741,0.16151845133203782,0.23394897162751088,-1.4578705613717693,-1.2848824576151265,-1.7927909690100774
2140,-0.8967946119926176,0.17408669015522427,0.23981617804622918,0.40610042565944643,0.04403357808725091,0.4708546769333532
2150,-0.8945299987087315,0.18042261731270315,0.23992408042654953,-0.21997541115011154,-1.1649588768658536,-0.2569242969280505
2160,-0.878749698425242,0.2001864932061209,0.2574593221332675,2.475570282459431,0.6811864713838698,1.6146739857084438
2170,-0.890860538496779,0.18633509561211942,0.2447981705151584,-0.5448749859732098,0.8480443841709879,0.18320724037113495
2180,-0.8676511734144379,0.20476795143011567,0.26230099528762796,-0.2361076065158999,-0.4891687539804096,-0.26450547733907653
2190,-0.878614417896392,0.1954969099900088,0.26005868487101846,-0.15885057926534174,-0.6093264949872266,-0.4631223974016507
2200,-0.8743467503476298,0.196774044271199,0.26276977781702,2.8484091233686764,1.2690663004376233,1.273499093359098
2210,-0.8768506315176141,0.1967325536654906,0.2593487804323857,4.097270605536335,1.0451684778716521,2.1630790377693607
2220,-0.89995172904918,0.17646578266985974,0.2355847736341224,2.1882551253810827,-0.7658548935428013,1.3131653771340401
2230,-0.8706651224051679,0.2039357887330501,0.2615987461519854,1.4140490778057946,0.8352301965183551,1.7177222451012466
2240,-0.882044733994353,0.2003771985999947,0.2573485446429803,-3.593934351815445,-1.706473404587761,-3.2137580861014787
2250,-0.9036143162762905,0.17232835092001397,0.23402287947780293,-2.1605309598770486,-1.014924605816333,-2.416437412968292
2260,-0.8758177039432206,0.19317755165902656,0.25725456188335555,1.3866301578589615,2.10909604120777,0.8083254661944295
2270,-0.8735729834999795,0.1962303763711688,0.260789234187068,3.5127053232292655,3.3008925325494,3.09591208291711
2280,-0.9077969361262013,0.1687249595473559,0.22642480616542124,0.6649727310405498,0.023012160088594164,0.6949025116788052
2290,-0.8694618405785933,0.20773569333191835,0.262540610629443,-2.2592212687588864,-2.4945595059522767,-1.8948025222394098
2300,-0.8875508180297634,0.1881830414968263,0.2442193889137455,-0.5860432596295093,0.23687682808102234,-0.4490319886803025
2310,-0.8739485737081745,0.20555491145271296,0.2607586867262801,-1.4230493423686377,0.35300798475517,-2.0478135721995563
2320,-0.9069672376273807,0.16232311920191067,0.22585975927227975,-2.613584203092807,-1.2608209852637735,-3.5380220815884185
2330,-0.8805720919468891,0.17607797705130385,0.24666475653567424,0.26892439755466335,0.7839311030343961,0.3054715781773991
2340,-0.8780402392515012,0.18000832054283272,0.2575959826365708,3.04634485450391,1.5724021119606597,2.6565434230258687
2350,-0.8552308277217495,0.21364589461218816,0.2834493772632022,2.3377141768078116,0.6337398239771104,2.569723059342919
2360,-0.8669433487439167,0.2087962185912834,0.2672529756245353,2.187437054894785,1.3912145966548906,2.853992143330974
2370,-0.8938356585765038,0.1796350471984724,0.2395838706741712,-0.22141999515575642,-0.287670699300544,0.11616554075957786
2380,-0.883012363050621,0.1861196688155283,0.2549895553889181,0.25232670904746235,0.3765622902481885,0.12523659666210363
2390,-0.8655320008097502,0.20651152775846132,0.2723732984288213,-0.11428249901528048,0.37781880587926553,0.08832060969015396
2400,-0.8908890916906863,0.18280299131956262,0.2461769329807383,-0.6956476959803862,0.4889175832474528,0.07971443996575456
2410,-0.8819295216907883,0.1889070417060407,0.2600474544908639,3.4614367033481095,2.114517748655726,2.189652520835342
2420,-0.8902369537577158,0.18252618194905618,0.25239025411266935,0.009086559035563546,-1.7977753850010085,-0.7715267441601579
2430,-0.8513925514346778,0.2268878714108882,0.28592699399273463,1.7590313318593649,0.13624831596218595,1.3333153516248482
2440,-0.891540806172019,0.18708450575925104,0.24249406000070672,1.8240864491672428,1.3725365667173346,1.2102152613512198
2450,-0.8732012764001051,0.20528174934919266,0.26172655331222694,-0.7141565291344117,-0.5434845672334211,-1.6233243598908855
2460,-0.8920116618681312,0.1871130312480468,0.2438086376284409,-1.4138014897629076,-1.9878386879357846,-2.4714657212400164
2470,-0.9029326204994466,0.16830857628519638,0.23035237175441584,-0.060441897331354744,-1.07123184883252,-1.19337148845017
2480,-0.8853064873608291,0.18300554463643304,0.251027808670407,-0.9743440718585671,-1.359133843474219,-1.0849924032548326
