time_ms,ax,ay,az,gx,gy,gz
0,-0.7460025281245637,0.1494153547485558,0.6702068043662791,-0.633161760620507,-0.4346082447867757,1.2732002781276155
10,-0.775497063608793,0.11834242745764928,0.6325245036179007,0.37190843585559785,1.1113609601212313,-0.3970681336924633
20,-0.7598043777281607,0.13293811818485007,0.6507744725872451,-0.29737415929535754,0.11516133613930557,-1.9400415473339958
30,-0.7651714165764493,0.12715917619790074,0.645869388922283,1.5847046216381182,1.0460572142803204,0.1504302417138478
40,-0.7761036165082545,0.118528815178286,0.6365701416165014,3.4312461243272687,2.1258932623890736,2.843485448659772
50,-0.786859312852037,0.11271871446479657,0.6275079935715591,0.9409359330641779,-0.49048731817154795,1.2004987203991795
60,-0.7483979590028034,0.15497644499381794,0.657848945754781,3.6135498476967007,2.3977559012336385,3.9126973745152256
70,-0.7777644526235978,0.12337285553644667,0.6369859775559824,-0.3679189979140163,-1.3198839344211373,-0.27042583679086873
80,-0.7670426769392368,0.12721788653282254,0.6449958031418985,-1.6945397917637908,-1.3773202359620027,-2.201923716454612
90,-0.7729495708350699,0.12007981595562309,0.6344882475982089,-0.3268915327537817,-0.37433825726676506,-1.348758231646792
100,-0.779664483362204,0.11796490196931952,0.6311688690977388,1.9994019496846773,1.619672183239331,1.1930767444439037
110,-0.757768996651086,0.14254699125650794,0.65610644653768,1.9088338001712517,2.090336356696892,2.031082673473251
120,-0.8135396278058649,0.0830618791070813,0.5941624868641671,-2.182160681142763,-0.9366343481109835,-0.9171069033323664
130,-0.768090932551216,0.1330632310958974,0.6465887242412507,-0.7623666958509885,1.1524046488262991,1.4229743648488753
140,-0.7902140699255933,0.10347125332715486,0.6237774267796193,-1.750256486738029,-0.4090929596995256,0.24155638697560905
150,-0.7675456339055905,0.12845052752099642,0.6459814149344071,1.358594358420462,1.489451868414339,1.8775151670061618
160,-0.7471696670201684,0.1488689362673416,0.664574093095349,-1.8132664682111224,-1.2033997805512648,-0.9338694116079018
170,-0.7848405576174308,0.11236675359112935,0.6250448962696133,-0.6248278390884975,0.5406256170033551,0.7428188327260487
180,-0.774870132107274,0.12431172429043964,0.6337125874929381,-1.445433036884788,-0.6237007413189994,-0.5222967178567797
190,-0.7652249152110975,0.12800025072451335,0.6420938409859372,-2.4885146633374906,-1.634151258043797,-1.4057425447899754
200,-0.7856457910866419,0.10671441818798683,0.6263200693043216,-0.12164138124224089,-0.2348657280512328,0.1352456484329282
210,-0.7815454874858473,0.11264277301588309,0.629575000679812,1.434410296214779,-0.21239717076084524,-0.051794075591054756
220,-0.803739191414385,0.10003199350381213,0.6231673615397253,2.5494768714901777,-0.21544110424361965,1.793316490216727
230,-0.765524747841997,0.1533040602308298,0.6720059152550936,3.906885308755611,0.33744567127942404,3.3397825727580566
240,-0.7747544674489731,0.1894895287419017,0.6869298694436755,-4.767626501153806,-1.5771405351194645,0.36279275967172664
250,-0.7777198293272976,0.23933185711492344,0.7215687227251224,-20.950202889218076,-2.565938294831149,-2.7392888597466234
260,-0.7825794937905285,0.12209431405739174,0.6542509972613773,-19.182042600394617,-2.4251760565823597,-3.5586168061186916
270,-0.7648327465716398,0.07264847902810885,0.7239633104530725,-14.681012639873174,-1.7960697871353344,6.765472510891058
280,-0.7726972161337051,-0.0330477017013586,0.8051629492035801,-12.10184777018148,-12.099073228121624,3.0434162328444714
290,-0.727765618237928,0.15324730786835677,0.7351559225516253,-5.89057695094822,-31.348921734348465,-4.754839226680363
300,-0.6551703386392593,0.3210230986870603,0.5611478396809978,-7.040599449752705,-37.20285354413554,-6.126063755886809
310,-0.5996939598120855,0.28922068929971945,0.42457173461604913,-28.713171083882088,-28.81121642605879,-5.081366180976028
320,-0.538689482797896,0.3205103117201802,0.49109633751230586,-53.02051974536161,-14.30308611930684,1.39343768457171
330,-0.5527272246339299,0.32175352579377,0.5910622345904034,-64.5527450637002,-9.008625829307167,3.7557158638725223
340,-0.6542681055944044,0.1911848563902933,0.6203948760338838,-74.01947571339895,-3.0243120991708192,6.345480474806592
350,-0.7089210362331437,0.13143825665063968,0.6733247589713647,-84.81186479803999,-0.37468049076277377,6.144927442929271
360,-0.6823953235893744,0.01721330566102347,0.7753341156177322,-65.0279618945358,-6.552351348427031,1.6478496552501247
370,-0.6800000182759551,-0.18040588641161492,0.7813774441917191,-35.554990483130666,-17.260755609433016,-6.767323411597509
380,-0.776844650211152,-0.36846069462683156,0.6026976803237492,-17.270219227214177,-20.39963976503392,-10.404297998011206
390,-0.8950795019457113,-0.493974347555846,0.41975398263083424,34.66552910277948,-19.568712761773625,-3.1303198090957256
400,-0.5537346192162481,-0.07288865553464063,1.2804903609355485,69.03789954968545,-24.610589855648453,-2.2478734237447733
410,-0.7135605353727119,-0.03723595344236202,0.9163490780016672,69.13836437963775,-24.96631392945538,-6.676395736406116
420,-0.5564982478139197,-0.2615120646184426,0.7346856896277237,38.35699513434404,-24.21897953448699,-17.492468666818702
430,-0.5210080953169853,-0.3953247907501803,0.6100025778126774,4.266009250401219,-10.906524530949556,-25.605791736377704
440,-0.746696770503069,-0.26858748441381425,0.4616029993870121,-15.503420070354915,6.995542983665694,-28.245935370391212
450,-0.8293644511754641,-0.21390874279032293,0.5142060756835055,-16.734032103278608,10.035156981504338,-24.886771309837737
460,-0.7806902266955074,-0.49493228039983317,0.32293402096624807,-11.977337300010953,5.741179544318418,-28.523485678992316
470,-0.7993814398101522,-0.40748819506703593,0.3538599214746144,9.256996516649368,8.885821947313499,-27.936023810461492
480,-0.7678908674821727,0.46078780389478147,0.9598366458243198,13.000652878907644,9.499746113874252,-24.23548574535142
490,-0.7765652975939232,0.4805832784123382,0.9497030821935496,-16.722024065021447,13.06282931176931,-21.3476872838088
500,-0.8503790506532523,0.1574734853202468,0.5804084868390942,2.1085489670093414,22.64377778971773,-4.535176171650312
510,-0.9555221218838925,0.4020105134224844,0.6270092209854919,103.02956758371127,39.58724176774766,33.64483332169626
520,-0.8058898749629877,0.03749222292619576,0.9697872931989837,74.06951255671748,46.36655748790449,40.38822598860924
530,-0.5858136581261092,0.12365425779131077,1.346316636406429,42.71878798191038,58.58669841020457,63.16986113890812
540,-0.3127060804318708,0.36446918803305006,1.9891955318919425,-9.473611862041688,42.8447011250208,59.91724442068077
550,-0.5053915826211773,0.28892682960546023,1.3132618614930975,-4.07126199005547,38.35145457637037,64.4477620741546
560,-0.6560312461027894,0.33661058041960035,0.3881985816327081,24.89143949620824,36.85980449338347,68.13456426151437
570,-0.5235678940305489,0.3916682096487747,0.19762131666625085,32.46125516052706,33.79667409100926,63.56720079243179
580,-0.4450498387688434,-0.19446828733230173,0.5906608894955931,-8.215318750638474,17.35978622261722,33.7392072085163
590,-0.770928568312942,-0.44555900867239795,0.5977799327648807,-9.9308170603486,0.10597466376020659,-4.202878258324663
600,-0.7978000684533298,-0.13990974204275916,0.6508261067500997,33.97141626314865,3.193582426856495,-9.3746394340695
610,-0.7512456307968913,0.024541963266486555,0.6510700432891796,36.68851675160997,3.213447844763059,-3.6649197097544914
620,-0.8019942434301439,-0.07889643793272584,0.6106536224720177,32.52621297479294,3.2263591463226997,-0.6094099182598955
630,-0.8416369459229255,-0.22505213591452022,0.6685069653910558,39.70491946655611,5.103775148412447,-2.650535152981277
640,-0.8426524987951762,-0.22196060227710146,0.7438588765254075,49.28721398610552,4.970311418952199,-11.648824227751453
650,-0.6367582370188666,0.2829384365090298,0.8397619866151252,38.43747592080084,-2.958354637975547,-35.84566201927903
660,-0.44399635440966406,0.058684057373423665,0.95602949837002,27.528688553706075,5.4732920926105315,-24.108102449005074
670,-0.7203910492752651,0.18477427261020296,0.6440367593711764,38.65983562211951,-0.26132647883639226,-14.433433468613217
680,-0.8712321639951324,0.3883737923559908,0.5121485246293765,57.05579297843939,-5.113140152450347,-11.396622779919259
690,-0.829302110691815,0.5643435958384531,0.6252238699419072,50.171710882683165,-9.682725442914954,-16.357773108739593
700,-0.7549430555317381,0.5914097725914949,0.7602199100162639,30.318238631998092,-0.6281329486146974,-8.383752332716057
710,-0.7725554198388691,0.3997694328807981,0.7052110649355321,1.1624841488717303,-2.956853399714272,-6.132253981365162
720,-0.8005850107029233,0.12648135944152825,0.6066933465567922,-17.494027603748386,-2.291672371251973,-8.716817713046607
730,-0.7928261034229801,0.09489721123639072,0.6210829195878641,-13.551618893980365,1.0839030499192726,-1.652807441224772
740,-0.7780413906559857,0.08770921801976056,0.6326672141083806,-9.547459029146985,-1.1025138487367974,0.8659754497510195
750,-0.8052034607244178,0.07069331032045438,0.6036375742304224,-3.8991386888727115,0.9502732246880121,6.68491828644194
760,-0.8046887543561274,0.08670013000987067,0.6050692227839733,-5.127174759688053,-1.694169847337005,6.084878537874865
770,-0.7710129912570146,0.11238462940001304,0.636969875918758,-2.846482034178636,-1.8717570718725107,6.420213750584983
780,-0.7792123472820848,0.1041406332766537,0.6258367719316441,-1.475066895527918,-2.698891853668637,5.345413312883419
790,-0.7737717837114017,0.10797074102225923,0.6325056592672818,-0.4331037483237823,-0.7734914770330006,2.1933815734458344
800,-0.7729265818494074,0.1351707839241006,0.637125534486599,-1.1320888610183018,-0.582909082280711,0.6581130529797131
810,-0.7976161593836253,0.10491219453449457,0.6138705513733209,-2.4083497960474913,-0.6714642069671523,-0.29779981893841967
820,-0.7570774069383669,0.13206995415753747,0.6537347691645278,-2.7417732813416102,-2.752582926688402,-2.216862443374005
830,-0.772725063237244,0.12116348512961686,0.6397668566604963,0.11774574669203819,-3.5217780023938623,-1.8207711799547617
840,-0.7761359923612821,0.13635508681992767,0.6424233696495922,4.945276882150083,0.9053929052693321,3.782945969200955
850,-0.7652829704743289,0.1436225195485992,0.6417336531967532,1.2739132051401023,-1.0406666631899355,1.874557779494889
860,-0.7880836907861785,0.11487217358116301,0.6223318659733066,3.91436744573654,1.84877335906297,4.463392652538521
870,-0.7653721324304477,0.14419386307392992,0.6475968912848984,0.6525433363876105,1.2815907957449533,3.388336278726232
880,-0.7642411509273619,0.15040686444470502,0.6454448949516778,-2.246376787800091,0.08106224112986893,1.3690265130493535
890,-0.7980050266363866,0.1149132355400371,0.6111588800375172,-4.4937631214559515,-1.1919759570444235,-0.9412400791408355
900,-0.7634665782204527,0.14175794217382606,0.6498214303613469,-6.094229569240361,-1.0947755261934102,-1.7613792580929588
910,-0.7438953076363629,0.1488568290626334,0.6571610726903635,-7.211776756579312,-1.0234302797396242,-1.9526510006926228
920,-0.757822272650576,0.13886995420426596,0.6597584537662047,-0.36857899141896033,0.17682405681036062,-0.18121731956191414
930,-0.810781596513585,0.0927415460325685,0.5931220032668209,0.8655957008543731,-0.07514202386702709,1.324825240203451
940,-0.7649057489207319,0.13810572809021135,0.6423125870146738,1.1693663880852583,-0.01942183061565101,1.5569682352694882
950,-0.7459960737421001,0.15856180295319544,0.6650822860627605,0.32753970526926834,-1.2931994690072632,-0.34619354370405586
960,-0.7710924392212881,0.13929625227417294,0.6382367534579599,2.6627060628132213,1.0048042336856082,1.3255111816788534
970,-0.7872136485811553,0.12529699400459246,0.6285736617467491,-0.5885013065140796,-0.22455862058615958,-0.5032556965636369
980,-0.7627952646028902,0.1495347410650503,0.6515337891628402,-3.184740020134889,0.6104724106192935,0.36961372479032784
990,-0.7826374780821713,0.1232700121834345,0.628347039569705,-7.4193593965156595,-3.0232798773717082,-3.481366461413411
1000,-0.768330036344089,0.12773422310069463,0.6430766549134105,2.3936049555543804,3.9288651414110776,4.1773236500287885
1010,-0.7707936850720661,0.12230812036638188,0.6352962610545775,-2.192916605488558,-2.665882567901673,-1.8006529982726038
1020,-0.798506349946123,0.09899266041936783,0.6074444593925145,1.9795528499340276,1.6461566153134841,2.551271114861195
1030,-0.7529504858404423,0.1501609409174671,0.6629865016122477,0.313495319335937,1.165965762535389,1.6313786670915582
1040,-0.7783243280460853,0.12492844579004478,0.6334303608481164,-0.7246010937568638,0.5163280419899222,0.5174868207340709
1050,-0.7896135069708539,0.1128387665307971,0.6205970980005467,0.19118585095928636,0.630772703030077,0.607219482521478
1060,-0.7794444289168345,0.118825046862188,0.62689739644451,-1.2880056590857665,-0.5483487843827617,-0.7865604066736307
1070,-0.7810280800794183,0.11925853981087059,0.6280126156772784,0.3155881598215188,0.05662091102644072,0.7778906958300744
1080,-0.7691788220299102,0.13210126040393508,0.6421438225609026,0.3268652156319112,-1.171343737461838,0.31534713934046565
1090,-0.7957129755659538,0.10360640878864581,0.6143785567111607,4.087819832706424,1.8258153405078947,3.2128720922114056
1100,-0.7450224306068364,0.15488597232858906,0.6634523656093747,2.5622798309976043,-0.09912767161587854,0.8677129632366306
1110,-0.7644276504201636,0.13714566406783854,0.6392960852071569,5.087678248014258,3.7064231296226406,3.8936166188896166
1120,-0.7776501789707562,0.12888651516503932,0.6336327471325038,0.07382760738942318,0.42939004144483606,-0.29058699116070896
1130,-0.7729589523486204,0.1327107535066699,0.6381757378377095,-1.575645822571655,-0.5831196338252072,-1.6323101527913977
1140,-0.7768221774998848,0.12701301093885878,0.6358891091518479,-1.231741267339703,-0.4068325055969606,-0.5280953718819738
1150,-0.7751564354622238,0.127338722184552,0.6346389970496427,-0.7772429125526734,-0.8154466656663621,0.15625925198478796
1160,-0.766391424683806,0.13427633355589777,0.6343414901663236,1.4734930026216542,0.4871785122002013,1.5897408420565728
1170,-0.7752108984156599,0.12276498634222242,0.6295494848013924,1.0554804026877769,0.5017729750536366,1.2321902399649727
1180,-0.7645804894419099,0.14345014178911614,0.6401792794109906,0.09601168173902852,-0.6796633168885566,-0.20247280566221437
1190,-0.7869547823248437,0.11715848881658515,0.6189304426319994,1.304826777139159,0.5428514891166935,0.5807439604009428
1200,-0.7608861325683881,0.13811178302047808,0.6459896640806212,3.2185780978025758,3.0158347112358173,2.468019177999249
1210,-0.7773298131646307,0.12190990808406948,0.6291279714237532,-0.2621602376193026,-0.24565440783643652,-0.48602102431501837
1220,-0.7569079586225418,0.1455131742618766,0.650946855095033,-1.9898438127907436,-2.2138656981957436,-1.4090509708040495
1230,-0.7783960197517018,0.1228477192456134,0.6350511779324047,1.3390956912457614,0.7290753628249429,2.1745915632264485
1240,-0.7635766799184199,0.13331343961858505,0.6434520590963947,0.5048976598077952,-2.4196694125184384,-0.5824193160854345
1250,-0.7757136087968114,0.13197068722450891,0.6277519624126098,0.3963606087927341,0.08027042057622613,1.3360171289713165
1260,-0.7474545697393965,0.1601205836714042,0.664325734111987,-0.02031289462024083,0.48002102428274446,1.2696240923729118
1270,-0.7675777504973536,0.13537996560163226,0.6492661644951577,-1.5640950450810833,-1.1650051066691358,-0.5136478414579861
1280,-0.7794980779912196,0.12294934689314026,0.6371953173511449,0.8871887873297548,1.0551040764233757,1.1655230869177986
1290,-0.783300823547157,0.12342345062659137,0.6312356718601134,0.4180921786379988,0.7685621842209581,-0.16624304745790863
1300,-0.7368696437781573,0.1676355037875665,0.6735518542702471,0.034747151175720914,1.3525817344435236,0.38759578030298814
1310,-0.7645998246861165,0.13936721262021495,0.6479271218178829,-1.4114943078483373,0.5729493755773967,0.13135531437026948
1320,-0.7830801367711501,0.1184080641148598,0.6280970196095984,-2.707040584829051,-1.7677224762049495,-1.98706959015639
1330,-0.7564150152337613,0.14738137170137872,0.6541750708149678,-3.2760281370399937,-1.9072806850980548,-1.9129239940743856
1340,-0.7573827590979874,0.14054171386413356,0.6510218424878106,-3.8403752709170496,-1.7416645321720925,-1.6164170026606035
1350,-0.7584983354681386,0.13387273571991787,0.6472892631045726,-3.4520347392049766,-1.723268791229998,-1.8304781799216805
1360,-0.7821183331271817,0.12298649008795731,0.6255212263636853,2.254339776094742,2.9938663094661355,2.0092104197550205
1370,-0.743442576956719,0.16351884280147616,0.6732396476935917,-5.903662097112589,-2.057481885281189,-4.489656412916833
1380,-0.7804517118414532,0.11676866969852508,0.6357871094821718,-1.599685947170193,-1.7819233815521147,-3.958316679361566
1390,-0.7857258751001195,0.11852798469475234,0.6238772277340414,-2.058912063282496,-2.0831804816262958,-3.8704489345615807
1400,-0.7555062555499904,0.14523976486549345,0.6517918049061324,-0.6826549402943695,0.2388027205236513,-1.0782649635401107
1410,-0.7575831919914914,0.13481140222112845,0.6524962037055301,-4.198975313793654,-2.578567421715614,-3.1465177649519234
1420,-0.7788489129135842,0.11398036467865584,0.6328092785828421,-3.577512763242072,-1.338706908178761,-1.3911806933710291
1430,-0.7642991325105336,0.13527575652619692,0.6405348005318695,-1.5161562768378614,1.0581354635145996,-0.10125749762051406
1440,-0.7422773135198358,0.15654899523746124,0.6641000890812166,-2.6288252865390422,-0.12464072988863562,-1.1107204873718033
1450,-0.7583276510210788,0.14095278160404193,0.6485980078531718,-3.8731081595467654,-1.8313715886307878,-2.61870743949162
1460,-0.771692111403945,0.12566389173296225,0.6383702634528008,-2.1356273055845625,0.12487258926638406,-0.43454192947253667
1470,-0.7734987601580141,0.11808103777430314,0.636713586296291,-1.1896316467574506,0.9649982231850999,0.7514793912509325
1480,-0.7586902720674453,0.12734682944047893,0.6494243944855735,-2.0438250879097954,-0.47887040019932775,-0.1471207276988284
1490,-0.7691038520282251,0.118726294971981,0.6399669915673583,-2.1956541281742687,-1.2447528132918628,-0.43344507905745727
1500,-0.7890162302964376,0.11075531392688655,0.6209910400060045,-1.1741149881359019,-2.031173247242378,-2.137984804757451
1510,-0.7762189788345613,0.11144541372138914,0.6349914822750597,0.49682138743757265,0.3594772508850423,0.42218381536041033
1520,-0.7957173925684703,0.09513229841023184,0.6186071923262648,-1.3034085785769147,0.8799200215680062,0.8438077650757437
1530,-0.7708426779478357,0.12260604731787313,0.641456177209746,-2.9212774408625175,-0.7852676373539058,-0.531251355847923
1540,-0.7825163111904826,0.10182182278511405,0.624441300951401,-2.6480240803429855,0.7091867486036015,1.2962006394395955
1550,-0.769714754881869,0.10463518827661925,0.6351318013230954,-6.564020632940369,-0.034229975116891964,0.5865306489324493
1560,-0.7621136841400402,0.1316630313572192,0.6487233680899425,-4.4120810465701386,-0.6928068868233023,-0.006747150942534419
1570,-0.7837728576805523,0.10016183956996341,0.6245425109378868,2.1814056974493954,2.2688743520315637,2.3557256979443015
1580,-0.7882993365353751,0.10186130090299282,0.622606246314169,0.9279963911301139,1.4126067653376053,1.5064148197943323
1590,-0.7553122450812567,0.13229667289406985,0.6543415545025393,1.5841162473830923,2.508848367735541,2.9378552216263314
1600,-0.7743643845592513,0.11293824430384103,0.6351564361548206,-1.18932469986616,-0.5741780902909714,-0.02396851323376392
1610,-0.7732831302216955,0.11842914936637108,0.6385563011906105,-0.04405311632816877,-0.4760921232684278,0.03974942503607304
1620,-0.781660905536374,0.11175504941163532,0.6316185614987341,-0.35199565163162894,-1.9034563988583515,-1.3535239044797853
1630,-0.7777593679799856,0.1163021405570403,0.634623616601844,2.50663132365773,1.7371389746653452,1.4015333027070915
1640,-0.759623442056825,0.13834474250339962,0.6487718149557993,0.6954139304101721,0.10191647386047968,-0.787067937595024
1650,-0.7989457659639715,0.09404493402706875,0.6110836762433253,-0.7007372668857785,0.7651013665405126,0.0590193302371157
1660,-0.782872940754654,0.10605183857916665,0.6306511987655942,-3.3819459282365987,-2.0367821618467032,-2.403740964093732
1670,-0.7541676819350192,0.13304389006428397,0.6632195346710253,0.8666743650543725,0.8839713491930001,0.8451467910150768
1680,-0.7776320241890985,0.10980309004235181,0.6423034622319233,0.2503093165733338,-0.3882444271342993,-0.06908511211063273
1690,-0.7764115081491543,0.11534721243409084,0.6414593792629232,0.7613297418092716,-0.16879548369511035,0.5601029337042445
1700,-0.7769626432268799,0.12044574630016111,0.6330103280986381,3.823427760024726,2.2179456181548876,3.134334247570724
1710,-0.7724844965520067,0.1194128742595377,0.6377386383771636,-0.4443813792766916,0.2540276019822988,-0.3863928571052521
1720,-0.7841588278214551,0.10536960131860626,0.6313321227509927,-2.0690529650517986,-1.1166672032179061,-1.9891110673537193
1730,-0.7665905666535253,0.12284022634335023,0.6503756862851027,0.4877461134820394,0.6703223523012594,0.3856968454131772
1740,-0.7870880952469408,0.10243005486379257,0.6272291551273612,1.4385158468752808,0.8657481619496387,1.1601940381077052
1750,-0.7633823737993604,0.1261065862298048,0.6493130560704894,2.0193399766638462,0.8354500734245383,1.3135104202651515
1760,-0.7820304673502961,0.10902100644078894,0.6282482592432246,-0.1637706485943382,-1.8589453301996306,-1.4192027718527433
1770,-0.7769918355824672,0.11562294541621654,0.6422176957185821,-0.8255704066115686,-1.328390485589587,-1.626109415665455
1780,-0.7680150382183826,0.12536258246981935,0.6428024058797515,-0.07984165015628619,0.6622801702262455,-0.1635621684166294
1790,-0.7463478580164613,0.14487810400682744,0.6638868484882621,-0.9192530445181888,0.6765649070633288,0.011411897278824967
1800,-0.7808717719018665,0.10727631667927569,0.6322341095456577,-1.0703690221261333,0.40299986082289757,0.1702307336191613
1810,-0.7717788351758997,0.11589790319158197,0.6386730197111453,-2.959284471592759,-2.492359269913667,-2.2537229451590086
1820,-0.7991830001930115,0.0925830836258973,0.6069144050654159,1.2425018909579981,0.9087861185501978,2.0207665568928084
1830,-0.7680936820796834,0.1246366878301091,0.6422961469014989,-0.8168975440669014,-0.8324196915331417,0.1497570562511953
1840,-0.7662998839128676,0.12641800857681665,0.6455110943863278,-0.5241962761836512,-0.9562699151287193,-0.5455801709017613
1850,-0.7618173950699871,0.13177050867895612,0.6444731702407294,-1.2514499109568156,-1.9419462386936808,-2.036180953351053
1860,-0.7531827330307801,0.1399627823828514,0.6555739180534959,-0.11729077148244216,-0.5136993223383237,-0.9408077415910844
1870,-0.766103625058659,0.12657077147831353,0.6512013130819623,-0.3347801682082795,-0.30498218663632115,-0.4827344557058928
1880,-0.7837913852445768,0.11223365513590426,0.6346452997889702,-0.6582420143209228,-0.6138590094426216,0.054133764875253565
1890,-0.7624416048840158,0.14277588409328024,0.6476587041116768,1.17223754967578,1.518422266139758,1.8251802011188478
1900,-0.7627854973471642,0.13039237955128932,0.6480545630858491,0.8589811209938873,0.9254060853588367,1.3269724385158688
1910,-0.7707002231923062,0.11690980501452003,0.6370191376399662,1.1050168404983416,0.31567911533057497,0.6464875669591368
1920,-0.7810729890956128,0.10587059903887527,0.63012683619023,0.012451091722106566,-0.4101503138358597,-0.58306763296686
1930,-0.7762533624272461,0.1122308921062329,0.6377541943300329,-0.3942671369835036,-0.8889625216554343,-0.9871714778311407
1940,-0.7672893398090662,0.12412260137128502,0.6441418471129615,2.1590617370341576,0.39238406902727596,1.1095870379992918
1950,-0.7647192697830826,0.13126735913766704,0.6458775530644149,4.551580138355137,2.4567250396805482,3.2585918821143127
1960,-0.7757511429954178,0.11080791037096274,0.6300952336273404,1.7801016565505416,0.6869157525436962,0.9309111737561577
1970,-0.7717338019317429,0.11945387937672676,0.6365583787914734,1.2268587803987119,0.3970612835653782,0.10545949509021547
1980,-0.7829377544168867,0.11389747238747633,0.6298568225408262,-0.6713278755907326,-0.5404832360504912,-1.3977319815692422
1990,-0.7499758418872648,0.1446238889433455,0.6641928778389498,1.1540928268526964,0.7994337263095128,0.4344268652066191
2000,-0.7688193624421855,0.12112604803853298,0.6441128899331227,2.260834073627547,0.6671544460961779,1.3282103828133573
2010,-0.7599500192836437,0.13291931792056938,0.6521252008036748,1.528893902335304,-0.061750346545797793,0.8011589753602453
2020,-0.7892461081240105,0.1085729576287504,0.6202658457937796,2.982121913794545,1.404265215137126,1.6346347996075319
