time_ms,ax,ay,az,gx,gy,gz
0,-0.7891256432039329,0.25900922902609314,0.6009752812182684,0.5158701730962673,0.5855834932488374,1.241363079338016
10,-0.7930369109332864,0.255629168699302,0.5918133539520457,0.4404298850620761,0.9596379280375156,0.01568762765931042
20,-0.781834937294492,0.256186132947089,0.6074023155780547,1.2040780849079584,1.6164476234889615,1.312067471869905
30,-0.8273752947300134,0.21567553385717764,0.5551577630580862,0.18568177869926372,0.8363451296704482,1.314857768913795
40,-0.8148430488825937,0.22837792155126801,0.571342974501862,1.7361170971087037,1.5728751427173138,2.2460286554625553
50,-0.7962786337535079,0.25421799379994087,0.5892233077061168,-0.5508196390207283,-0.8189622729714207,-0.09801746081844659
60,-0.7919020793765058,0.24994525436236711,0.5958879120738685,1.6611615600864242,1.811438665883318,1.8509564303481003
70,-0.7933669046625047,0.24854110132820556,0.5869216827335151,0.6088076185322279,0.5236780153290729,0.6408522746765714
80,-0.7944264233685339,0.25121462442178977,0.5847847629534519,-1.0543956719698193,-0.9810775633254005,-0.23372359103956042
90,-0.7836364676698605,0.25135526357982335,0.5981438854980938,-0.6572654202152666,-0.3427876558928037,0.2933636495149877
100,-0.7985312421498648,0.24333315458632146,0.5892251484119443,5.751977196818822,4.098854897014768,4.278065097544315
110,-0.8164262048423144,0.2295346848874435,0.5693348170983737,1.6167749394875788,1.9209246743415904,1.0469862732186477
120,-0.7887943362206935,0.26083116715862326,0.6054226427561783,-1.6425384236423057,-0.6640237825928323,-1.564962456379003
130,-0.8029519204275982,0.24706055950647315,0.5946280152000694,3.147691308628983,2.7477449017919007,2.6229717305986955
140,-0.7900522363365635,0.25843454204414285,0.5996392355802681,-0.6130805253353113,-1.792325052043628,0.225818638615777
150,-0.8130907507432342,0.2386663969254899,0.6308782169189471,18.358123122551348,-3.208843963356747,5.64572332566751
160,-0.8357836495892608,0.33143538215417107,0.7157184621728165,10.882510935007758,-10.207143406129259,8.401898276769657
170,-0.8535255401761089,0.37258350489563075,0.7299631011949289,-11.101435854145892,-23.485020396680756,10.508823990700597
180,-0.6665196167424171,0.41837263160212534,0.5087629840986504,-25.582000964704733,-20.475387128575374,22.476233526446812
190,-0.6072810088116719,0.3858792891094091,0.492731405018425,-38.783421685147715,-13.4793865902964,24.365751882777715
200,-0.6283832044403718,0.2697882397466132,0.4872632521006599,-43.10657676691141,-2.8428725834807285,22.642137513428896
210,-0.6943606031541096,0.28900952081997666,0.5019816053100906,-49.2421789635031,6.658379330567092,20.605966553596865
220,-0.7432604409230856,0.2900521229800969,0.5695791421973453,-53.33534697337512,10.445219754609369,19.964092074937113
230,-0.7485860664595843,0.2223376204146825,0.6242364915465293,-63.18420249393171,11.179019598321212,21.308174542065327
240,-0.7301465009674948,0.06329317066265214,0.6846291706042084,-82.7555324555807,-0.9202742977092123,5.3148443072625895
250,-0.91387034362427,0.03248426228492015,0.6358027744021655,-101.07289729964074,-16.05811123572217,-7.191304637677677
260,-0.6523147832724844,-0.0009137336308460177,0.7735521336832007,-72.14679279341165,-29.822100803740227,-10.412277371220297
270,-0.9171896063866712,0.1052695178787758,0.6616006144514314,-11.273814881069711,-32.280737634664355,-6.137733504177034
280,-0.9094877730382307,-0.21306034384798747,0.8277772614976823,7.851325004318585,-42.605850050062756,-15.806832836908512
290,-0.7308392945853703,-0.24901817033140075,0.3173260143541371,-6.364277238955875,-7.408695783406841,-41.301891294619864
300,-0.7509332091763398,-0.03565279699124527,0.4915103722627067,43.21393587347863,1.396612285379302,-34.646830003526084
310,-1.0892515093382469,0.44004945246049376,0.3539875868773822,122.41863515690765,3.072783791921796,-35.116652209170034
320,-0.8075540280278856,0.5371310741862905,0.5152580987796158,32.24215800230084,14.8587999526043,-39.01341554977555
330,-0.9614506469211406,0.4002084375430906,0.6893339684552218,38.38496594773446,19.82681666086618,-24.972771403245524
340,-0.8734151536334995,0.6370592036064254,0.22014133036315378,48.08063725867111,59.49657597135054,28.036855125668637
350,-0.7246487763576526,0.7595389739139111,-0.18059817802743064,2.750973204115346,73.81371801790901,59.869972199324565
360,-0.7750166831782656,0.6362000386352558,0.2846739001355382,-18.331267446951713,54.03310434842874,51.88504042290142
370,-0.8494598797547263,0.9661209413932476,0.3901058246496527,-50.29051743546467,51.974079107560726,55.4735569176636
380,-0.6925443228207286,0.30823654114898236,0.8052436808192635,-19.67410223102004,41.04171700393694,42.79997613770608
390,-0.6390988218012754,0.201439902472273,0.26816608051630647,7.596927776641981,33.62747161662367,22.56880728895921
400,-0.8219957247377931,-0.22371147083970636,0.6733222898357706,1.6114569662490486,-2.3835564547865595,-30.842237494237935
410,-0.8392327622182459,0.049291856150380994,0.5776943968735432,51.12793240701154,7.134495148872312,0.2593243609383489
420,-0.8620719081840726,-0.22438744141872502,0.6923957115279329,78.09028551488916,-0.49248155347696954,8.36391493143784
430,-0.9522858127457835,-0.7127969075993764,0.780222888925739,77.92935903796041,-11.783981883576644,-19.40556314873545
440,-0.9676445646997223,-0.2605188746401688,0.8973633426772044,85.14758396963941,-24.56975236928085,-46.61903334533571
450,-1.0180114143805616,0.95461701649877,0.7509784378847908,73.13294440368311,-13.216885221328674,-10.819740831301544
460,-0.7710800474438985,0.6105127519642652,0.6694147919254069,4.885510236590289,-3.56171055899137,7.159275777242462
470,-0.7245603667210531,0.7015980630866313,0.48189825584065005,19.335491277822328,2.2899303622484584,12.24623065406292
480,-0.8240376518286963,0.33351681320184956,0.5694802494740498,-23.93981132452612,-3.0715846884443208,-9.909188186524318
490,-0.824084655758535,0.2737438749899864,0.5689231225218758,-23.53548943622272,-4.445559170871706,-23.608612110939994
500,-0.8270699947274938,0.19322880775154136,0.5384433547214941,-10.481804116112118,-3.86042921185796,-15.789125574102604
510,-0.7948525931233907,0.23762572284161954,0.5889571960014011,6.814063518229767,1.70056120953227,7.173653790883982
520,-0.838261877524141,0.21511010592006677,0.5356783999316727,10.27680156930372,1.6177682274727156,10.330956040492707
530,-0.7786252270040297,0.28634549701602807,0.5911315364570067,10.293293743437069,2.305840551259868,10.087842822459514
540,-0.8450548301506224,0.24635293633224978,0.5307308220984798,7.950941188508835,1.0875299085186043,5.135557587291645
550,-0.8086328007083985,0.29051367353465285,0.5682129721447733,-2.096179276993548,-1.8165210770768185,-2.540073193266067
560,-0.8065228956191495,0.25071713093544706,0.5668893601350504,-3.435783371023458,-0.07606464839409321,-1.826491122886354
570,-0.8020663722805321,0.24884911867905352,0.5663865519713347,-0.612359526696743,-3.0911946826504204,-1.0365943409848366
580,-0.813606626640679,0.2520591852482518,0.559391265924346,2.4063191993404813,-3.226630277678316,0.6859339993177929
590,-0.8413282305155714,0.22302725214476335,0.5324886305716787,4.586416954625735,-1.2795216858278264,2.5753739238365965
600,-0.8446688833234359,0.221445807861522,0.5290302965096656,2.42480729082103,-1.8404155865355105,0.023179101236436628
610,-0.8327405017373932,0.2253982524755643,0.5396457158357096,0.04116887602716181,-0.6586410700216508,-0.49229921478240474
620,-0.8324365573815125,0.21481185963156788,0.543245488683249,-1.4922834967802583,-2.817416494522856,-2.5714320065701957
630,-0.8338959914955607,0.22478326799766044,0.5386078528725586,5.361241265278487,-1.353827443678817,0.8711785497055393
640,-0.8277615071761528,0.2415939299922086,0.5477125858138178,2.6632591150418974,-0.9345063133270113,0.4910823036732779
650,-0.7893292907887067,0.28395827260145196,0.5850695758754811,-2.768863024802306,-1.1104537802066536,-1.9348463492383088
660,-0.8331057870960141,0.2412824486471891,0.5396889819164041,-5.023851285261392,-0.6686441652285514,-1.8755673415455436
670,-0.8287412347398748,0.2218576953159113,0.541987957151803,3.742769211891063,-0.5427893909512438,1.3910565513680866
680,-0.8209170424428724,0.2506411203151419,0.5594481229179064,4.102244479032308,-0.8967520405168525,0.3580344891013998
690,-0.8240911712040372,0.2552837449277339,0.5477308204466347,1.0499741932019522,1.3254892932504612,0.7899828328873424
700,-0.819347753994407,0.24866344527103001,0.559761987312959,-4.432249696815297,-1.6298459167340933,-3.558180480506975
710,-0.8068022004609957,0.24802315523339757,0.5660843056428729,-4.65364491970273,-0.43880904498844875,-1.6690671918550826
720,-0.8067841204699642,0.25417014603155147,0.5661994070794569,-1.2199980319164136,-0.8806068218634049,-0.7323969632327972
730,-0.8144242577740188,0.25454307239672425,0.5543830413990743,-2.702103745010164,-2.958691134610641,-2.5552991749752714
740,-0.8185277341737914,0.25216327898907054,0.5549060617874724,0.09442365167787847,1.3191598965510445,0.8944342909121381
750,-0.8270013514548932,0.2318534932451438,0.5487644613446175,-0.24720421366989775,-0.2701415813723491,-0.009292257766049694
760,-0.8307205479190216,0.21769386862156237,0.5416341361042287,-1.5248064105729628,-0.5457920659153839,-0.0645325685052005
770,-0.8265412899819617,0.23317226849360367,0.5485804823015363,1.1618612795360912,0.4882446840706498,1.8036874724099503
780,-0.79208719951387,0.2749228623894551,0.5812250633725595,1.483458958667755,-0.0031526742586943657,-0.5295890740418153
790,-0.8263270217775197,0.2337534704753621,0.5427708737763541,-1.5658047900165533,-1.5240708216127214,-3.2145871726245057
800,-0.8045834676331876,0.2538292862213755,0.5684099841672061,-2.564556887829996,-1.66682997576014,-3.1455984434322484
810,-0.824203114952325,0.23365041761531796,0.5447888832070642,-2.121058385462935,-0.7663543916250494,-1.4169048363200707
820,-0.7804810210761661,0.2767896165985906,0.5890840552695484,-0.5482551669525848,1.015772001890608,1.952036704220192
830,-0.781351493858663,0.2919443751741294,0.5927288546827365,1.4994776147159863,0.555192926094666,0.8739645892582399
840,-0.8171545473681961,0.25053499694739045,0.5541008227578138,-0.010335620982033555,-2.005953566718887,-2.6842980721660936
850,-0.7959405198565256,0.25711650211010495,0.5724220281826118,0.5385343869848858,-1.0661758562876797,-2.1107579342780345
860,-0.8006386693818104,0.26096438890551443,0.5675241268997243,-0.4166791525746667,0.6415390294564958,-0.36658002929083355
870,-0.8137548585149075,0.23847892145562843,0.555808433348834,-4.109891051069466,-0.28239199524019554,-0.6428276379325748
880,-0.7880677077944103,0.27057689419689945,0.5772928473255512,-2.2655775995217673,-0.37195913251133983,0.5368617894030525
890,-0.8216286179104719,0.24752594083424184,0.5553781066908611,2.8723340390556205,-0.20470121811574885,0.5409117969548849
900,-0.7915517313082425,0.27882828214757077,0.5768788091470897,-1.8773418903135881,-0.5341773493335161,-2.045918958190879
910,-0.8228812335167377,0.23680542955735587,0.5471422641337778,-3.6418733322610874,0.4062202104542497,-2.446076197791606
920,-0.8282790091606075,0.2270062777309685,0.5474113561919598,-1.8192262046770147,-0.6590110599482102,-2.265818612230106
930,-0.8364259615744091,0.22028706041603513,0.5357602672457017,3.011352980292488,0.7438833316564463,1.5795287893725403
940,-0.8195516788954532,0.24849334258294992,0.5604355660010832,0.6538825750276336,2.4147205364368953,3.1755605953475787
950,-0.8125811862987472,0.2516846000870211,0.5611936825028638,-2.4063522649569435,1.3178789368319273,1.9021636285086594
960,-0.806247646691257,0.23708810363382282,0.5663543692536634,-2.899128704658803,0.028984835002184073,1.0152602708786582
970,-0.8171893110095219,0.23748465194528723,0.5635800769616565,4.630214147468276,-0.47678218742138695,0.27871751713183224
980,-0.8074250133815793,0.2613930379016272,0.5681210609747507,2.306845789765338,0.3236510630637699,-0.5900688824019007
990,-0.7858014567404163,0.2544549043600219,0.5756191350862938,-1.5018696580349649,-1.1652224570533418,-2.6140165667762143
1000,-0.8144442101942071,0.21558591039774375,0.5486274306779475,0.3518133767216822,0.22651851010773583,0.17035219318207973
1010,-0.8157492252691829,0.23824484483990221,0.5584590777084426,0.9511388262761625,0.47598579438581884,0.9188695961100285
1020,-0.8121827062494177,0.251039164167562,0.5617615924393803,0.6548888717772665,-0.37308374726146454,0.20084932683444612
1030,-0.7996051308026462,0.2721377246619508,0.5787769106634967,-1.1065278577135496,-0.8592287171216921,-1.0252153233447252
1040,-0.8326821104843629,0.2269957173881163,0.5465052751945101,-2.1638313175211827,-0.9744830270701054,-1.9870268377931086
1050,-0.815408973952889,0.244455230055743,0.5645751568116194,-0.3415989154116199,0.5859704332553395,0.8228214614610253
1060,-0.8094959013512601,0.24831682566784335,0.5674721336676218,-3.139369512135593,-1.2598623288355753,-0.6019621700189648
1070,-0.8122376446727455,0.24393468102334398,0.561476957530354,0.2938583627854108,2.6915131881566317,3.7961338672399334
1080,-0.831980887524955,0.21951642453615616,0.5445770632007126,0.5594973138795649,0.9988921618660404,2.7962839579833334
1090,-0.7954292965775056,0.2641044974013466,0.5828971812439097,3.110193859925935,4.04490632877442,5.326973992756573
1100,-0.7808567799095072,0.2825352229396121,0.5946909730279826,-0.4557020073206681,1.1140555763981395,0.37389613048004705
1110,-0.7889889809244301,0.2663471126635806,0.5797237261968868,-0.31515209231964314,-0.44005419138890256,-1.8758478306365098
1120,-0.7971696830149643,0.2598494515322687,0.5757638672594328,1.7621257545591371,1.2058667907954512,-0.5282818066447956
1130,-0.7996671882518028,0.2660894822659824,0.5832713462154606,1.477910900481999,1.566840107022133,0.39396407774579745
1140,-0.8068869862965848,0.24991106310428204,0.5700989932629259,-0.25130522220882046,0.523003727835808,0.4333178190641741
1150,-0.8227338053774534,0.23933629465209952,0.560735685404645,-2.2865120071241742,-0.8482604573417842,-0.560521048164155
1160,-0.8013613471169396,0.25492700625607095,0.5757545201054822,-3.030308390863026,-0.8596430169613571,0.39924963049859596
1170,-0.8325341791735694,0.21753865212175083,0.546140026827524,3.941769211302574,0.8019982169110935,2.056779453389843
1180,-0.8210355496420992,0.24787496433472234,0.5600239163664562,4.38807595145785,1.5602588477210042,1.7088447012492385
1190,-0.8346706185839219,0.2293812925002527,0.5459510077842586,-0.06819341714388294,0.16663555961984655,-0.9386997610035656
1200,-0.8134688527231051,0.23639261810412185,0.5602319189492041,1.6247248429370382,1.5949419032958965,1.0118593763615662
1210,-0.807288695975186,0.24875095599048155,0.5672182811494599,-1.3294842684760122,0.6417721515009717,0.3091449895172052
1220,-0.8198111711753989,0.23397219859370266,0.5545175782572981,-1.8815069295079627,0.07431895223254938,0.1931063107633282
1230,-0.8126147673740223,0.25019960061674923,0.563455841935751,-0.09832146651351317,-0.02625365250048617,0.7046709557584628
1240,-0.8272116945224709,0.23252031434597326,0.5469510558033521,0.03074555662574499,0.6220596258789033,1.5325377125101536
1250,-0.7982810228682282,0.2600122688812895,0.5803895491487082,2.8859375791207094,0.34507438754315867,1.3544230709668859
1260,-0.8005569620388011,0.26223193726466,0.5714049917791921,2.1756380677315845,0.706691688346667,0.7222738391499768
1270,-0.8450231568209433,0.20256028511908908,0.5301214117016801,-2.9070368613971524,-1.064646230740827,-1.0040048175319
1280,-0.8187916993246858,0.23679977934444543,0.561109274316606,-2.3808770989397017,-1.100783887022243,-0.3861287435230545
1290,-0.8037851186480335,0.24807696253196151,0.5728291908876023,2.6222986154259096,3.0526248644316745,4.22005015355884
1300,-0.8274693321669939,0.22816082740023536,0.5520568013505376,0.4340444784778217,-0.490195690814492,0.5750273014498202
1310,-0.8013032637432332,0.2646489324417655,0.5756232191892433,3.8112510084772313,3.8882845098834045,3.524902475871283
1320,-0.8248014608332039,0.21971523622206823,0.5455672796353551,0.5138716345196647,1.2732585617263374,0.942747497346424
1330,-0.8261991759185701,0.2261324152197673,0.5609790165343619,2.1544752209568974,1.1025960791113538,2.28674437797726
