time_ms,ax,ay,az,gx,gy,gz
0,-0.6370958109196673,0.17810147958291297,0.4498472185115383,-0.48658584357591766,-0.6035693858218865,-1.3777284127326273
10,-0.628767589860595,0.18606732012300237,0.4607320622766088,-1.4113771915134434,-0.6537906768180185,-1.787173522416873
20,-0.630441047212442,0.1772219431972289,0.4581450253002201,-1.4523439200653365,-2.2466738527061807,-3.1475550591071473
30,-0.6287639248183382,0.17430557614076256,0.4603059320276205,1.4843139841333823,0.6688532600886337,0.3918998163964116
40,-0.6176312916040873,0.19467775940670504,0.4778548841452606,0.617413620820702,0.2393191328904994,0.4515886860056593
50,-0.6457699677921964,0.1699832038117599,0.4467511740667681,-3.1370840319994424,-2.3172272407809347,-3.047939615715483
60,-0.6207460794081755,0.18543940301441927,0.4642652935466006,-2.400881127430341,-1.1468135803147375,-1.9054690841309414
70,-0.634531387739816,0.17587203694840417,0.45336865121135816,0.7909982036851197,2.3257847095514306,1.827339631222113
80,-0.6009303513625719,0.20571412457421862,0.4926771467110257,0.002211839479310425,-0.22903213993270166,0.6323569069699991
90,-0.6620975088727418,0.1426044732179113,0.4286387111865455,0.7222779906529972,-0.639423529319717,0.2804559932486175
100,-0.6063773879339306,0.20373551397036943,0.489767470789493,2.3374942446798173,2.2147254223805,1.690158495639114
110,-0.618823609781041,0.19825126089168774,0.4769299136764894,1.6600324124201506,1.6992659476894876,0.19041497828131937
120,-0.6350913457078098,0.1818234154705678,0.4625229609535087,0.5159489296669293,-0.3863800009386668,-2.2133288732273195
130,-0.6547382143177677,0.16283773568091545,0.446214534172381,2.823777377859467,0.11283940379985036,-1.2744000038907104
140,-0.60947230632938,0.19815231137243294,0.4886645362372679,3.595931516304913,-1.1655898244899923,-1.2844551155942612
150,-0.6212917201494278,0.20971372874684574,0.5234226333874809,-1.301528447568096,-5.597239942711413,1.6908784567323163
160,-0.6381518411396356,0.1803297932481382,0.6370856640547955,-8.849942948671865,-29.51765403920529,8.258525845373772
170,-0.6054278418125502,0.248810358339673,0.5329387075929013,-6.031998947257098,-39.41469470145775,8.943389736508607
180,-0.5443907308161942,0.24046638301278883,0.529852356350504,-11.046529893806996,-42.908958149601006,13.634911526429931
190,-0.4828864694950183,0.28335744283059694,0.4050128612698554,-16.724388539800188,-40.110114443612034,12.943013341665266
200,-0.4567654278922273,0.28004008132439334,0.3134242341716959,-21.474623003460472,-25.53154200545219,14.094761235889978
210,-0.4703025114732834,0.28535103476575774,0.32031120009203773,-28.633559672314217,-7.9205536604878155,17.914831361768204
220,-0.6249941845409323,0.21055434009208648,0.6062672064648924,-40.170462309581225,7.154851542523332,25.991158902476382
230,-0.6764388098427792,0.08032515528905723,0.6150122224661188,-56.375389464177516,-0.6120828694730388,19.351518840193243
240,-0.6450443862301232,-0.002677168780306848,0.5797865160492834,-61.1399182727781,-10.33290365873404,4.366110497629692
250,-0.6102317143762609,0.038689550333528284,0.5332347993618888,-58.26623575699717,-13.060076883964905,-2.443976121145188
260,-0.6826195173209922,-0.05760143773036272,0.4995098110300876,-43.6867181407589,-24.163141522826805,-13.650114667049518
270,-0.676425269679841,-0.0935503218717191,0.43146445719165033,-15.621526289442864,-23.003355918632955,-19.484289194607083
280,-0.6394607104425301,0.0677151736144813,0.3076915676187802,28.639601025248204,-10.67293530863428,-44.39289830622984
290,-0.5736361090855623,0.657522558258272,0.8961993231222893,91.48977412540498,-13.925069679752907,-38.151877670317724
300,-0.7962310296734769,0.5412500686626034,0.6534476357626202,83.86163059919465,12.276624615294132,-27.58965682625814
310,-0.7175029418943253,0.08731739219985607,0.1655477955725558,29.17078669025048,23.368677026928697,-24.117849883548992
320,-0.4980415152242129,0.3645758303395776,0.37332449375674903,27.634396111717106,42.95622944789426,-11.966610878311714
330,-0.5075149073432302,0.607582227942225,0.7072681385635226,34.22224008894875,43.81823323367357,7.622402939447246
340,-0.5344459871201644,0.0997035323803159,0.8786235453862155,-32.070218115934324,38.660502356324464,43.11662418110406
350,-0.44408059577013487,0.23237830040979415,0.71667780299211,-7.423443108208821,34.06006063015791,34.715814214471976
360,-0.6358235568577657,-0.11643937429372893,0.5602976665537986,-2.472049018130072,15.688020707247647,12.299442932874408
370,-0.6502352741000913,-0.2735596110455843,0.9872739775998369,-44.37282548776997,7.034513089698252,4.283757625843792
380,-0.5976584955649614,-0.08872406329603971,0.5651382278045964,-4.232538342451841,-2.268372931316634,-15.721961607948645
390,-0.6032909253263363,-0.12271535471909356,0.5364924635000486,10.871496328363303,-2.0056549922256877,-22.752241390642396
400,-0.5124062690793678,-0.3940371830911812,0.5588855328975907,31.09721114310525,-16.24646915721727,-50.528374338395906
410,-0.45357263339624465,-0.12336750548002742,0.3894457845563813,52.23920528607825,-8.23859585975783,-52.55728067662683
420,-0.6706249880143118,0.028776049477893587,0.061135321185592145,18.958047700415687,-3.871896705712965,-34.08702293742662
430,-0.7204500952293732,0.16705257852405184,0.12131697780803824,41.04691592318605,-1.2312331234732792,-17.770227262637967
440,-0.5552241797942943,0.6071941090387687,0.6286298177236759,58.596250588662485,-2.9425200873342385,-8.123073529781651
450,-0.6303349661529217,0.37891516371655876,0.2719850847970191,36.7938807289672,-0.24756693788889994,-1.365058231213652
460,-0.6541716811522624,0.185045366530335,0.4479105992728245,-10.623169664113286,1.7868047236049727,-7.339790317021963
470,-0.6273452153659536,0.18608491461755922,0.4696446686222989,-15.694195962914293,-0.8137531933510784,-12.325978040943369
480,-0.6358858828110862,0.1501892866681975,0.4516874577559514,-16.339706931047296,-5.230734821208918,-14.42050193088987
490,-0.630762245832382,0.14517874346535684,0.46019897551208205,-10.999795993925893,-4.23731552989441,-9.44375371832855
500,-0.6132040143418159,0.15576141335765836,0.48302026685228056,-3.517061138701984,-2.353095416605272,-3.065979216273605
510,-0.6401107754072696,0.1358495677526011,0.4591758236716242,-0.6246428955328489,-3.8330280964960584,-0.26237950209673944
520,-0.5927682397876399,0.20426198791847366,0.504538830026876,4.578977663914132,0.04386570056261441,5.452901032345581
530,-0.6337066245945118,0.18169964395317195,0.45920447983026624,7.481065504242099,3.9681149331051397,6.6901246335733
540,-0.6256652240808119,0.19276616939794933,0.46621728346044344,3.528938377643033,2.7156217781659096,2.124524320940405
550,-0.618058611958591,0.19137270942855183,0.473709711410258,-2.972215140412051,0.012168309976860307,-3.690727263510549
560,-0.6564729416393587,0.14672619342514573,0.43961582780559977,-5.8893662168610055,-0.5487130520247322,-4.669894013154851
570,-0.6443223742575673,0.1515542947492684,0.4538976785207343,-4.4072312763833414,-1.5669910255414128,-2.8922987732773704
580,-0.6187264835010661,0.1699719011807848,0.4760163115512363,-1.2980292269491598,-2.659624810497402,0.3918688028102917
590,-0.6045757183115148,0.18285248595667053,0.4875541242680511,4.296259525985269,2.4713618727616424,6.281745806206205
600,-0.6378715094588135,0.15844826089823422,0.45247476557680305,3.6249503393041964,1.7232895988303456,5.163250407732263
610,-0.6159412936218027,0.18668479255529136,0.4781780554482744,2.769177270127237,1.4607859888008021,4.011539498228211
620,-0.6368577611300277,0.17152942879159216,0.46059463753501434,0.8347387037119888,1.474895132648029,2.0791662614377864
630,-0.6506209048794902,0.147666292653582,0.44662670212522587,-1.4378013538717767,1.004171228239413,0.8646122822749114
640,-0.6676914967912655,0.12011612941285124,0.4311504522071211,-4.809446652458025,-2.5772959963758986,-1.4832492295036246
650,-0.6205229142778472,0.17691039453554713,0.4782864752500632,-3.211801245074647,-1.465225333703074,0.14023898463962636
660,-0.6361785758603806,0.16731510331994773,0.45731605784631396,2.1266492323810566,2.3992525243463954,3.850023348303086
670,-0.6636780029545801,0.14215138517945594,0.42892816593319555,0.4481678504393556,-0.6399398559611604,0.6589012716670706
680,-0.624591093812932,0.1797457369142832,0.4698963397719544,-0.37832073378383435,-1.7892099061568227,-0.9590654893137036
690,-0.6155724481086476,0.18298524338528252,0.47724494584378707,1.9367038464694049,1.6962729682046318,1.569420057371034
700,-0.6180731857150419,0.1737714690627267,0.47379545540558016,-0.44627838791740576,0.19690888184311778,-0.5910173029213603
710,-0.6343788387931094,0.16298494694860383,0.4595814374590972,-2.501606357025411,-2.1869296737838146,-2.341684479746063
720,-0.6355370010365199,0.15775344106525063,0.4554831017436106,-0.46215813836027075,-0.7696032421514142,-0.35159201442739463
730,-0.6365079950216482,0.15609691313173596,0.45654603792630044,0.45220358790842163,-0.2658064533529191,0.09941038076057607
740,-0.6073057151371746,0.19119830058947113,0.48891306280109575,-0.8153193626777828,-1.1280842986864907,-1.067078670333103
750,-0.6435110502891516,0.15578930466919882,0.4497537606850445,1.7062894170618037,1.132759167955715,1.234380528044003
760,-0.6354485092518463,0.1641255342497385,0.4600063174078245,1.8912671035011295,0.6457644042604035,0.7587280771233319
770,-0.6565276875174964,0.1427148653134794,0.4392609239118518,1.7371628287692968,0.26514507193074155,0.8432690274815426
780,-0.5990188851074595,0.19761878868307825,0.493660698973002,4.74345470202106,2.08167530089915,3.3968901324655274
790,-0.6322287969779331,0.16419297005445002,0.45830934180718674,6.0446451200908005,1.544818618080758,2.922338452351064
800,-0.612233667004213,0.18626820115168166,0.4783142677020835,4.070575861359671,-0.829846246532705,0.6563325214479518
810,-0.6450998205645496,0.1592622022764009,0.4497066515257639,-0.9292829670628837,-0.458309744049165,-0.3331418555050466
820,-0.6067769170373178,0.19686582484477738,0.48818929159590274,-4.041663762281307,0.542956355819367,-1.003522262836949
830,-0.6384534292438563,0.16079263778440908,0.454217491278442,-3.918888594634267,-0.981758883405619,-2.698991163691209
840,-0.6388117014220802,0.15616835701306775,0.4579914664730887,-0.48188844790926216,0.2553882115546989,-0.937145429858242
850,-0.6443645495528441,0.14947791710641997,0.45083871782327534,2.766112801527635,0.8264125314264161,0.8468051937518436
860,-0.6227561336612848,0.1792359023190566,0.470785805358267,4.692355066072601,1.4379208850204752,2.5653858617587195
870,-0.663320369291198,0.14367358013536113,0.43498126113461044,-2.534198066534345,-2.1042351574842977,-1.622636013570239
880,-0.6435794558669544,0.15978823817766966,0.45372551819043894,-5.15538232974152,-2.633300384177851,-3.4907038021124417
890,-0.6304798545592635,0.1704910558608285,0.4648272206253959,1.5042731992663085,1.6052911216672232,0.6155844062019098
900,-0.6422907365431211,0.15797497645305647,0.45252283017709694,3.3036649122256736,1.5223025508112689,0.5616763556699105
910,-0.6199305817263976,0.18124226722512427,0.47652793777245694,3.65882428840989,1.3425052855434718,0.4555806297955708
920,-0.6251328706963276,0.1750301753445072,0.46839479163090997,1.2632312524935025,0.02666989451982782,-0.6393539912805356
930,-0.6066066191178884,0.1948912684990478,0.48292118844159704,1.3988843539358038,1.0174531446636563,0.9414484116510663
940,-0.6368645327638758,0.16783679710878938,0.45694112138295984,0.5174857613072057,0.3898580123259317,0.4509773239879769
950,-0.6055310802818801,0.1983415503347113,0.4922876486315368,-0.5206567001506339,-0.290027046175612,-0.3853152609549989
960,-0.6014522708251666,0.19959815463510688,0.49068937972848287,0.8442267816863394,1.3039414463702168,1.0290449156578496
970,-0.6234255891587644,0.1778914093355027,0.46532257091421597,-0.9680780704906049,-1.0750903734092252,-1.3626979507152677
980,-0.6423195355480324,0.1597775657097052,0.45000410839827293,0.06624522904293281,0.03117404928120454,-0.14659937963585892
990,-0.6232700514933596,0.1779376198182888,0.46891796619246884,1.3505653337539278,2.510402801056439,2.3526257631730436
1000,-0.6252115895062634,0.1737178372336972,0.46948971362873115,-2.3696439736140684,-1.9740532953861316,-2.1675621287248656
1010,-0.6126833240959823,0.18827130307250248,0.48459429820112815,0.43376820205946753,0.07686198992460797,-0.09549952227853226
1020,-0.626594503898802,0.17413484717541325,0.4663584359798164,0.8663511500458259,0.6841765609643282,0.2802184594809861
1030,-0.6227204939048425,0.17834250528548315,0.46634913093863484,-1.3480823296520343,-1.6756981267481192,-1.8047793248930089
1040,-0.6305814240836279,0.17604276972572866,0.4622905918529741,-0.6942141476826917,-1.0542358150987439,-1.0401357816665004
1050,-0.6503038034354469,0.15358739099780636,0.44621862447235416,-0.6391681538112817,-0.7338548427142462,-1.079776022085003
1060,-0.631125661314764,0.16937899067085538,0.4629972274879403,0.05537520789142458,-1.0702009865151723,-1.5014252806920836
1070,-0.60727412011911,0.19605091633313876,0.48439414042912227,1.337296623799161,-0.3098026987202401,-0.3622979446172935
1080,-0.6520375334898536,0.14845304529349038,0.4390059875057451,2.719347535734803,1.7720038972040837,1.500404627534269
1090,-0.6172883702781373,0.1836017049453436,0.4733633695593085,0.2683574131619879,-0.013366654790392118,-0.3228956882309778
1100,-0.6167599104494028,0.18282879973764044,0.474106470225005,0.6709905647736524,1.0370952201164052,0.8468291258399381
1110,-0.6347245258365377,0.16162113449791485,0.45564442973669517,-2.209496112661176,-1.4857426725296667,-1.8622842323996238
1120,-0.61494786356027,0.181853010391052,0.4781539884982987,0.18890244620128827,0.22242891248197083,-0.04576558234981665
1130,-0.6266628495808316,0.1738696612938019,0.4656047002418015,1.185606295188253,0.731610946491802,0.4067580327817192
1140,-0.6139034154102054,0.191098282074457,0.4823682390314864,1.7506066208330255,-0.1070260381047875,-0.16723526306091588
1150,-0.6112860501699232,0.19233036289371816,0.48195326022114987,3.0407737963782204,0.6218838123097448,0.5650848709957931
1160,-0.623353644170377,0.18316301619556885,0.4713907041651949,-0.014349209262273926,0.1185998955263333,-0.5722712749114204
1170,-0.6495157193934396,0.14972342078030665,0.44821956213150255,-1.8736995525291813,-2.8633089043703857,-3.607363407100076
1180,-0.6389660413611411,0.153367675863324,0.45374385915607207,2.5797579686451404,0.08010447288588474,0.4001665365877083
1190,-0.6474858538991036,0.14634978919197011,0.43712372664303123,2.711406639631284,-0.5280844290019848,1.0094027727462807
1200,-0.6332078088216703,0.1666647199051478,0.4561687084031503,6.7687855480094345,3.5573271486339184,5.990313803073723
1210,-0.6258912467023119,0.1810258820195924,0.46412716063898174,2.161336627275445,-0.17780587289004934,2.105535665919849
1220,-0.6313389697566796,0.17935781874405526,0.4625790268636232,1.1961345834201667,1.3745311684597412,2.330454657174074
1230,-0.6323088965088995,0.16808898148260193,0.46041288984897666,-1.4638314761999025,-0.2486304826913423,-0.9163102620126126
1240,-0.6102318452658922,0.18406078257473243,0.4822871793266055,-2.9456229049919758,-2.5205203830120158,-3.549108475989225
1250,-0.6443080397727395,0.15273685699078696,0.44673891213057704,0.9898400903406689,1.1775598601889254,0.4178959189772587
1260,-0.6385846470021752,0.1576183345733526,0.44742799159527163,-0.0984796953959145,-0.10088870123363047,-0.42551746812929736
1270,-0.6441196619328156,0.15968133077232619,0.44481952396040303,0.8663388295442394,0.9670465747250503,1.1054218817112353
1280,-0.6032605426802733,0.20338552643159452,0.49155522732713386,2.801344264130692,2.9170991878353743,3.2783070038781967
1290,-0.6117109484013945,0.1917359402101637,0.4880898364415738,3.47214965960797,2.907462889504053,2.3952703454895694
1300,-0.6035070147231932,0.1972307964194399,0.4898134643995353,0.6954983176786387,0.17106792841791552,-0.37364973568284376
1310,-0.615616037047617,0.18170158334910716,0.47805546716015646,3.584672634684524,3.1161400781802535,2.398992666762467
1320,-0.6119604432586832,0.1927984291782322,0.4820782446814986,-0.04934035393201888,0.9689228936556127,0.5567856317910427
1330,-0.6370377951778153,0.17202749568550016,0.455066898597008,0.4329554834426197,2.4192363714742426,2.4608604812925616
1340,-0.6351943579928313,0.17113404591034942,0.4571855276536454,-1.9461542806656835,-0.004692360080167844,0.21827450028659462
1350,-0.6063207985485248,0.2006530635520488,0.4864163357867246,4.1967939777176,3.9423199391684847,3.449475142768357
1360,-0.637727974824219,0.16566294320710145,0.45544134676832787,-0.957470776188766,-1.0811470673959198,-1.749959379234267
1370,-0.6385823738210094,0.16976248406526967,0.45396570008260395,-0.004059743185397258,0.3540417041233766,-0.010601342750575338
1380,-0.6270831486079333,0.17274907109960305,0.4700909246303037,0.1073509747178879,1.095462389950757,1.12612476739072
1390,-0.6372077866564371,0.1642782986394297,0.4568604630418263,-1.756816322792452,-0.6536265512650336,-0.3729937427505662
1400,-0.6011755534964358,0.19673138514189603,0.48764371991558964,-1.0594438655835967,-1.5465239997148854,-1.0127335989059771
1410,-0.6428262799320512,0.15901429531477732,0.4430012234439889,-1.4341024168271572,-1.0990325699267602,-0.4814917830089147
1420,-0.6247758158551823,0.17450896632402121,0.47179610314227327,-1.4327640280729883,-0.5579979158031504,-0.33781766629333715
1430,-0.6499911517513863,0.14810789387993392,0.4437559484002216,-2.7977983491793768,-1.9280831816378203,-1.9089446137894894
1440,-0.614035341812923,0.1911975063560961,0.4795276632635661,-0.08964801179313527,0.5163943824675363,0.883696340123282
1450,-0.6333082361031799,0.1724132263356401,0.4636377025361563,0.06982125280935705,1.2140094061077344,1.1676083516874383
1460,-0.6582309832020518,0.14769061062519787,0.4348058754413945,-3.388745073202814,-1.023804757899962,-1.0071918106132232
1470,-0.5989655403714301,0.2063171078294782,0.4922162045253467,-2.8611160396658937,-2.0328056035940376,-2.3188858491301203
1480,-0.6290496047088546,0.17118842417244956,0.46752626269565206,-0.30900460879100644,-0.08789242305391073,-0.09240424841591464
1490,-0.626200457581235,0.1729838567462519,0.4701822713085951,0.020166709218248535,0.03892123155812123,0.25420879906779936
1500,-0.6442783835229009,0.1570075871132242,0.4515144287159554,-1.1761255149638399,-0.7707293198604409,-1.2485121549293932
1510,-0.6693025546412611,0.1262778638360353,0.4222113520002529,-0.2157511936969525,-0.9777255224764378,-1.473129203813273
1520,-0.6355850081105814,0.17113189632852388,0.45912096516442996,2.2605954206527827,1.3174376915866093,0.4459330520519452
1530,-0.6332117712214331,0.17087868505859247,0.45994823346834357,0.3939472960603754,0.06837603075560461,0.517114003980245
1540,-0.6324653491771957,0.16919416749983432,0.4604578101791212,2.834308805072264,1.9408184121558922,2.7239755142795445
1550,-0.6300846023917598,0.17321603528787355,0.46749832145394005,-1.5795544166846134,-1.405247448707492,-0.7452271246279611
1560,-0.6239010143515161,0.17953432852390766,0.4651538709675552,-0.21669845652725017,0.4452458915353553,0.4270507130892738
1570,-0.6038157718028324,0.19908307833367336,0.4905893567151528,0.4292170184398857,1.100453392380619,0.8289144595702815
1580,-0.6357495433871695,0.16825230758602164,0.4535569882286048,-1.5660522231314113,-0.8087933863832212,-1.4207135681117775
1590,-0.6327574549878032,0.17306599444877108,0.4631278842435055,1.1321837326671622,0.8214583606073244,0.9812210025775231
1600,-0.6329594165978861,0.16278205210170346,0.46217456078651337,1.498594848301403,0.6082814003522036,-0.15319957837230824
