time_ms,ax,ay,az,gx,gy,gz
0,-0.8468537550125632,0.12688501124472484,0.35125779566320064,-3.3856034428583586,-2.2921667698562724,-6.674512723225405
10,-0.8394744620713804,0.1403208673355955,0.3627835998023938,-4.75863201313634,-1.8398835762443657,-6.832983130538918
20,-0.8430588337018391,0.13400830347748097,0.35868467524429865,-2.613448344028628,-0.8447665997735632,-5.569504974303465
30,-0.8357221608675571,0.14405611134217153,0.366983920819773,-1.5552016321873232,0.18283677669921106,-4.059425442151138
40,-0.8407729133945085,0.1347997695180953,0.3643091521697174,-2.19941198057089,-0.5576138182414319,-4.0614341124719555
50,-0.8378700953095931,0.1375470435305415,0.3676339591502639,-2.986195833100129,-1.7635505838112544,-4.345319784642152
60,-0.8471074985453475,0.14113953897987752,0.35828308790565633,-2.070653163288029,-0.5346641944486863,-2.5004437613192043
70,-0.8643496216576775,0.1128794536709001,0.3497985614010919,-7.390835508872396,-5.10174297491879,-7.3550511079730185
80,-0.832777098553523,0.1380345273905339,0.37208412107645805,-4.888795421262151,-2.4551339902914457,-4.562995925136833
90,-0.858568601617058,0.10493957679744367,0.34680344374008015,-5.473329846289032,-3.207206157479618,-4.934317087124474
100,-0.8408367438377484,0.12112644659172642,0.36557904440762573,-1.5701392600944772,-0.9607667525927934,-2.206619359129976
110,-0.8221690453971299,0.13838547977259957,0.38605460469108455,-0.6962433931244769,-1.7932983927321855,-2.4516308865340686
120,-0.8536529336284394,0.10673117763193235,0.3557156350325964,0.8434057998203272,-2.5391834075204684,-2.2686190910897577
130,-0.8659394039934999,0.09711020712634881,0.34370465593340394,10.369564356336028,2.343351504909811,4.803989400952338
140,-0.8489159168869381,0.11818367754362646,0.3619006426281758,17.184246527224072,3.3645722275607612,9.532125004490387
150,-0.8583192237743906,0.11778593300026421,0.35212870089156534,10.541905752086771,1.9124766381683291,8.711283379650332
160,-0.8491379321130018,0.11987947537856906,0.35286554524817554,12.315547870679637,0.5037142403466356,9.482225091307974
170,-0.836169862264669,0.13891309952036113,0.362813571658614,15.972234937711882,2.4472749361029766,12.8397258158349
180,-0.8481215288404975,0.14583157980416966,0.35949610794230924,11.720404553407239,-0.17854057842307658,10.109097343751532
190,-0.8476938927973589,0.15345993277971096,0.3635021550255867,15.879627060006648,4.691675078182587,14.148810427641264
200,-0.8416777267235902,0.15116449595224257,0.3640817934393576,9.709613051916579,0.017611742567609112,7.094572365403268
210,-0.8230252230971735,0.16749455768178798,0.38019269491396435,3.50081430703481,-0.4462496218810414,2.807779206837479
220,-0.8256409910665017,0.1859800848601925,0.3864913570162098,-0.779382542804791,-0.20029150543884444,2.3531154399781404
230,-0.8097532498145504,0.1657315173422243,0.3934548937395407,5.375952483301639,1.2273797015415078,5.254319118642805
240,-0.8107049817961033,0.17593334209059386,0.39478410563707733,7.523833307841478,2.2751709155110156,6.883588333483317
250,-0.8433507361934358,0.1428899799749147,0.3676140432819576,8.227288971735344,0.7728235179178224,6.112085662949358
260,-0.8809148346048965,0.11425581077830249,0.3323632941413687,12.490914367492294,1.457009023115779,7.6861990018123905
270,-0.8563021797372568,0.14693286666483368,0.3549800348421775,3.4363505268844285,-1.2630062200980303,2.972803513154612
280,-0.8523586851963167,0.14067830706803486,0.3524168406239618,-7.575827927241652,-2.1308465597935204,-1.0265306069342048
290,-0.8393770421718638,0.13305073846627397,0.3549197924562924,5.686230400825426,2.2683329677505357,5.489459242290324
300,-0.8636639407379243,0.11829134299755736,0.3265697955708337,16.233413592374482,3.9834033289885045,9.813505959314272
310,-0.8481982721274028,0.17230349107523069,0.35478484907231084,9.849077141595329,1.7737942207358643,3.9416875827530644
320,-0.8260822178251724,0.20467209320123442,0.37579476374188553,6.135541969150543,3.504766366767053,0.931496931649529
330,-0.848031921934539,0.17546632727412978,0.3507514671287456,-1.1180837062735813,-0.5385023441740984,-6.299752008896091
340,-0.8117024566838135,0.1869920712030977,0.37812531210500944,-6.569935468520872,-1.0501645626629676,-7.361449042709534
350,-0.852824781240272,0.14728883178593175,0.3629248671291405,-12.966611515588799,-5.051198137003029,-9.82880956466692
360,-0.9309501831081719,0.10042059058502256,0.34068309315603557,-4.029572916818326,-1.9680437508840243,-4.255675380586274
370,-0.839188161290571,0.13217310191794143,0.3752800385170647,5.950487650375793,1.712979696391565,2.319888108890698
380,-0.8044661770088353,0.15758418241867292,0.3644808139787081,3.7284212725326027,-0.013098337271712168,1.3889221008078978
390,-0.8449162473494591,0.13491067454764283,0.3603850675227558,12.546065334926258,-0.19818784633892694,5.22138405235364
400,-0.820188062042943,0.17832105688414782,0.39332331434275636,18.20978275433233,0.2368484490208742,7.802286503344173
410,-0.8553167705621478,0.14864031386908108,0.3470541779182462,6.868234346498556,-1.201021574862628,6.2416548439973445
420,-0.8641453859667607,0.14178890860916973,0.33877669540223637,5.3927825353735575,5.168002401703783,12.768957828151613
430,-0.8364511354209306,0.17624098934847907,0.3806196179390201,4.320638798720952,2.654924806217639,11.46494033988102
440,-0.8552194943625852,0.1577546576181737,0.3653332712750466,2.778810301996437,5.6657916397045,14.82895874148624
450,-0.8230412294863165,0.1610881203200541,0.42280484789080663,0.3708281041870555,1.7660279588543502,12.306131291837659
460,-0.8244365542091698,0.18702208093044567,0.36738734658285277,8.076010295387713,3.0982561290427935,14.418046559975974
470,-0.8497449134736359,0.1335879261913165,0.37920019388055687,17.28824031199246,-0.8357520602327483,11.971194066857398
480,-0.8051899697351732,0.16382826275605744,0.23635192570669916,18.22008213716039,-16.711080639474567,-8.006085477853347
490,-0.8444064152927714,0.19395328262614703,0.2242254240854547,9.847603317616953,-11.370848138188537,-6.651775298531184
500,-0.8592378928792341,0.003074095922188297,0.49780994794279104,-9.515109054350695,-5.668749104111209,-5.9653015339847695
510,-0.853211789414663,-0.38438543332711805,0.6354226442621744,-19.247809771386006,-14.398220775082494,-23.3159457346161
520,-0.8976063375197707,0.041405904399395004,0.29621964089009123,-8.683012337249963,-0.5016317648048126,-12.040234020311429
530,-0.8698892895987026,-0.11059951589146609,0.26580129005154784,-6.758077964792467,-11.769686593750947,-21.373602676804627
540,-0.7936195563498757,-0.008362570303619032,0.3912947735503956,-19.725075851930512,-11.839016558564461,-23.387550413097227
550,-0.9205711402373916,-0.11500569484890862,0.48459376345204136,-54.306515128831,-2.5821008004127797,-23.316653646396034
560,-0.918553126577892,0.27267755851254727,0.39863822807541766,-12.172292238366479,3.238462447612352,-15.055974137856172
570,-0.8152791635661942,0.5143518205877722,0.313520155493161,19.78181982050296,-1.3862606999252813,-13.535533522200666
580,-0.8615480233908301,0.19418347070424077,0.236425308324823,14.971691250354523,5.685250245777703,-4.428782980551421
590,-0.8762569139945888,0.22500744708652548,0.24135126828034228,36.02228486192629,6.049124423433344,-0.2680611389289709
600,-0.8958663108445813,0.18163799749553847,0.3392369336168703,35.88074742225381,3.68646293820143,-8.428383488346988
610,-0.8629784129050281,0.22664053854729183,0.280867182677446,46.73709799080035,9.346116442647961,-6.836873148912444
620,-0.7272426942277841,0.42802065962170605,0.06454824071511844,12.755870989438783,21.329596647632606,-3.122905185626556
630,-0.8092706860560406,0.39975680055363166,0.07576990080317314,10.412727635046648,20.542148793427835,5.9445850348618166
640,-0.8705043759154502,0.28614779491982845,0.11063763982420109,0.470319106848469,15.00154259549221,3.350162872091274
650,-0.8818950730771101,0.22719965476684603,0.10010212300595273,-3.798535781028827,19.58955419135544,4.776286972958624
660,-0.9052165990534539,0.24157702859366262,0.2782851094398987,13.189774908039658,17.882095884451623,10.363204511104788
670,-0.8475361647651514,0.1611277326183952,0.6912293753492608,15.274994420753073,12.513015813258038,7.818470675479475
680,-0.8577275142539927,0.09651574804226329,0.6162705884383866,-15.021555714715618,31.232624254405007,6.065076711226268
690,-0.7294447949655274,0.14126977970274893,0.10003385991617567,-3.7310227119044326,38.85309386050716,10.236948517511108
700,-0.8594780375377445,0.254038499642383,0.16781549040533125,-4.204797781967346,32.13550007087585,11.704651736748083
710,-0.8595456773889981,0.32398254086541944,0.09989849057435532,-12.337613040144472,27.39236895490457,9.021051316662591
720,-0.8271543038963779,0.2669898449253323,-0.20330891899161765,-14.490000051567582,28.73767254491873,9.650975650232406
730,-0.8247122033807748,0.21413029590823202,-0.2223103981865102,-4.030689778569602,26.77766190402522,10.009496666558302
740,-0.7801447359520722,0.3006461003463028,0.37964883322286014,25.68846493983979,37.97380455060305,20.51331583542828
750,-1.0854002405216512,0.2982837048018399,0.8702903789621563,-25.207612030508425,51.50749860616078,22.11589317561796
760,-0.9244210881106714,0.1812869102460625,0.12651897298053338,-36.84340091406818,20.29909938815998,8.234681440111638
770,-0.8991818164298422,0.1479226578569855,-0.024147334730021508,-21.024788756277253,17.30375215987812,8.086105230953265
780,-0.8929453648531839,0.2873553531131902,0.0199309419494538,-26.267037078188483,19.622651369853337,6.610323630716956
790,-0.9387217917792031,0.03998669682349435,0.17387806785428342,-21.724996593310976,7.278952483652554,-5.428658504034039
800,-0.9663605162464063,-0.2301589638036584,0.12967508965041985,-16.26794239812877,2.522530090618868,-8.098012038649998
810,-0.900704106505906,0.08669485331770772,-0.04093745681116319,-32.37586389898211,26.914554241003422,14.441365575449597
820,-0.967738306388162,0.263747076893668,0.560978395080027,-37.40580331942052,25.727670246781187,15.580880022504747
830,-0.8927041449117114,0.20016486656956858,0.21345818598964036,-4.150785448449964,2.2045583088058374,-6.424057160003506
840,-0.8615621967713005,0.2184326079647001,0.24998644613802912,-5.513327594475543,-2.02344320840547,-11.025790939170367
850,-0.8646411847771389,0.20868792219152918,0.25418218437924334,-7.202311887777777,-4.329686755077786,-13.50998803452263
860,-0.8538398434938461,0.20536140523540233,0.250130656421071,-5.35261303768798,-2.497591091403449,-11.045396296252994
870,-0.8538083153989076,0.20624584032723733,0.23671872314864115,0.7931493378789383,3.075435840479904,-3.44327389115519
880,-0.8707286517686,0.19878652917606585,0.2199980042954781,-0.5125648954374351,-0.8903792369838778,-4.629075913548135
890,-0.8872963890956097,0.14428073132856448,0.2054549305080008,13.433703169884573,0.6239198472379561,-3.690224562167357
900,-0.9574230503273089,-0.058944324614698,0.10714748213740936,72.6393687079484,-0.018184852912577876,-18.84828739599616
910,-0.8588416408485283,-0.23901143609618933,0.9706042100896475,26.31336195242683,1.4371832135579077,-48.40631313258555
920,-0.9767409167141313,0.15990896274507843,0.20209797671347676,69.58470845814274,0.7275095823741631,-33.08843845692695
930,-0.9355749097327721,0.41031204021849504,-0.19459823761103215,75.48841604108797,-2.3775689420196695,-24.74801380394572
940,-1.1280300450679839,0.15703549829819163,0.18325243761635215,90.56428183514254,-3.7122663990404843,-10.884427895868985
950,-1.1847332998100948,0.015572928462216112,0.6269702609277191,110.46027694174245,-4.680759771947308,1.682590164392206
960,-0.9435802809459457,0.2250466416352164,0.3309800705175406,91.62655650116255,-10.503069323829813,-1.8037793554612294
970,-0.944874791259869,0.18624178654027754,0.31905402063500915,77.94039598382302,-8.631337349147675,14.997352361558264
980,-0.7930506716465608,0.3646048929257414,-0.03527122185638776,13.184384834363811,-1.888587076380202,3.247235681153927
990,-0.8434718302646668,0.27299379130552837,0.074457730129698,28.011173361831272,8.7942896831592,8.676113863473146
1000,-0.873466572992511,0.24020934286638584,0.2005607243294382,18.57320917370181,6.824380448029984,8.161623210042308
1010,-0.8548675141597849,0.31852370327469887,0.23694465639765105,8.982267812010852,3.300122591828742,4.031468155564522
1020,-0.8772787150993465,0.31432821687076623,0.18960339559078773,-1.0584923510993605,0.4376811488199226,-4.050686130881458
1030,-0.9049434997647029,0.21364351860775638,0.17221718885257925,-13.746927434551464,-2.3355745621624284,-14.285690502179449
1040,-0.8804842055426623,0.16112873477553358,0.20077346847828906,-15.660535497853322,-2.9158346183578954,-19.147439145370054
1050,-0.8655097975070964,0.1624910802878536,0.22022215124615638,-12.224193526896173,-2.0225665068861014,-10.134745867945645
1060,-0.882065659139999,0.1789831993395618,0.2054683201849469,-14.475409610158785,0.44087089665409435,-5.210831420904626
1070,-0.8797954484369247,0.186567797987041,0.2102188762982198,-19.52030188058047,1.403015581064612,-5.037790278921649
1080,-0.8897456514594453,0.18100562633677383,0.20010148395261085,-23.381932069841078,0.9883273969877759,-6.623412055120868
1090,-0.8702152126924776,0.19866602776144454,0.22004471763492206,-30.932100262751312,-1.5634649071216684,-10.553978051876875
1100,-0.8686388384004534,0.16989728819514144,0.21785596267486088,-29.859678793096627,-0.8785797987879385,-4.141924323833662
1110,-0.8830549497186904,0.11333847061617426,0.19869378420442968,-17.819521060726508,0.2048637236242089,12.514225609061183
1120,-0.9142379615036423,0.11365752322509512,0.18746708103443954,-10.76891916843051,2.5592503896578958,23.650349242083934
1130,-0.878249036173709,0.15803912914884793,0.2123185948511562,-6.046185940333121,2.526695653561865,28.363895523662062
1140,-0.8922756450568529,0.1754515675238786,0.1854469824534402,-7.63350757005558,0.6598142334313754,26.55599004966931
1150,-0.8604832044987383,0.2216698683729846,0.21897618987813247,-9.34492876391591,-2.8194207638290254,21.86660749432673
1160,-0.8889000301194875,0.1784727331053951,0.20037330049328456,-8.258823305597913,-5.257527673724651,17.3248968036511
1170,-0.8994452433760052,0.16580456251518283,0.19172424733579363,-4.173352706039759,-4.94551482685265,10.2695462129519
1180,-0.8999106881374492,0.19067339107636852,0.189780516877477,2.7465960442783106,0.4643188258832447,4.807381843369335
1190,-0.8834197249185104,0.20975618369359936,0.21806697137826062,-6.315822084433693,-6.2844083838947915,-7.044162219134305
1200,-0.8708660631436649,0.15506141196810305,0.2098424554296167,-5.154278068227945,-2.575244735649593,-3.649157147615837
1210,-0.8701132155143696,0.19243704909893353,0.22868639252295367,-1.755631623805504,-3.6353567165169993,1.5092234932573692
1220,-0.8741132814711612,0.1905366314475444,0.21129014548514372,0.40254915741557307,-3.4307430768464053,4.407655825661532
1230,-0.8692475734242715,0.21426899493315354,0.2173281599364822,3.999891549882129,0.8615851016398879,6.970916065973351
1240,-0.867625768123088,0.21764033642778077,0.22560468077333928,-0.3883476978420747,0.3977663693438309,1.160052940280637
1250,-0.8720876029865774,0.19887075930900658,0.22236876424761207,-3.734501851998836,0.4570660686453682,-2.4093886795573454
1260,-0.8858760921847444,0.18228882302867033,0.20596135750627975,-2.843969326539426,0.38929736227514244,-0.5483314530579957
1270,-0.8702169337634347,0.19361808378707035,0.21966256051161234,1.9448912979325876,2.7845042524683707,4.355632259184916
1280,-0.8667389289279875,0.18692066213017508,0.22948880399091584,0.66409588211576,-0.4664209012092141,4.503532778920602
1290,-0.8830586919725502,0.1770188824865771,0.2242687753226893,1.7742064831594035,0.759602899946104,7.188251632185885
1300,-0.9031510191675536,0.17299062014439856,0.19510473259622804,-2.7350692356942394,-1.2699868467216349,4.494629990432388
1310,-0.8677584652206773,0.21119190253354628,0.22594616288791317,-2.156628877613653,0.6750439195351249,1.6412143208911945
1320,-0.8976350958970176,0.18233288446904675,0.2006136371385429,-6.810463697790782,-2.6954194275770607,-6.872524553684471
1330,-0.9002559441003687,0.18004313957961554,0.20243539558765763,-8.463345797561619,-1.982677047400403,-8.779004278157377
1340,-0.8587030261061902,0.20661542387878834,0.24135767956379023,-6.829332266261497,1.7516165072392245,-6.57508369537314
1350,-0.875372711714398,0.21536457243163906,0.21925504591561984,-12.338675026266381,-1.7390220131661451,-9.823046864496416
1360,-0.855143227616703,0.16475306320498198,0.21043068538154486,-2.7097595001356494,1.0466273474721537,1.1303812897296595
1370,-0.865077010159766,0.19100708429936739,0.2199593120196096,2.5965629328519344,1.0875992795146177,6.4381859025194705
1380,-0.894965272440438,0.17429621875515472,0.1970505835982127,1.8977060347903105,0.9535058798237742,6.188442455033632
1390,-0.8623211476156295,0.212332178817398,0.23239652122016935,0.19207442240847217,0.6488454370383121,4.658538728506235
1400,-0.8532672509160549,0.22919385279409818,0.24303745755547213,-0.28601257610656067,0.15500731979050789,3.6959956091301227
1410,-0.8472963986289361,0.23360558229790845,0.24175048616172828,0.5542280125877177,1.017553477892092,3.683470584510059
1420,-0.868300880795294,0.21673312911365147,0.21518784681906697,-2.355659783814766,-1.5933745231060752,-0.4476206785382567
1430,-0.873048064627195,0.2053381124773337,0.22297899827710804,-6.744115822707711,-5.278488951572076,-6.222241232784622
1440,-0.8671825664677444,0.19257779370529443,0.22528434395083777,-1.1945464635380878,-1.300358644491014,-2.0182906147617232
1450,-0.8634476064451094,0.21457992104588128,0.22662577420149793,-1.5189328913266307,-1.9883337317350827,-1.23249955462629
1460,-0.8661234807181943,0.2207172313951421,0.2241050320124151,0.262897216122132,0.0642851266075194,0.8386367899811992
1470,-0.8797052394540467,0.203067062094668,0.2098571641830623,-0.8180852470736311,-0.26844507695947806,-0.49412949518525556
1480,-0.8687843164362633,0.2117919608658292,0.22066582389787934,-1.9947137747424386,-0.5058357684199022,-1.5437849586552126
1490,-0.8823869212703416,0.1990112017198989,0.2135755924391341,-4.584794211745098,-2.7282493109682235,-4.195883453851387
1500,-0.8653059955617116,0.21224339458835811,0.23868586772992417,-2.4949804713544075,-0.8258935857398195,-1.660792133774366
1510,-0.8727788992096196,0.18096691225149678,0.22257845958328334,0.20014194673374153,0.5644580345312429,1.1339606198361585
1520,-0.8738506693061894,0.20476075956364864,0.22348036278822955,1.7580998892315602,1.5914450853625013,3.5753986174186645
1530,-0.9132309255396573,0.17352759067543003,0.18142873895727507,-1.2992815178236403,-0.32915691960868654,1.0172852300119573
1540,-0.8757961427759638,0.2110205558514757,0.21762259630605854,0.20438352189354925,2.170478050518153,2.510600945767827
1550,-0.894828583402583,0.1909468561722031,0.20084892247081818,-3.261666208916803,-0.7376332524260689,-0.9491040136872173
1560,-0.8698385311360866,0.20792026317315937,0.22583531409086238,-2.33832961796701,0.5573285813651628,0.2085301768155977
1570,-0.8816107685870287,0.18691065915261576,0.2085067502495801,-0.21253738536966438,1.0687307180466663,1.9751946334133748
1580,-0.8604097425591357,0.2132516853718474,0.23325137158858142,2.274621292678634,2.483394332870838,4.046398320733535
1590,-0.8586058898643328,0.2172276951135647,0.2382252100120741,-0.03645268901746651,-0.11114759420527448,0.9043814380884996
1600,-0.8909136348405393,0.19308778626882206,0.21130524611489132,-0.12183540199993037,1.909296956400013,1.5270107232256331
1610,-0.8827713652342287,0.19497609594916177,0.21940081498613648,-2.7571094037209125,0.17718278252781633,-0.4907589926816745
1620,-0.8675611664317808,0.2068263938393159,0.22901046262897978,-0.8971657435976594,1.5288546335299433,1.6458213652921776
1630,-0.8925122165951335,0.18796382856621363,0.19785209251438163,-1.7718807472995253,-0.16563546919712863,0.7178694571574136
1640,-0.8775123656571415,0.19758864006227816,0.21161724030350518,1.184306343873946,1.78507953962616,2.862355269138516
1650,-0.8812563373597315,0.1973136174811983,0.21643863553908338,1.524940779160437,0.7183152518176721,2.4569495172532942
1660,-0.8868305606754209,0.18538480384135553,0.20957684985102312,1.2616622177778303,1.3492174315614833,1.86603776177854
1670,-0.8768690851823614,0.19925593035040576,0.21788105189734994,0.14444864495125934,0.3237185136444718,0.9242675593459277
1680,-0.8724263597331633,0.20475502803082035,0.22300680995694827,-1.8334050244776918,-1.6772545951070006,-1.0080390327544628
1690,-0.8739457174938687,0.20315173149386614,0.22381895156608586,1.2748864648037985,0.9906652103286295,1.6591482212402335
1700,-0.8753257822696784,0.20098400125985252,0.22269312591129564,1.5136997464507544,0.5238933850511052,1.047935498443557
1710,-0.8810944306358046,0.1926105906606466,0.21406234287081244,1.2014631803907572,-0.26180634893314675,0.08838499156163074
1720,-0.8636765153520962,0.2095604148296689,0.23219255220940618,-0.11038265389696655,-1.699454702083965,-0.7954102583317012
1730,-0.904543430866637,0.16899901474790943,0.19490897779042196,0.7041841220395958,0.5494543697594337,0.3713225552660367
1740,-0.874078657656372,0.20243981776309128,0.228514239274236,1.8209129835281344,1.459104700992758,1.697909259829347
1750,-0.8634269572018661,0.21321516072985572,0.23567044581876995,2.2280444723614403,1.9734367603099332,1.6564537326053608
1760,-0.8458184340745586,0.2356513413809623,0.24783837332139427,1.2602028582563056,1.3986830884086854,0.01887389467521916
1770,-0.8855181050793975,0.1981331131087439,0.20519793631308578,-3.8173414136607966,-2.9237093285796276,-5.30489009568013
1780,-0.8886660928639184,0.18997150183303463,0.20530741602602648,-0.3448353232258572,1.0621952116137412,-1.8213530376157008
1790,-0.8667249997113573,0.20623228619618833,0.23535547764226053,-2.988290419878946,-2.4232607407055013,-4.590601531079299
1800,-0.8560654499179393,0.20760865904971743,0.23986999577340487,0.9866966975197544,0.1153834422093355,1.6823453852813175
1810,-0.8816066475229525,0.1928612741513502,0.22087549337525914,1.802531699526313,0.21015570650523296,2.623057203992613
1820,-0.8631455418825509,0.2091131297368013,0.2343533247147939,1.4910068512627324,-0.03258034514148672,2.8260651798162972
1830,-0.872388894237011,0.20491618813811688,0.22335367753037208,3.4991251224440774,1.9080699805186117,4.2256098735034495
1840,-0.8553591756921696,0.22867048482549918,0.24018774269529414,-2.373611983768709,-3.5410916343957664,-2.126408866191175
1850,-0.8627078675743041,0.2229962456624832,0.23341888469472413,0.9197593475351818,0.4272383427999643,0.9356482801202863
1860,-0.8491905263418568,0.233108429631566,0.24906563459110673,-2.5910648095751547,-2.9335601377375173,-3.1002953229178414
1870,-0.8847633899584029,0.19285487716842592,0.21302672861724273,1.0843531561419189,0.6221712669865099,0.7593557460494909
1880,-0.8572834829591701,0.22280582371221364,0.24071908310713752,1.794184052054199,1.3009671050755316,1.5854808536144362
1890,-0.874140805055061,0.20339539157317496,0.2226854504197167,2.3067588013049964,1.5222892242495565,1.5481205788147343
1900,-0.8718175541742856,0.2035306778590582,0.2239690054262315,1.8530982190252794,1.0865972691490802,1.3662248698347539
1910,-0.8721276652552371,0.20396542514868665,0.22297256743071492,0.4484322191552319,-0.16434379146836328,-0.06162728817917765
1920,-0.8663548434005905,0.21361883073677007,0.23185913675806952,1.6595856215948412,1.028314324957942,0.8560289956723708
1930,-0.8863296665145297,0.19392842117545733,0.21777506150754153,-0.2578062412659915,-0.31302100380678544,-0.567114527199777
1940,-0.8943329258737903,0.17646198777689034,0.21113450743636403,-2.0000650945284764,-0.032803481398093304,-0.46410641671596253
1950,-0.8672428229982063,0.205909518677909,0.23267577744756363,-1.5948506980447592,0.17697257761261698,0.6021442776482193
