time_ms,ax,ay,az,gx,gy,gz
0,-0.8243485123955168,0.1915333007877621,0.3643124449294863,-1.3711675654122755,-0.24076785161322506,-1.8434361968402837
10,-0.8109561454672507,0.2113470153711266,0.38522720299275776,2.5578035203910847,0.36108458530202636,2.293754735573833
20,-0.8350349024396209,0.18956680500208503,0.35556209494065816,-1.5640812111593512,-3.309385797394499,-2.1331436631717264
30,-0.8565375315366133,0.16822825112567083,0.33583491828331746,-1.8534533939676467,-3.0355224176474302,-3.136367036479161
40,-0.812464074307918,0.21003038139657773,0.3775392880621381,0.3592691459229596,0.2219473126907185,-1.0484277307116514
50,-0.859525164152402,0.15751402459461214,0.33276354591672574,0.23664861219444996,0.2942647731182027,-1.1732753754723184
60,-0.848315408644605,0.1712520466500317,0.34041058935293544,-0.6951196365667764,-1.0715177646786325,-1.2359513987423167
70,-0.8268122862318427,0.19793450862256953,0.3597490665723082,3.614265188846254,2.7027582175545843,3.620647980529061
80,-0.8521511751010409,0.17460524590075407,0.336133869220616,3.455319682380944,2.614927073949448,2.299096164885178
90,-0.7785709235139239,0.24805371527203884,0.41248461005664283,0.2812197288802203,0.6421354542718676,-1.2671843953400663
100,-0.8381690962757518,0.1855579134295601,0.3545979573703286,0.32936375212184144,0.9533372148064392,-1.322532566646968
110,-0.8622588741343525,0.16064757417484074,0.3303180717707963,-4.233845756791386,-2.6614345265473993,-4.928779448977821
120,-0.8520534459519699,0.16496934747464642,0.3416629047590656,1.9040104287622128,1.0590210141683105,1.606331509368471
130,-0.8666519158117115,0.1467017762983958,0.324979861279046,1.9752936651834787,-3.930556112725963,0.6354635366259953
140,-0.8375253769917738,0.19869332147611896,0.36775170530237955,5.698973445449468,-2.0712455370645495,3.64575482517594
150,-0.8502125861724504,0.1813282887893773,0.3577973578692834,7.500611630183589,-1.6893683642665307,4.50311283006514
160,-0.8782260656172777,0.19204613296501477,0.35270148209702823,-3.402142837365701,0.5059451660293572,8.275504160534709
170,-0.9569543536109213,0.2087869028814906,0.40196490120767786,1.2815702457247398,-1.0658815285734202,15.170798910925393
180,-0.8912395749139834,0.2573131827093729,0.41709468297701974,-0.3859541883218738,-22.41597690799712,15.63834481267748
190,-0.7724817669443508,0.3077302863757083,0.3409254209071768,-7.100172565492507,-28.328745537526014,18.93017110887683
200,-0.7163077664838012,0.2952473756425142,0.35074423957924855,-9.936502290734694,-21.06352929175456,21.98666147273656
210,-0.6737276820054278,0.251444813005835,0.33209420357387204,-16.33557604626002,-15.653398884453878,16.055961914462447
220,-0.6759013681258093,0.24110007770499284,0.32031382504005307,-24.689290967795316,-9.354180543890559,7.997633748540984
230,-0.7181039712948226,0.2723074873385856,0.3067364710037915,-37.26437474332474,-5.267229170242603,-0.4808857759433134
240,-0.805189660600903,0.15633532838345218,0.3405713693200037,-37.382238259942284,9.12529208245059,-4.743387500374239
250,-0.8705816668148219,0.09651465767287759,0.3467044727427524,-34.13599753278992,12.409337999607452,-8.009552323606908
260,-0.8407495203006444,0.0872502728422109,0.38576769806598094,-33.52719378297977,12.226509801747325,-11.876284274791676
270,-0.8420784237643448,-0.018421823260039077,0.38059762066102415,-34.05074082316163,9.430282803850154,-20.54100198872378
280,-0.8352477499966506,0.012781266724465883,0.40807198666293987,-31.88554156485889,8.206166803468621,-27.669438727673874
290,-0.9720766610273505,0.10600311691974733,0.5092196620279293,-16.563583661088852,0.4167128790846839,-23.107745459337586
300,-0.8420333191728329,0.23208096151353869,0.2970328820222017,22.938741033273686,-18.176654314448044,-7.926105749463496
310,-0.8583198178675966,0.24176691130957073,0.2925081709699329,14.554999113899646,-19.873215515943173,-6.222893675922178
320,-0.7763824293665194,0.06481580583256599,0.21058727320516368,12.63793769303157,-17.984905334088733,-9.864835936615991
330,-0.7949884459680213,-0.2118770158959738,0.5035216227486017,16.644200703675175,-11.33264626675301,-14.143053246141351
340,-0.8180155959488694,0.00950964192149549,0.552123110835402,38.07979023573318,-10.724508262662352,-8.686917988964153
350,-0.8808316546806813,0.2845372306753506,0.5409422744783017,43.65846642214626,3.35211028521788,-0.30848566914589504
360,-0.8549570093991904,0.26633882048503293,0.3555824343823069,15.100172998711706,19.237653340098966,-3.210398476980539
370,-0.835674430037493,0.48865615122028944,0.10078935864180197,9.416293982902708,30.77943490774315,7.266727626483504
380,-0.8137664545807649,0.3959837622233509,0.5720344294145756,0.9397210395906732,32.35823795292128,10.92562152634773
390,-0.7509967034136039,0.20445167807151451,0.6874418127795074,-5.610050163212688,34.483990742937046,10.82634498929092
400,-0.7903616549274111,0.30124663993447803,0.5247900871571882,-13.617163428213674,30.23895002709425,14.686611359600056
410,-0.7756010525432274,0.29895898925649433,0.4533489789653669,7.6508092092641276,6.307177974877477,2.0120189397664827
420,-0.8238823704813097,-0.09659750840483275,0.4256890903187044,12.390114783112393,-0.7157833196107946,-9.415983791170836
430,-0.8904604002215586,-0.08476629192295952,0.3678213374676093,11.124379839671931,-0.7262379636450732,-4.989011606503052
440,-0.8603635073044161,0.050060389461920374,0.34076355616920057,23.7017598311421,2.622894030644173,10.420496778619507
450,-0.8227181593103562,0.12270027057850483,0.3829774463169121,35.54744764007167,2.780891034469837,17.453918746609553
460,-0.8408931536701181,-0.2296816363050961,0.06561876103148162,16.403434805316042,-0.31257453602761176,-9.852670558953122
470,-0.8367226208741948,0.2849412158880207,0.299985570370885,36.078791009255404,-7.128473092309793,-2.202041436087475
480,-0.7975015313300019,-0.03440653781164185,0.4141487249180945,11.335368793852641,-1.785272118897402,0.4412490175497703
490,-0.8646585472092874,0.20207153858404037,0.3235195914058994,9.857045508356283,-4.241027482429943,4.952715827977984
500,-0.8191814092141668,0.32520275079759975,0.3324248423966921,1.106531600425663,0.522053319148883,5.571305677560524
510,-0.8530667407206419,0.18221015741760918,0.3457483334743252,-5.460443586617808,1.3314628500056038,-4.654971664470103
520,-0.863373180797899,0.1677317449717579,0.33295477674267293,-2.5449864022475697,0.7115306436778183,-8.98037423383521
530,-0.8359397998654615,0.16195120476606706,0.3525360803158842,-0.7526913506314948,-2.143635738521604,-9.43023090646656
540,-0.8290037234656851,0.16277466161331372,0.36281008166905276,-2.3430732728880166,-2.3596528417620286,-5.06341759759742
550,-0.8610109111642343,0.12163370161189928,0.32655766979060136,1.48105506056732,0.34147662569166914,3.0411121973095807
560,-0.8396375151986091,0.1540161202869019,0.3543282918755159,3.63154848004272,0.7758029264537527,7.233500574579778
570,-0.8376677166397839,0.16993682745045893,0.3565057936217607,4.235367725697781,1.0584017682698874,7.54718744116067
580,-0.8359416712923758,0.17870676416799222,0.35370311005639465,2.725754665165402,0.7020987251178165,3.757647631982896
590,-0.8333020868499066,0.18112895767740808,0.3512333000956135,-3.1420791864076163,-1.198896733345934,-4.84983451198285
600,-0.8683734437620411,0.1341600031339638,0.3197468679921735,-0.921070291639686,1.279221741068091,-2.1502058495453285
610,-0.878041133652341,0.12239695592594838,0.3098793989947744,0.9932948254425753,2.116109352247376,0.8225184360910403
620,-0.8408894691286212,0.16169820669162316,0.3556893938548744,-1.5220227580637857,-2.396583549854949,-0.6580084380994169
630,-0.8636295720111108,0.1436620524640275,0.3304576786195369,3.291694367573597,1.1931005177689007,5.07703011935867
640,-0.8590549558073577,0.15220036856839605,0.3315041823409006,1.3840629672977693,0.0957525538902319,2.2780334447129826
650,-0.8660052994693216,0.1520468907555204,0.32687845379321373,1.0161694024096082,0.7918126110994492,0.7393946686617331
660,-0.8370496636364217,0.17655940819639956,0.359382958798426,-1.4321297156721404,-1.6986266109913735,-1.9951970426728165
670,-0.8574837769146879,0.1513721037162849,0.33909686508839065,-1.5449115927525818,-2.2406183958798747,-1.6086345531707718
680,-0.8457841620137035,0.16041325970459724,0.34420466326762,2.6394005896607426,1.7307033597184824,3.4948537756023725
690,-0.8758448663462867,0.13590128736798252,0.3153951217110834,-3.222057028337853,-2.7667463794301796,-0.8649434527731779
700,-0.8710503031043222,0.14685412588646624,0.32364224732978036,2.3964580684374823,1.6330976938610795,2.337778007637012
710,-0.8518306253886817,0.16372268622007355,0.3380667399228091,0.5646439767906946,-0.14564561115344923,-0.11559385315385645
720,-0.8702335962059732,0.1518013600978501,0.32658168915077657,-2.865081551549124,-2.2886270010176544,-2.902394590823286
730,-0.8646678287600025,0.15191666972225878,0.3235260773712742,-3.054812791923167,-1.520026021293621,-2.16339495198826
740,-0.8499685725973946,0.16153206499999856,0.33272197208636634,-1.1229950697865676,-0.04235291594277503,0.4181451653345025
750,-0.824525554706152,0.1772516202281665,0.35674248510938317,0.8940398732722558,0.19461102886315568,1.9248458767658378
760,-0.8393998005317009,0.1730343166248951,0.35208995421456885,-1.324298144425256,-2.4824108682695285,-0.47731531862572885
770,-0.8413836471825078,0.18189690574586345,0.34551552627900006,2.7529570399385728,2.340009407307507,3.202986828683441
780,-0.8226410493338513,0.20238382143394498,0.37097109159366426,0.7480839954986784,0.199948398065406,0.486481964518921
790,-0.8506878031256719,0.17466490246942054,0.3435938754282951,-0.9620764878939148,-0.7309614665431773,-1.6288066413195792
800,-0.8534316386770487,0.17207624370512198,0.34277135110196844,-1.4126301268300931,0.10349742277023705,-1.4605491010593572
810,-0.8421548621140925,0.17860903031608,0.35177214477538044,0.6258831544853702,2.147576261598484,0.8282679809366147
820,-0.8571450068471808,0.1563688363493933,0.33055010328313184,-0.0034163829225850595,-1.528045586428308,-0.2512849104963606
830,-0.8659135797191597,0.15233812995981041,0.3217644253879969,0.4337251375922786,-0.6541706271012933,0.8905697154035765
840,-0.8553716541427279,0.16546230254766545,0.33130355275399626,0.4716090161989741,1.5803707112905678,1.8898962324237363
850,-0.8509439948300842,0.1714242422720682,0.33602279897752163,-1.5320793926162364,0.6934338057106941,0.4522172512359378
860,-0.8493218194129878,0.1678365924416374,0.3445381031269904,-3.098782347401701,-0.9762732193494728,-1.5522095711057597
870,-0.8205999115593543,0.19441266797201523,0.3757113025363819,-0.7080024976099003,0.12698095550162827,-0.07966982649919423
880,-0.8204227004315505,0.20223790458534724,0.37408720498095627,-0.9966161956385455,-1.0248765620756877,-1.5160525439700212
890,-0.8504311669397281,0.1721588326333751,0.34402435359191336,-0.694750424867657,-0.22366127454816553,-1.240362259052885
900,-0.8282137022054559,0.1912922928537381,0.36365191290837373,-2.4975241898854468,-1.8706204684871781,-2.4857642658888577
910,-0.8523872028540678,0.16223571377072593,0.33863980923689146,-3.0505524093751863,-3.1366465020157013,-2.5754956090179877
920,-0.8269301345255498,0.1880500960296963,0.3614668631817656,2.2960424405563096,0.8197503238930621,2.675737902783336
930,-0.8502513571460321,0.1694067901993931,0.3362106408606431,1.663854738054639,0.8654719969239704,1.7453386155543957
940,-0.8789965717398771,0.14034142513951814,0.3072767827333473,-1.1260860009630298,-0.29028750542881754,-1.029751377731302
950,-0.8359774716840214,0.18245167521914574,0.3528604328377946,-0.0912255881512074,1.2400317065546504,0.10430439947508874
960,-0.8248498695870354,0.19328986095290177,0.3676411478199124,-0.7835355728933534,-0.12102713171900142,-0.46843827974216457
970,-0.837558569190384,0.18280866006127827,0.35675933116278635,2.234780333960015,1.218578289336521,2.0650873566086485
980,-0.8618869158278448,0.16054255176831406,0.3292548857242458,-0.33464651352441654,-1.980153109656885,-0.3660191739479439
990,-0.8685174321245202,0.15611438992167684,0.3242770673339559,1.114125826600971,0.5771996553804886,0.6042269303736181
1000,-0.8305549010376332,0.19292003413663456,0.35791786447616514,0.4068366973862776,1.947641206822694,0.5412284979073374
1010,-0.8557340969875097,0.16335499542293241,0.3373083245724129,-1.8585962935120248,-0.5033497790444001,-2.0853565236450144
1020,-0.827607737779558,0.18706891044535204,0.3555379557044375,1.0934226309238508,1.16367345669022,1.0437234522382541
