time_ms,ax,ay,az,gx,gy,gz
0,-0.7771215725199937,0.1802257540970995,0.2684233932985213,-0.19936483513200814,-0.23996099285241268,-1.1375027156903554
10,-0.7744460800108319,0.1841238140568224,0.2712820119624925,-2.1429890490488366,-1.9082585700291599,-3.1861394529420233
20,-0.7900884831058578,0.16379080576701777,0.2494132226103237,-0.255032629792885,0.3267535647575939,-0.8751656264468545
30,-0.7870482958417151,0.1658517706060419,0.2516452912765914,1.4392033653628933,2.003998713148335,1.5566882812961809
40,-0.7800074458049603,0.17527015061682136,0.26193809985842775,0.5857490147312784,1.1468639370025095,1.2535416972320559
50,-0.79534547041465,0.15941662665446354,0.24713944368350713,1.1844510589646398,1.4961434931744952,1.5947602713087718
60,-0.7812222537258895,0.16965539134095625,0.25847391283834287,0.7494600155185207,0.33353937295490466,0.1328173107614251
70,-0.7937788755743505,0.16149323615282005,0.2501661652909449,-0.45473269677647765,-1.0637229041567073,-1.6441124053778093
80,-0.7819458119887178,0.17376239940406696,0.2605668319545574,1.161387681692437,1.6031883338839963,0.40560812771773913
90,-0.775755670562052,0.18420288231215634,0.2741957071836758,0.846609087859045,0.40011964642688025,-1.0848539948231053
100,-0.7847526556387822,0.17185286006452888,0.2613627318569234,0.4347965421028499,0.04027869827579866,-1.1730482601206504
110,-0.8135554693937775,0.13820425565465014,0.2258292538521133,-0.9825806225295758,-0.4006716559929685,-0.7237469743221856
120,-0.8152942500633422,0.13791203688140863,0.22377197686909572,-1.574826245693383,-0.0114089108520396,0.01498906469204242
130,-0.7883114801723003,0.1718360110105492,0.25422358245433113,-2.846260677762584,-0.7796681112900117,-1.219659824227952
140,-0.779166636066461,0.18316746317499258,0.2615475926261373,-1.7434280848485573,0.456571557862951,-0.1977471632078669
150,-0.7875459770255481,0.16347935930688773,0.25409977679753304,-4.377224914879096,-2.8793551539798665,-3.155610910258368
160,-0.8074027781735167,0.14510922895121492,0.24085888929964736,-2.9845865795146267,-1.6856942010805664,-2.603201232313304
170,-0.7893198087660295,0.16354668159123692,0.256941915266,-0.25486432098650247,1.0972493439488593,0.04644241374163749
180,-0.820774476098012,0.1326524358910638,0.22412252163107993,1.7031012105229677,0.9896527581033195,1.266256814330526
190,-0.7746597876074917,0.18326662447682787,0.27818587806000245,2.5394737910302285,-0.2113968812720598,1.3616067991295033
200,-0.8038453280738507,0.15638712190068088,0.2535495298247314,5.707220754661025,1.6486811795723286,3.956317857184368
210,-0.7813818924677836,0.18099349983388127,0.27645571124945906,7.561574868054057,2.2136920557950104,4.912484591634202
220,-0.8151570085091858,0.17417734117919248,0.2858134480750803,5.825976880327379,-1.6236109814117248,1.5487427811341399
230,-0.9197691700905812,0.1437505794762276,0.3513905451598635,3.1454218875638746,-10.378962152357118,-2.987791682715132
240,-1.023699818834984,0.2722700859893888,0.27396713054969124,2.275064999329215,-21.385658185314444,3.8990535312041605
250,-0.7554123393331689,0.22263351871541542,0.19821434255912096,-8.460995656643101,-24.480635743770947,13.263753755110958
260,-0.5918919412490375,0.2487031326078108,0.21209932103635415,-11.915684457776779,-15.07938683111716,20.235724533673977
270,-0.5880066208307312,0.26458833018640526,0.24518918475710227,-12.0081774840136,-2.7452203977171963,23.070917001170187
280,-0.6090967534176911,0.26748213218416084,0.2745852118398456,-18.453046153671583,2.9219973299353335,18.84234881698997
290,-0.6586877572042129,0.28125899084483186,0.2671873604928142,-23.368725417757595,9.564783756261761,16.21867221153204
300,-0.7201029463914362,0.28794576371030584,0.3052808836040466,-27.35658899583815,10.493988872272983,12.255392110325067
310,-0.7847655611263095,0.24259958358814246,0.29599071400242066,-31.820725707356125,9.430409323606444,6.916134976087443
320,-0.7536365642383366,0.19589216960319616,0.2699229514363583,-35.41649798236385,9.411857173049786,-1.2542609134068852
330,-0.7617628664037056,0.15972785204185685,0.27323270694563556,-37.724901409030565,10.838098035611642,-2.8688793782243525
340,-0.7734058070301494,0.14809001894609597,0.29151649792905526,-34.25282369284341,13.831694490729294,1.2470797572113606
350,-0.7838662049158124,0.11292579839874418,0.2813844543801021,-37.184205704577934,8.52792681031364,-2.5595579175483794
360,-0.7780493781311547,0.04501740170018147,0.2728341234525154,-32.79495110950172,9.28526290510005,-3.0582707106175926
370,-0.8071102480062134,-0.04283894884176161,0.28905126713538914,-23.710573435155567,8.89376761613575,-7.210196476643252
380,-0.9369373393689839,0.02745059257003777,0.3476461032221083,-20.598394981784743,2.7763970709812926,-13.63294083478529
390,-0.8842180681069041,0.01847962272706752,-0.11807497690839652,-28.53248158022269,-12.165913702775969,-0.5795650064984861
400,-0.8440543368764104,0.21868085292099032,-0.16460889916686355,-11.685812751987891,-16.724825546398957,5.363399366297754
410,-0.8461844010983008,0.2143985899835551,0.012556375620916148,16.216476378088508,-12.827228843174936,6.491974018481946
420,-0.8188133541006077,0.07807001749274758,0.16650173483911676,31.894509613097945,-12.446407467243978,-0.16989847518694107
430,-0.7470654607475425,-0.10608287379873393,0.20449501197347014,32.21190656033349,-14.162136454890142,-12.684211457002355
440,-0.7699326992863726,-0.16759313178388396,0.09497792916982535,28.07718595069741,-8.152788006452553,-18.91495648178364
450,-0.8007136703807745,0.5700560114240076,0.040008383733823524,16.707210856833736,3.7597276666527115,-6.558718709280875
460,-0.8949594684838224,0.25256629324142926,0.032766693889813917,-7.461621215774578,43.44739828281606,-6.096049942923751
470,-0.8045108873831939,0.32131867485718973,-0.20281075474463464,-33.38342433340189,63.572504409960665,-0.44536199039378077
480,-0.7723526993926566,0.25033528278992045,0.41255475657833934,-15.539404871624372,64.75321663788806,15.66330556421823
490,-0.7270995231418843,0.25288461485349645,0.3485205245279721,-32.36693341234332,65.66124535867685,13.890722425782839
500,-0.6585081580537034,0.4210894150414584,-0.20539892985366903,-51.120612542952806,69.07337559113624,12.844735908383086
510,-0.49538102803642425,0.7315404252086308,-0.47192762214120215,-53.126597191647534,61.81693270129908,17.496562440123768
520,-0.45480713699886066,0.7258951658226421,-0.3976510467609571,-57.534677089429145,40.40944210159152,10.251283710151505
530,-0.7943355736636863,-0.06281320344433211,0.2946254807394145,-2.426830081657765,-2.2226920783760282,-20.63273834869122
540,-0.7646256590449221,0.05158221262832432,0.299393231738749,8.105727582209932,-2.671552747250556,-6.607403074043109
550,-0.8164710142608965,-0.033284301164008885,0.23743351648407554,27.651248927617946,3.092617945028735,10.654785070083856
560,-0.866261888411305,-0.1802875343087429,0.20759028358041243,31.507037047623598,7.206339608823735,6.51309077464293
570,-0.8363379924889908,-0.21033312757076994,0.27740107800941727,68.6192074866137,0.45440238659206106,-1.0988128861552882
580,-0.8327086266720334,0.05893889732849725,0.23600651312836907,91.67575834235495,-6.055220970492038,-5.5065954623696385
590,-0.8901314469762153,0.36947335016349836,0.024356395600685442,53.56520966139812,-6.611783146768734,-11.739060896407786
600,-0.7373839669483335,0.09991962130813496,0.11945578602118488,45.82825637271374,-0.16548474648362066,2.327105006957602
610,-0.7806847312714068,0.2702754511868148,0.28715334512253454,8.517362891988196,-1.2000984581572798,4.330041286872157
620,-0.7997501233988996,0.42860574458878964,0.21776970113333502,16.86415083875178,2.572290704552626,5.516016673653726
630,-0.8041224326487216,0.24414402722014872,0.20708183149220888,-2.4059112141552466,0.8943657790772106,-3.1371799819151147
640,-0.8118376194723567,0.15192042359907132,0.20474998845047382,-10.676573563800403,2.1636392881734916,-8.30701299631035
650,-0.7860939608913724,0.16793144517727082,0.23604037454993823,-12.991588865275274,-1.0833393954095585,-13.252571688157978
660,-0.8027444642722951,0.13193820060318232,0.21939580517184123,-6.255273111097617,-1.0497088493030744,-7.317055716356862
670,-0.8111140754338668,0.13009200455425501,0.20354302410312358,2.6666614079139865,-1.5590246748300551,2.699802026660683
680,-0.794707982775408,0.15775079137598558,0.23311923025938486,0.6338079531962157,-3.025337284935815,2.3388074977223203
690,-0.7907768359037559,0.1632053564081139,0.23432230051590713,-2.827179182970339,-2.8732801404302153,1.0408818413892447
700,-0.777373750291305,0.17305235015428955,0.24632323736110312,-3.64991383950257,-0.6483628398816742,1.7528521087765276
710,-0.8173911418701736,0.13478987581771215,0.20924693076624637,-6.790154281045799,-1.9295204218337871,-0.015095154841263447
720,-0.7846742054225825,0.1577715154116682,0.24023952041549812,0.04751050859592443,3.5210151453398404,6.322902979418418
730,-0.8023112992783662,0.13275886001879023,0.22104752752255988,0.06925261335334182,-0.7589843433306415,3.1852578632631463
740,-0.8115995974561268,0.13024181695982204,0.21586425371663223,2.6135267577114005,-1.6263705667771091,2.4812007427038547
750,-0.8128587287739985,0.1329891203135647,0.21771102597649988,4.205609259822935,1.4925498028588307,4.908111749006995
760,-0.8120108912341035,0.13673322784966965,0.2159908415857295,2.7340136895338354,-0.13340524636100998,3.50820559342775
770,-0.8135253700036701,0.1332241788288775,0.21476169709513265,4.457980866738708,1.3679670896343674,4.897371234918128
780,-0.7967803357108536,0.1605677585895148,0.22517110363614476,2.509240541156157,-1.5757195523095595,2.6555718681459344
790,-0.8143133211683024,0.14274963895843568,0.21274497658961639,2.819542236081391,-2.299968436078972,1.8422816197697278
800,-0.8123315771011089,0.1445806891562386,0.21515042746249305,6.686436939283163,1.0436998720890744,3.6992097083098967
810,-0.8082745639665255,0.15418183537369798,0.21486462007282942,5.749115652599215,0.21621420682847522,1.209126790913722
820,-0.8143524834778829,0.15106627282232743,0.20835095506133822,5.770878913471673,0.6139911446668948,0.9986095208369575
830,-0.774828776739388,0.18618028644865725,0.2347555930979284,3.0940513770755516,-1.9203825399254293,-2.3470811484737064
840,-0.789540371911158,0.17599012911268264,0.23394534877622747,1.350898662673764,-1.7157194082938145,-2.6324734983742513
850,-0.7893964087617914,0.16918628760809393,0.23243033686675302,0.9257267193308487,0.03408320553125743,-1.0169112160152465
860,-0.8008167944405381,0.15141221127535937,0.2232176305504757,-4.643186917117349,-3.9357546028692694,-4.264168716953267
870,-0.8033237204556134,0.15368985256419979,0.22396226822673895,0.08652097200131614,0.6728451469280938,2.1666863054116203
880,-0.7928783610820802,0.1685529877589497,0.23188720368801158,0.5059902488962356,0.9280073183490568,3.1447785386560216
890,-0.79477199692985,0.16347614012957665,0.2250679311362266,-0.8313570328038471,0.2613113498469772,1.3029874405119533
900,-0.7746313745376714,0.18252040792505114,0.24951525539082875,-2.2278245367550435,-1.0629029943110246,-1.0613556819386116
910,-0.8016008442128024,0.15965847813957654,0.23050789806676145,-0.9581767216835891,-0.3058367899256337,-0.41948743765917434
920,-0.7885967724225817,0.16237203929667465,0.23985990124443804,2.934904699887949,1.1450756443775285,1.9553684970872944
930,-0.764588281031221,0.19557917662546545,0.25362329679999474,3.2859054741339686,2.1644621654195237,2.8048122064982186
940,-0.7948533163006163,0.16791815873321503,0.2274542118872847,3.774105969500727,3.0127129470209417,3.403093940593226
950,-0.793712417957204,0.16769402519597967,0.22842832182372547,0.25868780629505334,-0.9153286900247295,-0.3601352843218141
960,-0.7795024829526591,0.17899123775902778,0.23976439516632755,-0.20772274130930884,-0.9264861108175362,-0.33470987944129316
970,-0.8071765284484793,0.14812698760244217,0.21659171425218335,-6.127874372076345,-4.717951602744742,-4.72648308623324
980,-0.799987726887991,0.15824663778698828,0.22388030609539208,-1.3581045182965288,1.4912563753293075,1.056086000348974
990,-0.8158165170552946,0.14100701085664097,0.2078621564315784,-1.6445669224560417,-0.05309724923091674,0.6587553489320437
1000,-0.7890243938368526,0.17171404535969226,0.23690691657010854,0.010948683062055875,0.14270823301963698,1.0740264590275426
1010,-0.8156584993221586,0.1472222298477447,0.20824347196840148,-0.5202034457005542,-0.7117685642092002,-0.572726426814964
1020,-0.8031332925735437,0.15880488896088207,0.22211975884160637,0.34218903080386437,-0.06508376565363788,-0.4944746641093268
1030,-0.7757115836869016,0.1870514320426705,0.25221389424164564,-0.12587350811319692,0.317014183042129,-0.3621816489636311
1040,-0.7651249239645802,0.1967064575726652,0.2623511991524099,0.7188732985111783,2.3329597091992604,1.8839401189273315
1050,-0.7772744650952856,0.176653152029499,0.24801023369390354,-0.48708444290219677,0.403740662184216,0.9106048616565212
1060,-0.7936444234273314,0.16487906474900785,0.23737634503644534,-0.6555392163732499,-1.1084993145820048,-0.09517620852533692
1070,-0.7982294293117969,0.16623338638059826,0.22641119392430573,2.0260961818396575,1.7981187521446862,2.281987087217512
1080,-0.8028066114358084,0.16013751398677148,0.22245360025071753,-1.5966256882865237,-0.9784194410379983,-0.15242954522830243
1090,-0.7823926912217677,0.18088386668654644,0.24212310447400673,-1.3182306200776643,-0.108472797454718,0.8330800864605742
1100,-0.8051907872854868,0.1553670353461865,0.2148395051553543,-0.2518343586955578,1.0705442283329565,2.2453607522290966
1110,-0.8152455926598006,0.14154626415903726,0.20632651311610625,2.6388199218493114,2.750130444895278,4.359340405090723
1120,-0.8127380612591081,0.1474666709596168,0.21645732795473743,3.8612872842654746,2.2781326938603894,3.888943457582103
1130,-0.8224660374386645,0.150425769284234,0.20290899444251778,-0.6353943219432,-1.409215780854491,-1.023964389143563
1140,-0.8087934962318681,0.1569264017004049,0.21965226113330127,-0.7078532720746404,-0.30882512887248176,-1.19383816631619
1150,-0.8225546692334483,0.13568927940093856,0.20064036223270915,-1.1019176529822796,0.22247961799123747,0.23047755786025262
1160,-0.8177287180049905,0.1357622095932024,0.20671912053452451,-2.2369405582702995,-1.5924395034340029,-1.0401920878080322
1170,-0.788877082114502,0.1698699070666058,0.23592896025522256,1.4089035222961686,1.1333955043543043,2.338800476523969
1180,-0.7809307940172906,0.1854431187249507,0.2467207928456982,-0.11948589046381675,1.303909622350253,1.7580935130537614
1190,-0.7822470959858576,0.18423705594553239,0.24901199089767398,-4.844121590747433,-1.9015538739738633,-2.686855820065067
1200,-0.8016249335593678,0.15746416812772068,0.22689831766181998,-0.7710734840183471,-0.42728329451851815,-0.9368775026931841
1210,-0.7832536641736618,0.17560007279216053,0.23727487861172894,-0.6698551560599596,-1.5906777871325328,-1.9793469242530992
1220,-0.7667384333908039,0.19779825288402,0.2646383708449382,2.50898547892758,2.1693064697871565,2.9210507629734703
1230,-0.7975976492374931,0.16924841724410927,0.22546152408370515,-2.034239936520153,-1.6059647705906672,-1.2248025018242372
1240,-0.7942867249868502,0.17002109859703077,0.23383728567765708,-1.7717653906448465,-1.2536416268406607,-1.323390896486208
1250,-0.7798721396922671,0.1811015738507118,0.24617451875569743,3.304433474655066,3.354223140852661,3.5795064086044173
1260,-0.8024279590802703,0.16138269213270587,0.22216139674058835,1.5648342672306703,0.8451571077760403,1.5234074790368806
1270,-0.7828308800459884,0.18423682862184834,0.2447041122720254,0.3268606192801772,-0.46146503164682984,0.38112021600874424
1280,-0.785952333364953,0.17234855505351376,0.23385850538382033,-2.195252446822326,-1.5366111067983634,-0.601729645763661
1290,-0.8036283373078608,0.16161401644212353,0.22085761324436912,-2.8030468565823456,-2.4865306335368293,-2.9273578705992938
