time_ms,ax,ay,az,gx,gy,gz
0,-0.765251531778058,0.7296118446686295,0.5994413762673094,2.3302769535406904,1.6935215793590899,0.9075540727472836
10,-0.7729627010544069,0.7204131101460588,0.5915102481299084,0.14526656678983257,-0.3125770673657798,-0.5955045136212241
20,-0.7870845718501214,0.7087595291135109,0.5794650266126662,1.0818911148819252,1.0775287373569031,0.9814132660405694
30,-0.7847455237319021,0.7114994121692985,0.5807779556592744,0.03656650401342573,0.45144099263387766,0.3533790504122944
40,-0.7675992678498055,0.7263593757429218,0.5966874612869935,-0.28202564704464217,0.19025407934181437,0.3864697840040392
50,-0.7546158803539711,0.7386714511760841,0.6119583005026575,-0.2256252606086838,-0.019468950750551883,0.5246994952428319
60,-0.7475057159665304,0.751268907014423,0.6237775751790589,-0.7120994380275719,-0.6194589629520604,-0.5021791739394781
70,-0.7782702109921646,0.7222859507671137,0.5881648819471504,-0.5813156820483505,0.11186254706513192,0.0695098295838275
80,-0.7965702871947321,0.698756977484042,0.5713747203626158,-0.6907760233244812,-0.19630586779212622,-1.3254404404808766
90,-0.7292565661620555,0.7691536580608962,0.6393472476941142,0.5963547955202577,0.721084923057431,-0.0003621497712555932
100,-0.7736720000251859,0.7225154526287134,0.5959653626487553,1.0812087620190007,1.0534766795727042,0.6293894288702941
110,-0.7615286034849241,0.7313066096238927,0.6082789178863086,-0.7440580658236622,-0.742095601488047,-0.9355502704740486
120,-0.7480820049758207,0.7474102736499773,0.6191851333422599,0.1594607645308217,0.2041891413511031,0.4650445807223957
130,-0.7608163736758292,0.7380341857852737,0.6015030676332985,2.2562911612829453,2.309275949653141,2.4451683221942853
140,-0.7430837310543097,0.7534538429028736,0.6173146677266881,-0.22923368178118364,-0.5162523216056076,-0.21126421657533997
150,-0.759942045518688,0.7408285314397186,0.6084156598403015,0.34996277541384646,0.4433639346845793,-0.034378018407780375
160,-0.7655311373969033,0.735549141013505,0.6047180004448959,-1.6231320939434635,-1.538111212325507,-1.8498263637109595
170,-0.7800650098641746,0.7184025899077705,0.5867640129035019,1.4063069126237695,1.4720219180580274,1.5702823951890057
180,-0.7978145273705027,0.7078791125924695,0.5739469430718651,0.9313459760563125,2.1177022963742416,3.2143069443482517
190,-0.7755002771355924,0.7538442932701054,0.6180442409053485,-2.0933734419724033,1.7128516296955418,4.986043345046555
200,-0.8181625711782754,0.7277867284503237,0.5941609356379741,-5.291782738045475,0.39921291970641426,5.730093263648602
210,-0.7745861747959559,0.7901955245216409,0.6660772231566103,-10.940409716730604,-2.2864820570889233,6.972333543038773
220,-0.8020884927904398,0.7533628083536298,0.7108689818568555,-16.259443272862537,-10.104682826701858,9.742166613607406
230,-0.7782231051217321,0.7660738437451906,0.6915984708162803,-19.521664219671763,-24.770373199001106,5.5011161012115135
240,-0.7886954947117859,0.7651589898695359,0.6589422619407307,-20.090263824416976,-35.02293061879306,4.178709788565246
250,-0.8041888607773838,0.7199253959028451,0.6189320249774745,-16.76757685463153,-33.23551748935178,11.314768717270667
260,-0.6583263618321782,0.7321875660088909,0.5962519780747851,-16.01575124467944,-29.578246680682792,13.163664208985628
270,-0.655633730941747,0.7193748571403693,0.6367953468375307,-9.080043079709778,-24.364784238206987,8.635989715033146
280,-0.6730252639297828,0.7545643455409756,0.6542514492684658,-5.272243475552761,-22.599789697735652,1.4480259448550932
290,-0.6670724538672863,0.7956913002860885,0.6949344716290227,-4.183256768312844,-18.055583023478473,1.5148620534037884
300,-0.7207809924071261,0.7563868041843934,0.6804740375984951,-2.984238879681141,-16.06802529864362,2.2048331466999462
310,-0.7795051025612618,0.7039709515281092,0.6651951263984097,-11.70036520375377,-23.61020537932172,-5.040597595259539
320,-0.7729278167810826,0.7091432733682843,0.6712085717535521,-13.05688268637452,-22.127754777462805,-4.402389209266685
330,-0.7152913637348425,0.7413332984300124,0.6160991852499984,-4.593018827896364,-14.715857262754469,-2.3539976934637874
340,-0.719138462127108,0.7314564097689057,0.6098953358643587,-10.808614439712617,-9.443702698968469,-4.938873166446159
350,-0.732521525290774,0.7139304627121401,0.6202709499718811,-6.611659814645339,-2.7337765886773093,-4.1615574407457245
360,-0.748435548458952,0.6985771671221346,0.6569321536220298,-8.842320742524615,-2.6030351009745356,-6.695654889460036
370,-0.7339931884211522,0.7068199928565769,0.6920547440263779,-12.456584061518797,-5.968937712004285,-11.380862381176808
380,-0.7513657034200261,0.6863764827375612,0.6671139286772115,-3.6464351859361885,-0.4196274811827734,-6.776552791766726
390,-0.7643219117878856,0.7077536522172758,0.6779022467406469,-0.5035464072547389,4.985828580780195,-7.731606135563114
400,-0.8280769163922493,0.7528424584349036,0.7226695279226356,-16.020383181947498,18.577530435054296,-18.604888855044734
410,-0.8284653403033572,0.7028683891811,0.5743134603025485,-10.630147263246213,0.008575008571160447,-15.922010933532427
420,-0.8258696646325997,0.6514181534586899,0.6093738040731214,-5.772513717273929,-0.5449527347917946,-12.760059582064535
430,-0.7492642287400482,0.7104341991638846,0.6684679227590448,-1.4404665692896934,1.4929843321354757,-10.252570899526877
440,-0.7283231777433999,0.7393081056649473,0.6636381284586205,-6.503796169796838,-2.38040450733859,-12.60494503748303
450,-0.7564261906805575,0.7083979429993397,0.6702210105759213,-12.655773009815404,-4.612046445181175,-12.054151553840047
460,-0.7623250898602107,0.6519218894364569,0.761272147866704,-14.208044249244578,-2.935544614397779,-7.994213286020651
470,-0.7176095324705611,0.5915665834741869,0.866264942172007,-15.387448145984534,-0.7044359266787006,-5.738354626080681
480,-0.7378118061120316,0.5131695878171547,0.8621902693933561,-23.909405850495773,1.3447381756827008,1.808778551033608
490,-0.7050457861764662,0.8164385936093865,0.7869333299514725,3.807206781252109,-1.7922394357534372,14.972545303653764
500,-0.7297092786443632,0.82400084860643,0.7089218676293766,15.643984473762636,-1.7719071362227703,16.85380697558831
510,-0.6920879569483285,0.6884466063872341,0.68763233705555,3.30585911219896,1.467187531508649,12.638735435837077
520,-0.7121241706839787,0.5608532617592427,0.6321660337104316,-15.191752923244726,-1.7048764492031485,10.498698516156741
530,-0.6272909069702445,0.7568615215378093,0.8399677913683589,-7.051949057166693,-12.223025568413194,18.927960939529953
540,-0.6081852876781114,0.6703613370663868,0.6741895848625908,5.356878336397296,-27.408666031294754,3.8623622399939785
550,-0.7992862391669513,0.6479984207062353,0.7455255700571447,25.05063727113494,-26.736184544171547,-1.1701105096047049
560,-0.6928205929575608,0.6549433687374185,0.7068716504591742,17.3550037548631,-21.968080865636615,-2.5301762319915575
570,-0.7074950832382791,0.6940112289088974,0.6154629607530487,17.315495114507378,-16.252483708608146,-3.232546020803783
580,-0.7901623859456454,0.6509458010165465,0.6267804551602449,21.917172166762278,-14.668104641644202,-3.9109518406595383
590,-0.6620111905469704,0.6267518830250789,0.7774588775315419,13.874464938053581,-21.965424897933485,-11.854380358438165
600,-0.6193124141876006,0.7264790212594239,0.5247155863419046,15.977192564265687,-18.142906480919788,-20.89352061242827
610,-0.753242371764147,0.8943424218052682,0.7715813832480081,19.421536026897474,-17.57723894688272,-6.209586863503676
620,-0.7631963158903571,0.8795655439845835,0.7767815915131657,22.853728913424497,-12.449667206179981,-11.353437110599408
630,-0.7758728180923025,0.7586166810962535,0.5713544415465689,15.206778605324354,-2.166594530394598,-11.389309998377383
640,-0.7537999375638992,0.8022844986564767,0.5299876843079645,9.285174528227884,0.015116540271538415,-1.9876249830276982
650,-0.7533454463733473,0.867928391831122,0.6125614341494976,1.6757532172021916,-3.2822669059929606,3.386495771717363
660,-0.7692304048781652,0.762098965972401,0.6128737838905204,-17.4769563253049,-1.4182685439825427,-8.193340820486872
670,-0.7818613700784133,0.661917612303829,0.49125954700241464,-34.417690991525575,0.7376070403145711,-21.14651786242418
680,-0.7942389358547015,0.6797760967181442,1.020197605469288,-34.822802201765114,32.29072808216332,-1.982835017471213
690,-0.7291164288347445,0.8520583854874944,0.2696509458638968,5.7227480315705685,45.58933811254748,14.7342534160853
700,-0.649161979139556,0.8681029913674451,0.1870220960699185,6.78572958252788,43.35120206340475,16.72128880946205
710,-0.6937389700094061,0.7679106244585198,0.5974182730310886,-10.465897932731682,43.34702265578764,13.584116765518724
720,-0.7232830807753862,0.7039060671768539,0.9699652739333242,-21.65834388469733,41.68014995019428,10.016923314678753
730,-0.6916847063867609,0.5513498517921961,0.913966061864501,-13.462045137510716,37.708683117304545,19.800915848351433
740,-0.6931023580403198,0.598647729826776,0.7172866307638446,-16.099452457953117,31.576311822457544,19.447388165949295
750,-0.6874598333729206,0.626954250760211,0.5651229275119037,-4.991891005405732,30.40704336869278,24.78608056883643
760,-0.707499919744919,0.7748580352529182,0.6699423450768095,-5.292260599750461,21.037996427891244,17.81217442981722
770,-0.738258025082108,0.7131346348142357,0.7081697225501004,-0.5694558964212824,17.23414022553654,16.84678686751391
780,-0.7840006727197439,0.5073148755945028,0.6224223606749058,5.186756106582498,20.17210742590681,17.858614357863097
790,-0.7840572905612062,0.4325332783538186,0.5882965194752703,1.2087952303504514,18.699277666737537,10.917777991455738
800,-0.7475873628738697,0.5725709239057045,0.6905302118268107,-10.92058901357344,3.3909254565095828,0.7935836182342548
810,-0.7125325939440481,0.8680562946169351,0.6794323391374589,-1.5633183241857882,18.552446195191,20.11314203141996
820,-0.7698070296843115,0.7983263983032057,0.8511172636929516,-19.17954399059404,16.473399765548063,14.636483932680337
830,-0.7503275558221203,0.7192595342454782,0.7991169281732983,-21.350618740089324,6.769262822998311,1.4995910781592594
840,-0.7416107640631006,0.7071357334202569,0.6869626355772052,-12.79266075461604,-0.016840267203200865,-4.576472092586295
850,-0.7555709005172773,0.8400637995904411,0.5941045174240696,-2.241992311846994,-2.6960691907586734,0.3303993601640989
860,-0.8015089979981953,0.957355618275598,0.4808282463180676,13.136346147431627,3.279382080543117,14.83588066986313
870,-0.727533092796728,0.7297961337047496,0.5920705369516613,17.10015896914806,4.284759566108573,5.396556298570644
880,-0.7463930824790072,0.641786049754717,0.62738483467951,0.21158654585007858,17.27629846841233,12.506786319254488
890,-0.7544856368087878,0.7014510914518206,0.6149104383674654,0.16673408005860196,6.357764970985796,5.213888612039122
900,-0.7458371110018819,0.7460437535677072,0.6245094339370336,0.2618422518440038,1.1123837546358462,1.882477081934819
910,-0.7526218782390273,0.7495327329414296,0.6255636566358037,1.0531759235658504,1.9601581565170494,2.511968278878496
920,-0.7522028845197916,0.7549065899147405,0.6317911536920329,2.6196731350463796,3.627894029944303,3.3425036688353256
930,-0.7677065640820296,0.7347912973751455,0.6153646320216415,0.00568077331245373,1.4533971382715198,0.3296648472437572
940,-0.7983319646536394,0.6943228983043327,0.5709751619842862,2.144238277900207,3.990266771499509,1.9987026596516144
950,-0.734233181107312,0.7458604535590903,0.6308370837409963,3.287563405599731,3.92684474968821,2.821792652398825
960,-0.7842816640256173,0.7021562541832818,0.5938515137225623,6.174180480748931,4.6533445092574555,3.2905297272307212
970,-0.7661807533507115,0.7254623835490539,0.615754904684189,9.101124854417215,5.605162236557398,4.674598598555201
980,-0.7555686384611408,0.729039484156745,0.6174322415936035,11.515999045375633,7.7073078238441965,6.957153635083879
990,-0.7949112193564293,0.713733516231062,0.5842958572031857,14.606539091426292,5.613114213324198,3.0385526702921046
1000,-0.8196983017214846,0.7618526409266075,0.6142676250756872,33.908162286888704,6.503274757683025,-2.45530230354235
1010,-0.7471053018789264,0.45289593297088043,0.7045103823615018,24.68093684078086,5.2106292172417685,-25.590562024161258
1020,-0.7954609388254069,0.7168116469816846,0.7325803147468748,39.88251795521929,5.831148547645941,-1.8236081330770757
1030,-0.8155132283777766,0.7388064089950909,0.5264544504592464,34.68659577305913,-1.6498755682282533,-9.739952866227606
1040,-0.7434067492853594,0.8336937105870657,0.4014451126917537,28.845983205356802,3.3496984890116623,-3.0698609641909225
1050,-0.6949314598735459,0.8091100168385685,0.5020239119981295,20.74039111671912,0.28519263899223934,-4.291449026927946
1060,-0.8272485321747851,0.5093390617545357,0.6448319992075573,25.50156773915269,-11.230089467805715,-21.253723195538615
1070,-0.7539562890940684,0.8330603766812504,0.776078396589652,50.98490901785281,-10.627061828160793,-15.381326949365643
1080,-0.8400875989287307,0.9264757852374589,0.5076476644824206,19.35863458774396,2.6752237486682002,-2.6800545134114575
1090,-0.6990174728421058,0.740083516788614,0.5183700245032796,14.97389660126781,8.474853831118224,-18.42547747635816
1100,-0.7306499480973115,0.73831543665265,0.5779902751304713,0.8081643170955531,5.057191409726217,-8.68277248249989
1110,-0.7618970702558133,0.7767632157681229,0.622007165232997,-4.812398037571125,1.3392751385326929,-2.335983242138942
1120,-0.7769707418915253,0.7319820730597546,0.597996978128997,-0.19059191215056348,0.4948879511673076,-6.836904602828698
1130,-0.7643713242431374,0.7460692331880752,0.6116797136666753,2.2171187945342834,2.1056220798229166,-4.038807021536269
1140,-0.7833401101698056,0.7147533054222917,0.5788684629345034,2.23598074101447,4.118135331261712,0.4269104184924437
1150,-0.7782135675459418,0.7192824924981682,0.585970426050977,-1.476562085788788,-0.05007467714885583,0.08148491121726376
1160,-0.7767158799036266,0.7314063518727969,0.5909498169936712,-2.1617168264880524,-1.3071650615724302,1.0534672594091967
1170,-0.7935478717625783,0.7124962892771347,0.5771482023613095,-1.5410459966898595,-1.3895091019785084,-0.5250394845796225
1180,-0.7985158136302136,0.701761189021711,0.5715791521692243,-1.5402497307286873,-1.2254939124235151,-2.3677599931679656
1190,-0.7661343944523297,0.7343526501724512,0.6017610511726283,-1.0720157025499284,0.12350316493183039,-1.4065717019903277
1200,-0.7936788166920947,0.7092792520719737,0.5749813123105698,0.8819099979959955,2.3110969099893786,1.0339114352069165
1210,-0.7732778398528075,0.7241207693230582,0.5875721837062347,0.2443540357336481,1.7380744608513383,1.1208282083040155
1220,-0.7585466979090463,0.743041874415262,0.6062861972218587,1.006884971623804,2.0247746098357533,1.8336267778433804
1230,-0.7631794622237311,0.743959455117586,0.6051717174804068,-3.2398262915495333,-2.6284272771478303,-2.284486078244873
1240,-0.7607014223471824,0.7423974354422804,0.6045315382517455,-0.7230089413235915,-0.5362430781205253,-0.368201116117341
1250,-0.7546530155751853,0.7425393798134123,0.6074160826810109,1.642596563464696,1.7329060248153547,1.3096927116375734
1260,-0.7767159761705592,0.7189969453516629,0.5863064707580765,1.5872441523067053,1.8501634267257876,1.2495419571748316
1270,-0.7634630579821406,0.7275788909539248,0.5972833474093513,-1.374475870547848,-1.4597517306736882,-1.3725285309850874
1280,-0.7647867692227788,0.7375975646484679,0.5996992791813035,0.6901886244371174,1.0706291739423117,0.9890911116164534
1290,-0.7949885384809395,0.7117494675663942,0.5723985874181979,0.6705307775404966,1.0841962917256032,0.8876380273197956
1300,-0.7665095300602723,0.740812892623959,0.6034848682655874,2.644051351564952,2.7300156686111627,2.8824634944591407
1310,-0.7826377517533195,0.7237733059103367,0.5833350180968708,-0.8185313055190263,-0.8551433871518055,-0.4662356314395989
1320,-0.7373799145368788,0.7678355203945931,0.6254929666835692,2.167522686412451,2.040594054230028,2.492664784004573
1330,-0.7403009502358419,0.7643122266786958,0.6280159193095513,1.9900184894626702,1.4788074824127166,1.9128399588248552
1340,-0.7660162826532175,0.7402695759843605,0.6015518627622383,-0.03105767599577891,-0.6153370558830488,-0.8526991437462571
1350,-0.7623096536600062,0.7475597975447597,0.6005172872244076,0.9789491141080409,0.8813043999930149,0.007941453548101274
1360,-0.758470530713918,0.744980740248422,0.6054465627829742,-1.4864602959439175,-1.2081997293420828,-2.616938300986311
1370,-0.7280426664067818,0.7741735321583487,0.6380123608770278,0.7003537010205291,1.2686710484206956,0.19492056616639403
1380,-0.7824717062334503,0.7197786486044393,0.5817800121073442,-2.443613386931251,-1.5590453133554472,-1.8072810692834036
1390,-0.7400722905163863,0.7633426071808823,0.6208587909826677,-0.586030488278176,0.14428782627857478,0.5906291772209679
1400,-0.7329828621468159,0.7763373299328338,0.6299784247251186,1.1704370101913457,0.8049291296532115,1.2887668418315017
1410,-0.7831166539148718,0.7233616347588798,0.5844349889905428,-0.8748451858924398,-1.5799520565005545,-2.242588706078428
1420,-0.7438699245530223,0.7623455021468233,0.6238172323061453,-1.254815445553893,-1.589035133041407,-2.207011679816117
1430,-0.7754675290585802,0.7275097847855246,0.592280754198568,1.5815907214435416,1.3437696153154186,0.10394157423841066
1440,-0.7277691900307821,0.7751824970538459,0.6390556961710776,-0.19849681178739176,-0.4561175639229704,-1.6366524790489216
1450,-0.7478701644963422,0.757256276158536,0.6168903423104999,0.742984521320301,0.6110025755063502,0.3880451198829331
1460,-0.7652729774932606,0.7414439379479023,0.5979640377673435,-1.058368557828336,-0.909519691189978,-0.13583501841513057
1470,-0.7555045921592907,0.7518250142638688,0.6093250442682475,0.11255286932236885,0.383492500113443,0.9618271785736456
1480,-0.7602307653669378,0.7484470811504036,0.6058642462624338,-2.147607702384076,-1.936893371273527,-2.026542691766327
1490,-0.7648654400718294,0.7469066938668976,0.6055304041182387,2.3262793672010407,2.5741413534728412,2.2614858299864897
1500,-0.7700311713610734,0.7429516035131875,0.5987127643964583,0.03594298310860844,0.3392033092139215,-0.3527377946601824
1510,-0.7636978106828354,0.743579051955859,0.6026445936289595,-1.8289570720207382,-1.3238586089562348,-2.185686749339732
1520,-0.7623702844388657,0.7388673788501691,0.601665933328321,2.1383467627381423,2.6010579164865217,2.11012180231294
1530,-0.775870012436857,0.7273971570911261,0.586626835835531,-0.4523492350438798,-0.4390697210284411,-0.38761693138010545
1540,-0.7929339729750955,0.7175341720982279,0.5743002208188637,-0.588218932944224,-0.635260502819686,-1.1604080604953821
1550,-0.7513224413265477,0.752841442721075,0.6075863050529036,0.02999307725839051,-0.06116539690498053,-0.5805229313185123
1560,-0.7401659987438696,0.7619374299592236,0.6201356345291886,-0.4900667293490582,-0.5385992928144363,-1.2560276030617326
1570,-0.7586277762168214,0.7450588416282193,0.6039675998095415,0.7416615012244725,0.789083197052302,0.16644496826719157
1580,-0.7959585979972518,0.7084257810849327,0.5654597110818269,-1.446058805873652,-1.3577641063152357,-1.9276786544815558
1590,-0.7666940344297914,0.7377079979135457,0.5930687194042823,-0.15737516189810027,-0.04821795426237435,-0.4397422921998212
1600,-0.7760293465772595,0.7294053003229257,0.5863776456730648,-0.5260145509742739,-0.3457025301176601,-0.16324216976791028
1610,-0.7771918848831793,0.7227724736940511,0.5865288890228707,-1.3274050268044186,-1.2367022350051566,-1.1292458245049084
