time_ms,ax,ay,az,gx,gy,gz
0,-0.7375993877032659,0.4466969075186924,0.43589656888354955,2.620420821603123,2.3784177872634933,3.098195622225608
10,-0.7183571679975698,0.4601963200297089,0.46033626976180536,-1.8474532364436365,-0.7405910730146767,-1.2016710322219815
20,-0.7397343676623024,0.4362858235707442,0.4322942449373579,-4.465610224284252,-1.84337039688241,-2.8704019324445453
30,-0.7296482249905472,0.4415479305716927,0.4434139901963944,-2.074931115608791,0.6951678012110118,-0.33814042719013054
40,-0.7265220179227476,0.44765295824758033,0.44819437872026596,-3.2080387888251933,-3.0118739003636597,-3.9257767643272206
50,-0.7000276212626693,0.4810822011347074,0.475133786274351,-2.796621340771483,-3.932791071003605,-4.424794684055539
60,-0.7312664653807,0.4523975280379367,0.44300748774150117,1.0037457921962132,0.9411748759548624,0.7785873537082434
70,-0.7038623308788253,0.4775421545594506,0.4675386122962267,-0.6418874597537896,-0.255762204217872,-0.7824920735988314
80,-0.7077596431808193,0.4726282336584673,0.4642456548839336,-1.1200917022657013,-0.4363221806844963,-1.2737871786348147
90,-0.7453000736122299,0.43786915944722515,0.4283792076466611,-2.2154930645749404,-0.3399515483908747,-2.4072810963089877
100,-0.7284108349118407,0.4477182844688553,0.44611482017992354,-0.24921910044469658,-0.09189772173799864,-2.535075512512482
110,-0.7226330080383133,0.45465428796276885,0.4494062681890175,1.4402571810124336,0.1999921214999213,-0.1247233521452471
120,-0.7113890643913183,0.46890252329386745,0.45694431176252376,0.3507858273289505,-0.3021287096691203,0.7835825220904528
130,-0.7511560750313766,0.43113321957403117,0.422964601759715,0.045617353226768964,0.8420873223344447,1.5630231547478377
140,-0.7144466163568973,0.4678588618250901,0.4617528823263159,-2.9465398632661093,-0.7455505859365645,-1.0815592953608593
150,-0.6976994036256697,0.4825476388634371,0.47353368662383694,-4.598374090951854,-1.732662839090494,-2.923137419687518
160,-0.7126420396851388,0.46361955921697856,0.4615148943454036,-1.7079470749453018,0.6240059221268494,-1.2351700364095568
170,-0.7042203241949747,0.46722684685977567,0.4724489484454701,-2.4829390658192025,-1.099055490947772,-2.6343887336092258
180,-0.7224045966991439,0.45479358246410845,0.452585003243089,1.0018850441385312,0.996825649148136,1.408701203765858
190,-0.7285302869702119,0.4518590723858213,0.44578542858885906,0.3560937910171166,1.167729094906452,1.308258682936872
200,-0.7082753415142987,0.46766617994437826,0.4636289381148848,-1.3904119885070074,-0.5839337465256635,-0.49250023173025387
210,-0.733057907602176,0.4438615368016799,0.44147004353015523,-2.38406866580548,-1.5145759811404942,-1.8673444367627208
220,-0.7254054354547236,0.4527485968260547,0.44814348304405494,-1.580516339834526,-0.2720700136117441,-1.198672024866323
230,-0.737738594989932,0.43781957874437494,0.43398962431400423,-0.9026229802499603,0.47633382349014025,-0.8026029187749797
240,-0.718283543785456,0.4557530286224956,0.45561310229110596,2.17023229357352,2.5503651662944704,1.9631207150541057
250,-0.6883801633532303,0.4909152885989177,0.4880515384074826,-1.3259822980885998,-2.4739820730065105,-1.0207656001096703
260,-0.7443618913419812,0.4388472978220294,0.4345698173115646,-0.991129545258393,-2.448475938159577,-0.28527365349849876
270,-0.712608741156211,0.47175001401063477,0.46284651635306095,-0.4556279698375647,-0.6218369292885311,1.5864465986762104
280,-0.7276103814205269,0.4473618207872378,0.45148972703231277,1.5764178707791583,0.7500786360328257,2.657146998495338
290,-0.7412681117714743,0.4367055625697191,0.44046695516420775,-1.285532644371635,-3.046976587341797,-2.4975522705451003
300,-0.7052639451176715,0.4801389392900299,0.47960398939493243,-0.17564233179515443,-0.30172924789080857,-0.5560577277386459
310,-0.7309318941150202,0.5096210983338243,0.44526865379586444,-0.7925603412984552,-44.39500565476494,7.048178566507854
320,-0.7812073216004901,0.5474935606698038,0.4499933762782631,-1.069394618234707,-66.19130689716403,17.88276452946646
330,-0.8509477644991051,0.5607240414678689,0.5362552596392074,-10.640514030807903,-47.30003694092165,15.866473904947352
340,-0.8770260538513638,0.6091958287565367,0.6255855454660326,-13.918160846745845,-67.0310182809803,20.029326889277172
350,-0.8271129257450323,0.699951257527057,0.5335536756076298,-22.735139158261212,-73.3106181625035,31.834960929375562
360,-0.7137352133536564,0.6534905021066888,0.513561496281793,-26.559784071052228,-85.3871869371052,35.03631174226928
370,-0.6076119826702006,0.5981890274035581,0.4727191347333277,-32.987707666314684,-80.74281915010768,39.14172134426974
380,-0.5772033734677589,0.42109224743459117,0.5164328838111663,-27.940819294804488,-43.72871897712933,26.70001889523187
390,-0.6509267194255886,0.3846451348290184,0.549288762909301,-24.678219308830833,-27.212460705409462,14.835578525559358
400,-0.7061156368075214,0.4154354300014825,0.580533154498425,-21.652052550982162,-23.239010792607434,10.272760703590006
410,-0.6910121649880725,0.4409269303629834,0.6101943723258217,-20.16195085633204,-21.881849536005408,8.928300329297741
420,-0.6912880837416063,0.4006815891938086,0.5624189076933908,-17.03731723167974,-19.699170574151545,11.088506909022055
430,-0.6222122901493209,0.3738416618373398,0.5497689723489885,-11.443181537975923,-15.149325143728667,12.640067183076171
440,-0.5947007841558818,0.368013722170056,0.5130670590494258,-7.6427622514669995,-4.805727759117686,9.730848755123528
450,-0.626349112685714,0.46946293290645325,0.6080640250888061,-15.355775726069199,7.669398984435643,-9.48225274284942
460,-0.6585842005936162,0.4691968923265785,0.605582945337542,-13.976257302025838,13.005208430068832,-10.695615243544067
470,-1.285565006781997,0.47347154549926945,0.9088644557205148,-28.75144413812479,-12.231503579587143,-18.569842439127818
480,-0.9790307501961281,0.5268923717769312,0.8077761933003654,-13.966357863222974,-15.381970751573103,-1.1190646045012067
490,-0.6285253292416089,0.4789225916995668,0.6664975295834882,8.929075539352443,-11.41690476750635,-0.9081143260212683
500,-0.5629802985216642,0.4164936421830347,0.787183982244252,12.338951364479133,-22.599864697525906,-14.45115646602117
510,-0.519198667880928,0.31194723104258354,0.7607135456586487,9.760329465305816,-27.88996634075978,-7.48109730124526
520,-0.5023544036734915,0.42565705978662743,0.7261947346452511,10.067041598681726,-13.280710451111112,-20.851407494338265
530,-0.7521859849930964,0.4177445224395646,0.4899961762437971,8.872525017971231,-4.889174950719894,-24.10461411643935
540,-0.521818157447872,0.48806192067725157,0.8372867817492144,27.739284282753715,5.615604654739759,-15.965513241775918
550,-0.7400900650140548,0.5350680393635516,0.7397501480098002,15.259646215753355,-4.855244770267447,-19.433379465198534
560,-0.7267939200750912,0.6455583849151222,0.8066077030609711,29.529154851286894,7.04506269325449,-19.728059547790625
570,-0.7645239693548517,0.9171239601908278,0.6160272767227959,12.966886935124531,6.99645937671693,-8.644003405695246
580,-0.7526164098248939,0.814230222091806,0.5083389608311106,-8.607133202682125,5.751845407892244,-7.323225506288229
590,-0.6638894387884556,0.519266332982833,0.5621793688826158,-17.575506431041845,15.96166218063546,-16.212083237889953
600,-0.7324436803907638,0.5141457791425776,0.3950220803517355,-19.984029209396663,29.90943877997971,-13.454432532185962
610,-0.8281552894799228,0.5271912555133158,0.21825300588278707,-9.063596330243726,26.103093988882996,-11.697648823507674
620,-0.7787206351366772,0.5352080218923572,0.24850428904272415,-14.758872900916108,22.745291936354302,-2.4631007057824705
630,-0.6438481646430814,0.3873147284096634,0.7034684058452608,-13.28291305687947,18.856193357287122,0.43815805844641287
640,-0.6697505955193861,0.33094733958459693,1.094158750681426,1.0491552085437421,27.357758869003238,2.514707504544792
650,-0.652653760005486,0.20599746096434057,1.0733623520345104,-12.101529711948574,15.391125109466193,8.239709364923504
660,-0.6199004420242203,0.46725232784227805,0.46534850578516096,-3.176756393457042,14.454083854675822,8.600280546468454
670,-0.6327629826084382,0.5130264584599594,0.29822421184549586,5.51195853287083,12.779987150628306,2.8311955516914216
680,-0.6248826920709968,0.30873523419239884,0.6371491728205989,-0.01164710016888948,7.315719435888733,1.0918454695474287
690,-0.5781813552201787,0.3532308960243913,0.6202735348356421,-6.677912399811079,5.8292612277887645,0.9880775228464376
700,-0.6326736091888887,0.21686788655985206,0.6575196087591862,-16.058643851168593,0.3142930676278297,-2.955510032632954
710,-0.6948255694597617,0.35282159174362693,0.5198462383518818,-6.466217890884269,1.693697068758442,-4.728137155956197
720,-0.672470057119451,0.40359094814323604,0.560798893991091,12.06394045557818,12.373802205114472,20.349479381145127
730,-0.6733575728143018,0.415605414696809,0.5682583591763349,17.325007223199613,13.501567189383094,26.483386669758698
740,-0.666179116810743,0.38836662870812655,0.5815828946117778,29.419215554917827,11.183639828626735,23.054694651798023
750,-0.7778670029457788,0.4467031705113574,0.499482450305687,27.01047253094957,5.486684745956667,-1.8827934086746336
760,-0.9113739311502723,0.506434528580107,0.4571548658318383,39.50638731346779,4.242250326860584,-21.352301298611046
770,-0.8204473081084442,0.48571014280643665,0.7452088519592994,60.71295283019517,-7.452233307877777,-37.077798717783594
780,-0.5695960931399892,0.42397624747186263,1.0891967003349565,51.11684886623223,-19.893276538870655,-46.94000852671283
790,-0.6653006236928223,0.4406231743782879,0.46436247788974866,-4.138136833355307,-0.2824565431785502,-13.833590439077383
800,-0.6819270861074888,0.6310816820985758,0.5441759774844674,3.828606753936401,-3.1716628734046823,-4.6070752783346105
810,-0.6765948117267113,0.5243326171429773,0.5391520842953466,-9.357070205227334,-2.909787854141409,-5.978923009760145
820,-0.6815621203055079,0.4684207796432512,0.5500035022746715,-9.889365771811576,-0.5274155638805149,-7.812249885473338
830,-0.683340360338136,0.4435981381409026,0.5515777715060068,-8.826734966393198,-1.1041723153959548,-9.011082090346802
840,-0.6800929557359721,0.43472362288117816,0.5503681500991242,-5.608345749377912,-1.0618291663892039,-6.631741521305042
850,-0.6806666041190875,0.44008060662495074,0.5498694535782258,-2.2534199700848423,-1.558873920158946,-0.9865196053510571
860,-0.6786511533690851,0.4570071515336804,0.5546564892538869,1.7472181786008099,0.86910645813597,6.663828791760816
870,-0.6845775173220381,0.4510169809307419,0.5453045489102227,0.5207594574973471,3.107013433334399,5.924016851025481
880,-0.6789199733317308,0.4567452164937437,0.548173280439016,-7.114147002023843,-1.6216169918792778,-1.8439207789039134
890,-0.6698977243021326,0.45675458139212405,0.5566273233048463,-5.133324568591775,0.31419756971329016,-1.0390551533639347
900,-0.6692065325717739,0.46091351652573637,0.5607245502550844,-2.284578327694101,2.5554758314855044,0.6942707736100691
910,-0.6905333455375882,0.43237248352035534,0.5418806238983358,-2.6171427945925236,0.24626951846097533,-1.4795808622471869
920,-0.6741333474316226,0.44579330733813205,0.5559310594025025,-2.2348939152865506,0.6024105637785703,1.4893523158952457
930,-0.705622711131862,0.41967902856746564,0.5242337239402122,-2.4492697167586925,1.0250677097778944,3.3781851962112164
940,-0.7040471784205437,0.4229608074844557,0.5261227568411844,-1.5017648634918523,1.3449315774150175,2.9597860995492518
950,-0.6979161460966423,0.4262324520471824,0.5312491748489125,-2.123980275921761,-1.4021202919096072,-1.0134198570713933
960,-0.6599642566704104,0.4701950732241761,0.570399717847755,0.8854822332731773,-0.16936923967794026,-0.6376307840456881
970,-0.6736790442926059,0.45591155649639903,0.5521696655846984,-0.05065089531582609,0.002289925433867246,-2.1890048887704663
980,-0.6835985599267189,0.4472557271718489,0.5403962224005269,0.772555081566787,-1.3983881772679398,-3.8291764298827706
990,-0.6921081897816251,0.433985492278553,0.535188487525594,2.5138857423806154,1.2247290151305348,2.9513285782969483
1000,-0.6755015075624662,0.45163267246500755,0.5522923936238242,-2.247087274934758,-1.4840842316588219,0.31014099675424345
1010,-0.6900520445277943,0.44042551534606683,0.5407101690150604,1.2279955972084737,2.5834335145583136,3.0332783398603036
1020,-0.6800197493735604,0.45311889642988173,0.5476026424424312,0.039889644625290765,1.4592328661629772,0.2911199278057909
1030,-0.677623141601635,0.4526351617524614,0.545993618321865,-3.519250743332133,-2.1726440804122187,-4.643258869996928
1040,-0.700487423587836,0.42195704384378707,0.5272606653759232,-2.507762708601156,-1.7046071486353163,-4.3000414543930425
1050,-0.6896155245506742,0.43000491898049775,0.5434782019697965,1.284858410517912,1.6372942963467558,0.6937822462829697
1060,-0.678235618121625,0.448548604497504,0.5510496596309656,0.9198267700313274,1.7100468995726672,3.287413093643461
1070,-0.6933888732544735,0.4365867068183702,0.5402387316729877,-0.3794822285093812,1.0897821945194432,0.6864453935814707
1080,-0.6902617891372309,0.4426136608903546,0.5402664330249269,-0.062134709309854985,2.1186136977497174,-0.019207286011211577
1090,-0.677738394699282,0.4517147082939183,0.5511644052240532,2.1829999392435573,4.014356928508733,0.5949145155378388
1100,-0.6815992184355082,0.4436423472405129,0.5504055653472026,-2.059390123491499,-0.11694939102077095,-3.4858874106894784
1110,-0.7026499370879682,0.41967349096668616,0.5326403063338383,-1.243385292906574,0.1508096499095133,-1.9418168227399444
1120,-0.6944630900231133,0.42911888056537634,0.5398744970679366,-1.867044012056825,-1.2701044185115173,-1.754258846314548
1130,-0.681540180471228,0.4462105985584638,0.5488237984075182,1.710525241221096,2.480215021892592,2.4448689393702585
1140,-0.6444474388001503,0.48178198446570547,0.5837267924442554,0.22115327344153068,1.502380801650237,-0.10019034264871962
1150,-0.6783033051449759,0.44136193571857635,0.5479666778683555,-3.926048780400404,-1.8325412301138317,-4.0585859245091385
1160,-0.6641698033712142,0.4477161201898413,0.5620452555270982,-0.13128191163872616,0.6264355552168417,-1.573232355322864
1170,-0.7038021163389839,0.4162599715219569,0.5278166278731166,2.077871468656181,1.3268304496267809,1.1675731429349894
1180,-0.6803956418578261,0.4438574026344734,0.5532218362675133,1.4594910045227047,0.25447932273218626,1.0415572097420744
1190,-0.7020640618917824,0.42435333138316644,0.5310853744362113,-2.5333771372960183,-1.2762119139041437,-1.964700821743835
1200,-0.6708525667223104,0.45335926518515457,0.5617900380147285,-5.046717658589754,-1.7894688841041786,-4.14779762026639
1210,-0.6808783982393375,0.4389878582382012,0.5513425705336465,-2.670546872387554,0.3457610296686508,-2.182047483596186
1220,-0.7025274745123825,0.41588987053763943,0.5287462407031998,-3.592726053121913,-2.0687298058681236,-3.486972955657455
1230,-0.6947875206319449,0.4237954718109681,0.5354784990562605,-0.5800307960382541,-1.4235773613223952,-1.2407577451486143
1240,-0.6933992429057406,0.4271980562011353,0.531436296868495,3.4646605693809485,1.3802376832671157,2.2519304837273086
1250,-0.6981746002373113,0.42378414030659556,0.5361309802460925,2.9864538931403897,0.8700374372137426,2.315650368505808
1260,-0.7045221398028596,0.41705496316556406,0.527481338153374,-0.6250392763904655,1.1491676366789008,0.03499325750993176
1270,-0.6836251666693297,0.4377803011580914,0.5428050286431675,-4.317756714042265,-1.673737223468312,-3.1948447632049413
1280,-0.6823536902695438,0.43635650244837226,0.5463402236228735,-2.636594189864664,-1.3079541647537984,-2.001312415339356
1290,-0.681554257806782,0.4392566384289537,0.5490152622797164,-0.7992524704662096,-0.9938874740665522,-0.6804063876561408
1300,-0.6778303827234233,0.4443819653374542,0.551185928649296,0.892339565199584,0.0018465983741563496,0.9640028304540111
1310,-0.6680498295902977,0.44916113818206993,0.5611737791492805,1.1457192490978436,0.16709371136908135,1.1974655170083228
1320,-0.6411979190897498,0.4833289139655339,0.5867726369786203,1.2053855963245683,0.17290577677594604,0.7559018671434399
1330,-0.6806327651739434,0.4423213517303624,0.5529592017008349,1.5200534988488443,2.2138880364062112,1.1852000632867183
