time_ms,ax,ay,az,gx,gy,gz
0,-0.834653692505805,0.17080507731306124,0.5082826619020742,-0.7167891257353067,0.3869816551699017,0.7417782993093653
10,-0.823171777233243,0.1799646868826179,0.5212397964124369,-1.5617319102026457,-3.158658077545298,-2.6468650650005014
20,-0.8228130645539707,0.17393258024113786,0.5212708311689064,2.279797868738354,0.18716810223194846,0.6058962547244424
30,-0.7780917407204802,0.22754774195350308,0.5697504451300421,2.7703619850612347,1.2840725924906002,2.070338656744203
40,-0.833502679496459,0.17263479377892388,0.5100024547650908,-2.0098874505342588,-2.1603168772227086,-1.7015065172966164
50,-0.8164743541711525,0.18706704298235122,0.5282069675339552,-0.6218821232226052,0.1504314275121189,0.6460165102611932
60,-0.7778921917852819,0.22366560527567964,0.5672361338842993,-2.091566140088334,-1.6025337132324047,-1.6675532610462853
70,-0.8209331054729255,0.18255479666360583,0.519065509434807,1.0152028107988926,1.7820404329367108,1.4585079335023243
80,-0.8434068828755875,0.1633154975886074,0.5038390560631857,-1.275237341714237,0.016511185513617188,-0.805031352060128
90,-0.8534960183012291,0.14996391857240982,0.4946079214615621,-1.956578407337473,-0.6658867436660385,-0.8987332702840335
100,-0.8155364696193551,0.18080707859321038,0.529236400528642,-1.1260814636628997,1.103217018186463,0.9730867718419496
110,-0.8124626325057362,0.15821624575852264,0.5423233983094409,-1.1952188403798019,-1.2776745031310497,-1.1548198225165613
120,-0.8446140084032375,0.04297378884962433,0.6227193807912096,7.843028061211693,-12.624066996513506,-6.1467085560785835
130,-0.7986617674399321,0.07014561023332169,0.6405422474604227,-33.01125027909764,-26.93624205457599,-16.855012875537025
140,-0.8761233081421798,0.24304966531108832,0.814993132921258,-60.17040198876853,-40.761335335797696,-16.358264573587604
150,-0.8891730325264351,0.18532950994925457,0.9550140894827701,-51.585928399346656,-66.42504206099203,-7.496487006858087
160,-0.7846035510593461,0.05806711414950809,0.6603333013861062,-46.96680724604635,-82.91891332863214,-2.378624302659031
170,-0.5609153865766613,0.2723030434184496,0.24638909943933518,-41.66799889757571,-11.737961398599944,10.711994117269459
180,-0.4939872393068928,0.35655572085026244,0.3988814620702419,-52.772931244099155,10.229804123550288,22.35943865869954
190,-0.7020368070110735,0.1655270238156905,0.5453061281641127,-63.78061780881745,16.751566743891438,18.70259859750016
200,-1.1729002381490032,-0.0990714936865044,0.8326806212537234,-85.55689793740876,7.527365603414442,6.256650500348028
210,-1.3085231234831278,-0.06540005659756128,0.9342336496446625,-65.64038986420631,-14.595298150870635,-10.03653023926823
220,-0.9101921722844318,0.009682602779939072,0.5955579057809365,-37.02421945466085,-15.108675206973805,-13.010163832814175
230,-0.8649246343719175,0.10561188298116028,0.5945565380471277,12.710784307776146,-30.581061876780975,-19.239193459509508
240,-0.87496406648692,0.13871117591749427,0.4227804388805012,22.8038720678855,-27.447917437851864,-20.14177532423677
250,-1.0912878116838483,-0.22010872836128945,0.26005127080628926,45.14336142223358,-22.84755238684698,-16.070103497927686
260,-1.1080727713636307,0.36551098420763783,0.7639855441900287,68.17276158903398,-26.258706721667085,-38.13392338987951
270,-0.835860579215732,-0.08535242175217497,0.5662301537233403,32.578668545958536,-1.6231672854699573,-25.902191513184707
280,-0.7634997250374365,0.20632964970347273,0.7968748613182107,62.57604271318886,23.433603256283746,-11.898153618058823
290,-0.7440203652226879,0.09578113105723732,0.5162229692246598,74.72317754190085,40.69055387489326,0.159083884378228
300,-0.7875224543089014,0.25323689047680553,0.9077503614078801,52.1538592780479,54.776263941676696,17.935707027312336
310,-0.7882652583330331,0.3969310964864529,0.6807441039028134,53.10100595887241,64.61680815924456,47.362187508678254
320,-0.6736717583779318,0.27882972758638574,0.534099832393083,52.33399479540885,53.78049149430602,52.65614359064224
330,-0.7923880508027894,0.16450322009319587,0.5496407592868902,6.082839327461539,18.894130007513244,15.565808610884298
340,-0.7756907693600624,0.12171320219759871,0.6390021715553247,6.874491047699136,12.066793222705263,2.9282757362653253
350,-0.756403811749188,-0.3060285732679904,0.8096047908158789,-22.685871767417197,1.7368747855810533,-9.138989135117221
360,-0.8460782467209608,-0.0031147675356923456,0.5370545903256668,37.56518738966199,0.6281743644474473,0.16619942053095382
370,-0.8126289149342315,-0.035979355947855035,0.5554953670451898,42.84371009200715,0.230803393330691,9.050797436104727
380,-0.7458061234481752,-0.06855593649546184,0.6569514924461698,34.8125338579857,-4.402664642644417,-8.88578772498328
390,-0.7752432882163134,0.21194933498396804,0.5072739418488279,28.306775520057943,-0.8804105965851765,-14.674385779667482
400,-0.837486392476966,0.3803263053600681,0.45423010174784556,10.99100280260121,1.8102389214044416,-2.796774157245763
410,-0.7578298351728581,0.5682377242621319,0.553704993623926,0.7811591950045345,0.04590819430910886,8.852085367330274
420,-0.7930244681220152,0.24261113251766045,0.5598879822675552,-11.220519770411322,2.9138288921644007,1.162328372412084
430,-0.815820524307487,0.22420162166608365,0.5622562235562717,-21.610496870013737,-1.3214698094612611,-12.909599976141303
440,-0.8094929756711152,0.16223689992944,0.5548239749432107,-12.078493639182268,-1.0286901622280769,-6.151179885958861
450,-0.79483223778732,0.15792239251646276,0.557253461862957,-7.116533487590687,-1.151719474779692,-2.2285009760931844
460,-0.7935926707787101,0.17048169997564172,0.5721961610139208,-6.846877613803493,-0.03531242467787199,3.253167978252532
470,-0.786649232170724,0.18360241460134194,0.5749558756634027,-2.2394175761340933,3.3162554834542375,9.229786508937137
480,-0.8024753928500529,0.16714219730721364,0.5577575729782921,-2.286546291221732,0.5379876462405605,6.011432328534466
490,-0.7918719800199815,0.17880346769933186,0.5643937897604939,-2.7685340438815813,-1.8930219752717004,-1.7697826140888138
500,-0.7827188842966452,0.18721184894856224,0.5684172187744886,-5.370970409847071,-1.8588237570685582,-4.68912422515307
510,-0.8141452273306746,0.14141725116604487,0.5503043260199303,-6.230400712324403,-4.324858824078052,-6.295086675959844
520,-0.8243872453596822,0.13586230160317522,0.5448601215700548,2.5730303325681674,-0.9331935977752464,0.8564920975860331
530,-0.8036818030788307,0.15796075477405508,0.558097661013879,4.417324112301104,-1.3684108195980762,2.195897048201993
540,-0.8191908159847522,0.15896889458962532,0.5367884483684559,3.872819466972456,-0.2942222867339051,1.7877992047251194
550,-0.8255606833400547,0.14503555911236568,0.5302954100827434,-0.731383523068811,0.8101029790274732,0.505571954525329
560,-0.8074292457649744,0.15046266767847025,0.5484781190202457,1.7511405561559754,1.733064592976124,2.604148038695322
570,-0.7757203350969094,0.18277392315519383,0.579038247884946,-0.25715664902013513,-2.5680429459041707,-0.15759645689637392
580,-0.7537342225635133,0.2128680443323261,0.6075449337463803,3.416282806375996,-0.41618829012918546,1.9968765309105372
590,-0.8102424708764987,0.16786512957007854,0.5484310301851417,2.3696546174466353,-2.4137994269571172,-0.7672378460509433
600,-0.8061770698985716,0.16514113627922702,0.552627073918621,-1.2217917850808857,0.5044287701674759,-0.6195916320360366
610,-0.7963188051745161,0.1758405598561378,0.5653033890201075,-5.708483744818761,-3.8997070112985606,-4.421367982958985
620,-0.7981778087788304,0.16638104685078206,0.5584010325498822,-8.065570808576624,-1.1099789293901643,-1.9528504554479449
630,-0.8011609773546496,0.1681601811148846,0.5553834850004096,-16.878316398579866,0.4321102050084639,-1.7390376268664254
640,-0.8186722951980775,0.15266650918785007,0.5495652530081427,2.126658001159895,-0.3788419067657051,-1.022642816745503
650,-0.8086314401919604,0.1583415404145745,0.5546539587160998,2.3763984304676664,0.5349253716426843,-0.44530193376256866
660,-0.7960637796291113,0.17347558005302646,0.5645622377908011,2.209734641369773,0.41203703778978235,-0.1420247454576143
670,-0.7951603167666491,0.17173979222273772,0.5606860898503742,1.4003105634603124,0.5269149201303134,0.3101747906517101
680,-0.7888729643596902,0.17774225527800105,0.5713083970678188,-0.8410116917537791,-0.9559956541685355,-0.5161175829623066
690,-0.8408495322712699,0.1305178624530582,0.5202017107997368,0.40081912969178546,0.220188071298127,0.9927926614139434
700,-0.7940058090536739,0.1775641351871376,0.5696072178063198,2.8062685584736453,2.102421125177127,2.1601815295747473
710,-0.8041081353545231,0.1800498370239939,0.5535435261677455,6.151479147289928,1.036890021651719,0.40071437137976573
720,-0.783252040368707,0.19392673751193693,0.5795490333785407,2.2432769816617184,-0.20475132115017988,-1.4885634837619157
730,-0.7562529879583144,0.21512870509930676,0.6026786124491472,3.0594356782098187,1.6142299478383684,0.7459723078131999
740,-0.7871248833094866,0.185635338556746,0.5691928608554216,4.293946937638138,2.1282499150291008,2.0246301414193137
750,-0.8232337766676285,0.1510102526036645,0.5349342115143865,3.8712940822358073,1.6284306756757962,1.7551960753446036
760,-0.8113240537462789,0.16794140698905902,0.5503495929070814,-2.8646981194537418,-1.4619354153544712,-2.173119931586743
770,-0.7987392995378121,0.1746159890063781,0.5676883652031576,-1.4638688680324412,-0.3216895227274663,-1.0930497407588518
780,-0.7977555310915864,0.17338925899092436,0.5562917677540493,0.13798037562447737,-0.5903534296464867,-1.3480208089720365
790,-0.812578918015479,0.16061307047247683,0.5498859047124167,2.815516496528783,1.057232034362777,0.72064641267203
800,-0.8239317751262892,0.14836537578222997,0.5403729966069464,1.2596499138541264,-0.7791559621305568,-1.090169626219181
810,-0.7952117881407179,0.17915523658224083,0.568796307123717,4.666541120650614,3.014048569856476,2.110371369160222
820,-0.8066794784124226,0.1636303607587714,0.5524877040444776,-1.1291904234930663,-1.6890353514530456,-2.6473610165160593
830,-0.8014089713250886,0.17143449221918253,0.5538142229711304,-0.42699475244453766,-0.37378840255616286,-1.2268393058936913
840,-0.7547873624281292,0.21630069073374927,0.6101438950556798,-0.8315741400757238,0.7880112431180721,0.3154772874971936
850,-0.822795922893539,0.1456864834419784,0.541444873171326,-2.9387084327626973,-0.09280145333414469,0.20588105076522567
860,-0.8071219117494691,0.1643792410676333,0.5554820624055747,-0.570030090296044,0.890802147905712,1.8124014146211924
870,-0.7914300166982249,0.18840117520917563,0.5789471551964397,-1.9366798402756362,0.9393687550554959,1.2396006698687172
880,-0.8241690722697457,0.15424696290061635,0.5377304224653163,-3.739490181119522,1.523566859235814,1.9121839700645373
890,-0.827416811840814,0.14321396106603831,0.5370788742711228,0.09905432561445376,1.0955485482816045,1.7781920653893701
900,-0.7969192935942797,0.18096463401907278,0.5732390066070981,-0.9545390530931526,0.9509796210439383,1.7114154409073554
910,-0.783297938646575,0.1835898369174695,0.5803009613385994,0.8082918878543821,2.7035690076006182,3.3312220240753607
920,-0.782721791829596,0.19134226514969194,0.5801167706925242,-1.7083256222741867,-0.873768920423907,-2.465264875197663
930,-0.7958637364494889,0.1768926487313246,0.5597776168312425,-2.341591848198399,-1.4419108602825745,-3.2677721817302716
940,-0.7939018526071541,0.17809577370665075,0.5712979642978032,-5.372872076861621,-2.8465757783008927,-4.548078125255729
950,-0.8182859550702489,0.1536071840959295,0.54581435194627,-2.293806063670313,-0.07301531660815885,-0.5611892046519894
960,-0.7940943769317099,0.16840556582969993,0.5659328996764197,-0.40952319316993013,1.3814479356257288,1.764483347870029
970,-0.8128753258766137,0.15638487005181437,0.5468707239562145,-2.9438943216285605,-0.44421797259504664,-0.7026685158778344
980,-0.7967619800304017,0.178524700856647,0.5659088872011746,-0.55393015129324,0.3469760159785283,-0.24969747793086183
990,-0.7906867632523036,0.17516660928690755,0.573627621041295,0.912670937900847,0.23158722865494663,0.22250529187863666
1000,-0.7954399293578701,0.1731213870681159,0.5708600991249129,1.8769617505637202,1.3539824998450853,1.7328040118340113
1010,-0.7953657631673751,0.1839685486149097,0.5720046457279432,-12.055616092843376,-0.24262037520366736,-0.32914495380451875
1020,-0.7847716423725347,0.16979129247987984,0.577594660253456,-2.0804622048419033,1.7057413965771944,2.0023065546057626
1030,-0.8032197534367659,0.1630242576839683,0.5590696197981543,-2.1569966948216046,-1.6626179362226354,-2.258736209230798
1040,-0.8134523081546594,0.155936893111859,0.5510647932919981,-2.0409214995260423,-1.259429909057408,-1.7996601243872066
1050,-0.784584085000074,0.18480281427608491,0.5777583613278255,2.006138217106297,2.451239995016002,2.015561305782003
1060,-0.799090946171821,0.17027888426339632,0.5619407217231017,0.4503474325688075,1.5297196967797233,1.080455970771705
1070,-0.8031620162020376,0.1635603593205972,0.5587903810882898,-2.639102102385147,-1.1452298951301834,-1.5838400644793762
1080,-0.7888425581604858,0.18289036656738838,0.5702664030824328,-2.0927615254454763,-1.9604962054639627,-2.1949944041192944
1090,-0.8032699499382351,0.17081894144217397,0.5626129809749656,2.2468351018860444,2.371401490002647,1.694843761755836
1100,-0.8087190180784412,0.16091511150248733,0.5535257208359876,0.34890507044916697,1.4793134484632953,0.009356725463472326
1110,-0.7946816481236356,0.16543710498490527,0.5648071014795237,-2.0202586387427592,-0.721318073707888,-1.8230415461222818
1120,-0.829999832837801,0.1359310625291331,0.534009401141931,0.8104304933803673,0.8780237974042817,1.1924780218747175
1130,-0.7958005670929106,0.16146391875314217,0.5696662618535617,-1.1573331704056622,-2.644836276405506,-1.7724282790451649
1140,-0.8119822718621988,0.15107592593157407,0.5500241505156626,-0.5509048234713048,-1.0361514222055443,-0.4446684427273978
1150,-0.7793650945248571,0.1875748603352162,0.586652301336763,1.2155615713479724,0.7437609241496721,0.47522368892521893
1160,-0.8075696738452688,0.1626973263153639,0.5584361389645481,2.306359023892931,1.4824605880785855,0.6443660503751667
1170,-0.8164387188653014,0.1568624232609317,0.5444956691700354,3.07972814636335,3.2167923563995653,2.2516443129646206
1180,-0.7864468955366576,0.18137963088376796,0.5756910365478639,-0.521488875689162,-0.4365132487570784,-0.8728133073522348
1190,-0.8050198969601817,0.16091571585551465,0.5554826850640033,-0.4359075646657615,-0.6726427522983233,-0.2918829032430353
1200,-0.8010772131778315,0.15962617332378598,0.5620881311138811,0.6058160098412515,0.18043358085257832,0.24010800706266144
1210,-0.8079216295750629,0.16607242312052664,0.5567607566856069,2.2418912910177013,2.128172432938271,1.5663426046815871
1220,-0.790961242186118,0.1820561373260012,0.5692766990044756,-1.0441255646663037,1.056746466444199,-0.027222238649949326
1230,-0.8064968438298566,0.1567710747067714,0.5584860980682885,-1.1467103232815248,0.9015457282678403,-0.17820155606197097
1240,-0.8141032791106011,0.14861485201503657,0.5491436629952777,-0.3678607741411994,-0.49426220829532497,-0.6875257742624523
1250,-0.8052309426907187,0.16376215554923654,0.5592211101298477,1.620480323107079,0.8693145967889913,0.6548949821675625
1260,-0.7887176476610017,0.18090224213165265,0.5747440876672673,0.29328046872368696,1.0844287786817182,0.36567354539549823
1270,-0.7894507675704693,0.1780689006801976,0.5734374352236161,-0.0027173055079297015,1.4316281671307602,0.5608678506043728
1280,-0.8131884657083366,0.15206866664948318,0.5510101541666252,1.2584681340117043,1.7059700986528765,0.8968775125924742
1290,-0.7977886282887529,0.17222310739960608,0.5642987438886928,-1.603697352294352,-1.4652607939214393,-1.8286292632445906
1300,-0.7564941332887306,0.21253196520397155,0.6093802598465454,0.9049301633461027,0.5703647880021825,0.7775731459789317
1310,-0.7878634421822044,0.1800362506265381,0.5692865316124873,1.6952050299112278,1.1625233115919318,1.0374663104268131
1320,-0.8065521267757075,0.15615856289704333,0.557710875996951,-1.0636686565428066,-1.6250750814484847,-2.187451382432485
1330,-0.7686981495840449,0.19704447793224117,0.5953159888201388,1.488152890845983,0.993084234926279,0.6624272337756565
1340,-0.7774401468878501,0.18845377246012482,0.5871914403549323,0.2023759055546912,1.0556920418392033,0.7378288493211383
1350,-0.7948904978063924,0.16415010202157837,0.5701637470444255,-2.090149939180138,-2.248825199673954,-1.9130952382544562
1360,-0.7769092212875542,0.18470830530158944,0.5812116728102109,0.9059476995088336,0.4391392540476774,0.6510937578920082
1370,-0.8056108430194863,0.15121392194046693,0.5652215885887205,-0.48874596118439084,-0.8980926678270877,-0.7969250097541472
