time_ms,ax,ay,az,gx,gy,gz
0,-0.8225815702364788,0.19729667807237716,0.2937183553269371,-1.9580800223284451,1.6594055379179853,-0.5962381058855133
10,-0.8408318803132274,0.1777532796852376,0.26688793353666745,-0.8139939790318578,0.13944488019854917,0.9037859690040146
20,-0.8310116952738756,0.18833890622913388,0.2802564225066856,-1.9080875574161795,-1.7346730499671226,-0.6749218452481365
30,-0.8468560603361571,0.17524101506738107,0.26770830171708776,0.978249011136534,1.4981376753230042,2.0366004437528664
40,-0.8317732597892168,0.19138407247077896,0.27414408022951303,0.4013598131283618,2.8593346136566717,2.331925977000743
50,-0.8448717818757324,0.17630612826894368,0.25999227967917443,-2.3659534776653164,0.9853242379552949,-0.3361277048797685
60,-0.8451806281610176,0.17441654182007083,0.2650850128881601,-1.9942616128440211,-0.3476580121231659,-1.209887484918274
70,-0.8095789956340426,0.21039781423804338,0.29601550305688473,0.6847803529386806,-0.008435880378208888,0.09005330453844598
80,-0.8176334548687073,0.19908491214512108,0.2899444142438592,-0.9185693737253489,-0.8889353930745529,-0.7582338111428408
90,-0.8215179627916562,0.19653898428084118,0.286833568919884,-3.910795968535206,-2.8942136762974586,-3.0447729590392343
100,-0.8286097528777469,0.18428307258889692,0.277411391765353,-2.5586007019363075,-1.1005262542251295,-0.8247102086219886
110,-0.8235656283282974,0.18901167191322787,0.2846439999239231,0.4386346925142375,0.7365751758277348,1.7006020219049187
120,-0.8361935076796264,0.18540678372794386,0.2768872789105319,1.2455663611899679,-0.7283387021856877,0.282216639583065
130,-0.842508888919712,0.1868590313474364,0.2726779856168838,3.4122496090564,-0.3948773534764223,0.482338041077583
140,-0.8269955207375466,0.1979345951485613,0.28893180562725973,5.118844430560557,0.17795152720600477,1.5341847759141518
150,-0.8416656211319709,0.18723701548689678,0.28219962367904483,8.220212705384496,1.2837447529139565,3.8699945238725153
160,-0.8406373692482493,0.18970187419134552,0.3206663184863501,8.74595410922428,-0.6764633415693471,5.347164013282942
170,-0.864424196894269,0.1769396182523302,0.3440947104508085,5.166109313436765,-11.507041007456852,5.280116176287196
180,-0.8125894632061484,0.27654466745498274,0.36547279847848935,4.4143108191348714,-28.26883655423913,8.755184385122186
190,-0.7927268055846072,0.3032565935344181,0.30871698726295754,0.30447062011891707,-33.88448031215172,8.143019813699846
200,-0.7322156884069974,0.3369815931117945,0.2754125650461387,-10.784117705971923,-29.524766759578526,8.022411656163538
210,-0.7167578238057764,0.30952935334992054,0.30862488322354376,-17.241804981842,-23.468564482208023,8.827669532640305
220,-0.6746114199650669,0.23279652000403872,0.27964604808812377,-17.540796219216478,-16.766198030745088,5.328775957840402
230,-0.7359378911498672,0.21234677042449218,0.29408966986748797,-18.063829675461267,-10.220819200264017,-0.8684954033747665
240,-0.8670352898540912,0.19506060487225238,0.3304909302192757,-33.27378041075468,-10.218546151071271,-1.143722648255587
250,-0.8287664085563239,0.11354147442669817,0.36091945310772466,-30.555346275629862,-9.262785632345274,-0.28549421977499534
260,-0.8309077782328605,0.045491359091482886,0.3276839796110562,-22.165619773914294,-9.403132363800868,-5.462884731697659
270,-0.8319615463648415,0.12027914361436945,0.3379835098828463,-13.499197000945188,-5.208252093904089,-4.712377710658492
280,-0.8483571345790551,0.16285983325468953,0.3240781764093307,-9.222076627304476,-5.666732730314694,-0.7892815385738485
290,-0.8191878742063557,0.16884921477910997,0.32518970985429135,-10.152263418967086,-6.858768943289989,1.253821462592765
300,-0.75725100680693,0.2527773950103531,0.3661635797825725,-12.15537201742483,-1.7905768948211296,-2.2301814923934553
310,-0.8088700574329529,0.2010493608684652,0.30730460178803715,-15.778318585338589,3.4276166241361987,-0.7818793157623928
320,-0.8474943674602478,0.1455604223847772,0.29882376761610197,-15.42687070085245,5.691390175081043,-3.0689570180096064
330,-0.8340359356371119,0.18908764540283493,0.33621190736991546,-13.598781182696143,5.781906815040895,-3.9709503943413655
340,-0.8298852816954136,0.17179594638688125,0.324492725673489,-13.594779084794137,6.606519388497859,-2.5385504750422694
350,-0.7937801670144489,0.16158165093174828,0.34674466750694116,-12.71161897337455,0.9120292927516417,-3.023561384692917
360,-0.8211576286330955,0.07786586095961104,0.344572145449247,-16.69313487819871,-10.30124310680509,-6.8538017099259285
370,-0.8326440579594698,0.09304172107398417,0.32998634577244645,-17.44126796899247,-7.403528510516739,-6.178380215612834
380,-0.8065006515315029,0.10666291290349077,0.37590281209389986,-7.026923391224455,-8.833712613084403,-4.716697163485069
390,-0.7620123832796443,0.09396304853817852,0.4193056843732303,3.4278455807507946,-12.719826563086112,-5.649492802427479
400,-0.8096659447622147,0.162905434126797,0.2937131508142181,13.770802320417054,-12.213758616781368,-6.248429510582758
410,-0.8243079432485014,0.2227228569241954,0.17677741880092715,17.415451684378276,-19.58853156251218,-13.662466895737486
420,-0.8478826392271426,0.3462934068376699,0.2441524545369361,25.71632593807012,-20.890785688124936,-11.361110888506918
430,-0.8043480162995051,0.15845720591379864,0.38311689232285195,17.18171328761148,-15.934782253408088,-8.932256612132155
440,-0.808367250683807,0.5147283920040414,0.15511504455625696,36.92161471359734,-13.833319293793501,-5.778471454190826
450,-0.7964532232476824,-0.009132504887146802,0.42023610779780507,18.188698718739566,-10.018414627115213,-12.030461207242071
460,-0.8255956795787226,-0.019209600834037534,0.38808913321032185,28.62761504782448,-8.812617342592066,-15.043312210350415
470,-0.8317558863820157,0.05552544334827961,0.40102954500136695,15.445947602691541,2.0092118837696087,-8.807888311240694
480,-0.9350101163942077,-0.11157321549699604,0.19277039735322007,3.467951628173448,5.203463916123049,-9.859463769046206
490,-0.8220704356287285,0.3488115460104994,0.29462655653984565,21.900259577096044,7.990754606030887,-2.396192220544595
500,-0.7967356763271122,0.10714102251291854,0.16403469161499484,9.783012766924047,10.14939384514764,-3.901490952658905
510,-0.8016683009562713,0.19066764293103758,0.4652950236783869,28.827581963659583,12.253448225403037,8.108569577440488
520,-0.8070592669811868,0.14023576061101134,0.3270970987461547,11.16754643785784,14.533228728179175,1.5044442727722744
530,-0.8272129721753211,0.05806226762440845,0.32258022287121785,16.781010402830123,25.129528836685914,22.616192043631834
540,-0.7438498953608177,0.19119272964946646,0.11581400115614326,26.95130071363321,34.754370459405244,27.080379194586
550,-0.7713737828626867,0.18203294349145926,0.6075539675929349,20.192200894457386,26.20918399855983,22.282068117406624
560,-0.824988859313891,0.07625085807882358,0.4894661261459172,-18.888946547324913,23.38516308921665,9.247093937033082
570,-0.7894106034240381,0.05989506492196349,0.5983937464960782,-11.941942494285788,19.628619746951518,5.486049085809954
580,-0.9159827517534357,-0.060771036913807315,0.7136506890887807,-16.071201349244443,17.04223769778491,8.093504429577731
590,-0.9752348806553488,-0.006164122815204991,0.6287907941459392,-41.73506418137528,33.7789538454923,19.723593810336094
600,-0.8565869193673323,0.15218717736460763,0.35960279128011335,-24.331355639032694,27.541626556712444,16.336544599809404
610,-0.80124404600539,0.23456551097699477,0.2579070689676688,-8.26858400770289,16.293265854542692,11.293248238694645
620,-0.8325751443254934,0.16447469688189992,0.2590604851935786,-3.8187499600228305,7.747706996582913,1.4884232563523345
630,-0.8587689039478361,0.05015863700000955,0.43231348555223287,-13.690936135618832,9.854343978074418,2.0519048821950787
640,-0.8714760164339871,0.07641566070389838,0.3509963019598679,-8.226568560806978,8.207708994279075,2.5887920310254837
650,-0.8022108783746648,0.21901093306434,0.32022356289200027,-8.913232878027207,4.289381510335237,0.02871252726436191
660,-0.8174190640366165,0.18607505172241967,0.31091897410910596,-5.538324119146651,3.754117444657803,0.41026638788117
670,-0.7986640322844805,0.21831289505349905,0.3137953986716076,-2.479859340405776,0.35759299079520424,-0.18900864522558414
680,-0.7994163856834453,0.2253439597640964,0.3125364220917887,3.509469879954721,2.4386120948451993,4.256029107973156
690,-0.8193133056400633,0.19412829926610814,0.28134655028470495,3.9572839076041273,-0.627211349034647,2.406232090675643
700,-0.872190921723418,-0.06718743397605376,0.2660415537308797,32.32154354587933,-1.1671670187658696,-4.398083475741361
710,-0.8950607783588402,-0.4144499621195379,0.3376742316938953,41.631784185768055,-14.554843873458024,-28.600508414561155
720,-0.907576993346523,-0.13440919705709517,0.6794978345174733,60.30873032058699,-21.384118141861446,-34.81313412326757
730,-0.7724725755652792,0.4968037874338644,-0.01807529129568647,58.15490262111549,-18.02859293350785,-34.75110931272224
740,-0.7747816740705732,0.1009683582465215,-0.23600250487458077,42.088039962860975,-4.3078736749852355,-22.895574029945056
750,-0.7867552289916475,0.6129825639734905,0.0671584352871881,49.824042301419134,-12.334973580344752,-0.6297017745508847
760,-0.8519551875855975,0.39057568736005355,0.2726065814455515,20.066361435435432,1.0090809991422476,13.03534831235774
770,-0.8149588595055607,0.14572920071934703,0.3540935423938234,4.034377429822768,-3.893696473359621,-1.8731938715473642
780,-0.8364863659951944,0.2869867418154608,0.29643253779475576,-3.8628991481773074,-0.9021280113627614,-4.380403562795884
790,-0.8174824033016089,0.22025319693818143,0.30365639787322424,-10.965899525834653,-2.1085857448888135,-11.789951316123537
800,-0.8165566676245225,0.20894562123162744,0.2958745189674429,-8.8953110557673,-0.5570472206157911,-10.92419509835379
810,-0.8285601248931406,0.18559224296827587,0.2837250237747605,-6.316941299580254,-2.725508177096618,-6.474679550693961
820,-0.8305806319683087,0.18472693897517906,0.28876312256608444,3.933812114328622,0.28417869907917237,5.23827104598316
830,-0.7956406461085457,0.2334226235484696,0.3256430595293971,0.9933748952457221,0.8509029884531073,3.4647071165011947
840,-0.8174073703521705,0.20603275975510743,0.2978517468844468,-1.2962279070132594,0.10232527199578445,0.9156793606773952
850,-0.8381925559322226,0.18888560761110257,0.2779406024826114,1.990955946863288,2.9749215918154137,3.7024133797312695
860,-0.8140659066256289,0.2059006500883286,0.3035440840122994,0.9934241324380959,3.0662902741641798,3.446803674187477
870,-0.8384811910120128,0.172986813328372,0.27218196938429173,-1.259874916451141,-2.2143489297087817,-0.9562574852739782
880,-0.8186375864949896,0.20132695792323033,0.2944073155781145,4.873423377889194,1.667346970218671,3.6829264405663036
890,-0.8195833118643032,0.21252216923290315,0.3055639621616903,1.9473111784071968,-0.668342060442261,0.38964343981454097
900,-0.8334542234027549,0.20009786665937407,0.2865485759084458,4.659480349080228,2.4444964616796803,2.717063776632658
910,-0.82239670165412,0.21057720768413332,0.2946881486223946,2.08228277011591,0.9163955157207943,0.8591410219070766
920,-0.8052181870004144,0.2262113106039203,0.31122242881956574,3.2632302538840423,3.0137454609024528,2.9755871128563176
930,-0.841553043469228,0.18388456488978605,0.26954942900147727,1.768385897446009,-0.28023491334095185,0.5771292942178193
940,-0.8287392809353795,0.1974452139608973,0.28791235166528956,3.9119709833563716,2.200806053134355,3.4074117837289615
950,-0.8242636434371093,0.19197481246821682,0.2922883864238333,0.8493705252318748,1.020961980503412,1.353547868037992
960,-0.8309662510935468,0.2012595501806294,0.2851601930754909,-1.5944905943021732,0.004381619138559167,-0.5978645607639279
970,-0.8313990593682535,0.1997845548306435,0.28950917946965343,-1.4212140497825898,0.4032749826901959,-0.7451147693746667
980,-0.8180395929517118,0.20968951660049998,0.2902070568756241,-4.5037556073560925,-2.471808756879149,-3.355373925411011
990,-0.8384873756235112,0.18552624970071327,0.27798240035911,3.167448437204282,0.3429773748870262,1.0080345675355935
1000,-0.7916120230119845,0.23133547256306491,0.32007855599506563,3.4857981716106847,-0.9589169560735206,0.9732975889314675
1010,-0.8391751241061494,0.18730955589424383,0.27081678245387547,3.8426347638776464,-1.0882075037081045,1.4015490396378874
1020,-0.8252996564335817,0.21258071576468504,0.2934233119317384,0.6099235736324613,-0.5757676111777572,-0.3022638741195791
1030,-0.8307045356402749,0.20116430423274695,0.2871392434545992,-1.0319890285349769,0.16860147820163268,-1.1792342668682316
1040,-0.8231645993834978,0.20068698576251634,0.29205973097252647,-0.30925501108455955,0.3684240079126626,-0.35180667110176317
1050,-0.8135307410476016,0.21000762544074217,0.30481231106372664,3.8293480202319476,-0.32722982707621284,1.8093145003801754
1060,-0.8278339793886306,0.20268339446181113,0.28586982057324095,3.101599844383034,-0.8129613304658607,0.882613224087325
1070,-0.8329441958644709,0.20148511685631063,0.27952886226836515,1.565448576113166,-0.3556803680982409,-0.1973166617026358
1080,-0.8111736698651807,0.21564807502932354,0.3003767451171434,2.45220194902011,0.7835475378028712,0.9001710536134192
1090,-0.8016793777535351,0.22429454834775567,0.3115193304060656,1.0881054717923506,0.6601882830823491,0.4641972996718091
1100,-0.7892724003860164,0.2369742684498427,0.3220059455045584,1.258376178876853,1.108319441578449,0.8801355429447075
1110,-0.8455659074811129,0.18193392695634872,0.265478149086718,1.9712410187980263,1.5785400639149765,1.2926915822511857
1120,-0.85318574085547,0.17181141114908352,0.2617351279779333,0.09398641240593097,0.43607146679488173,-0.48550098781681184
1130,-0.8279179311819606,0.19900030112177125,0.2885416754774526,-2.328577078282249,-1.335853932729556,-2.5053585813594506
1140,-0.8143423461044146,0.21283153699197765,0.29449716752229826,-0.2920156782306771,1.7236729355143292,0.477922870696418
1150,-0.8279174789188976,0.20198953804471795,0.2834486787487055,-1.279167044694792,0.36384975717727197,-0.45581112233179893
1160,-0.8262784235533933,0.20180746442744005,0.2903294219159157,-0.22783928760593586,1.6472533836901762,0.2112788033043016
1170,-0.820259820325517,0.20851386848056366,0.29082690671480366,-2.2424166740914977,-0.4608294203421597,-2.0666555128439557
1180,-0.8139817592642589,0.21476683485368211,0.3011953285331574,-2.434957378042373,0.8140402262316685,-1.769340052266867
1190,-0.8115642224418366,0.21128992490118373,0.3037700917825927,-3.2973246165412977,-0.10667903124937245,-3.3494928358557976
1200,-0.8347091442595272,0.19302514283012598,0.28964917963636705,-5.125563676311717,-1.9178904583330876,-5.788322416575907
1210,-0.8057136498412109,0.22552985226907798,0.3119078494687331,-0.7937283949922773,1.221787382799542,-2.2781689673722494
1220,-0.8007738324914725,0.22543941312301882,0.3157873787204182,-1.5068149468395546,-2.6151514698433282,-2.2480575413401067
1230,-0.8174992657533798,0.20076196185121165,0.29741557029801546,-1.0259885406643934,-2.0574048124450703,-1.923673358708257
1240,-0.8336587074140522,0.19402731078507424,0.28288259448249964,1.5939769937036568,1.8150598136094476,1.2227933081513163
1250,-0.8481038682936846,0.18110649588668193,0.2777596409635114,-1.6359607458825325,-0.20377147266977286,-2.0610419107017766
1260,-0.8240045452577165,0.19099347471400877,0.2921408366149464,-3.2205210314349633,-2.0916842966805094,-3.542395496268605
1270,-0.8301113389747188,0.1866059926263225,0.2891004116903527,1.6684584128775088,0.7874921512211905,1.0626561516050923
1280,-0.8119205422714287,0.21116914479669396,0.3059421051675458,-1.5929544507469853,-2.372738170478116,-3.19672562642977
1290,-0.8062112622512906,0.21986426820712665,0.3139490319195283,2.5943421391051626,2.3992122448531603,0.5572191806990416
1300,-0.8169661989654552,0.2051915721226746,0.2990751664011892,-1.412473854373392,-0.5241853875029263,-2.3019349350259404
1310,-0.8243320453999873,0.19216424051936273,0.2912192105257337,-2.2513914213357014,-0.6644845772917125,-1.6549884709510216
1320,-0.8252665131965935,0.18391694010446846,0.28729720382380447,-0.07263515068871096,-1.024263908234198,0.011991698327937006
1330,-0.8252323215348603,0.19380456229881005,0.2924016301141272,0.38372462697208465,-1.878301950342475,0.008114753274096831
1340,-0.8218299052684555,0.20738658628335266,0.29526849486929807,0.15663698923137848,-0.10031919009004481,0.08908671555276515
1350,-0.8395487782266388,0.18985641621994995,0.2759268978761467,-2.3566876647260786,-0.9977234086084995,-2.357540286092915
1360,-0.8223504978951504,0.20446763079778,0.2960123914946052,0.619564773940495,2.5609240169540373,0.517441659178361
1370,-0.8049541851506227,0.2187806746224621,0.315994013288385,-1.6139370995978202,0.0894970158718914,-0.9516454999973368
1380,-0.8308831503520724,0.17939822035959072,0.29217761759488053,0.06809083123119275,-1.3203940749750576,0.6424794543236827
1390,-0.8270675223705002,0.19007892622980974,0.28529873353379953,-0.5240304391547848,-2.8976361986935144,-1.1634148170535041
1400,-0.8281041526488392,0.19926993901925624,0.2857640656607963,2.300336146799986,2.151210065519492,1.7852597111057398
1410,-0.8504349874284955,0.17834176602434337,0.26382600990414834,1.0788955466981973,1.8106608679204363,0.10728760683529703
1420,-0.847539060299638,0.17923164509216938,0.2720329188302486,-0.26109131827455334,1.1471580321723693,-1.1561731581187336
1430,-0.8133329007325476,0.21186412392722379,0.3049393391249763,-3.147330070510164,-1.3722835921569214,-3.274921000089205
1440,-0.8244482808055846,0.1979507785471351,0.2920370926698711,-1.0471538540539078,0.5684054993539807,-0.3708295817707805
1450,-0.813320344308703,0.22072958960571987,0.29549875108214746,3.4248816975576872,2.5121355365284437,3.837468303528113
