time_ms,ax,ay,az,gx,gy,gz
0,-0.9089877347043545,0.6245086688251666,0.49905998925624545,0.5802613971654705,0.9115497016279221,-0.5244237676510211
10,-0.9502094733365763,0.5898046703936732,0.46177153919335995,0.7661656707256781,0.8881661619656727,0.3800108107041237
20,-0.9217684354955807,0.6058546033043415,0.4893458391398593,0.9075596520320736,0.7681273635581436,0.6892562287072671
30,-0.895411368431696,0.6306506091110288,0.5030826381226702,-2.8658338098350686,-3.0444237536699887,-2.7085218454321125
40,-0.9268213819472809,0.5978195342061611,0.47835793271392796,3.827529742507108,2.986455534226851,3.86112794695993
50,-0.9009296765938599,0.6277986726477534,0.4993322902756102,-1.3320348979577439,-1.9506179812702185,-0.7000875834483915
60,-0.9057723055863036,0.6221217244908126,0.4958242887575964,-1.0056985022318936,-0.2849531955263619,-0.5763614035783312
70,-0.9097427481197978,0.6131553431383031,0.494120800537352,-0.11725811164007116,0.6386580514435554,-0.10213824816254691
80,-0.9183472565488876,0.605669950838687,0.48784094805646067,1.032318627915681,1.0454275609660448,0.829070630612514
90,-0.9202810831696403,0.6068380857730431,0.48893176433026664,0.09562489042486261,-0.1225993230466774,-0.020772369921184974
100,-0.9348208172613395,0.6012712022555922,0.48932405771599263,-1.7038198429586622,-2.2196760325672478,-0.6246650826712425
110,-0.9296983358871952,0.6040848727153152,0.4953440929037368,-1.2466640258892165,-2.6794427549199864,-0.20854419438934924
120,-0.9018624685131907,0.5963533272214332,0.5315310186935279,4.563394788747342,-3.5323923479357506,1.2268697297605669
130,-0.9035290452886607,0.594858664544082,0.5403052107653219,6.277243817360641,-6.239807028273352,-0.023343443027296185
140,-0.9256513895714353,0.5845773645260794,0.5415951170541369,9.318685529865283,-9.69785014834905,-0.9641030900265726
150,-0.9523405183784002,0.5290113175805212,0.4965992300772702,12.717043081690692,-11.487977562087385,-2.434204467604518
160,-0.924576597857444,0.5622607338452144,0.5216043444105801,17.68232248842787,-12.240193792133567,-1.175405950595351
170,-0.8762879168330635,0.6140182475068957,0.5341714250053577,18.139616535963818,-12.979831247369502,-2.5934571264587185
180,-0.8525553069607608,0.6449043091780038,0.5016614777281054,12.035961588573091,-9.376897766703326,-7.729650685502696
190,-0.8934959231180621,0.6086513492611982,0.47236061283631275,8.640509665615824,-6.534583801645909,-10.917926698199562
200,-0.8737554704554259,0.6072636390137759,0.4695586234071279,13.23557909821984,-0.6242931672261482,-7.889424203644831
210,-0.8590562940361205,0.575293783810797,0.44376580123129444,13.794928947585788,5.46514122795533,-8.940561380988873
220,-0.8205784620451368,0.6134464258341603,0.478314432380441,9.669992428081326,6.500758123572316,-17.49439149896593
230,-0.8650605718995531,0.662298723722007,0.5065594392396117,9.017860165946804,9.459113580244566,-20.683078727373953
240,-0.9828881740289895,0.6154564550663192,0.5039297876618732,-1.2928867108435051,1.735695040671831,-23.776727815189652
250,-0.9344626005132954,0.683389188432527,0.51692772814579,-1.016271356786584,-2.542730960072619,-21.463753930762003
260,-0.9049312080424375,0.5837981853688305,0.521672532653208,-6.290355350037304,0.34197048370023686,-11.309677762637511
270,-0.9623768523293069,0.5696545836816076,0.5455208188497983,-1.9571178588201958,-1.806922935352682,-2.556337153762499
280,-0.9214733969784721,0.6546526755158808,0.54471303420215,-13.06666489471084,-6.36247679942391,-5.092774161365705
290,-0.8995258604916574,0.6252928276503963,0.5945722332442137,-20.877750065000555,-10.721397252600445,2.556877125784219
300,-0.8850968236640194,0.41562330978918777,0.4093079538270934,-6.527501787616405,-4.814381282708159,11.122727393306024
310,-0.870652722249823,0.4002172568306267,0.4367508052392343,2.172990839018618,-6.912737018817041,11.482208163057999
320,-0.9272950263149404,0.5746007618627774,0.6655202354977837,7.004413490802395,-10.690107995069496,10.429120141542306
330,-0.7970714255412424,0.6750740353110506,0.8282402722581961,8.165710588048416,-12.953315002478938,5.102992982612094
340,-0.7938153385729166,0.5610500345825021,0.6140108901642177,7.781714873748072,-13.771053877497588,1.1369656058412794
350,-1.0208868355777214,0.4719627260922943,0.45428502493199413,12.97328786326142,-14.700838245906615,-7.375639573170656
360,-1.1296168762896013,0.5353028997208075,0.2701182834156014,26.9009205422094,-4.598303257161338,-5.739715893795022
370,-0.9511026073855151,0.6538181989643512,0.24769764076050574,15.811458695258354,3.847131992960933,-6.799086814213594
380,-0.9071723790402574,0.7148145546056615,0.3458583701650761,-5.4397773812190025,4.704520613448183,-2.1376612683406746
390,-0.8913817831706105,0.7900148428782262,0.4975980136725296,1.1239619495228585,3.088274816745072,0.5500338593097753
400,-1.0015077334539984,0.8084761473418732,0.43120181989069745,10.640673442870666,1.6157778648101402,4.248330987538475
410,-0.9510331112862772,0.6824135453997183,0.3733135465226906,5.976387091489536,0.5306947652978213,-1.574996027024722
420,-0.9173858530460026,0.6158476640406632,0.49578777912513533,5.901193152209382,11.79472101734935,5.942758621926636
430,-0.9244170478273436,0.645507186551094,0.5148646178263531,0.8292172280363429,19.164317300843916,16.178181468313024
440,-1.0010291017742912,0.34169203020522954,0.6842312163388977,-26.889185200471278,30.174880482848234,2.7299850570699804
450,-0.9187041593262926,0.4677381721938365,0.3192628764776033,-23.88123323804306,33.71477117456526,4.554022684584979
460,-0.8286719424579982,0.6176005682988254,0.10117334365415351,-2.7781503057708923,23.23638310554917,21.109599194031045
470,-0.8484674381787466,0.7628451564588719,0.41473023127929903,-1.9377368729450692,21.20092563131457,23.45539841717118
480,-0.8290099452140371,0.7478574266389169,0.23039798580621626,-10.483548377056714,18.996241343547773,18.001438634222783
490,-0.8754507544014093,0.5340558323144969,0.13539001250027385,-18.771417408464366,16.640651731258995,-1.1740474652170232
500,-0.9121132000330237,0.507633629119175,0.1320908345186784,-26.50293038469445,12.574875315686636,3.7966597497954764
510,-0.9606837521618913,0.3995868940656559,0.3396227359112438,-27.810933782512297,7.318396132212045,3.8429992478370023
520,-0.9516469425228635,0.2379513974101965,0.697199245391158,-40.38869907937508,6.6969272150240275,-10.060380438995436
530,-0.8343378290165637,0.3958950388553848,0.6794677226036474,-27.055324117242478,4.716032289065877,0.904773945908337
540,-0.8586271687805089,0.7047452300838503,0.4041749362756831,-8.605529684130156,4.6303049726726675,16.61468655212455
550,-0.9120442530691483,0.7066710305937531,0.3613141720744849,-8.0760948009891,2.83282609432551,10.204336946075264
560,-0.8994082145288571,0.5926204545485295,0.4862708911350878,-3.468088245987761,0.22758229576883213,4.434887426923592
570,-0.9182726529900282,0.5768601032379275,0.4779544818024934,-6.34639210836356,-1.3776859415423897,10.346532283848155
580,-0.9273659161382783,0.5456048951633021,0.43803049056755444,-8.974529811597959,1.0386957347570671,16.78605705248764
590,-0.9056999593026278,0.553728067451415,0.42138920531414076,-8.578629879067282,3.792771847796757,15.843422407652943
600,-0.8573756266010243,0.45084270609544413,0.3485318210286681,9.657939989605023,3.6816907053137156,-3.6072092822679123
610,-0.8392944057075177,0.248021077128412,0.2805126989052432,21.747494587669678,9.459792018082005,-14.007714217510332
620,-0.8250811718416365,0.4277226052835401,0.4553724861668896,15.43502129769803,8.433472886120311,-7.793465429839309
630,-0.8730556661266362,0.5516595117837143,0.47164999146919784,25.483769477140086,-3.5449143580984575,-11.104417585863004
640,-0.8303192090912371,0.5707822983046644,0.3907305727437723,36.780342503432024,-4.415515062141022,-2.927987074632629
650,-0.905822116575091,0.8208739165953578,0.20395888430066192,36.215398155489254,-1.7875285608448352,9.701109787559766
660,-1.0438957363488939,0.8064250831601023,0.053250432819681504,18.39937661519351,-0.5324205427113518,9.223155416264692
670,-0.9087368019246491,0.74640338239669,0.4236063023605329,-9.049435234309293,-3.0752302030758996,-3.445030762244257
680,-0.9162861046615355,0.7393754259002487,0.5049502347777998,-11.6993880471099,-3.8092869934745717,-13.514875894639157
690,-0.9273542824389832,0.6561917116681241,0.46994380945644565,-3.179619675379978,1.2582818927767179,-17.02261276307418
700,-0.9266738093435203,0.6014579043151744,0.46318709932973445,-1.5350382252188766,1.7824028302091255,-19.750888484738724
710,-0.9345293791475529,0.5661468926642182,0.44969832883025146,-2.0741889500465476,0.33191311934620726,-14.698428116612277
720,-0.9259865323384318,0.5861096164767623,0.4566520279063202,-1.4418237032188066,0.8120319446812028,-2.6161250923135806
730,-0.9304799495411754,0.5986007612909677,0.4425635588166479,-0.4820032509163692,0.9485542597686166,6.770134492029856
740,-0.9247706526166463,0.6003230183781668,0.4493190366064582,0.22930541226504308,1.1162551352817252,5.30910210023008
750,-0.9113008507848204,0.6230532165384947,0.46618901271102736,0.3605519945712421,0.8318906846907317,3.1056913951468967
760,-0.9167302676510897,0.6129024799205361,0.45896371067598096,0.3316350595489923,-0.48991681777717644,1.2171995970125615
770,-0.917277634466859,0.6109030600836984,0.46424676436090834,-1.753692793945151,-2.6932229959431657,-1.5250769114586666
780,-0.9210406560263041,0.6115764537333915,0.46340595123530637,-3.574439647401584,-3.768484562229662,-3.072190377976477
790,-0.923925640524588,0.6082501400855953,0.45572975536806587,-0.30727659466918666,0.13951263438528583,1.3149974836128757
800,-0.9032496301607318,0.6282723575990297,0.4745195695228661,-2.340239939225744,-1.8240574913437961,-1.1435426960909385
810,-0.931567261639681,0.6027406391638764,0.4484313897922061,-1.1858347803976568,-1.1367799140191113,-0.6221068277400803
820,-0.9129208597583318,0.62019870252352,0.4621238379771212,-2.069261934086024,-1.8464336020344967,-1.8002447999239577
830,-0.9227115634241518,0.6093958903820695,0.45563973879506026,-0.27505080984050057,-0.059386648490509786,0.016504021673068192
840,-0.949314133115655,0.5790925875761559,0.4296251232234939,1.9835968586069415,2.2340519397092944,2.5798124009247503
850,-0.9185591834341696,0.6059165135370623,0.45821201808057443,-0.7890111766135004,0.4017044254235309,0.256492189931115
860,-0.9246341574325418,0.6011111441320428,0.4509032416558731,-3.210655286813969,-1.7950512761679054,-2.793001155739497
870,-0.9123184966545432,0.6158913408200267,0.466402771820535,-1.9211135417828964,-1.2939581767811126,-2.3803954246713968
880,-0.933474329524577,0.5926104583257732,0.44101996378236735,-1.7687242919975334,-2.068648801344736,-3.1464143775515856
890,-0.9075806697845531,0.618414379805341,0.46654692630930167,1.830324888393158,0.818175601571671,0.08443260007304776
900,-0.9079938072440422,0.6173098782459555,0.4681989886082258,-2.3764791707920305,-2.7627022019086134,-2.6733226543254354
910,-0.9175659943532735,0.6120542696947501,0.4690547293766817,2.259172826274381,3.384868743787614,4.495769259318967
920,-0.9190123647413461,0.6116846035434862,0.4622037411101614,-1.1674228947138152,0.2658358985351361,0.6585604859036289
930,-0.8972637120942483,0.6289803892795367,0.4808617912765794,0.22635274198066355,1.4822391321726336,1.934345573162245
940,-0.9177973584102508,0.6124160971592694,0.4574063275799304,0.7734964141553929,1.7455139348806994,1.4499193950330453
950,-0.9094577326311215,0.624816432122944,0.47195014429545457,1.8178376253506525,1.7821330928453079,1.3045371995000297
960,-0.9226405996863062,0.6129765419340216,0.4543112930089733,2.3981832498488695,1.832961451400019,1.3419671081967546
970,-0.9139903878996458,0.6170457801430407,0.46865641990279,-1.0919337042344468,-0.4305032737810455,-1.1769792735081452
980,-0.9358351562960223,0.5912715748923102,0.44679893106298413,-0.27036234535588516,0.9510060483908918,0.03169761162544554
990,-0.8910977012675332,0.6334880670857499,0.4917087502981836,-1.7182356567347958,0.14335558255128633,-0.820896582243338
1000,-0.9206456181544626,0.6066648377690882,0.45892258439860606,-3.173289802960531,-1.073506478895658,-2.0027888793213204
1010,-0.9245252839653867,0.5997913314701839,0.45330092069041394,0.08110219523908752,1.3738886639598835,1.424451837251775
1020,-0.8942761441838881,0.62952549776076,0.4818417596296392,0.22249484983688708,0.27008537370804886,0.5190654708274851
1030,-0.9149869808218533,0.6146690595106934,0.46625296360747287,1.762040188092423,-0.2500527847601641,-0.5118683383286391
1040,-0.9350292247326248,0.5905077364488377,0.44563689257618416,-0.3721826524782733,-1.3788489736986054,-1.7360367761919586
1050,-0.9237295491044064,0.6013105287458484,0.46053390348753254,-1.6535345020780388,-1.7313321257779748,-1.8358126019480414
1060,-0.8925263765828563,0.6313861461304936,0.4898237399560368,2.2073688619660112,2.4080873881427864,2.3064154954943468
1070,-0.9223819487337989,0.60379703567374,0.4641801076341049,-1.4104375643387586,-0.43232518807290504,0.10058976969941874
1080,-0.9338636737652438,0.5914344639815938,0.4465866193104299,1.1240631053157404,2.042062249393312,2.318587555894554
1090,-0.9262216562360994,0.6016745879676546,0.4532165087127795,-1.7516302343761838,-2.47043851879769,-3.467412692037388
1100,-0.929268307281994,0.6013310501540513,0.45608128490481975,1.2900405216330484,0.20601100907268233,-0.5083676637676813
1110,-0.9030831013634099,0.621975200454774,0.4797622417709623,-2.078348074735567,-2.8361180997707134,-2.505116594783904
1120,-0.8973888115762504,0.6243324930107857,0.48542334011019583,-0.903273855203528,-0.6519363084034931,0.6875775099181516
1130,-0.9093868085957206,0.620704957495819,0.47158294950468854,-2.263159526572761,-1.8349497394084733,-0.6440628485125854
1140,-0.9218343982459813,0.6111826750714067,0.4605019323279774,-1.5765980357577054,-0.9387261746778803,-0.4339648076485281
1150,-0.931595090448792,0.5930974327860653,0.45101722208055856,0.13908195000011875,0.009002933771041416,-1.0708335669470996
