time_ms,ax,ay,az,gx,gy,gz
0,-0.6159923177346756,0.1922861527951898,0.6444623821578012,1.994948529681818,0.2216184585613979,0.2527323048329774
10,-0.6406165648466393,0.16848898701436832,0.6170977488516641,-0.37004142344402263,0.23528509409592585,-0.034165479518111275
20,-0.6236655441606942,0.1842311373595937,0.6253908127761296,-2.0993555902283023,-0.8585535608757553,-1.6961516097682248
30,-0.6039387540706828,0.19799939520818188,0.6510883411398698,1.1147229496757791,0.27807274695903883,0.10835339502884112
40,-0.6022284273397595,0.20132680728538613,0.6533014410184861,2.1942913923661065,1.0188119091600605,1.023900076229083
50,-0.6641807533101696,0.1358757000087307,0.5947703944412215,2.7248240532066768,1.6646382474277168,1.8447472385685169
60,-0.6435393300571293,0.1527133854005656,0.6101672639181422,3.9804619818531797,3.2339362150719313,3.4804539739859055
70,-0.6158821642124513,0.18521073144637998,0.6334063191990938,-3.0540236313942106,-1.6845524596979367,-1.6148696416151713
80,-0.6087484688197946,0.19645221323008782,0.6427337004863385,-2.7014256891503132,0.3104308714089819,-0.5707319707633762
90,-0.633401399012769,0.16323812867398177,0.6213213388754038,-3.0519816103459037,-2.6427475959960716,-3.3553844077200212
100,-0.6255287613104982,0.16346213361549142,0.6266720648591765,3.7580460516060477,1.0725316670647638,1.5625724076331866
110,-0.6062735049557573,0.1879857817660235,0.6436159632192813,1.2873329266461617,-1.2015192916373734,-0.2691100139308167
120,-0.6233369027336193,0.1786694124894458,0.6315090921943054,0.09175905681502039,-0.7427469042676562,-0.16169551593273312
130,-0.6098580870708439,0.195316649839731,0.6474575700462727,1.7856037345867208,3.639788640006762,2.8170183128104918
140,-0.5933379688664622,0.2080814245056066,0.6638041764974363,-3.364204221697823,-0.2714620495192963,-2.6136166216241077
150,-0.6233576622097722,0.17554776264798208,0.6380806433670393,-1.7450045247092314,1.048940276714236,-0.6866954490215981
160,-0.6395275098391892,0.15458656692880152,0.621146395784484,1.0011042045820253,-2.9074548787577696,-1.977036941062086
170,-0.6217806250087842,0.17531864601047922,0.637435405331728,9.446214296588076,3.7161022665712395,4.938991111147857
180,-0.6481380033207808,0.15076369082851873,0.6114819788677964,5.200527456640225,-0.3566094014289396,0.8318951543898212
190,-0.6435523665513968,0.15652210891704668,0.6339613781223253,-2.360291125267634,-0.602110792659807,3.9628341685919866
200,-0.6280720603811351,0.17860323994304872,0.6526881296989817,-1.7662181351611155,0.39850125083106436,7.298552738798693
210,-0.6460319071029571,0.1627927537457126,0.6367951540024251,5.340555426820281,-0.44625789513964276,11.813239567976519
220,-0.6285079156926243,0.07750722846547657,0.6761363055922476,24.53051452938413,-17.883922077411164,2.3017448164649794
230,-0.5665028424447436,0.15760806084658982,0.6302677469680591,29.465988518477502,-25.52117124998231,-5.343206834900704
240,-0.5355328526304073,0.19322271877775124,0.6018646847565612,30.163902315164602,-19.7305616237131,-1.7677535606129249
250,-0.545158816469691,0.2113820017035831,0.5660805693266674,19.289859205937926,-17.319882585275366,-6.188707590890973
260,-0.5882486512951447,0.24988518205781715,0.5150661808299888,8.196855562472724,-14.72400614550337,-11.022015875245337
270,-0.5753264761063897,0.26972177226368305,0.5230335591447065,5.334351925954435,-4.787926176045898,-6.98121313055775
280,-0.5762722651071854,0.22339714157908105,0.5989687402034551,-6.385580004888334,0.9880917749297273,-7.423410771581402
290,-0.6382692002355831,0.1798287711465631,0.6445758811847409,-14.609986474861879,5.885766380184619,-5.8525414249187
300,-0.612164587991058,0.23658059674500478,0.6304975266682258,-13.839811906122481,6.771015686405557,-2.511229897788833
310,-0.5869172175387358,0.24870966378953158,0.6209396634461348,-19.221291617308175,5.602228439624312,0.1244777366716967
320,-0.57684739974383,0.21875867665497412,0.6419417797690681,-20.47837433163229,11.075872709562143,6.8680114176422995
330,-0.655240013590903,0.1530341738728466,0.6676810161622455,-21.86306949173739,7.652097745848696,6.505503416992452
340,-0.7444251435211799,0.08356127493973742,0.7136757379171053,-17.58245454902153,-2.0987346591840508,5.752700214407969
350,-0.6313082498078659,0.12234948042892108,0.6457670217468058,-10.956571984077264,-4.339319308178794,-2.4917859556909074
360,-0.6570263864114867,0.18021528700520092,0.6733153875951308,-11.462365840961885,-3.524795688528269,-2.809711337805557
370,-0.6025386946975063,0.08338691983178595,0.685545605927442,-8.025531482272214,-7.656738178020618,-1.4749495056372293
380,-0.6524668490924289,0.09303521546995347,0.6043054827643027,-8.275731612159436,-9.763887937117877,-6.471274082875458
390,-0.6324117741079294,0.07708493746419216,0.6441853139154629,-4.306313618338139,-11.290018208424755,-7.764035471454015
400,-0.6276857112643672,0.06346615120985137,0.6348819303021284,-4.343892500995137,-14.709319052524496,-13.360735594822366
410,-0.660881699712733,0.23583194917594483,0.5958556305795393,12.750826956319647,-5.9997046141408505,-15.19932905442373
420,-0.6615378017009872,0.2621805769026122,0.5723494636967842,15.09247908604365,-1.2197075534918376,-11.624499632316844
430,-0.5971754489771771,0.25911970083789654,0.624353484939432,6.260338308102785,-0.5371379582251695,-10.640850021037068
440,-0.6771388155354133,0.16559056791096088,0.563658406797393,4.822007809008212,11.712112276060196,-5.20612995548724
450,-0.689607446005107,0.2008355569962466,0.5681745117072536,-11.359113219943854,11.41938595353228,-10.70633756208142
460,-0.7905736704361376,0.3307862402312639,0.4142550688599498,-2.9357566595932045,23.73706573516661,-0.03169545680734975
470,-0.7591359524586719,0.17810126485901281,0.48391974189474407,10.539646767350261,23.948294791743272,4.7761124435478965
480,-0.5025040650222968,-0.19908085105603246,0.9236914907061408,0.950353702132775,18.09558095161103,13.183564174062248
490,-0.5135509549673593,0.2503100702967588,0.9215174087556296,-37.15356347829263,19.87707811191936,18.662811029299213
500,-0.5341111097457597,0.03735484722494607,1.1301784073298964,-33.48767062682196,20.457491041013803,22.311651661133176
510,-0.6912277538767957,0.2064297660588967,0.5501377101557495,-12.81092134464588,6.3857435717589395,-0.46936994904268214
520,-0.6183339766480425,0.2984070346155698,0.5935670856517173,-0.0278532263475485,7.914097360228395,10.137483744158963
530,-0.61050776356716,0.06607769124479126,0.6542861105260016,5.897970404044069,-0.7025837982349801,0.7459896720053203
540,-0.6129341518148383,0.12434375092625652,0.6482169753509919,29.781142772976686,3.7520936425063747,11.091057141444853
550,-0.6061925254678557,0.0034317193605879585,0.7165527815263163,25.53741574990925,-5.977484526554801,-7.057572668747646
560,-0.5773132425282451,-0.04775338352537066,0.7212415460568221,10.02853629302673,-8.310093979173029,-14.827612238046767
570,-0.6560520944973612,-0.16757786072795136,0.4536001737292144,5.728008932793017,-16.06844608719454,-32.552726182349254
580,-0.7967503426469568,0.31406487245561904,0.3536791443164607,44.196443919743054,-9.282935274643128,-27.05735356364851
590,-0.6812802099564548,0.5556986481345355,0.42882774718018174,36.068651242819726,-6.8515820140747445,-19.478824096475808
600,-0.6192415125935956,0.33494019074092907,0.5672653206189159,11.016795368941562,-2.2009893522353967,-7.546377144710163
610,-0.6251421243164943,0.1835405966924596,0.6305190149759311,1.7518671808965134,-0.5502364047564385,-2.6551016521751607
620,-0.6267574596168677,0.18347306910604044,0.6242522397061229,2.3171385762370726,-1.1198186428532906,-3.3334325558971765
630,-0.6366110898011378,0.1778727295580435,0.6132775900309279,4.114910032489472,0.04270039432626942,-1.9418009361518052
640,-0.6159011751748453,0.20322775013534977,0.6340780054782285,3.049385113093839,-0.9365079469958033,-2.375522624376127
650,-0.6393225129294327,0.18593806581105732,0.6093764025596076,1.9637135304031519,-0.2725948149359868,-1.8864676350309977
660,-0.6370489671541955,0.18336728725603357,0.6148611457266151,-2.8167358868062022,-2.398139584569838,-3.7055327773330085
670,-0.6386149904531424,0.16685726432362355,0.6147479695457466,-2.479288190076615,-0.6466978766555022,-0.17855448495442006
680,-0.6441729772030151,0.1756482311001199,0.6130920985335518,0.4954979730094451,1.352073221520203,1.340047618133697
690,-0.6492105358121847,0.15867041858687142,0.5952675780085632,-4.263782266407893,-3.507434642168806,-3.252133718971985
700,-0.6274557134659814,0.19013185584120426,0.6278686913972141,-2.499944461003423,-1.539912646055639,-2.2829235582594185
710,-0.6335149712359622,0.17636804227346956,0.6133859280522465,-5.1364623986141655,-1.119563700782434,-1.9692887890788422
720,-0.6058330578551615,0.20655737455190004,0.6484345205222348,-6.379763727375902,-0.48618990296313824,-0.5242244921447783
730,-0.6336825262523926,0.17913958733656685,0.6200611252381166,0.10888952709859986,-1.2746948640766258,1.1413724575563815
740,-0.6221539177104988,0.18738408038499843,0.619825937542607,1.9923567441940069,1.8666318032277858,2.637469273460127
750,-0.6653047453870925,0.14951004281657151,0.5889390185090437,-1.6249403343959599,-0.42516739464004777,-1.717817789898962
760,-0.6534710326131904,0.15121810963518015,0.5980997125289857,0.8586146526942273,2.003215894107708,0.07714522767464227
770,-0.642395362124066,0.15712366155933083,0.6049873733003908,4.353068095953924,3.320747203528856,2.33653525746539
780,-0.6478513410169451,0.1518549388258837,0.6044343976068006,1.5950164091303896,-1.0699851441129726,-0.497954336641504
790,-0.6426364999592805,0.1633381896179759,0.6117197589144866,6.159647372857857,1.297474687744911,3.966403973803895
800,-0.6482726035534051,0.16405833909043843,0.6025718265266118,2.1972004099168796,-1.5994311060746864,1.7601883686043864
810,-0.6300761277648943,0.18376258739948753,0.6186589374218959,2.34192018676817,2.1366933831554515,4.678693971769074
820,-0.6493974321738183,0.1652932793940436,0.5992941779539209,0.6363989712416149,1.7638241171302274,3.6988924171800255
830,-0.6380519261559561,0.18115402536570607,0.6134033715905599,-2.285195429431197,-1.7876031598467415,-0.2082148788401006
840,-0.6269767107858476,0.20083919946387915,0.6289022096233654,2.4566982728960953,0.5093467916941707,2.2114298022017116
850,-0.636163743018412,0.19015131879552424,0.6127872407813054,-2.267972559318627,-3.6708071779068874,-2.3388880844280844
860,-0.6108205644995924,0.19980664803379802,0.637583431492519,-3.6068417185272454,-1.8718826222307023,-2.5237335440688784
870,-0.6344808715472469,0.17737415924177105,0.6199216645623846,0.7942490054689867,2.6130080265501325,2.1651570118413783
880,-0.6352108606878757,0.17573906197119094,0.6157480225514065,1.188423376415688,0.7650802435473534,0.8528347779955365
890,-0.6439517680128355,0.18389367045174293,0.6076030363590398,2.070676232443145,0.5994302864352223,1.1637716176592388
900,-0.6281313469674527,0.19438552700298867,0.6311147686517762,3.2787134907377515,1.5651358466270229,2.2000412289081126
910,-0.6248369730445953,0.18955940083558692,0.6257802734649602,-2.0346823366406386,-4.828842011969131,-4.089642837438707
920,-0.6343749834277569,0.1858551185945454,0.6136016315283063,4.121971576818508,1.215049281867058,2.6937546945716027
930,-0.6116754571421419,0.2058369704495831,0.6358253660711387,4.611553858258878,4.400863323483909,5.446876620414537
940,-0.6266965407842434,0.19378236676739127,0.6193018658762031,-2.15091029582293,-0.8115459216691792,-0.11555363693053855
950,-0.6316171208653154,0.192094930588551,0.6186420842358921,5.1271961431349915,3.7629622631104658,4.5810666063683545
960,-0.6451452616650872,0.180910506388574,0.6022883765853188,2.5949052982329794,-0.5417451878095639,0.1185655832716501
970,-0.6091961685862629,0.2123677380496818,0.6393688178190143,4.705131040135613,2.6233203376054153,2.6791028055947432
980,-0.6220804737592951,0.19907911690811247,0.6312871344477294,-1.6724952217697757,-2.3918167033315747,-1.9200957748147287
990,-0.6046016059987642,0.22026356080314102,0.6504944685010371,0.39077038676277087,0.04626157567346782,1.1106500909592827
1000,-0.6626170169269244,0.16225898596452878,0.5913995287206619,0.6661879354195698,0.4373224125115748,0.6297748756451582
1010,-0.6162715131476253,0.21112089328765662,0.631014888026099,0.23128993710003237,0.12005652882820711,-0.5110724804177891
1020,-0.6266922167008098,0.19599867604016982,0.6209859861640084,1.1348142457829458,0.018980294827539212,-0.5172644076999178
1030,-0.635232300801128,0.18717226634799006,0.6171159649584379,2.9309786207326605,-0.21124193408355674,-0.1252300934463858
1040,-0.6149380989865681,0.21045892724307996,0.6342243850858833,5.365189929249077,1.4105494180549725,1.3162302604348917
1050,-0.638535884537291,0.18981891917962368,0.6074306982960677,2.614516150528715,0.721101965654757,-1.741388314132149
1060,-0.6135224514682094,0.22215367556325397,0.6323379066529532,2.2939642778408382,2.7700019445415767,-0.14109689568618045
1070,-0.6242933857291527,0.19300947865520932,0.6255866631278665,-3.3979216251637596,-3.0458154284003425,-5.5633269040577344
1080,-0.6304448099472181,0.1820363264806789,0.6143440167691875,1.9646059556060114,0.8469956757695447,0.3266526213131231
1090,-0.6410038732307608,0.18381518812678777,0.6061183578627236,-2.262366737521246,-2.347010056772353,-0.8634376697217345
1100,-0.6198402692902701,0.20744174848064215,0.6298501259644187,-1.4799338473835753,-0.7549081089052455,0.9388757163833977
1110,-0.6373687248122979,0.1890798952280739,0.6120149800047282,0.4968821819575824,0.48863150173203457,1.1562941505030784
1120,-0.6478048728426267,0.17298394427590583,0.5960050746319657,3.3240047040552403,2.0629603055111536,2.6685397471415357
1130,-0.6376352961195452,0.18433624797850945,0.6117406771834316,1.721587095538476,-0.34952144293877796,0.7122233523715038
1140,-0.6043896548211707,0.22448719684442067,0.6505946383617689,3.7650494474526472,0.8992175183168756,2.5493180323682125
1150,-0.6404230326376831,0.19495089495145704,0.6109708969773477,1.753544095962865,-1.127735220228426,0.970536963325446
1160,-0.6321653127796953,0.20447794386289217,0.6179021918862091,2.3008114996033915,0.7270503491869142,2.075798666541465
1170,-0.6182229968235652,0.21191292508803145,0.6332297532447235,0.142851292985555,0.7317073101097185,0.8213045122886153
1180,-0.6065652920692719,0.21676981836114495,0.6434188806467005,-0.8307824894929273,1.49606857150409,1.2935824291886198
1190,-0.6060481916391168,0.21784479455168104,0.6449729485670085,2.098369096364661,4.494372400005352,4.3383514687163185
1200,-0.6378697963604119,0.18458313645492921,0.6081817444864532,-1.9409002724350635,-0.15561459170660707,0.12292954169397219
1210,-0.6188800942620148,0.1993085676074273,0.6237032093873968,0.3416465231573477,0.5303297732964878,1.7636756153045823
1220,-0.6174933162779535,0.20740308993622517,0.6238939714791172,2.8878173075004376,0.6300472739159595,2.2525098381741997
1230,-0.624727338434493,0.20550173580720307,0.6222605599935106,2.85565575746206,0.6094819463846368,1.4484892071399362
1240,-0.6145663759177213,0.19837949012091405,0.6298878372585676,0.8509664064278569,0.06406621550337299,0.8011680442243457
