time_ms,ax,ay,az,gx,gy,gz
0,-0.874341317722532,0.2164432788719994,0.3874544504640967,-0.8751031036995942,1.9972359995722444,0.7733488842379385
10,-0.8827222041508666,0.1953532355677032,0.3836696612711943,0.9849281323460015,0.32575156805111716,0.3419465718022247
20,-0.8982850621761667,0.1812009903024991,0.3638846564655298,0.5137843353311964,-1.6034085099392434,-0.3088773421328005
30,-0.8612908232676999,0.22041449050602321,0.40537972875318556,2.933639190776926,0.9714756220969253,2.80287744755084
40,-0.9033505762298716,0.17703959953723342,0.3606041558819736,3.436397061993071,2.4838329865605715,3.9977008724481315
50,-0.8660581241626715,0.21219359504319601,0.39148127591770676,2.1551742406975953,2.446427867687842,3.06375809167418
60,-0.8951221231931921,0.1855725323300196,0.3657807479473249,1.2934704010374944,2.3716338676690483,2.33634269475518
70,-0.8864846653008043,0.19834833158123488,0.3824680760582991,0.1435869956469411,0.9753530886678741,1.0657277609422529
80,-0.869118220265224,0.21217234355777645,0.39257776197017585,1.3681559796136475,1.1053727396520248,1.5722331467093391
90,-0.8797635193652802,0.20692592956032363,0.38597495402477516,1.3718491830046875,0.45947097633383394,1.2545806161386208
100,-0.8830640834007888,0.20047243383322,0.3807820622969206,0.49328293050198746,-0.7807708188708882,0.36384703593167966
110,-0.8940131079648597,0.1910457966266298,0.3722327920705597,2.2212583924068134,1.77055245782766,2.275322343969471
120,-0.8720982155372314,0.21227484204636182,0.3895105071192998,0.9804451353286011,0.4271093807786037,1.2222086034323825
130,-0.8766058706377148,0.2060119525570429,0.3799919809637893,-0.7765090616223228,-1.1014080185288007,-0.4873481305794034
140,-0.8616344420436045,0.2212289264006691,0.4005598304088218,1.45037387483966,1.5646428245119077,1.4382329820375919
150,-0.862582670709281,0.223448020066237,0.40914101273670545,-0.35140381119205755,-0.6676897592005044,-0.8551272941889272
160,-0.8937614050284964,0.19580038563180496,0.38018569952145775,-0.7172027830647048,-2.1130797499559044,-1.3895851713277485
170,-0.9003294267366901,0.19508458100618367,0.375257782107632,1.2462569779491675,-0.27887101563163486,1.2298594256080653
180,-0.9097604731169433,0.2077925986397461,0.38660437961228367,-2.639874092859544,-3.715878205928636,-1.130185713887582
190,-0.9032070958472508,0.22430702725716642,0.41036302319687507,0.11134142704974426,-2.2093037378810774,3.0143535817870757
200,-0.9307182366644471,0.20353724591134925,0.3835375582601607,-7.116943590892916,-1.9899809794065648,7.283932298185234
210,-1.0140440081641042,0.3507212926574165,0.4211587464715537,-4.988382223742836,-25.134031764584595,16.542850687109972
220,-0.9261565446492279,0.4195352587267673,0.43472453848209835,-13.333647485417355,-38.32648030049525,16.33476476742572
230,-0.7067848732419378,0.49557877388504823,0.3813067125567705,-23.402871772014564,-35.88634037360698,19.65583534342442
240,-0.5684281954783044,0.48116707592993413,0.3078456540388824,-30.380523315219918,-25.363126705538704,25.22987113842565
250,-0.5016616014556647,0.41753614972014697,0.3300505917895082,-39.17863220682985,-17.034880496657266,24.373783183980052
260,-0.5256888321228294,0.3309636439270683,0.335462323906817,-41.499719572920654,-4.691854140314794,26.64728620390483
270,-0.62774479302681,0.2986370905747388,0.375515508494533,-44.21160907309389,4.071851309222546,23.299376379380103
280,-0.9385421996853197,0.2302939555171841,0.41851541073410353,-56.825421908593725,14.616009262380206,13.185174152027454
290,-0.8826702533948884,0.13412844671727883,0.40222802129832114,-57.322339372941016,13.694947160298403,8.821498479928714
300,-0.7890087687416523,0.1404362492537203,0.3582848596288339,-59.62354826435865,16.71831114477568,2.939003595303479
310,-0.7211011341298845,0.16960911527830957,0.35964081464955183,-56.61452906188968,23.783738299845144,4.00428951591482
320,-0.7041152913334496,0.13504573194320066,0.3927848976859738,-57.089815699514325,23.91115089711484,1.0088474710823765
330,-0.7308299352535605,0.06946119579673427,0.43765141107982813,-54.301638598451696,26.14445634591477,-0.1541170332325903
340,-0.8172921524633399,0.020711596495628322,0.41152434150962086,-46.110088016982026,12.20259730109657,1.842812498407528
350,-0.970946487070322,-0.07717640434757643,0.2832971925659968,-33.27706340526177,-15.400269895431089,-0.12661630827392667
360,-1.034415648439723,-0.15836975619504992,0.23575867089105412,-17.90303712256807,-21.75778026988102,-18.15821432545747
370,-0.9768557575416897,0.15577201487120054,0.17996063359520623,23.882256074111456,-34.55974769608788,-21.566399941626845
380,-1.1247548716694482,0.4390739318159446,-0.05143828329653838,37.60488546915766,-28.029855938948405,-1.433138288918792
390,-0.7008556051024417,-0.09501887739920654,0.7258832579315457,19.797663232154182,-34.04503715119937,-11.857082250848965
400,-0.5544659545470193,0.1456342932971718,0.6977622985636309,30.41795402003124,-34.08025805414417,-14.300183313410479
410,-0.8577384417710665,0.17886303229309358,0.4595103660355819,69.02946653383451,-29.267988452935604,-27.48368615813927
420,-1.0584628723523262,-0.2159896490557504,0.5859561642652706,68.90847282912101,-25.118257204065884,-42.37060723885607
430,-1.1273072846466423,-0.1406548235758266,0.7579823750909792,59.177290809571964,-15.422074793114568,-40.121841728799836
440,-1.0708338101787476,0.32361053652393806,0.5615600794673002,56.938614395477764,-8.258693385486929,-32.38848516695141
450,-0.7661814955445411,0.38048702694800257,0.25328590044821614,52.86920387649517,3.447300850880458,-16.987634439503374
460,-0.7535273085921891,1.1131474198095583,0.34422385252261145,69.34438556391156,7.317488225189218,0.4561859368893029
470,-0.7191746369087757,-0.23409924634330376,0.3743331430857355,16.458249545107105,7.11334654958272,-21.679745644262013
480,-0.719012912390155,0.24795766782252016,1.0267743941834633,16.622581804618434,16.736395248565895,-20.3644379571618
490,-0.8824019311937864,0.10927493630991711,-0.07687870604349288,-9.934918206386108,29.509204802007844,-15.412370429046797
500,-0.873140903697442,0.5585228246323879,-0.6185662520114857,32.55364885908021,35.678982843208225,0.7432526704296714
510,-0.8029073383049626,0.9050629564596023,-0.3788677880691632,42.94608232274448,37.37398406458117,23.617204681240327
520,-0.7962425917548469,0.6480051118426592,0.05767229889374102,6.801747558502794,51.307906744929355,40.39861246463332
530,-0.7629446157778695,0.3183849690418328,0.08723288514897416,-21.470738420005457,66.26866320660335,50.24903932646599
540,-0.8572661328914304,0.3312659202176943,-0.05600409471608582,-30.44102180787042,63.06277633580075,57.8841752938539
550,-0.9619968734604212,0.47256677384531365,0.869881689783873,-54.44532304857887,66.79467312066657,63.20757996362771
560,-0.7625428447692011,0.13031128900852185,-0.046942953738749786,-18.36325410511597,62.84750071104172,53.37597105942011
570,-0.7075235146389041,0.49524572253114113,0.633787380693887,62.23570148700323,45.73365289044957,38.23113961842961
580,-0.7440920670851631,-0.1820833982289194,0.016940749994486255,23.674692707818394,47.54016575083309,34.79403650334256
590,-0.8245578736188891,-0.1354682692509356,0.3096743580862947,-39.502409191669614,43.93355538573865,29.65858280424617
600,-0.8416381071088586,-0.20690457835891732,0.8674344396492563,-41.20703877694033,41.280961139420974,22.590695287677764
610,-1.0375401381587794,-0.3505684082698759,1.2538853687072427,-50.79728290466096,35.64215531754873,9.292322846643085
620,-1.0418479794914388,0.049649292829036885,0.8344598766456547,-64.14770502810572,20.702022279803987,-6.320946124859274
630,-0.8138159200265546,0.4169747957940092,0.12408949117533713,-47.253236659486326,13.351718237593797,-9.80175724750313
640,-1.0497622878404402,-0.36292448358475005,0.42121269978236425,-47.76258558040087,16.950495791874634,-10.26715395175354
650,-0.9494512108291525,-0.027796767432202496,0.3430204021872014,-23.34988859536747,3.9718854481775896,-11.59721546265349
660,-0.9372917652011511,0.01917885902216703,0.4018147699989679,-20.459580259217926,1.6722377622208182,-7.952202763482781
670,-0.9535920847984019,0.11240551783413547,0.2511656337531032,-5.074404997498552,0.32532562001991794,-3.4939571721252465
680,-0.9782882658041858,-0.055439942364927386,0.23212833381431977,9.420175462990343,9.015218689257738,6.834298581277159
690,-1.1112376114877331,-0.4811084769274286,0.2144113157908305,-4.277004364881843,12.342021281455564,0.36620762035046056
700,-1.2294930781606457,-0.921593639961075,0.25657025720446197,1.8780349619367152,12.726571183872814,-17.366497560496697
710,-1.2329969242531917,-1.3610020221059453,0.23863439757101607,6.090670348899389,-6.011693225163187,-51.658858343701965
720,-1.1723514367759795,-1.4694433008759331,0.32003947975898744,14.429771741776584,-20.67892511554702,-72.81729279124492
730,-1.1703844702014812,-0.8371230637940239,0.5313297544250004,41.63970235684213,-26.85971535336005,-74.41616465231026
740,-1.1651690879663412,0.0619735111270773,0.1449697340736885,84.37727849646552,-27.287693545775674,-52.130349255723424
750,-0.8435242169409737,0.5743016144241929,0.2682389937540711,93.76819970338275,-20.481383877442553,-6.719629119061462
760,-0.8582470612639572,0.7174366127276285,-0.1114544445581578,80.34595326252277,-35.715654319551035,-14.891196272343656
770,-0.8518657410273606,0.6408335120016749,0.36773367633574194,73.17872393479543,-21.005142146938386,3.6517491671474946
780,-0.6923254845972217,0.7142070192881383,0.5183408183684393,48.67689302137852,-8.272941467772307,12.04384574455679
790,-0.7043938485407408,0.6819896104987127,0.41296522512409944,16.339749800129628,2.039204033347782,19.08762997158972
800,-0.8246005573747731,0.5402542747113066,0.2380942752304684,-2.4477537216782093,6.764368885714443,19.582984944387864
810,-0.8480356038735508,0.4144611721334022,0.2280648164693551,-9.939157702213794,0.6823737778333088,0.8988299718251895
820,-0.8825709960307042,0.2561049769470429,0.28769421884902496,-11.004525477799014,-4.576839743950146,-19.54374718842179
830,-0.8963815610699832,0.2439299720973276,0.2959548918615491,-11.751187924079343,-6.92500760237996,-22.399712680989253
840,-0.8735129002572045,0.2591487127414981,0.31624784767434905,-10.492164868088352,-3.4740072845822576,-16.727395477906768
850,-0.9225410623838117,0.18901874665376306,0.2522871558584784,-11.282105306762256,-0.7282203818805995,-12.044393212548947
860,-0.859262543480541,0.2428941063839177,0.32761262039097555,-5.691420702551479,2.815588122523749,-3.026611067654787
870,-0.919129563905409,0.1900082522507814,0.28155910731742206,-1.9995431494805738,0.4076417735258051,1.1062813936710552
880,-0.9068416866918309,0.23043031319327878,0.29143524744765315,0.7484524209921272,-0.07046504195092995,3.0260199583835634
890,-0.9016874765409919,0.2524060508185604,0.2893440260495886,2.4117097294154144,2.942695249587827,4.3418145745718535
900,-0.9219762262516725,0.22323757936107902,0.2622546557533712,-1.4487553160506872,1.3788391311012798,0.23271848680928953
910,-0.9197830962472759,0.2083637924159827,0.26049850362963967,-2.167572204972709,0.4231600908965107,-1.7400153113604708
920,-0.9141042895855065,0.2145354363933882,0.26944775507715724,2.289212528275826,2.5937349892882744,0.6870358871363811
930,-0.9182308259570006,0.22983417019564087,0.26579598902764967,0.8473685943293422,-0.629042840256232,-2.1216173177183935
940,-0.9085179359773858,0.22907664618425683,0.2826710600946481,-2.0430388609431382,-3.158403326782685,-4.977452484183937
950,-0.9087683298447852,0.22571152012009674,0.2891773692700984,1.0545459272538862,0.07881541421918492,1.564103638238453
960,-0.9108017952827858,0.2164062158711637,0.2710621303550346,3.122349913351714,2.181489504444227,4.197969144714348
970,-0.9119219085875414,0.23368654236820088,0.26674642454993325,-0.06134044659130544,-0.0015537759607265889,1.5671496973641277
980,-0.9083203225562279,0.23237477076208427,0.271010711901938,-0.9463109667491998,-0.16709689019338264,1.0111130342316694
990,-0.9042389100231909,0.2278666229234467,0.27897608990101286,-1.6500700874106007,-0.23149235581182998,1.1292104624637997
1000,-0.9199298003422433,0.21450431005453385,0.2661985359995907,-1.5157865829180452,-0.3643334390405454,1.8298240061655926
1010,-0.9231311895767452,0.21257199957547324,0.2578503559851464,0.3779666681057978,0.3847219751408305,2.5629806909607717
1020,-0.8897528086673705,0.2618292750494103,0.2885472856301456,-3.320048331329387,-1.3796328399918698,-2.350970455920591
1030,-0.8865446066954425,0.26325056026066507,0.29871813187905094,-6.209779236662534,-1.0537501910777132,-3.8288173103881036
1040,-0.9142043217982198,0.2272242664761922,0.27439027381677183,-6.154923832374704,-1.6259163161260834,-4.016241690680325
1050,-0.9116566302033824,0.2207982653291724,0.2765219106185303,-3.482407894096338,-0.3473632756792927,-1.1174519881379184
1060,-0.8951389159961581,0.22722177862357262,0.29174476114916453,-0.9556897326754525,-0.7773987210025376,0.2891900434087452
1070,-0.9044067722616481,0.22718698185013445,0.2860516918538994,2.503699882477648,1.3104681033423369,3.0940870878025906
1080,-0.9243128662425969,0.21581557198719437,0.2653015605874379,0.3864617677833193,2.0740532725378364,1.1985400919933071
1090,-0.8914315026642279,0.2505850983349989,0.2976568218810874,-5.657513444455962,-0.5249159412306782,-4.5766470158478345
1100,-0.912642064612552,0.22839335561743512,0.27720494978003135,-4.307790830045887,1.3128551879120658,-3.248420848676698
1110,-0.9022353231915529,0.2270499277436391,0.2772987966329594,-6.07707927059475,-0.8847573980074303,-4.809186831329466
1120,-0.8989808711442944,0.2225374146582567,0.28407417761779846,-1.1343491184333812,1.447225636925713,0.0064592634576730035
1130,-0.9042032472078848,0.21425556488185837,0.27799187352801297,-0.8416432647207562,-0.17460758195650528,0.8197673551882558
1140,-0.8943119562611361,0.2367399175571058,0.284101301061762,-2.3904260325054834,-2.1854256097425613,-0.5454894059874817
1150,-0.8806501196080455,0.256675592552643,0.2986606873805742,-0.8970585459843664,0.4924903959380478,0.518838484601483
1160,-0.8940745579003284,0.24869885736541503,0.28786031387289757,-4.031866643944719,-1.0402098203335586,-2.496573489168599
1170,-0.9116607436509068,0.23048524832492592,0.2696571682438474,-4.702912015236549,-1.5432795193745696,-3.3868832182028097
1180,-0.9094747506149848,0.22397750605209574,0.2697101215242334,-4.18369804658441,-1.2548328939979376,-2.8503489361514998
1190,-0.9018533591105597,0.2242124439990828,0.27936015900848105,-1.1398290182900452,1.1864583277178264,0.1173206104993737
1200,-0.9047711805767163,0.22510364609922526,0.28149484236171124,3.6569341153775476,4.046148556755058,3.7983149859223255
1210,-0.9351960410044439,0.20365227233148664,0.2483726968543873,-0.8119819629392807,-0.8674778835825763,-0.7797120740610154
1220,-0.9287559196325558,0.22483554452853913,0.2586062185156326,0.3503976751511473,-1.2529715654070348,-1.663826125816971
1230,-0.8834151619001596,0.2575324139897481,0.2994291958149047,0.24653119964528258,0.2946848883930324,-1.488590190794119
1240,-0.919854253616955,0.21643934250513355,0.2624752481859858,-0.07879212332693264,1.6893190158294902,-0.21485166761288843
1250,-0.9144009314729443,0.21560038715038346,0.27335945691262054,-3.8620873001264133,-1.6728447059661247,-3.248327638387905
1260,-0.8881142676748717,0.23549641644791036,0.2993366009873484,-1.469658239289763,-0.32803060820534524,-0.7879805788201804
1270,-0.8704257670074067,0.24439660444085776,0.31562040441782735,0.497394641474856,0.5688259486658034,1.7450759341591888
1280,-0.8874185253020177,0.23162663489414895,0.30192727665026786,0.5414968448382046,0.48199397452777504,2.8161124416056715
1290,-0.9244280402589313,0.21535087980836898,0.2681065897165208,-0.08371362234328972,-0.1786890519188128,2.1956685868501076
1300,-0.9133699991629692,0.22970906858589674,0.2748487240669337,0.5103526609921292,-0.6044827263426811,1.135083028871375
1310,-0.8803157197228196,0.26075122307970033,0.30350964068933073,-0.13165160168162637,-0.4929377584470582,0.1386865426357884
1320,-0.9098248151482609,0.23025038477624024,0.27527518213747787,-3.1217314282143924,-1.8644582304324155,-3.1727804691570523
1330,-0.8965450169061302,0.24982369681479114,0.28697072031943177,-0.346349728313577,2.0207152730861706,-0.658989025967688
1340,-0.9259592277506892,0.21104578212923678,0.25574886161242183,-6.312955068594652,-2.453364805012715,-5.943902153846315
1350,-0.8988084310193577,0.23639077443197226,0.2848439444680238,-2.1008161504011493,-1.4526914652609442,-2.592063126457883
1360,-0.8756287814590696,0.26088437654725477,0.3101772046672813,2.100019567530715,0.8601402073483265,1.5510839853525336
1370,-0.898133363384052,0.236127037647866,0.2836545713767971,1.9067440128316568,1.676768553069543,2.211562247197741
1380,-0.8916290395034541,0.2415049649009502,0.2870547665063939,-0.5620148323393803,0.089565122781531,-0.07340446410754464
1390,-0.9026157699484508,0.23598948356912852,0.2838230880843736,-1.3081098678023535,-0.7725159229367269,-1.2770063552999042
1400,-0.9242381242379134,0.21749386437407772,0.2579212585363514,-0.548693894354458,-0.3769941064843375,-0.9677820198324217
1410,-0.889683665173983,0.2563899367965866,0.2990360459042479,1.282294859393187,3.5568374615290157,1.8654001398304687
1420,-0.8861862748560375,0.24982903108478038,0.3006996004746364,-2.518145529863077,-0.4999192889793438,-1.33548922514402
1430,-0.8914369066801505,0.24245635021186787,0.2948899792828963,1.0990171186005533,1.745257122915415,1.3785885443080184
1440,-0.9027901414387026,0.22418093521759258,0.2841167024666374,-1.0328223915022468,-1.0137194480511669,-0.38446796692551566
1450,-0.8859157923463942,0.2413743236008715,0.3039740701374363,2.6837588326531128,1.8090700391825885,3.1349196415644887
1460,-0.9031568554081385,0.23015016928675014,0.28626898549126994,3.676296387962748,2.292540460577219,3.59431434522152
1470,-0.8817626073789058,0.2550942821122933,0.306546499215131,1.7035513748454678,1.2575672849621697,1.6581673903898788
1480,-0.9141102482673246,0.21909689858628573,0.27698446567077456,-3.6208290603548523,-2.513165879177651,-3.4016917309308123
1490,-0.8893977470694655,0.2329356293599722,0.29659686093283044,-2.075475021460283,-0.7831545375067641,-1.7567713110082153
1500,-0.8859082145078713,0.24413261278030618,0.30081549538186075,-2.383545607250542,-0.5095191013269189,-1.2206787846984213
1510,-0.8976656224417954,0.2185261950471574,0.29181248097518453,0.7067613394562096,2.026956991036247,2.3422417266849163
1520,-0.8943700871819966,0.22947749507141682,0.29248629047977076,0.30854881949577684,0.10801819492747633,1.361515984246224
1530,-0.8974116083136294,0.230275819712738,0.2959347656849001,2.3459705920850116,0.8838762570361909,2.86457617931666
1540,-0.9385756542899526,0.19941129422484538,0.25427466066692744,-0.25152060656666286,-1.345166615797173,-0.4253155686629373
1550,-0.8900217629842907,0.2489452122985628,0.2936925283215186,-3.390392743184917,-1.5789035606337198,-3.1802111234671444
1560,-0.9244735834524362,0.20362284470358283,0.2562793040681866,-0.8809434356916168,2.9817152233765376,0.16012100262721463
1570,-0.9317476192331416,0.18782272194233351,0.253265926157184,-3.376910648116731,-0.37820296134552855,-1.891273418064296
1580,-0.8900463765014737,0.2291024741269409,0.2903680953917174,-1.355133275460451,0.9180999937527976,0.8870369879806355
1590,-0.9041966344833811,0.22161798091697246,0.28760974205181117,2.39827599120136,1.7626364649688842,3.0889191561926364
1600,-0.9087157061552978,0.22800700928040615,0.2866832265065937,-1.1007753796161235,-2.378413867331266,-0.0848967545630348
1610,-0.905416071573371,0.22598396174595464,0.28240047844087357,-0.5776447017768856,-0.07349721400247144,1.2533305991707844
1620,-0.9045374817013375,0.22836220660276796,0.28820843481601083,-2.6968053862080748,-0.3641876057046582,-1.3782189056491942
1630,-0.8801352695998871,0.25034176226453364,0.31356255208020567,-1.0209113750120604,1.886445718850341,0.6031304990070729
1640,-0.9054628357981955,0.22556582174944687,0.28963124202682033,-2.6430390555319914,-0.9379757483939157,-1.3348240997726244
1650,-0.9164896339861383,0.213408786445474,0.2704175359928433,-0.6373588088711933,-0.6311967787682108,-0.35530418255814916
1660,-0.9164384129891836,0.2099409013309976,0.2604529128346963,-0.6084768892529927,-1.6516866051810446,-1.1880747618833962
1670,-0.867845360979603,0.26032575707915195,0.31785678492367686,-0.9490833862434873,-2.157938496914822,-1.8252802306642575
1680,-0.9057913739103931,0.2190194171520515,0.27979346551498024,-1.1315960909661338,-0.9073436420358654,-1.174927289784744
1690,-0.8820262676891999,0.24386089269547576,0.3121538687455891,-0.4253907000379091,0.4714017060523857,-0.34046407738615064
1700,-0.9021122602716651,0.22517996017959427,0.2888831826061521,3.1527041946346244,2.945276630583612,2.8865735823594023
1710,-0.9210918119419615,0.2110400628518571,0.26728676532502277,1.3438831090070993,1.0155150068139,0.8169384659770824
1720,-0.9065149442853645,0.22871586239172648,0.2803700414589751,-2.5904423600023017,-1.4111861929059628,-2.4204528519363318
1730,-0.8956361125317812,0.23399684760254294,0.28899158364468197,-0.5165510732326752,3.1515720465841084,0.9045939822412776
1740,-0.8768614648427513,0.24808002665924062,0.30916597300981447,-4.679578285683653,0.1328331835418718,-2.355492063377622
1750,-0.9065922358708491,0.22069767028591264,0.283114738544924,-2.5508005347190736,-0.06806324990594653,-0.682676187229727
1760,-0.8984270953528576,0.2332968721036144,0.2926192077696674,1.7246974693661576,0.5469312641149711,2.2269740294479607
1770,-0.8933272556103081,0.24049789500758773,0.29819945207372967,3.375685939133902,2.820955934058725,3.729112699273017
1780,-0.9197656203451179,0.21352205947772598,0.2623710271534559,-0.5436317272235154,-0.5729886341863986,-0.3934989610206594
1790,-0.9059506874360355,0.22623350079314578,0.27931862471436825,-1.3726712353160997,-1.261675831321514,-1.7841738680573518
1800,-0.9117580897456086,0.22362419038591608,0.2750655915638665,-3.2644471787498954,-2.287108183641969,-3.6676537919295393
1810,-0.906713814979119,0.22956680496399695,0.28539832646353536,-1.3801565960321687,0.17243273259058525,-1.4274225698080616
1820,-0.9250174164963265,0.20431078917350542,0.2679902465024078,4.282224847033951,1.7978277115761534,2.7901027545273904
1830,-0.9083151491809934,0.22155094202533399,0.28459211808908313,4.703285942288007,-0.3277535024742645,2.6675864588627216
1840,-0.8944517283733523,0.2411781229106813,0.2965648452787541,3.179643572706162,-0.8265659195617704,2.0873640314099795
1850,-0.9277344311400048,0.20931312601321,0.25993968890535074,0.7646116499879192,-1.6511315181561261,0.23925219703075085
1860,-0.90879196201046,0.228075264803039,0.2801168254580181,1.2008472866681827,-0.37180342408173106,0.27954986158731254
1870,-0.8860232898784638,0.2455263370832384,0.3028255874495352,0.27712056551376674,-0.6080799510627323,-0.8694716064217581
1880,-0.8933400503756721,0.23626091557600967,0.30001407289808985,-0.7211733467624177,-1.760585845410946,-2.2750782739596516
1890,-0.8909370553177302,0.23201408971116058,0.2978676093000023,3.3582111718562198,0.766271011583339,1.0548321724214913
1900,-0.9146564098120576,0.20939968623361,0.2759357437243562,3.970227799468342,1.4397014447175664,2.4869799567019313
1910,-0.8821229366154019,0.24636744714556855,0.30500424376173657,4.671476407887344,1.6405843572384526,3.6111524263509995
1920,-0.9084304284414795,0.2236643365800753,0.2766265872209037,4.854303144026835,1.6778657390485954,3.446449786368301
1930,-0.9035983717644009,0.2331943002075484,0.28441940219933626,4.201696357588288,1.8079190065119488,2.652426475062671
1940,-0.8892886883908117,0.25066341754473476,0.30127098094776733,3.786858957797489,2.6358006754848367,2.4502757773350523
1950,-0.912527564240665,0.2231947384919208,0.2742273593976203,0.8064699490764873,0.7540146734587024,-0.34418289478419556
1960,-0.9175244636549497,0.21037650719838077,0.2636496990794349,-0.48537028089326584,0.1176536588073619,-0.5465156348960443
1970,-0.8844104619436685,0.23036375605805942,0.3004478802182676,1.6561631529700371,1.1299119312774628,1.7629988045052796
1980,-0.9006864457104895,0.22011340520451914,0.2838257874322619,3.292726970509222,1.1436431706747312,3.021194136642659
1990,-0.9182846808304995,0.21204834330374142,0.26884649038415254,4.6162190789135344,1.4637638126169477,4.120822222964064
2000,-0.9280720788660421,0.21147228157738915,0.26195880229335317,3.4068262066457957,0.622316184385969,2.6155858669787597
2010,-0.9132718504437206,0.22930292247658296,0.2771923938468431,5.050960371239172,4.264841373707842,4.937329487473615
2020,-0.9386597170604906,0.1975768611819176,0.2508959549465271,-3.8683362342193948,-2.9292304581565705,-3.543861568947586
2030,-0.9145291946078257,0.2120204005282905,0.27433104053449164,-1.5150374098170811,-1.7427565707464936,-2.4396120761578235
2040,-0.9119619749598823,0.211283735040796,0.27575208248550254,0.2673849981410692,-2.888899768912669,-2.217248480245235
2050,-0.9120702584562472,0.2146859663813943,0.2740485929519142,3.5187176134104683,0.5575148330927313,2.292478144126668
2060,-0.9025887772915483,0.22208474448754986,0.2888430793472381,2.2388479934490118,0.8296224484905794,2.7653573764867385
2070,-0.8895981519552253,0.2512828323551485,0.3060276275589612,1.577831273997071,1.192458370015428,2.164544134817765
2080,-0.9036796606198519,0.2393657444541039,0.28354784330420074,-2.0052830314824623,-1.0179358319703002,-1.3492652797659517
2090,-0.91022217982244,0.223789823783868,0.2749302849940472,-0.11183258318306644,-1.1064483707036052,-0.7014482032035997
2100,-0.9060564404519994,0.2223207463172329,0.27644430169920264,1.4492866211743318,-0.6004138936501038,0.5121635405678794
2110,-0.9109502549897617,0.22216459325127189,0.27502914385558663,3.7184854574978456,1.9574469546756152,2.9290520512955256
2120,-0.9134276101716506,0.22443650000950077,0.2780945171769125,3.0044439321962564,1.9294121972282547,2.1571299314433943
2130,-0.8741745133043104,0.26145721853489295,0.3185324438452194,-1.4340095715209273,-1.4238262395838719,-1.903093979001628
2140,-0.9175221281156936,0.21697497122990028,0.2749116827617761,-1.1392860994244713,0.549414743549042,-0.3099336284587758
2150,-0.9076953656257316,0.22958059604636102,0.28352572510203633,-0.6910616754513177,1.3550864184892841,0.1021374100721032
2160,-0.914082598389773,0.21451278956967268,0.2710903312670494,-0.4331313907567861,-0.4410021119364687,-0.15434652132229393
2170,-0.891621495132114,0.24580550908115126,0.2956603339811815,2.444623490761556,1.1820622734721573,1.8330431653521075
2180,-0.9128118962531002,0.22176172708487443,0.27816227517703856,-0.39836582454629776,-1.0695462984253479,-0.7716870393165953
2190,-0.89512709510031,0.24049566398831634,0.2951143336480866,-2.5987472442675568,-1.379287862645175,-1.8960044784195111
2200,-0.9083002810024158,0.22647779026525436,0.2792348305384881,-0.4601973187220194,1.8769903294904655,0.9859317171219835
2210,-0.9026869180771494,0.225874101707265,0.28413852386818245,-3.157870943055561,-0.8628704566934042,-1.6694661470522405
2220,-0.9186498142477094,0.2092412591956086,0.2674905458423968,0.061427603815464304,0.9958645529460218,0.821306469013718
2230,-0.8917382850883815,0.24548904248764272,0.2913167476143624,-0.5309495351993113,-1.5144210069180615,-0.8896558063864537
2240,-0.9180034509646255,0.2182294402566226,0.2643550154388318,3.394497212867166,2.79853213028023,2.770641664360748
2250,-0.9208900487805338,0.21167587916637848,0.25836006794142297,2.6251776245258367,3.157975676888285,2.3690899899896434
2260,-0.9107881563237452,0.2233118753710335,0.27446280103297443,1.341685215613824,2.0049785898897303,1.4821370526524065
2270,-0.909956084837101,0.22332549454033598,0.2726941722986639,3.397242499478417,4.73628560127727,4.053150854132217
2280,-0.8955047284316267,0.24040065021204016,0.29113384878830345,0.8048512937816816,1.7067157195978138,1.3530226758591404
2290,-0.9178054421684736,0.2202599710849057,0.2735161887197001,0.8384319572784777,-0.3261146937426427,0.4318518514442911
2300,-0.8946449065885024,0.24159994199515433,0.28854793752965924,1.2591816639775835,-0.1041654924194111,0.712545549715199
2310,-0.9240511197525288,0.2137667970364658,0.2546563209428716,-0.9047923176570204,-0.6274172959985124,-0.878371361212328
2320,-0.9062539210022503,0.2367920830650477,0.28155768149785054,-1.69063833739374,-0.23474734298289304,-1.3235676341045486
2330,-0.9022862995603839,0.23637955013674744,0.28505343049599824,-2.8287941426167613,-0.7258986033329465,-2.0620221364912785
2340,-0.8975215244011291,0.23683552719868076,0.28918613770800666,-4.1668250716145465,-2.093819071179392,-3.3962731435734703
2350,-0.8973398278094608,0.23535635466073415,0.28821076946446733,-2.01113676289878,-1.0752476048559507,-1.85441898575004
2360,-0.926772775260586,0.20544217141222473,0.2603661729572239,2.233861689241683,3.021634342724301,2.40406373557938
2370,-0.8833801797986904,0.2557714564686004,0.30933082079130314,-1.0230966783394297,-0.08385374394843115,-0.28982772672449275
2380,-0.9112941766658609,0.23330269693914232,0.27702427384715245,0.24247414583624782,0.9444659156533646,0.8991878695355848
2390,-0.9141546347056565,0.21779289434402904,0.26822851569184836,1.7010416162362656,1.4525727283711363,1.5989616453550326
2400,-0.8959063436596407,0.23347389572805016,0.28461486204650877,2.4889451265452616,1.4843125789685738,1.5437607254670378
2410,-0.8735641189304364,0.2664445403370632,0.3080290305755641,1.8083391911570392,1.1530231087117788,0.5374494207715469
2420,-0.8928442829715442,0.2412229373615934,0.2910644305964331,-0.5972295701443584,-0.039029790738945996,-1.221567190148206
2430,-0.8981439317447,0.2353245754594143,0.2886329819122984,2.2069910936474653,3.6025732485738997,3.2018092174644197
2440,-0.9256577506744585,0.19668847631616904,0.25937375192071027,-0.7293363707407609,-0.8023988548069374,-0.206789081607046
