time_ms,ax,ay,az,gx,gy,gz
0,-0.866404505078263,0.16496898618932065,0.519765988761083,-1.1637441791808907,-1.7745447082330288,-1.4525473488106735
10,-0.8591380642844191,0.17428149540432775,0.5202160834994131,2.0160155129430075,1.2760709287279444,1.9863789035682067
20,-0.846902430264962,0.18535809970192285,0.5393261695386319,-1.1220158417502457,-1.7381926191813202,0.16256506686602434
30,-0.8470964127168832,0.17804913716787166,0.5283508257764784,6.185985556635978,2.5948383099756374,5.229770949814708
40,-0.8467381498182122,0.1856158015364883,0.5372193385963776,-3.1310217709034314,-1.4020273890150137,-2.449459092411279
50,-0.8118017601187606,0.2235414813421495,0.5733667693019658,-2.4758520777784674,-1.4948720480238145,-2.710300668513192
60,-0.8201519424504669,0.21625121425611704,0.5687292325552514,0.24904584094633075,1.5558492919473208,0.6861853664049988
70,-0.8417066888297748,0.19119311581951615,0.5468869162994587,-0.5391544816852799,-0.23773918882395,-0.44974118869199076
80,-0.8423077688806054,0.1985350392757411,0.5388400527044707,2.0463409664049195,0.4101596264484845,0.6660482655462592
90,-0.865823604989158,0.17407568400549575,0.5168923921719745,1.0529689397524997,0.9611080596155194,0.8220970980334268
100,-0.8242178954995876,0.21661727177523077,0.5636305925201868,-0.2514240915385339,0.2198462505787001,-0.43760687823175143
110,-0.8680389018134554,0.17609022779653827,0.5239725833945545,-4.9650369371041485,-2.5984112157727086,-2.796113003782098
120,-0.8348951593439616,0.2025836158997393,0.5611360802999571,-6.280888945232033,-3.094605241301711,-3.7120447593766515
130,-0.839020849902447,0.19558160134446106,0.5514825000732729,-0.5374419812741706,1.88833740733481,1.5186726055469566
140,-0.8464232137417721,0.18273149048575843,0.5403104577858546,-0.9152598916060539,1.4456842554766438,1.6820200642916905
150,-0.8402690371992018,0.20320923918113337,0.5638176072102694,2.047601181767697,0.5707870933154099,1.0902506030887882
160,-0.9284143108294237,0.20899937977452954,0.5377229651929831,13.710462910454373,1.0457136685308763,3.1485773702646993
170,-0.9732868824164187,0.29397346339562086,0.5073238102001723,38.53603039227022,-8.701768682738694,11.908621663517115
180,-1.1414721231432272,0.24358089863676258,0.8576070115039558,26.911456801818566,-30.586183142284565,24.26409508108495
190,-1.044357704471046,0.23471046389024203,0.652389899190834,12.868174001211425,-43.1374361421253,27.679159684452834
200,-0.7216230725987555,0.26948051331642386,0.5426493357734286,9.5628287893021,-42.54414671899762,26.63390906128311
210,-0.6430370128397559,0.23040146691044272,0.41543325416422955,-1.1535328490086876,-27.92606472147679,18.08601151918738
220,-0.7764375741333367,0.3118308136866942,0.5659844254982103,-22.566508222647435,-10.06783533971199,-9.591643817023556
230,-0.7722473311234964,0.30900699254133507,0.550676347333477,-25.895073719581603,-5.460771240486456,-10.908903742203185
240,-0.7182540947705311,0.27777807627881157,0.4949977567272571,-34.29529637485714,-1.6365829456642405,-11.866693077218342
250,-0.6572312275260571,0.2873797787868865,0.5276572502773437,-33.08613964304947,7.14180950435592,-6.85658280746924
260,-0.7300390772245691,0.3624601796922584,0.5894590005480185,-30.010710614002274,8.975440907032635,4.759260615987016
270,-0.7550564545099144,0.23373203262210618,0.5539441102159406,-31.901527129072974,16.08700113181104,23.055653915581935
280,-0.8688478487921386,0.14875620139203888,0.6725823785094254,-45.077529336825314,16.752437885767183,16.948596864813005
290,-0.8700457224541733,0.08873753979034099,0.6597517406183419,-42.50328811201337,11.190234079689217,11.621486740537128
300,-0.8362079706390124,0.10987076380101035,0.5108426590269282,-38.497870051919875,11.731705152564015,9.466065724728134
310,-0.7297145128779199,0.11415398457065924,0.5163984114861191,-34.93749218258156,13.720880231743445,6.4805993782342695
320,-0.6345136531723428,0.0656493736287299,0.5529111240274173,-36.35168992638411,16.766237289687982,-0.06244592449613773
330,-0.7715345120011807,-0.06742013112731716,0.5067919601991916,-30.652377209763582,14.513325402140794,-9.780362758351865
340,-0.8691954171540678,-0.049693534863791765,0.5170276295844164,-4.805911406945304,-2.0671807920574676,-22.323301176654784
350,-0.7975551950810831,-0.06920501948368535,0.4494119758553285,6.359193198056117,-15.00506471607667,-36.45904805302253
360,-0.8812816291195201,-0.0689744327082993,0.5833116740420765,27.216950414308663,-14.010747372146785,-29.453888752617054
370,-0.8253245295372831,0.0723999409441359,0.6647566737471766,60.759792603216695,-9.910048994816886,-27.75609953548557
380,-0.7816164063859063,0.13342805178990058,0.39004178478319923,14.025866992476688,4.459887540643727,-31.486080623948805
390,-0.7604775930757726,0.34760030455172974,0.2842682257835816,-5.7742197369565575,21.04353932202022,-26.484143180472532
400,-0.7981989985336718,0.4133560171997529,0.7469579919752476,-44.5545671182759,35.43918480181483,-18.06346147842747
410,-0.7447766932250114,0.5640302082086962,0.9244578447024709,-36.45186059604813,52.734218766326656,7.231745089614188
420,-0.7583291552859721,0.5453326901156539,0.6904459121133031,-30.222718678744652,47.02006637260995,10.833207543538379
430,-0.8328313260205581,0.2265777911096238,0.7336485708464148,-49.39790015579514,32.344764973372655,2.8388526494733286
440,-0.8299229491494128,0.5342833101829394,0.0026158318404298497,-20.77722888108408,30.90479193180525,10.250735057487274
450,-0.6975451353942648,0.3099159488379825,0.17340347712828727,-0.40698066087154006,17.66246456480936,11.992586843043338
460,-0.7795458375027494,-0.42655792878448207,0.5660128113247601,4.547928674191193,4.8641623301975505,-9.456095657866749
470,-0.8682554507189467,-0.21888702004281968,0.5072565688582349,39.328746372559785,-1.3478744419749378,-25.500709567164385
480,-0.9398653870546542,-0.133518537016926,0.3674841046745897,41.65897214145618,7.23015295008017,-5.88290870833042
490,-1.030865275991718,-0.30143669281698143,0.38439986513515206,39.66441159476269,16.760594390804066,0.6624900600750483
500,-0.9781960179772411,-0.45696018695429413,0.33682726930873885,26.094230341962547,17.315228480547347,-18.45811316279628
510,-0.8243159115711188,-0.1710406879662606,0.13481514081453255,-0.6183803218823622,11.697421459706938,-28.284396586252644
520,-0.8127770183597929,0.4561963810959154,0.4200269774781558,64.04401410296963,-2.8280307897468644,-11.791902875837787
530,-0.8697715371757063,0.5134804900832615,0.49076828361407016,74.01326103297174,-3.1539257722405676,1.8886412248528925
540,-0.8274079493486705,0.3740043302120654,0.455103585297191,5.945128435349719,-2.951414179532973,3.345037461505169
550,-0.8919053681235992,0.2582467979784141,0.4782524463989445,-4.142285622915811,3.8151175195206712,0.9618375131976011
560,-0.900650285958086,0.13142440452809925,0.4762303341839102,-8.124259256990527,0.3788001422777918,-14.022376080875873
570,-0.8707729017741641,0.12395179356778994,0.5013908914895036,-5.1969306359412295,-2.6933019271390086,-12.834789816792004
580,-0.8905842741853239,0.07939150406436715,0.4732632675709945,0.9809151144979893,-4.259758643065865,-2.3171800284396014
590,-0.8814694341707194,0.09806295514373674,0.4871010694577749,9.737101309248851,-1.5531890942690472,7.583843163918876
600,-0.9001980890349656,0.08905585329966909,0.4791261551257729,14.509795261522685,-0.3797747201724927,12.993669369146255
610,-0.8578375123248736,0.1425704682508084,0.5152716847029553,14.777773952347092,-1.1528545144960496,12.97144016325817
620,-0.8673469522258969,0.1474002341023741,0.49929633817074365,12.392351359428822,-1.310392672348972,9.801896412248055
630,-0.8847870941129093,0.1351837915087791,0.48615330790567757,0.11026432223706156,0.14259304284953522,-0.5331915279410834
640,-0.8667712169844306,0.14136582935767064,0.5049643419175871,-10.834757890505385,0.6779177246121892,-7.591274946909822
650,-0.8658570105148303,0.1317744089011653,0.5056127755978901,-11.131240796556098,-1.3613672676693556,-7.776211186679207
660,-0.8744939661115192,0.11427913390181227,0.4925629830787171,-3.244329495556928,-0.7183758499451336,-3.5089704610150445
670,-0.886906081569756,0.1075480828020162,0.48004972435265186,2.0742275040632467,-3.029395110501854,-0.741393755786157
680,-0.8704518104079852,0.1284103567854846,0.5005735625541193,6.140307393928176,-1.5937308139311583,4.031428034467483
690,-0.8932439955016002,0.11353761886296536,0.4814622828029681,-2.9294244122534967,-0.5382616822238451,3.5654524729969648
700,-0.8887580017740764,0.11708961199474975,0.4822753027264566,-4.92055630161593,3.4637003191922364,6.276997392380794
710,-0.8898399458322218,0.10790669401818997,0.4728794897152973,-4.91160815623878,1.2630325222866412,5.15546294406059
720,-0.8868169352149883,0.11143012087152102,0.4807162633024544,-5.495153111564325,-0.8258199111668466,4.120939105866059
730,-0.8749549372310325,0.13266108008232533,0.4999160474668267,-2.3184146005597492,1.605340388133912,6.348920820565603
740,-0.8654962236873986,0.1461741507856753,0.5047910166356537,-5.438162024894229,-1.3691906673495795,3.0971041636544867
750,-0.902524346238675,0.11092485316754555,0.4695620789477015,-1.7923126924282426,1.1312392610354207,7.835639968554181
760,-0.8744183927565169,0.1364828246508081,0.49704034958676113,-0.9161818492096181,0.18343404575088507,8.29766736751703
770,-0.8556749978642774,0.1604348981650049,0.5156378348197246,1.121810911546552,-0.7685142954653013,7.128529549111419
780,-0.8766586044813163,0.14518852199997834,0.490140161161694,2.7373968285313577,0.5337709888228891,7.619419471672308
790,-0.8919770410224375,0.13419844478851514,0.4816749066559912,2.9571960194588507,-0.785770662135304,5.10561969926193
800,-0.8913291763944337,0.13443630594614825,0.4831338192889786,-1.3913254079472759,-2.368714575413168,0.7982696808332186
810,-0.8860811833167541,0.1314885488942061,0.4854605765965894,-3.52599440369167,1.51427744255962,1.026000887164342
820,-0.8726627548173898,0.1398884839887146,0.4925868777513431,-8.375036029094822,-1.0563797192548843,-1.878885482107163
830,-0.8645034451279026,0.1477845314079089,0.5006395482601547,-5.475833239291013,1.3891024038540052,1.6403876339688064
840,-0.8706008222327871,0.13001825855064716,0.4943593922019298,-4.972019748399855,1.296536513956101,2.3602386787463887
850,-0.8842700869519095,0.1273846619291247,0.4896869294862399,-0.008533599270000636,2.047740219307283,4.864783235799985
860,-0.8687859613493638,0.15604243909787846,0.510756033045415,-3.968802130397642,0.6644423035115639,3.6685379871765806
870,-0.8651509438362041,0.15752396510608005,0.4997808306079709,10.244796758636554,1.8817858396941762,10.135193602498337
880,-0.8893816599445362,0.14398101731867124,0.4838565866079947,13.895652588624692,0.46508049839230164,9.163217924239351
890,-0.8572744454968543,0.17883045450581328,0.5143254934404786,18.188745082754394,-1.2444596667251409,4.177986303746309
900,-0.8580417660974472,0.17772221274862976,0.5033597391202799,16.173267661854883,-2.241482524068215,0.4665614603144713
910,-0.8843401023118304,0.16568544978642202,0.48158450359187455,9.762254318329344,-2.7714741189417484,-3.00994769263304
920,-0.8881176146623241,0.1608010619704837,0.47947363562062323,-0.3279463740026094,-2.2375439282941954,-5.981529162883815
930,-0.882030854302971,0.1399600388815144,0.4876500199679328,-5.810863318538044,-2.0723852103135902,-4.903924144723433
940,-0.8675414945172092,0.14223221477663944,0.5055387110861421,3.2186727153994212,3.0792447217722456,3.986584787792487
950,-0.8783477175928355,0.1293449821471783,0.48999471680373763,4.780818012420066,2.320743543735184,6.071944423474232
960,-0.8448379914062872,0.17641440569492867,0.5249130338656842,3.3176762943334617,3.4627784883634294,8.157938619327306
970,-0.8838877599868025,0.1515350338826887,0.48284097084356953,-1.5861594854720542,2.965557533159007,6.608204013605481
980,-0.8607664107928694,0.1694267924514965,0.508086704377632,-3.0043321751977015,2.693943983751544,5.226839366346292
990,-0.8718244577963755,0.16193403383617436,0.48928181792824954,-2.626409737858684,-0.5478114121918659,0.24320683721005287
1000,-0.8806094577557271,0.15175423064007865,0.48828390380125214,-1.1407083570319847,0.10899747593057418,-0.49113568120712814
1010,-0.8804147380967353,0.15884733581286326,0.487408552640517,-4.163654188354464,-0.2857431545115856,-1.982283358563406
1020,-0.8686596709830731,0.14866087846356646,0.5107478588574613,-3.093315728938933,1.0420012583648912,-1.6489475111328875
1030,-0.8543318452999903,0.1636091417780474,0.5100986447647556,-2.511562517310126,0.6651533454844237,-0.7837624382355177
1040,-0.8750456803764033,0.14899076668721875,0.4943001635045416,1.5878418401121817,2.507861751887608,2.3543407360610695
1050,-0.8977150491352962,0.128720336480232,0.47360228078028266,2.4432623453343254,-0.1987324386945372,0.2946086209582489
1060,-0.8611897017358572,0.17095370410854485,0.506748103002729,0.6921074056894595,-1.0174978030035466,-1.8743887672365234
1070,-0.892236430492139,0.13791505181254188,0.4751902840481081,0.6969862516075117,-1.4290515608893428,-2.5413808233348476
1080,-0.8739848220054547,0.15087450925335255,0.4911002866882454,-2.43409293771095,-2.4236183154435995,-2.8555361563553014
1090,-0.8862058943628305,0.13381314682867088,0.4897345576102898,-1.521682867635819,1.0142002718116636,1.2235436751554516
1100,-0.8722956024337443,0.15132429240513187,0.5004703400925536,-3.44412141750386,-0.3335643931719592,0.8781047269380492
1110,-0.8806226379847826,0.13765162427341082,0.49674083354854265,1.2212133898453894,-0.19082340273961418,1.9330752398999596
1120,-0.867685062736669,0.1571423762898335,0.5085581124025214,4.73963709088356,0.20229771313944322,3.2839995900508185
1130,-0.8940015125258745,0.13754355103589266,0.47249893787879177,6.2609165215541935,3.060783291258142,4.4371851057135805
1140,-0.880257620200739,0.15246111196770268,0.48563139035940256,0.5797146191647454,0.39459358056215055,-0.7607526263409472
1150,-0.863910733323991,0.1692294318933343,0.5093897499286257,-2.6828814445847353,-0.6241502866665761,-3.2753882961190843
1160,-0.886076199772196,0.13430447745495364,0.47467049418775215,-1.759407285571638,0.22540233674172444,-1.7881061112400392
1170,-0.8871553055490653,0.12425543764354448,0.47746320088603583,-4.123818533853923,-3.441896403717705,-3.3214109281015523
1180,-0.8772106476557179,0.14824643158522216,0.49434094863964556,1.0669150792209128,0.7458923223240661,0.28305474124257296
1190,-0.8741161562317,0.15547705358547034,0.498402414539988,1.3791024410559962,3.1698815877769118,2.6188616642810487
1200,-0.882541802806467,0.1422554820899786,0.49166352062049357,-3.854056567962864,0.5711050632785046,-0.23420673759467292
1210,-0.8911746559384248,0.12389736035194016,0.47349302113609143,-2.9656951644621046,3.1815689734738557,3.4737696895002346
1220,-0.8622348360721924,0.1602948445578223,0.516104387936137,-4.192176347464418,-2.0679958679845596,-1.0312667570192477
1230,-0.8967480783268431,0.13785998653626397,0.4731383582356689,-6.685070244696206,1.524451916221405,2.5749408848025355
1240,-0.8902657693862167,0.11315516237564253,0.4893976423637476,-0.5427516638678518,1.3048807823975173,1.3390166155467447
1250,-0.8803790249734211,0.15357546216833082,0.48768975157030775,2.0005749333684806,-0.6522273374121696,-0.1585817211540419
1260,-0.8705861638261297,0.1518867067407035,0.4970698485165356,1.0993986784879726,-0.7792796815860488,-0.5147624819161585
1270,-0.902640527707786,0.12973993226998065,0.4689209363617138,1.0015394594849751,1.160515544876623,-0.17452142572854656
1280,-0.8675645724389152,0.1569282882905641,0.5001714798608025,-0.9988730677379667,1.740936453264186,0.1187308558040201
1290,-0.8666873030288983,0.15564035092316086,0.5073738221571679,-2.0482020912195416,-1.5022506881834299,-1.1929334209381417
1300,-0.8593565917847578,0.1571696704537381,0.5063703886038361,-0.8782868384146734,1.2927421857804315,2.2935393983094476
1310,-0.873039405751523,0.14830825746319082,0.5006662342286906,0.2922810490998376,1.07694488303063,2.2450193138953827
1320,-0.8831022390795379,0.1443703869541056,0.4943132294797593,-3.385100496201643,-1.6291832906436885,-1.3039860228279985
1330,-0.8809393594039032,0.14360002488717735,0.49184883408651536,-6.807509703801065,-2.6491782387099327,-3.9155865836197776
1340,-0.8649640203964005,0.14943296295287906,0.5002651172126642,-7.661444267234013,-1.0664806285264565,-2.9933207722331567
1350,-0.8427518187525986,0.17294557830726576,0.5287039336133307,0.08107347232244866,2.8040122152687426,2.410491899214077
1360,-0.8661341326599143,0.15017601183331797,0.5004304645591191,0.29115652034025696,0.04975191092839881,0.5718000274293311
1370,-0.8712109036053752,0.1500407885632468,0.4955136696716612,-0.027403496841808428,1.558303934392699,0.790206178334611
1380,-0.8793547675705531,0.14550324029603828,0.496242731259073,-4.4770969132005956,-1.6205412864349853,-3.4857140321801863
1390,-0.8678906228690978,0.15274745590783353,0.49623305947074353,-6.374541708795014,-2.7261585616844717,-4.4648672465349915
1400,-0.8738568833545515,0.13219725364394966,0.4999193788401974,-2.957868013775031,-0.23177905472621985,-0.9583586830699096
1410,-0.8662151868174236,0.15162575803935602,0.5062161775052155,3.0692759475025073,0.23925639440439395,3.1787196654259566
1420,-0.87134293419144,0.15761694964700496,0.49676445628103283,1.1864323155811771,-1.7735515118873606,1.285541479291508
1430,-0.8615960266245392,0.15831442917783103,0.510142951468944,1.1721393431206943,0.03180126260369054,2.1180100490577494
1440,-0.8859494346100077,0.12422928860905483,0.48660666963037463,2.509070098518317,1.4916642728355223,3.170266648260588
1450,-0.8801622161932967,0.13183319460320478,0.49288591094850753,-0.041927721239626695,-0.16060074454583284,2.0115602245708675
1460,-0.8922516394954556,0.1262237910968864,0.48217551534249986,1.7923641694997283,1.5238900890320526,2.9546061045384415
1470,-0.8923949672727401,0.12957075191495426,0.4827129759057977,-1.4454628350949585,-1.1961655240348215,-1.8535361378504867
1480,-0.8750070797742872,0.15423934521487137,0.5010054901642752,0.056090466581318,1.44932699317222,0.38183512062976277
1490,-0.858702435494102,0.16286680872642714,0.5127013043316637,-4.114353599374546,-2.1676875875935213,-3.7128810135646084
1500,-0.8507139912195318,0.1682603077723781,0.5209472327420124,1.64669424821003,2.259967477520322,0.9301051241747436
1510,-0.8640668207608203,0.15000139864716278,0.5095163378125978,0.735650529083387,-0.871006332035286,-1.3728562631826764
1520,-0.9016176390568671,0.10896383964884783,0.4724134260464848,4.663385892745513,3.3173650299461706,2.7372064946075443
1530,-0.8535848281093388,0.1622230298323523,0.517341753940509,-0.9456674833694194,0.40796473085892415,-0.48602745286596005
1540,-0.8644030922875329,0.15357442330109128,0.507466887279342,-0.06897702237181136,1.9033477296991665,1.148852541426249
1550,-0.8787817407166802,0.130812143138202,0.49189424666244086,-1.985797317836615,-1.3294978176214287,-1.3580463859526848
1560,-0.8814893954883277,0.13270016428015188,0.49122095334032784,2.61272003551303,1.989833623398983,2.850883675714959
1570,-0.8750014162670184,0.14399467000581473,0.49560315623786655,3.671449223258271,2.159147084894355,2.9793314836843736
1580,-0.8893112603383835,0.12984765026976589,0.4811559520765143,2.755544870631913,1.7409582163172816,1.5492936762802074
1590,-0.8581546635567127,0.1609764742078764,0.513756802502466,-1.6914999719670265,-0.0820597974381001,-1.6106598575455215
1600,-0.9092799355372926,0.10575612496909786,0.4592980872559926,-2.2466953834762418,-0.2932386689054427,-1.920756429617549
1610,-0.8614475083970281,0.14884151864016187,0.50638783026103,-0.8248020943031871,0.5806384786807335,-0.5448423762407113
1620,-0.8633449474044365,0.1472879734235418,0.506741014113766,-1.7064181609170523,-1.2974533081017623,-1.4927053696011792
1630,-0.8674286383570157,0.1460716444004456,0.5047916968004266,-1.0542762774191718,-3.1949455275493626,-2.2782456722309736
1640,-0.8711135314078186,0.1430682069540904,0.49837412663522124,1.1306654585667204,0.35912730649946645,0.5051176169386182
1650,-0.884599003805591,0.13103148588477906,0.4885219323928707,-4.445158197753056,-1.716449991328855,-3.818253622612776
1660,-0.8447310347174047,0.173792613980207,0.5315305033012101,-3.2323181173009403,-0.9385561290819192,-2.3364534633168654
1670,-0.8812216777957734,0.13215715880382975,0.4904663892338877,-0.34879414571978934,0.19206810831933763,-0.13390891773745256
1680,-0.8766903537439952,0.13352481303577982,0.49234868566098977,3.6451352289909273,1.3342436559850963,2.1657887929012727
1690,-0.8821247372504956,0.14012818481899547,0.4959554077226013,1.9157624195397307,-1.2737771254245458,-0.2962334483438419
1700,-0.8338364388032197,0.18769323611460279,0.5471415792233612,-3.1436433063892997,-2.4751934848583175,-3.207741581021072
1710,-0.8547528921568102,0.15280838613230058,0.5212042431002828,-6.651023812561571,-3.080268218884383,-5.309841552664844
1720,-0.8847496437612361,0.12047188619843924,0.4967708319113738,0.07667323412872706,1.640768143835541,-0.4737773114795334
1730,-0.845016583916951,0.15792093439518493,0.5346626429437579,1.1563975887747793,-0.06309695480113542,-1.0508969622631288
1740,-0.8918586579513007,0.12185790211963433,0.4828868691527388,3.7862410905293675,0.6250743365558744,1.4871432921997607
1750,-0.86490910112386,0.16304825226615677,0.5105349953016166,1.7599185282112262,-0.22838794152535297,0.5910275130308575
1760,-0.8759791195753909,0.14667156491682218,0.5006027014531932,-4.6493959924604304,-2.155003345702893,-4.626881541967568
1770,-0.8487826500736718,0.1612164614479018,0.5208421221925029,-3.5930747388527933,1.5620928141215964,-2.653349440168954
1780,-0.895364486730122,0.11451172537314644,0.47197715049147915,-5.2524739259132245,-1.6164862982841899,-3.8239396361947686
1790,-0.867549436005386,0.148080135704872,0.5073474249687171,-2.8895807733176206,-2.446282007015177,-2.3281553060478517
1800,-0.8908366059437999,0.11970052951953672,0.4838506838263225,0.17371597015813933,-0.12480271453696005,1.2445216339051188
1810,-0.886754398501296,0.12097325880245903,0.48494296043716006,5.08738829367733,3.2361805222462676,5.792960864123702
1820,-0.8624263366132988,0.15496095861072262,0.5142065176663049,0.913629688533629,1.9924861201869386,2.0453246041612063
1830,-0.8958522708612622,0.118378071839435,0.4780554519545016,-5.031443790039527,-0.7759524270871463,-2.729216664392984
1840,-0.8577753022866422,0.15239759887034618,0.5129811179984215,-1.8385970012908228,1.4206237970135882,0.08747145812363
1850,-0.883390210631601,0.12751301741097745,0.4902169415176461,-0.6361838321411062,-0.5858906609329482,-0.5532780506545507
1860,-0.8621785950506271,0.1521398531770948,0.5099917369618026,2.5693386347901526,-1.4688081514021984,-0.17429879700884637
1870,-0.8595929327585425,0.15604764940014,0.5117780675802888,3.7792478667176903,-0.23017529287610206,1.2435135967037445
1880,-0.8767863567016574,0.1381872714457912,0.4958444352510807,-0.5553694696579298,0.3960491055441428,1.327864251883358
1890,-0.895687722874603,0.1144138010835628,0.47818888551921,0.4135628088407671,1.9679335536833296,3.3826700363224536
1900,-0.8762153323805898,0.1380950650846585,0.49944897165010493,-1.1511491231291617,-2.2561975212532754,0.2229189787594481
1910,-0.8967849259238051,0.12286780677097214,0.48155995911262767,5.462137108348332,1.2598307607091852,3.295265932171665
1920,-0.8587721918648139,0.16298757134066716,0.5126832397841868,4.056455437727814,0.8788505754787509,1.0459874288250177
1930,-0.8924557518118957,0.13379250397398165,0.4803921876581971,-0.27121632078932123,-0.46197971053189774,-1.7799635478098987
1940,-0.8624969462623379,0.1515099079806659,0.5094843760362369,-0.8108752645446922,0.11882822674855478,-0.04817377465509924
1950,-0.8932939002870142,0.1169722844729301,0.48150968633901237,1.8533016497844454,1.7026580524424635,2.529214120592516
1960,-0.8692448700774377,0.14829818832668262,0.5032398395424621,1.842780320763845,-0.8853990819768653,0.21808479623399912
1970,-0.866146719178927,0.14796112481138352,0.501498702276667,4.308752080200106,0.2331554080186677,1.3838942764808648
1980,-0.8776067084410939,0.1374028421238627,0.49349364772434307,5.429796404360654,3.338906100180601,3.6022580359787097
1990,-0.8822214526069223,0.14289791446536623,0.49386402712838967,-1.7397163239215263,-0.49788881517293426,-1.5178171845837372
2000,-0.8641077442210694,0.14448825419039849,0.512491729038041,-3.325295008515276,-3.064521195487545,-3.775298259291491
2010,-0.8842663446470113,0.127099675516424,0.4901751122130219,1.229185094310564,-2.043123335211614,-0.7696858123508714
2020,-0.8738428363695812,0.14337395992796217,0.49920460939338085,2.1086966054697593,-1.0757532113412427,0.2374570259183375
2030,-0.8859801582683615,0.13275608492276345,0.48612951646431796,-0.011528020260126004,-1.1737035089155474,-1.1140475433102162
2040,-0.8581714188510853,0.15448061465605034,0.5179727114207877,-1.8936770049605556,0.28971185873843247,-0.32008549658058166
2050,-0.8721535740885451,0.13784937513916007,0.4982708668448871,-3.0910182501884984,-0.1365005976872754,-0.04504048344021694
2060,-0.8728606231950556,0.15251273859632544,0.49975339729735624,3.0648254484932362,0.724987300488662,2.4873534551281065
2070,-0.888311451703194,0.141763833853305,0.4900887319048634,0.5168390601299153,-1.9099586052999886,-1.4321676414392066
2080,-0.8574131267284554,0.16269559918987442,0.5090499802182262,1.5795720288345296,0.1592899083679559,-0.4231520983591954
2090,-0.8591727092171648,0.1657133214979438,0.509886021747617,-2.385483414080432,-1.933999445689759,-3.1748491898758866
2100,-0.8920576116565152,0.12960699943591433,0.48125220288613185,-2.1251383553819343,0.6183158173500777,-1.1388016472239333
2110,-0.8895035283438578,0.11522418943196196,0.4799729554875517,-2.993297855960539,-0.8400489571293169,-2.5339336677010618
2120,-0.8569821141572063,0.16157430917715193,0.5159056903528841,0.8502135962883656,1.8560447150981718,1.815614232466455
2130,-0.8895340344354056,0.1257868492326743,0.48329284644169174,2.5885829570929197,0.6512368119518558,1.1059814017436085
2140,-0.859743274634055,0.15546736953914242,0.512533739620044,1.4384621475086576,0.32855396318364594,1.0317210171871467
2150,-0.8709671898989036,0.14748723808181624,0.5052022875240109,1.3997066204766178,1.677753590715016,1.3505846365292076
2160,-0.8627526986152417,0.1533787345416814,0.511903847969457,0.06697912607593604,0.6642220795396301,-0.03286420239834542
2170,-0.864807194291362,0.14021072820117447,0.5075542406989056,0.42382231705958917,1.658895997251367,0.9617701176910707
2180,-0.8526299920449408,0.15574714684344756,0.5258892551053472,-4.046198792422454,-2.8007044622394104,-3.5444951491353587
2190,-0.8768952075919182,0.1320095366201441,0.49482609635988584,-4.384294592958077,-3.337297286140972,-3.3300236879395744
2200,-0.8689307968115978,0.14638946188193044,0.5030812065510054,-0.37542364278967283,0.1957709805501777,0.9958394480204731
2210,-0.8797964663234994,0.13813643297266065,0.49229383590891207,-1.3008545658281245,-1.8324614782227704,-0.5709613961245359
2220,-0.8931189182299528,0.1183075390596782,0.47734165048704413,1.0040744845536855,1.239653504666971,1.919970234078251
2230,-0.9005300000035136,0.11621547144550276,0.4742078265443616,3.413487074685798,1.6171649799236143,1.6669218032226711
2240,-0.8768351002999233,0.13831230175015613,0.4947557638885466,-3.4953610757388462,-2.0110110946334223,-3.537206877366149
2250,-0.8520738104908907,0.15863348667595822,0.5237512567886415,-0.09129960634789969,2.21559291829483,0.7360668654645313
2260,-0.8698335241262386,0.1372698506382442,0.5073194494879263,-2.348449660443777,-0.25466557041320453,-0.9490928338232842
2270,-0.8827623587072697,0.13224523382639572,0.49339471736011975,2.183956627544741,1.5329793158319025,1.9888013717295234
2280,-0.8705234503233903,0.13714039704941494,0.503473567264601,0.5588128559278231,0.9004240436610489,1.4956333122427818
2290,-0.8476887135970329,0.16352983855061046,0.5202379534277861,0.23759602962539605,1.3298943061333512,1.4253987782074247
2300,-0.8681141162490192,0.14582405499509138,0.5068887935878696,-1.3636408986813089,0.6187214048531033,-1.1329561465992357
2310,-0.8711941750137091,0.14679335901049284,0.5045090497400118,-2.068868689204144,-0.9929367332515742,-2.0598617401071464
