time_ms,ax,ay,az,gx,gy,gz
0,-0.6441258861819059,0.15321059044130472,0.5098006283616981,2.0469855001948165,1.4330758855126047,1.749647473494631
10,-0.6582021190254879,0.14077631647201272,0.4906001436449384,0.8385608591289273,0.03334012713975471,0.6345833643345635
20,-0.6367993680423265,0.16153119317992098,0.5157079223025889,0.3788073290300453,-0.35731015875584726,1.269679702647914
30,-0.6330801989309971,0.16165783924648816,0.5155660469879942,2.8771935826375143,0.061341146140394875,2.368380465682333
40,-0.6588544896737362,0.1367405544140041,0.4901360102042237,-2.1825465180367325,-3.1176168490908047,-2.3401861785728086
50,-0.6333630666624529,0.16572474439560475,0.5190209099019368,-0.08288520551107603,1.5292169053775129,0.5572150909324582
60,-0.6375936944393781,0.16314311980842952,0.5160200428842939,1.6250788148026527,2.8332361168183433,1.769348758371736
70,-0.6381983100550997,0.16262389204332364,0.5176185004302026,-0.6664795572920166,0.6425978300946055,-0.07042597130141198
80,-0.6455585234926731,0.1527210784817763,0.5104981580814294,-1.1211735367146298,-0.7596744806679553,-0.9873274373445308
90,-0.62904435244993,0.17589186997532508,0.5217199200141581,1.4289457768284084,-0.24697436329803124,-0.22453269631874995
100,-0.6421322476126023,0.16254318828515216,0.5085273325925036,1.1782726172030287,0.6628732304697399,0.5536425347412289
110,-0.6504247313973568,0.15435001043982868,0.5035064540078843,1.1574612634550323,1.3279830346282506,0.7783121526662805
120,-0.61587581722676,0.19085233323832695,0.5412449447274373,1.5503044754924011,2.9790600195243653,2.6756259730360274
130,-0.6568390936395421,0.1486556793368229,0.5031795429835465,-1.7920885410060667,1.0134733614902995,0.9180458871297924
140,-0.6299040400354136,0.17153726324094767,0.5308740072885398,-3.8098931447769173,-0.6653231596255985,-0.937902088710202
150,-0.6569370478097871,0.14241255988933968,0.5000855524004281,0.8081962430497764,3.352523357667423,3.269347594336323
160,-0.6645581631194679,0.1306734785550362,0.48923738122350413,-3.33602016471304,-0.7301785911078678,-0.223417631344861
170,-0.6752266277319859,0.12224378234727615,0.4838321861404087,1.4921458687229339,1.0360985336975945,1.614424880661785
180,-0.687742847850789,0.1677643077951941,0.5327463888420769,6.471989155723658,-0.06710513331462153,-0.7754329352187479
190,-0.7287806599980722,0.21790965376208513,0.4578732324964936,30.30266267956064,-5.570606471729523,2.233817840432049
200,-0.8182504744000466,0.21265719163487917,0.6529270063529872,37.362756783961274,-18.47543503102832,15.730401926434725
210,-0.858728051598049,0.189772013184752,0.7283449062746395,25.07708832591144,-36.015027574573026,24.015892549516067
220,-0.7393755482893675,0.20731469552570028,0.6035031779526048,11.042149758240598,-49.16971597782024,22.640066865956424
230,-0.5420586305094052,0.217547140476666,0.49414025230652797,11.326571555635063,-43.69834689932043,25.81929402931397
240,-0.4714438503395902,0.19031254198902167,0.38391418789579906,-2.862635247812071,-35.90255972268432,16.18457974044047
250,-0.6212030994144817,0.216925433647908,0.48595650918389355,-20.57695880577436,-9.251280180580913,-4.329008986690888
260,-0.6140568419397588,0.23385626521843675,0.5002985186513227,-28.357319516810083,-9.886288962452861,-11.223844259772688
270,-0.5554623638143747,0.25212685489430176,0.4895602664761671,-31.009847759462623,-2.0139357826911977,-6.787470894503654
280,-0.5197573945587126,0.20922363123812415,0.4522452118389182,-35.205446535625775,3.686622353062245,-6.187270895214947
290,-0.5019916161525201,0.27681284581398063,0.518618647881575,-35.17320110639125,5.567444609758446,-3.442389606851755
300,-0.5390362618838059,0.28496184777034567,0.53177482953709,-27.514614427815165,12.147004503618193,13.179932984939974
310,-0.5499951294628523,0.21154276874399447,0.5356382323147233,-31.64679008276012,15.63379181653111,25.634895143377236
320,-0.6994844002933288,0.08525908953486891,0.5719822891202615,-45.18488134092213,17.53870508555752,22.203408047353285
330,-0.6635670715388229,0.05903621006361376,0.6364121449038564,-41.131778967020146,13.415065634773995,18.655751047628744
340,-0.6597331921871092,0.08218130089674691,0.5004600903525095,-38.721817631649145,13.04414379608627,16.030409676078065
350,-0.5835962544092076,0.11326989120969269,0.49103013088401865,-32.03170783823431,16.786836985886275,16.03839512096014
360,-0.5228612271100911,0.07106910006156489,0.4786492359362033,-30.62554731997001,20.119971275595013,12.862418751852825
370,-0.5000596188405849,0.00960431716825348,0.47986736959254345,-35.681251344801694,20.600651630424963,3.442392857213899
380,-0.5636679936447612,-0.011016168766174304,0.5245113560342571,-28.123051454847236,13.499477822757768,-7.8799932815657145
390,-0.664643408923109,-0.037178293904285425,0.4969347760891081,-8.834829698586695,-3.716054196417325,-24.0238030720547
400,-0.6178288001275247,-0.06523295867868342,0.3999194423108715,3.854013635005656,-15.2051379936944,-38.5178148519725
410,-0.7186354878611099,-0.13108770431716096,0.4749691743598372,4.710760911604272,-12.961927055428486,-31.094390607241365
420,-0.6070690894906658,0.0745814239659159,0.6746333310545554,73.23384883134317,-16.745090245083933,-36.030322657570316
430,-0.6329019411691563,0.02758229179519201,0.4993350408088512,29.135939628803413,-0.4213417500858512,-32.35340290223206
440,-0.6225509061968602,0.16108611110966894,0.2514293621989708,10.04778181028132,11.071086277727261,-31.03246273160398
450,-0.5990954034233229,0.3065250289085849,0.3661905637682357,-21.110934583016643,24.35699979319552,-25.734582179694833
460,-0.5591871632581799,0.3617063419397899,0.7462326330362273,-46.031276808114214,40.364973940362,-9.430779392999755
470,-0.566440620264244,0.41892503956694005,0.7987832334037492,-38.67153290412386,53.231164585896096,10.077984387613599
480,-0.5497499604812435,0.5445412517408271,0.5488994496792259,-22.859971666392934,52.62649605944988,15.995957983268326
490,-0.5195297274603207,0.17542832608442652,0.951832962697504,-53.17447680007543,34.09748344570657,8.575114995371784
500,-0.8207459009689214,0.20856385841928227,0.0831294655653854,-45.32537403252732,30.605251624785026,5.439517263135143
510,-0.6393249847972577,0.5662633735954476,-0.04002825424315409,5.216556763070195,29.054862467656736,17.16626816752715
520,-0.5518546295326444,-0.1078800854479746,0.37412499504024593,-7.681783027026001,12.014330373369248,8.675748383384384
530,-0.6359034574323983,-0.3437742934444727,0.4976014977904782,9.703275954870602,0.893484852143938,-21.106874420174
540,-0.6872972282480521,-0.18197338364105792,0.46207476197071606,43.43637328351042,2.334372431036642,-25.4053958565189
550,-0.7239397317696747,-0.09829752698373517,0.3872905341494195,42.99251180030634,5.758875354685939,-12.028869012756951
560,-0.8118390067974377,-0.22139424042506403,0.3423340304171634,30.71865958292604,14.432665734742313,-4.114618258924664
570,-0.7737400758838685,-0.32228340515516013,0.5211046413993925,54.459594501513386,19.527056380786064,-10.55682138868391
580,-0.7519955746051982,-0.45491792820202165,0.06718698999549413,-18.983806636137082,23.122272895895822,-33.487102622650156
590,-0.5508323154846502,0.19083635336781796,0.3072526275838884,17.27465981585388,6.145252740059281,-19.547619537775805
600,-0.691402087363923,0.44435173422652385,0.46312043037633643,97.10753625172235,-3.41749170220979,-15.726021594687362
610,-0.649907450868744,0.3806240211984108,0.4469452167065447,54.1992951975499,-6.517736371902857,-5.889831011881705
620,-0.6315085995697254,0.3135286576534211,0.44565076212161175,7.55416362405893,-0.7286888116058388,4.986855154254966
630,-0.6698381113072929,0.24320205798843525,0.47709320640447334,-6.178352682379033,1.5954100892869496,0.6571908530073862
640,-0.6888085552204556,0.11633666337661469,0.46607892054539435,-12.414841174415903,-1.373623619998289,-13.530644753982836
650,-0.6938176273171811,0.0943726874153098,0.4594723212414322,-11.188777517365986,-3.9784500773823614,-19.042420340016648
660,-0.662503102352307,0.08419473720615583,0.48174007689912507,-1.5999679172220622,-2.9509402125826973,-4.831434509922308
670,-0.689506556295403,0.06563152027259168,0.45149077950383865,6.1949936806819945,-2.607663785173744,2.1671214345723566
680,-0.67235240257729,0.08780190793397022,0.4765718662530123,13.677144682427116,-0.08126278121111685,9.976136052907055
690,-0.6865229002730976,0.08097547175346635,0.4690652272020989,16.261962310371125,-0.6750957216508875,11.94043639430703
700,-0.6591323967396187,0.11642704176340099,0.4898398833107382,18.0546871694118,0.3223889960764833,13.160988322730212
710,-0.677324633345003,0.10838273984905729,0.4659880398782472,15.510257847561281,-0.1775539345520855,10.280861646929553
720,-0.65517708466813,0.13730392680335957,0.4913737192311787,5.640469111562757,-0.11747647196045852,2.882641059047224
730,-0.6786547934873428,0.10817813452856209,0.4699238730594559,-11.778353090922236,-0.1460088444897837,-7.7553307034527235
740,-0.6631759622571464,0.11207023248670869,0.4842310679109586,-12.043442944303822,1.464347348404226,-5.264315416839763
750,-0.7003254293714927,0.07170841234088424,0.44892341773569217,-11.06147857121675,-2.434118641734834,-6.9677767074394845
760,-0.6727028641156503,0.0914601592382998,0.4706075931450541,-2.108505139813289,-1.468913229352654,-3.103060453688849
770,-0.6681658864785845,0.10455587678332538,0.47702473317225275,5.010857451887238,-1.225831864879496,1.3713022914214152
780,-0.6971900989588117,0.07703959753098003,0.45034289950224965,6.071089570787233,-2.294635840537054,2.80726026268186
790,-0.6691085673840544,0.10948946453248307,0.48088417543224143,-0.17373895128858485,-0.5440398328585888,4.174993170774787
800,-0.6783143709521661,0.10437012152105428,0.47131350974519165,-8.375944599349504,0.11961199933194089,3.643578280555725
810,-0.6881495242534466,0.08699522293088574,0.45524566135999156,-7.282883434437612,-0.2654184364557204,3.7004562803954917
820,-0.64988933233212,0.12238493726728207,0.4890490622395568,-3.7639970584772806,0.8949558725979652,6.05644276663415
830,-0.6636443047596576,0.11112065936100374,0.48467629011432534,-3.7765250482788555,0.23237460662036358,6.010800861929307
840,-0.6933799432723693,0.09032602543137873,0.4585708016763196,-3.350679052009217,-0.0032798386013218606,5.031357882536414
850,-0.653440097676932,0.13138084691043136,0.4930600918709477,-3.511252815525556,0.22024427592928686,5.161096157130814
860,-0.6582495161773643,0.12785566542919435,0.4901330027021507,-3.460392529666907,-1.1123035606605485,5.879064787206663
870,-0.6894189881245778,0.09541106037105165,0.45936121099218197,-1.1975630471099266,-0.6646291771056836,7.678816456907333
880,-0.6761872450863712,0.10967721413301303,0.47120287966214264,2.6317633792883544,0.9314694024550896,9.03211104208128
890,-0.6555611315017116,0.1365301835060917,0.4915941824673321,1.8639768191043524,-1.7541281902640864,5.612205061445909
900,-0.6770369249741265,0.11779529184008365,0.4669505428297839,3.018898254822378,0.17416961423181604,6.748023535399524
910,-0.6746437389468406,0.12294579420562055,0.4787776813839553,3.421880622827013,-1.8088515860282686,3.33156476342948
920,-0.6784249954541256,0.1169266833930061,0.4704370315791315,1.7670781387562422,1.5366342729744082,4.0524484660479745
930,-0.6687994999783423,0.12005749447365073,0.47895774814945097,-3.895195298370033,1.7231851639389033,1.4522975432306482
940,-0.6690265733145061,0.11669327843236513,0.47413503267125773,-8.483910885708369,-0.9893043666638254,-1.2207699457099055
950,-0.6631643783225396,0.12217720992076467,0.4790935967043316,-8.366315622658178,-1.2014162113614542,-0.4657703647423226
960,-0.6597526807458021,0.12021097600228947,0.4828583618160344,-5.328189629905923,1.1437932359266287,2.6288774559759944
970,-0.6587631786340641,0.11784408571403104,0.48557593235902924,-1.9518040739481188,2.457967110338359,4.767627477450375
980,-0.6553727290437344,0.13468284518983137,0.4971572230387024,-0.6601612286731117,0.4257160214290254,3.8295361297400436
990,-0.6725362032074625,0.12410347836775236,0.4810517350052743,-0.011263674157039993,4.73725381865129,8.310467084443307
1000,-0.6909840125233218,0.10251876482535452,0.4493707059267146,13.597811559461555,0.6445684882453262,9.08060202924848
1010,-0.6559297522890625,0.14746723781859475,0.4951353670712361,18.92887020750081,4.293233717140226,11.775224764836368
1020,-0.6840732028310582,0.12116974618821161,0.465551964842122,18.21245177114762,-1.529412823974436,2.513486961941796
1030,-0.6844242119885844,0.12067004384898082,0.45799603567556996,17.24632669385043,-2.589794112533216,-1.080506464014748
1040,-0.675295653208002,0.1361539610218093,0.46594788343283566,10.709192960723394,-4.253147119444151,-4.6322091107387315
1050,-0.6827592664345897,0.1349162416362849,0.46195916184986946,1.9187869962429525,-5.172856703401992,-7.666981986707153
1060,-0.6883483506861588,0.12060351895086702,0.45659294131959105,-6.000216530166325,-4.046444714430887,-7.814502409509509
1070,-0.6910268738746933,0.09668696929605342,0.4563360388186629,-1.6191940866445704,2.738671294225662,0.9573025491181522
1080,-0.6672636784053326,0.11507156837905297,0.4827778292632594,2.5346950614452908,1.3154705539469513,2.672940493098813
1090,-0.6721569161887924,0.10912141576597614,0.4725930688660593,3.349437235265353,0.28511366655298076,3.7627762397526423
1100,-0.6720163049844271,0.11871212973009349,0.47352538908997194,1.3428335548070358,0.42449075051151586,4.9246433628413175
1110,-0.6574836329335826,0.14374963610086605,0.4867111589596737,-0.5621089457653943,2.3168130415037766,6.470763603063368
1120,-0.6986914301165007,0.103828122287487,0.4458027938815916,0.7534201368618576,5.855490267830762,9.135610361195875
1130,-0.6437819702831341,0.1570036795879448,0.4999416413361231,-1.1604908645967882,2.8716274585992116,4.908865638650932
1140,-0.6489255562925609,0.15459251973401666,0.4918639539428259,-6.6175800579943616,-5.177853185964735,-4.781569283566143
1150,-0.6641806449540604,0.13800453938417528,0.48259244715412875,-1.2608978941542883,0.44981911852562123,-0.2838733524024022
1160,-0.6772613732205719,0.13124202634451165,0.4680008722248403,-5.517992469780596,-0.9503293242133961,-2.3361727487363497
1170,-0.6609710439672856,0.1279747371530817,0.492744520258993,-4.973520628450176,-0.48872351002606124,-2.8388666167004466
1180,-0.6548424278739574,0.13472714883839532,0.48959024777138643,-2.3387071525858487,1.183727073506193,-0.2388185728665524
1190,-0.6804858934224237,0.11335450705483696,0.46455885496906585,-0.9989391628327733,0.6224136352053122,0.24408503428723888
1200,-0.7018319910599791,0.09436702529182356,0.4456462864031454,1.9726895216166653,0.7488402224483409,0.9119776329945632
1210,-0.685081444123126,0.11371254295308172,0.4614210014232647,2.860471418052906,0.4044371025919951,0.14746882692775187
1220,-0.6665053732039634,0.13503755594653066,0.47851513005857393,2.2757048302613807,0.6467146573309577,-0.5104453571468948
1230,-0.6521784429369754,0.14726443988384266,0.49271910974443744,-0.0938220629796036,-1.751955497064767,-2.856298530653822
1240,-0.6624346340607368,0.13296913016248432,0.48054615188524885,-0.25804256958205485,0.09449387824714794,-0.16847464009004487
1250,-0.6883642199071136,0.10293191092627832,0.4624522784185353,-2.860707314473223,-0.35196591003816774,0.11746987474586784
1260,-0.6822801926920518,0.11138608018658623,0.4669450004000783,-4.108629816718803,-1.0597691484853717,0.3672092014983619
1270,-0.6868791370204899,0.10416712295930226,0.4641318821940726,-1.5069758387113765,-1.6499440432877166,0.31042359093616523
1280,-0.6724873084526182,0.12001808555294721,0.47923258931874435,5.9611022785058605,2.4554403468160197,4.963835739059264
1290,-0.6733125649233038,0.12457200060028864,0.47503854395343104,2.9901990431974985,-1.2762147850115895,0.8246259912782583
1300,-0.6530622392415034,0.14869151245050122,0.4909888128614856,0.6315445406150677,-1.7198082190822286,-1.3405625936862335
1310,-0.667669266760609,0.13448641548444798,0.4768109009208823,-3.9279312442364342,-3.5334924001783827,-5.012865461127146
1320,-0.6952437931978408,0.10642306374960006,0.45377889014989364,-2.562493326389111,-0.17657471083924947,-2.641694225812448
1330,-0.6660854254980224,0.12692463239198265,0.4739751684421277,-0.6363798659454016,1.6441017183061502,-0.23285435689207
1340,-0.6478241741561037,0.13808119688555492,0.4937019681959002,1.344579240307033,2.3613125607286003,2.229545521426009
1350,-0.677918982626546,0.11445608680571383,0.46813069230638044,-1.4192082280554092,-1.4519110214140787,-1.7629846614994058
1360,-0.695870710443956,0.10183500819108907,0.4520918796983013,0.9392339718447702,1.7812212155145768,1.2767496656112172
1370,-0.6790711999907317,0.11827653367850337,0.46976437384086617,0.6666312994878862,3.6322235942897576,3.1329718753560547
1380,-0.6815818847656315,0.11102482548892352,0.465395113043195,-4.421457658327086,0.6899136596494984,0.6192052470686829
1390,-0.6678787001796502,0.12062046425909585,0.4763602000120356,-4.411590433342845,0.9864824703667742,1.8982877265399092
1400,-0.6699568201280834,0.12388425004413584,0.48343404836029064,-1.9929305217167186,0.2802901206019729,1.5161271798520124
1410,-0.6618415759049577,0.14319804623341525,0.48422655766755207,-10.021765280267644,-1.4837223250231262,0.5270919336323658
1420,-0.6729217753376857,0.10708087651866736,0.4813044833797791,-2.663662824616072,0.5176237538769513,0.9696171434959531
1430,-0.668581772308447,0.12782829736250043,0.4795012258815099,3.109188840677067,1.5656720142407017,1.7067699665845217
1440,-0.6966293858359106,0.10066343254212032,0.4484218184792431,0.6399936431113389,-1.8062948947059358,-1.622678883648086
1450,-0.6628424975541131,0.1346851235819991,0.4836935660402415,2.1781106784976814,1.079665468672841,0.5520857214759497
1460,-0.6871598221928494,0.11263295605722963,0.4597029867024598,-2.1322749051635705,-0.9197341788995753,-2.324038770601218
1470,-0.6719027397292423,0.12336160149089222,0.4742941698617218,-2.753176788823524,-0.21374064426779393,-1.3453475064956628
1480,-0.6809509525197228,0.11234314988540399,0.4691389211656259,0.5421926099117561,1.0482787217056349,1.381773622190916
1490,-0.6266725380366243,0.16159869569176744,0.5152776579489278,-2.3736284145089295,-0.08921834867232187,1.0890675309279554
1500,-0.6295216882071928,0.16176069694895684,0.5187632152978767,-0.29455099059414624,0.4330690890859856,1.7312515114983156
1510,-0.6651506836799675,0.13102065696872803,0.48718366319746953,-1.9142643963443393,-0.694936631489161,0.1727500027610479
1520,-0.6668478719968307,0.12996743914369316,0.4842661794569771,-1.0814898733352343,1.8983565805628198,1.6780685856234077
1530,-0.6686259884651375,0.1227609739186959,0.4767933721846127,-3.9090848939308414,1.9049125779639526,0.7736325082345246
1540,-0.6528060074484442,0.1345039882238636,0.49152439130085346,-5.646485434703442,0.27614710317795843,-0.776018647826154
1550,-0.6957916137496042,0.09212868795503484,0.4515549408382707,-0.8691639735169038,1.3798064536872743,1.2584429152371985
1560,-0.6400563506090036,0.1483482024630962,0.5034792070481884,1.6844219521432717,1.2856324886686061,1.7385459039234081
1570,-0.6530819843413838,0.13920064513826136,0.48920245580014526,0.30774806306059255,1.7423577344654482,1.2521473574607935
1580,-0.6852743759323459,0.10910157233914752,0.46668720770062544,-1.3816861545375212,1.4457476837890562,-0.12248168984507979
1590,-0.6425905108115463,0.15328059867031416,0.5003739830669279,-5.578201502705273,-1.8601435941487587,-3.2266778324803083
1600,-0.7100507944865745,0.07371327641498693,0.43632840285220936,-6.043506481549174,-1.6672961556387662,-2.8501422221235817
1610,-0.700733544297994,0.08196419414109654,0.4487168297073174,0.1755664616952654,0.46351514024471446,1.3564135907136254
1620,-0.6609722965373922,0.13168589893559254,0.4864650632521823,3.620372068282963,0.1351844610396976,2.8494299894481214
1630,-0.6868092876986083,0.11154790623603467,0.45862648189729527,4.268328319209777,1.1748747312557688,3.9585115745247204
1640,-0.6545536279814792,0.13701677969950696,0.4929941463525774,-0.4123799612706301,-1.6897587099613816,0.4681509043550177
1650,-0.6744737964160948,0.1087984738914423,0.4738970290204081,-3.6006692875633286,-4.964977369518385,-3.4188050421791427
1660,-0.662341503948375,0.12028852231336024,0.4855430937036056,-0.9229014209356264,-1.2226186121088423,0.993654604184365
1670,-0.6659063133575644,0.12294127111561472,0.4839188763846042,-0.0688522098801132,-0.6171839920859177,1.5230836600157098
1680,-0.6399595105743101,0.14962471793490065,0.5093804793433968,1.593375120247304,1.3584342720748266,1.4893170521840449
1690,-0.650017837552873,0.1461180267984353,0.5010297705431122,-1.838382291512751,-1.1581803267845552,-1.9129577852577568
1700,-0.6489864609675047,0.1482546873506961,0.5013835262233972,-4.6261076359706355,-2.861808788657787,-3.898811295127294
1710,-0.6623147310557771,0.13043454183189945,0.485689643692518,-2.7852782495390507,-0.668730487270896,-2.055876877249322
1720,-0.6479307968912523,0.14301185061398028,0.5002116078905257,-0.584950241492643,0.38092175535411654,-0.9725096567081785
1730,-0.6644950056354283,0.123032087792496,0.4844565774036632,3.626752008404191,2.29489361450813,1.6623570927551163
1740,-0.6675854847042171,0.11496378422686454,0.48319023574270636,2.7583435480777228,0.3328580661529268,-0.41757719915400693
1750,-0.6679610962799366,0.11686823595225188,0.47877155416177597,-0.8025568242404713,-0.2247142943206944,-0.9834904870177934
1760,-0.6740009991170487,0.11736910353410529,0.47426775695992374,-2.8811393276419754,-0.7050203702702753,-1.3667662776576865
1770,-0.6597409394564155,0.12664105557253771,0.48737812953481624,-0.868680586649158,0.8925285724489862,0.4512790138267483
1780,-0.6680601219081863,0.11523958871294947,0.47960895242291496,1.1259658476628895,1.5276600288188074,1.7607041709221092
1790,-0.6537152998903496,0.13311394638030305,0.4950372755056638,2.7591938210250913,2.001605259723363,2.8163969201688155
1800,-0.6716853427692958,0.1189675842647133,0.4756117252338804,1.054568175063796,-0.48846340657017884,0.22650482837205954
1810,-0.698057192028044,0.0925978767299397,0.4481593364442159,1.834648385963178,-0.034661684770409845,0.027473381913189654
1820,-0.6795101176647936,0.11169583766591974,0.4697654378470321,-0.5320205632883048,0.8544262563319167,-0.4800830935911433
1830,-0.6915334724471182,0.09805547677590196,0.454221262226014,0.6071706876679817,3.091052743130522,1.6576693017916528
1840,-0.7067551141767715,0.07863842878813651,0.43852270568919216,-2.34201860931433,-0.5609747267000118,-1.9783812803822154
1850,-0.6736171039096911,0.10957877512576374,0.4709294627213547,-1.6461336983144554,-0.022697424716764947,-0.6874335392453018
1860,-0.6897469065668655,0.09433668158472545,0.45749113991987966,-0.17846849414841104,-0.14934391420411805,-0.2585024210506884
1870,-0.6927495541201563,0.09309567968220334,0.45512184500615105,2.5202713726461274,0.2284599483135028,0.9739696671640593
1880,-0.6884854008550251,0.0978932997212534,0.4567153943753465,1.078341140986506,-0.5219769353173979,0.04003268998009524
1890,-0.6551309454276731,0.1314371250593759,0.4915731728601697,-2.76039758014401,0.2736562438520746,-1.7861077988445742
1900,-0.6971578039421186,0.09258268456059046,0.45561254444124,-1.9897542769195358,0.8677453209129402,-0.5885850979365451
1910,-0.6897130762939394,0.10056477978272405,0.46038240306484085,-3.3692691389169704,-1.3467634260199732,-2.1942904956602827
1920,-0.659418537340245,0.12289567268034286,0.4867400775316669,0.6181274565412715,0.11101679998848657,0.31496495363991334
1930,-0.6735400330338002,0.11167953333641761,0.47276957890437604,1.6056906567948281,-1.509270548346586,-0.7223923600650106
1940,-0.69011405899486,0.10389321299843403,0.4638843011057947,3.0700067893038447,-0.09804989373060258,0.5623900195220009
1950,-0.6671443266657007,0.12491776255719682,0.48753320157962526,-2.8823315347918186,-2.2119145011045243,-2.799387488744384
1960,-0.6452511847724287,0.13643670768743693,0.5050653232263727,-5.740481540181332,-1.6234405481996028,-3.4874199646884843
1970,-0.6683526209842618,0.10976186531673356,0.48574548176580634,-1.836542055138317,0.790697296070204,-1.1662825228552125
1980,-0.6757244536847911,0.10353671810750985,0.4817786538701764,0.4759163374764477,0.49451043849291954,-1.4708633918348397
1990,-0.6564205431159351,0.11794036194971572,0.4940304129343423,2.0578149996086936,-0.5645185079659479,-0.8718689705885181
2000,-0.6585660584293973,0.13526805230254904,0.4912472261521809,5.7081471925606655,1.8729210188745047,2.8770509206051065
2010,-0.6733726351088363,0.12443757441448121,0.4778847183575528,1.4108205033032395,0.023776600619040578,0.3502807924321523
2020,-0.6671506513862786,0.12549161020777322,0.48483096043937934,-4.721009602199887,-1.4496845261679339,-4.141346375308341
2030,-0.6531215292697664,0.13058251715880587,0.4934233384852148,-4.992118687129701,0.628527767908144,-3.3080411334711877
2040,-0.6757070369289513,0.10596759228669184,0.46774149564998085,-5.329230161602448,-0.9042879879157248,-3.3533297013006087
2050,-0.6825733743153402,0.10542353142286758,0.4667645432868515,-0.7702932308455366,0.7485371556667131,0.395312606344743
2060,-0.6842709378751068,0.10228622287236705,0.4679663389369396,-0.726644697208207,-1.734624697134026,-0.7198962284354536
2070,-0.6820727981177555,0.09815373328984095,0.46595304330001047,-3.4548115731170204,-3.315670378114332,-1.5471514120287722
2080,-0.6938632176972276,0.08831493215956351,0.45444677488500185,5.536197827859658,2.1090530455535896,4.926726309948307
2090,-0.6515821391873337,0.1396547699336905,0.5016469893137173,0.1009101533845036,2.727908532030659,1.8845889079082594
2100,-0.6617492458165608,0.12385532532664383,0.48697153504890295,-2.6380310691372273,1.8027495227789407,0.16397238040348816
2110,-0.6761349657593089,0.10685564462005966,0.47060596567653745,-1.718498151252132,1.845420886020749,0.7509787040769982
2120,-0.6521201141686881,0.132238493305996,0.4971896660166806,-5.482367939298363,-4.4291070169514395,-4.604991118437119
2130,-0.6913721745479647,0.0937434854399498,0.45876587933571034,0.8655936817776012,-1.9235284736874756,-1.0188528685965195
2140,-0.6798265009134546,0.10895284504772747,0.4675002425292394,4.158161759163221,-1.105362645614751,0.19147425755969083
2150,-0.6628857831511512,0.12400451607346878,0.4847270854773323,3.2640217457095155,0.38697723116881555,1.6499688633075749
2160,-0.65138485162603,0.13590595550570725,0.4975873321076692,-0.9437801495277849,1.7694084172490316,2.706780681775816
2170,-0.6797838702529292,0.10243494671134444,0.4702018806025864,-1.3938128255283464,-0.5151106369775003,1.1358923914521524
2180,-0.6833842764540153,0.103391751682466,0.46770245229268365,5.302537813918896,3.793119492040077,6.194304811469967
2190,-0.6677358024213184,0.12291837173736028,0.4853619334566149,4.958145263234631,0.7458987715989787,2.527149362862118
2200,-0.6811815718885417,0.11121229733311212,0.4688662456343891,2.46733264769472,-1.6849200626044554,-1.4666258993214654
2210,-0.6751515609704044,0.11981604819565006,0.47145811708952845,4.980976141197327,3.7891723189753015,2.652203345574254
2220,-0.6599089652136676,0.13483066178278522,0.49050894663790817,0.3489679313335028,1.2601610623852877,0.033388634874629286
2230,-0.6623409412177326,0.11869788517876499,0.4842372822804857,-2.002145122336061,-1.1351574822379717,-0.45111811088273956
2240,-0.6725514125476663,0.1118403271005728,0.4798590508335727,2.302240557831322,1.5437654819515099,2.3827764076859705
2250,-0.6862015666165489,0.10420311509665531,0.46188034788027543,6.815038001438117,3.4464267848560426,4.223397787482107
2260,-0.6604307624144091,0.1262497767727353,0.48411416349992675,6.7166080633922896,2.36733900335891,3.0692629898883084
2270,-0.6584106293401221,0.1282921735772892,0.4879992047923631,4.887342385192065,2.2650408300822695,2.3901835588399907
2280,-0.6514763844700754,0.14122563195880777,0.49867769314816923,1.1308384295445686,1.5590377652981116,0.8622512378801153
2290,-0.6719874559771656,0.11824829938805904,0.47991708427224433,2.6832223139811022,4.101634111791471,3.153386033813466
2300,-0.6922682293953552,0.08613059046537458,0.4589045134458956,2.5677137382372344,1.2574870862993306,1.2336452197440269
2310,-0.6953472887979717,0.09214108613827764,0.4543787541909881,6.9163435251456065,2.5793142307317183,4.07114781004336
2320,-0.6760161650320381,0.1135540342624025,0.4726285981641964,0.3692061645284439,-2.633015161536305,-1.73318668866867
2330,-0.6723481738861311,0.11782466840571484,0.4752972881696016,1.5311609882049049,0.5973760459974657,0.42001230720356947
2340,-0.6612320402843094,0.12397049168684515,0.4899120636786602,-2.0021975632976736,0.18751172854211506,-0.2370490786643325
2350,-0.6735120969329867,0.10963300293390466,0.47413824770196117,-2.3232974735890637,0.6669516353038895,0.8352683152399676
2360,-0.68574789424908,0.10537422677689545,0.46145910333361173,-0.2499103000222107,-0.8832832078919328,0.2911545562503064
2370,-0.6467507025442784,0.15255015377508147,0.5047114928572176,6.209757380314128,2.8396836776150334,3.881263956126268
2380,-0.6720104192807533,0.1248946739651324,0.4789125044097053,-0.4621670341577826,-2.353769184128904,-2.7179824506728267
2390,-0.6863490464517898,0.1043757188557487,0.4553670085304949,0.48019821271340546,-0.4011337510525339,-1.3174134445233512
2400,-0.6774856158603779,0.11912303878149745,0.46916951025610304,-5.881965588802469,-4.786074343674974,-6.054805121324563
2410,-0.6723846674470912,0.12011707037678965,0.47755327943078857,-4.27966122335217,-1.0597551593983925,-2.558273564974029
2420,-0.6835573323853393,0.09623287578036205,0.46287087721450426,-5.130542573263208,-2.6476336543398604,-4.119085712026707
2430,-0.6576625734268374,0.1295493960012547,0.4905169927310477,-1.3099038523873079,-0.04855254253652494,-0.33763120513643446
2440,-0.6886305979939857,0.10096039982012388,0.4607335186340271,3.5610998552339126,2.546138988691836,2.8259523512803026
2450,-0.6781617045307154,0.10881992179991382,0.4704201911513962,3.039509878199017,1.136261997913047,1.5561057420501683
2460,-0.6694615492375481,0.1187386544632423,0.4795625368682624,0.8660022199270796,0.3213185561508187,0.6446061011355939
2470,-0.6417680293822743,0.14795915126416792,0.5096721748837261,0.6812114639488472,1.2183951424817554,0.6948663035707241
2480,-0.6526108991890651,0.13443115987993204,0.4969381597267213,-1.2869507944368614,-0.49112719864553706,-1.109313925251408
2490,-0.6753894957411386,0.1026195029761239,0.4717986529197961,-1.3610008194855636,0.06353601777036177,-0.46317239887169837
2500,-0.6717440132802251,0.10898674260282248,0.48015720411769885,-2.3382234467182084,-0.9869656711035206,-1.6234514001234435
2510,-0.6672587615435284,0.11458045431030163,0.4812500779149659,-2.4934968269037268,-1.3767586206601115,-1.454966236536065
2520,-0.6484559763680732,0.13702352708493343,0.4990837588652593,-1.3797863345860515,-0.6738453054185318,-0.0426941405533624
2530,-0.6953239245864391,0.09356657805127909,0.45297431745789163,-0.9017585272699743,-0.9844773816935224,0.12885478763225378
2540,-0.6616489110235021,0.12618937664935992,0.48597898722933824,-0.8781680673532082,-1.3094080401542767,-0.22834161419044752
2550,-0.6772028033269542,0.10762176437736894,0.4700382800312195,-0.5296647077732657,-0.7656604896292889,-0.2939041536020838
2560,-0.6987984402784937,0.08996208327772653,0.4515248538685805,0.3043636866802195,-1.3745644626779665,-1.6985621680904601
2570,-0.6647580893840909,0.12254347594111323,0.48283778660189364,0.8304135394365324,2.63438006008264,1.2149663394983177
2580,-0.6767125932770561,0.10694703845758463,0.4734446387620224,-1.7272504747486663,0.7342653581690298,-0.5537812647092196
2590,-0.661844301414105,0.11937992550302819,0.49019301801958126,-2.4049917076862517,-0.12528806287184283,-0.827613544130155
2600,-0.688735110967364,0.09580245899479783,0.46295529507499994,-2.1432688743275663,-1.8190139312209537,-1.801457751375306
2610,-0.6622738649473593,0.12182015261465887,0.48796816137956633,1.6719297239463702,1.2997109415843846,1.722296883107262
2620,-0.675199813778076,0.10688620230114833,0.4723871437416013,1.1212612081624664,1.5894801299394559,1.9200469814416845
2630,-0.6775456355900429,0.10720165011282436,0.4683795851234818,-1.6917451918146382,-0.41607813804683613,-0.775083328306894
2640,-0.683868811335067,0.10264054444891069,0.4664659282377753,-0.8641074150576542,1.2462739467712423,-0.2701635759859051
2650,-0.6746454228840083,0.11492779844434714,0.47654444228090925,-1.7278327270644813,-0.47026251444306055,-1.401151439209447
