time_ms,ax,ay,az,gx,gy,gz
0,-0.6719654951099633,0.4661796104166983,0.4206718297161513,0.5301137952593491,0.49526962028852684,0.44607720597473144
10,-0.6571779999623628,0.4812639565010613,0.4378343989216648,0.9734714082961674,1.6305410780640934,1.9356979644276322
20,-0.6318438073209978,0.5132074276277225,0.4613482974980578,-0.924579820734953,0.17478523267155943,-0.4240673830527953
30,-0.6485021166898088,0.49584009515848554,0.4429351083362128,0.3359575043619095,1.8421328527367185,0.042486767674108084
40,-0.6347061528951813,0.5075781782776558,0.4573019083888845,-1.6267046988918994,-1.258658717213856,-2.5047723434917954
50,-0.6321856650801104,0.5099013595541539,0.4600804784614744,0.5672214792271144,-0.4607136116157635,-0.4577517877418118
60,-0.6519683536488428,0.48959605806752926,0.43987452872696653,-0.4479275924201915,-1.4174675462681547,-1.1162663561381263
70,-0.6542366792050968,0.48525213492284186,0.4421173434024728,-2.6608761944599237,-3.171236364157039,-2.5115024425327195
80,-0.6558617079550328,0.48167226936138097,0.440528213262757,-2.6989714391520696,-1.5374861703700304,-1.3668544244920486
90,-0.6615066713840263,0.47814379698546877,0.4338121540585876,-0.4896477403190143,1.4975414428918088,2.0152573453820337
100,-0.6432373029727648,0.4951534198923746,0.45177317400747735,0.7627367855127438,2.80783604473714,3.8574168741504633
110,-0.6426934766782098,0.5009010298542425,0.44802044194776175,-0.9840619072511374,-1.5894387919605626,-1.50416815822638
120,-0.6265392987788718,0.5193037888154789,0.46503436018499517,1.5251692215929065,-1.2415481259989796,-2.2040411794133026
130,-0.6458136824090024,0.49793012599337527,0.4515892455122837,2.9679839648446356,-0.16486362068096394,-1.4551014846757138
140,-0.6393779888468551,0.5035330406571548,0.45806549147630327,-1.9321288559643415,-4.6303175123745755,-5.891124417709909
150,-0.6523449454259835,0.4878549586667894,0.43573705055982986,-1.4691936367466871,-2.6424942368800934,-3.694827082902675
160,-0.6445974692035586,0.4985978117806226,0.45828774145293544,-2.8121350711327198,-1.9676600503005444,-4.58007992109698
170,-0.6667261118951111,0.4704160505241273,0.42922195908535554,0.6363549243045005,0.6797355958541476,-0.3329396773466702
180,-0.6552955033660582,0.48486103855113866,0.44142626512510935,2.0687272057781647,2.2244794543527586,3.200155560574511
190,-0.6398374508629573,0.5014376463244442,0.4564771865046372,0.5622274386703299,1.262122254045762,2.798032725383478
200,-0.6580982547498541,0.48476430167683165,0.4450293102641399,4.480051098123164,3.9418843615590395,6.739646861419035
210,-0.6588792952674407,0.49042627645738535,0.44938047871990483,1.5871004535404287,-1.5139341020946475,3.3691763549387774
220,-0.6565384216308764,0.5008587814488595,0.4402166520846835,3.6685638697781897,-1.6774990829983814,4.230953098239684
230,-0.645448939954882,0.5117102928339143,0.45898888555505096,2.998139632266734,-7.869510313618807,0.25105001724083653
240,-0.6687939252009921,0.48337715644159207,0.5855936378180495,10.880474712412505,-19.933160958779364,1.4870108204256385
250,-0.7095130088709118,0.5411267612922789,0.564934300456092,-1.2056496524201563,-33.02687449402584,15.839503601076423
260,-0.7394125761750314,0.5354107600750732,0.4740989560112278,-3.7058861800510607,-39.21790975611138,26.187771004232054
270,-0.696254550818891,0.5658801843210528,0.4542390908561294,4.436860783430689,-39.68029233996533,35.74447993441058
280,-0.6515820454886111,0.5629672305637015,0.4412939040848192,9.106733804847282,-40.020390060749875,38.2689475164289
290,-0.6266597593387829,0.516429197622946,0.3992570855590502,10.830769966628933,-33.082171410222664,38.657612615569235
300,-0.5270775761805752,0.5727500158357463,0.44390508461088063,8.074954300674642,-22.996268468355286,35.330458203908464
310,-0.5549074336390566,0.5674901066614348,0.4432766839279,5.627003122773203,-14.331137601141151,31.681445426784403
320,-0.6100800366347158,0.5633015647535746,0.47364000458704875,18.7788283743592,-6.603402301997679,38.05944728193528
330,-0.5731551991890649,0.5148746442925145,0.41595632900608565,22.430751054493403,-0.003416933304854375,36.16272132270738
340,-0.5161034467574201,0.4936727730366809,0.3893443815914252,18.838298993249083,19.135977688942003,33.37904964858299
350,-0.4749967242062077,0.49818318227227865,0.3851065452934689,10.726628706238309,34.88860494826399,21.12380787791973
360,-0.49859948920250846,0.514494668362093,0.4329965973107297,6.994799939742639,44.05655782825904,5.829084335465901
370,-0.5856537360439287,0.5349181492071061,0.4935603657746498,6.559951582172386,44.22740831279371,-5.898652197730448
380,-0.656520142862777,0.5424809777089805,0.45264383401906705,3.8715206697858733,30.816978642769758,-8.704614372806814
390,-0.6779525199440325,0.4271827624451552,0.3995520976911955,-7.399872016458666,-10.957151229629062,-2.6458590671959783
400,-0.5632660849323919,0.6144315125853594,0.6092564168086062,3.652724097151531,-8.422266269253692,11.08561088325561
410,-0.6309555427149526,0.5545484393041105,0.5461810870297088,2.608625779137138,-5.1914446645905015,3.878632401981519
420,-0.6005711508281454,0.5320468576736507,0.723903627458726,-19.41104468574476,-15.302435509098437,1.484066437350166
430,-0.6558314358677022,0.5453889011938076,0.7109737759699013,-32.55331763090801,-34.70044819771782,4.317828588118743
440,-0.7885348190031674,0.4648694849109914,0.5061723704326652,-35.92857992215236,-46.84848377003734,1.0449182867790423
450,-0.7557860066031791,0.534388790533664,0.4575968272807589,-21.94631823032278,-41.83236467609871,-1.1083823748983996
460,-0.7611263727195566,0.8690061296705419,0.3106192932282153,2.2005711582622633,-61.183255201683956,-11.419502668552417
470,-0.7086576227643895,0.4541897149910711,0.3419229650792256,-28.17242609711769,-35.809874949596896,-23.28994367540462
480,-0.54323970887714,0.6052775908579351,0.34411863888184446,-25.429344375195306,-28.602588095310573,-21.95835869126021
490,-0.2748425641866278,0.24403039068281657,0.42351666489868484,-14.599237271818016,-29.31734439137244,-47.067361060521215
500,-0.33321470543654375,0.29791255802414024,0.28918545191777506,-25.892639307799996,-13.371670851603694,-37.43505518062072
510,-0.6661178291530092,0.4473849193793003,0.39617060708660495,-24.565434670811403,-0.20507806310276971,-49.6777824247608
520,-0.9029187123095896,0.4026153872245151,0.4452695004962735,-1.4956218836115553,10.601879994655675,-50.575366528145416
530,-0.7127208226141277,0.41332572352347324,0.2639031668574414,0.21937592306885323,13.038811186999691,-21.564382341560844
540,-0.6819543413808886,0.3973209339392126,0.5003645760819005,7.791308215760469,32.563539810010695,-37.0861962785332
550,-0.6192513376980643,0.4506453382120533,0.4932713261692557,24.633073105576067,40.62284963266021,-10.212700726774806
560,-0.5882906653131507,0.46564473648633126,0.6311983233199723,22.85655277278017,35.56073934527671,-13.510328369767032
570,-0.6922129965141165,0.47035403318537705,0.04884364063197212,35.27789078062135,52.03700736852433,14.637660919311472
580,-0.7314560656070649,0.5069233412502555,0.6561431555612041,24.99631614063996,68.31725093187553,9.393894779885162
590,-0.7098664243503345,0.7678765693843491,1.0414098126920808,38.9915569715299,77.14598011648529,12.479234647436366
600,-0.6390442668104612,0.7178581179040158,0.7149204076973463,57.415535369230625,70.2212655636669,17.871170730288075
610,-0.584205161524667,0.05837199467585223,0.8554617662245738,28.876273138282674,53.5639788589818,-3.36948627981839
620,-0.5790222494907005,0.6272820179515842,1.6857377281598764,9.837292109061138,47.780573688639606,18.53042698105063
630,-0.6666619520323668,0.4837404901054504,1.2345654355074034,17.213047655334915,32.76259715972326,12.941516963236765
640,-0.6927151107856659,0.38716330922849257,0.7523358381431509,-20.987690939947413,-1.2931622745321902,20.092706977795242
650,-0.6642889276922197,0.5555918423385344,0.8589681069884793,10.665723489900722,23.028680107742883,-2.947872227195876
660,-0.6656041061611004,0.5110569237988932,0.7302962244294408,14.433005167948796,29.28628748284119,-7.090488911729036
670,-0.6732645577209557,0.41881602666806844,0.47963067952968585,4.124262845849738,17.6115774629819,-2.5416003085411765
680,-0.6463532572517515,0.48056644544192956,0.4241222343060228,7.996287816969866,10.077938458548035,-2.3652727630263213
690,-0.6534381509006173,0.5148770876509697,0.4392459174902338,7.055728403107977,6.603031370816133,5.021088529207656
700,-0.6736355724310459,0.4833807916606871,0.41419926603091906,-0.04159801604495489,11.223626103229734,9.478010040747677
710,-0.6209191841546235,0.5245467941352535,0.4697834037202183,-3.4622920031656275,16.642770501583968,14.060782649230017
720,-0.630465323754677,0.3613811870551447,0.37315748729172177,-29.63812922240494,27.074604455833335,-10.791773074915362
730,-0.8214816343813764,0.28763525288614633,0.42592057465637734,0.38504310192317526,-2.105513372562867,-15.914773513020734
740,-0.7848506519296817,0.06193198742808171,0.6909334206833065,-3.5254546546329557,-30.68984802132317,-36.748737537005
750,-0.7429318387594458,0.38621845524201665,0.5488191898886298,-8.247896003646911,-23.345009419605322,-33.098544812879894
760,-0.893431531042277,1.031980034614247,0.06857051034146974,1.0385860352602334,-9.887795482191958,-22.454480593284543
770,-0.7277690134775399,0.742190158057257,0.41674459661168406,-2.6795010424340484,-5.0540223526606605,-47.04011494096879
780,-0.4061832924901473,0.18025254337514315,0.708984700177278,-24.076286885142515,-18.612436901931545,-49.15429499108812
790,-0.5286459331165236,0.2017632288521922,0.4417394127930089,-16.150067135429218,-20.7852005162556,-46.281210258103876
800,-0.4253124623541582,0.02203054433526852,0.4375090810354082,-43.979436509372654,-11.961987651174077,-46.922104328126416
810,-0.5703672606716601,0.3189105784434794,0.40505731788782307,-16.120921181228425,-4.472145847740424,-25.270767950756717
820,-0.6354801752477153,0.5692425984733717,0.43387051359584833,4.8769208140428475,1.4224661116659447,-5.0897964802615245
830,-0.6527303055853956,0.535255462157374,0.4234529076438265,-1.2925847625223665,0.8862638247695602,-2.6803447736427812
840,-0.6610577413283719,0.49593284763259426,0.4125530962248015,-2.8657302698402756,0.5657629067361813,-4.245305729188759
850,-0.6481556888747578,0.4807143577307308,0.4356374729149671,-0.46215106244371507,-0.519527616869198,-3.6831490556936473
860,-0.6534906400682511,0.4857364295491899,0.42780449812390825,-0.9900977754942739,-0.7878701702332347,-2.6091400107292664
870,-0.6432638437631731,0.4881968075246307,0.44091251043216767,-3.6045041069434385,-2.7002088717008714,-2.0464753285861628
880,-0.6371760605556374,0.498306089438916,0.45000448809736265,-4.716075186077697,-1.2948604803750257,-1.0835463126250535
890,-0.6496773823806612,0.4711603621158939,0.4389611948417596,-3.9184189865981516,-1.3257431087432072,-1.7782001772184106
900,-0.6316349063231204,0.49118535735171015,0.45216121773595813,-4.425832117288964,-0.8558130456892815,-2.6245642450858675
910,-0.6162549928122897,0.5214566933627198,0.4600866887746206,-7.680367760668702,-3.063342784010522,-5.536908274104105
920,-0.6411284771962711,0.4972983516398262,0.4341136026140809,-5.37725903023223,-3.316225530352585,-5.027706880999823
930,-0.6411987060327157,0.493702680788647,0.4417752870528181,-2.9818426122411497,-1.415312514552654,-3.5086928418027905
940,-0.6422102234128558,0.4790275398965389,0.44160377154901526,-3.9428491684089235,-1.1468771323257552,-1.5496547811755077
950,-0.6744904241555868,0.4429042965153293,0.409074227936783,-0.4686186845056963,1.213870553639055,2.4794578312793067
960,-0.6373591054153871,0.47543382383450034,0.4506921275390405,-1.8681476615755945,-3.5743319557604387,-1.8194211455922067
970,-0.641940161367187,0.4788815292111479,0.4467384748663075,5.126857793004863,4.681965149343378,5.872101759126449
980,-0.6565744823508,0.4729767270294217,0.43094472601905054,2.5620643354318213,3.940170793507743,4.311148894012531
990,-0.6662377969816088,0.4638686133551356,0.4214001301324786,2.2369746111113233,3.759290023246672,3.2935897047774247
1000,-0.63080289368224,0.49695054283321394,0.45734031360144045,0.10021401511123529,0.9357649520190306,-0.3364804981634423
1010,-0.6519427780654463,0.47968804718054026,0.4347784728742603,-0.28119653396565725,-4.153405195879371,-5.226298966228038
1020,-0.6447668289003196,0.49240333305821304,0.4438336438766687,4.394825649949444,-1.8445565925502803,-2.3451588337629556
1030,-0.663233181178789,0.46533973429860737,0.42633589840934405,3.9434638674476123,-2.964932313150615,-3.872331937369695
1040,-0.6516418588755176,0.4693267511990556,0.43700054849411074,6.736937507309987,0.2078059044717906,-1.4708538699906786
1050,-0.637910681046336,0.48238140192423684,0.44938194098988915,6.697919123979062,2.1632648938532064,-0.45058862118340137
1060,-0.6138649572429439,0.5063404341850515,0.4715794211183501,1.95486088235241,0.17598071513051508,-2.7549369339454404
1070,-0.6442463564868671,0.4754531755518588,0.44008109766185183,0.35621455991368567,1.4717570673284288,-0.5701849366210414
1080,-0.655641285068153,0.46770397122032603,0.4332387613246738,-0.39979044795843377,0.9579238146089042,0.7808611739743873
1090,-0.6663045237824724,0.455940840474536,0.43839305936155143,9.164413464188907,-0.16186230241055966,1.2846963054201002
1100,-0.6311137472236622,0.4882834942512999,0.45490863061835496,-2.29142632249684,0.8479920290473308,-0.3122058276580343
1110,-0.6666139369298887,0.46052126448500397,0.4235474708393498,-2.4183734959768834,-1.1248254351166616,-1.6794655579732445
1120,-0.6549643353868969,0.47104197368144307,0.4358892613569546,-1.529911926949109,-1.2390344237220825,-0.804383274322956
1130,-0.647409569462641,0.4641854482969707,0.4391196475051917,-1.5344130030457848,-2.5253163405804746,-1.082034344599248
1140,-0.6527523668169902,0.45880756087183494,0.43068511293105144,1.9972163696031546,0.9603955051740755,2.5058786303614617
1150,-0.632120585950638,0.4958354930998674,0.4539056447851407,1.514959511162485,1.8446090486419617,2.5768411560660063
1160,-0.6349147504344321,0.4912392600315493,0.4570534752246346,-2.2617740681304266,-2.1678593624947675,-1.8277644241187634
1170,-0.6312792888661681,0.48806802789712,0.4624809042754927,2.487549885612973,3.2471796897037075,3.7275420551298666
1180,-0.654898267077205,0.46511406568229735,0.43687454846265006,3.4055918848812023,3.2865767055991926,5.9048796627432845
1190,-0.6360929274930931,0.48867709044791935,0.4514124460317911,-0.39365716558169717,0.4070389665767049,3.160437851404996
1200,-0.6397485229208257,0.48663878120699194,0.4486165094064235,-1.244300934403547,0.5855071346008252,3.3246021773775
1210,-0.6146028159081456,0.5144189277023361,0.4748346543973169,-1.0826023182447744,0.24063687761293567,1.4941220029526145
1220,-0.65891385806216,0.47044594076307583,0.4295966775461964,0.2578190687384646,0.13403521492988657,-0.07358297169659625
1230,-0.6261856676432973,0.5009623043442041,0.46097009745884604,0.33903342212402476,-0.6995758595246667,-0.552617958232049
1240,-0.6651084257301819,0.46586395052388196,0.4219646126113696,1.2632703149988807,0.021444170814315267,1.3050608545012616
1250,-0.6580239176376059,0.4720995072661888,0.4298568180982216,-0.37435552683962925,-3.0044388333572196,-1.0512649864255224
1260,-0.6639843612545181,0.4646141918643375,0.42655857425611604,4.927851870713433,4.80441151013792,6.255621148470466
1270,-0.6501510635964969,0.4824746963452249,0.4388936338955564,4.297888785941265,5.687460138158261,6.6617033460355
1280,-0.6699478277809989,0.46271786781126817,0.4174928077303791,-2.7096066837722974,-1.6331902825641473,-2.325208486184599
1290,-0.6393602848080403,0.48926850343145406,0.44716089804318626,2.6003391756813987,1.9691123038385376,0.46278936328077536
1300,-0.6624998084837186,0.46375102556307735,0.4247592904814478,2.7515102512654694,0.5172162828032667,-0.5118689288408842
1310,-0.6190216668570436,0.5097091797164586,0.46866082020241234,3.5922282536318626,1.0937457153891854,0.8238406598307122
1320,-0.6449440766320119,0.4859607431641622,0.4384582444938534,2.686516279893032,1.0461729712649441,1.5255163438856458
1330,-0.6505305694148827,0.4769839635966883,0.442739976693867,0.8050591777001053,0.5738667583141098,1.4757980706136502
1340,-0.6504210770779667,0.4800506000742156,0.43578062447766713,-1.4644367403233862,-0.9854374222934721,-0.689583708709437
1350,-0.6651937455286513,0.464962803123458,0.417188785463224,2.7434646028768963,2.0821334591399863,2.5755145202355556
1360,-0.6238157141479116,0.5036560028402597,0.460826020065361,0.237610602756831,-0.7562183890838743,-0.6437765319208242
1370,-0.6557982444649477,0.47216587614197486,0.4309941713056845,2.1451831485415704,1.1292058192547103,1.194489047262288
1380,-0.677078019525745,0.4527219767850707,0.41002542894711674,2.3069970810707425,1.5058956413409776,1.7321798976319118
1390,-0.6639252785101657,0.4642322065810183,0.42384679603219716,1.4942349864040727,1.5048298462875633,1.124032654817093
1400,-0.6507401590583907,0.47649290508852926,0.4357133571632193,0.8757597141357217,1.0633681313693062,-0.03380686806634736
1410,-0.6741807964109785,0.45198111586717576,0.4107802745617318,0.06938929973431607,1.4312283192872597,0.3340457064997484
1420,-0.6642800586808072,0.45774423422442,0.42453747997056257,0.7376356606993787,-1.1954845619375605,0.17206047178385853
1430,-0.659573140359106,0.47224701325306523,0.43095001749731926,1.528120380774663,-1.0757756773130485,0.5271110791239216
1440,-0.6583690190692895,0.4759005775648855,0.43275341346979557,-0.6737152450202324,-3.3226882249115937,-2.0972749584879145
1450,-0.6326536382470612,0.4952570410667203,0.45530387679788137,1.6885452072070937,0.45195656993368283,0.45843516845018806
1460,-0.6531446844791415,0.47086138706934455,0.4325935978565958,-1.1794855689557229,-0.20595875393546814,-1.2126594467989555
1470,-0.6623410304504725,0.46585480751682756,0.4275150520035331,0.06341463390743547,1.480343217506275,1.3607153291707208
1480,-0.6481855158086182,0.47877475948796416,0.43822802830866997,3.091398264434841,3.7015569738562615,3.998622412889566
1490,-0.6710113309920748,0.4612337835136938,0.4211601539162762,-1.6101442938458157,-0.0914455078958411,-1.1016113414993869
1500,-0.6711026886221771,0.4581741026183037,0.421592245448998,0.027845136686259542,0.17497698683281282,0.12229409657802359
1510,-0.6473126654202812,0.4854768232320414,0.43712292877782233,-3.8464032397958663,-2.699118086927029,-2.1274640584576403
1520,-0.6440834574760577,0.48562015062427905,0.4394846653306792,-0.7930441541957154,-0.867785276155888,0.031088643585684528
1530,-0.6602209438627294,0.4656994215237923,0.4283505161921776,1.8132265016765152,0.6567259274998488,1.3434360977714972
1540,-0.655825287210984,0.472851176754065,0.43392534208704486,1.336660618692074,0.9264965315694088,1.4047481898515741
1550,-0.6839938134028287,0.44907742915763205,0.40085203483999116,2.7232215708697822,2.117833229349028,2.999953550864286
1560,-0.64907057426042,0.48561190019702394,0.43629525471794256,0.6770075208199915,0.14914267167725948,-0.8534384022055456
1570,-0.6526824242830618,0.4766146563907812,0.43790917739302054,-0.22454944599359816,-3.245180486290444,-3.248966299782664
1580,-0.6508157949958034,0.4780616833413537,0.4410094919552529,-1.246337927931103,-2.6542503767340007,-2.5803358736663955
1590,-0.6721408335731922,0.4566784643518947,0.4146795442741568,-2.471294432919933,-3.170179724057736,-2.9254473936098115
1600,-0.6787098141552268,0.4521153639095515,0.41066488967720777,-1.7686693696463398,-1.8907139083545779,-1.9383904216385588
1610,-0.6402973889749852,0.49075284525281543,0.4515411419452899,-1.8013455851797633,-1.3450838281351585,-1.794309624443858
1620,-0.6575654203758659,0.4710953954086543,0.430158510074364,-2.8463193322221025,-2.112253695397266,-2.3635153261790327
1630,-0.6659356883600748,0.46434394763387693,0.42195542039229555,0.4977692246077954,1.6606459730653826,1.9170402375661475
1640,-0.6527940948248002,0.48021279612850326,0.43054207250570015,-0.39974540312736373,1.3674184875550752,0.3712841500862224
