time_ms,ax,ay,az,gx,gy,gz
0,-0.751750002509094,0.14410073434766052,0.23167465409208052,-3.0854405358355694,0.7613316439149356,-2.0100032831273595
10,-0.6960742080582157,0.19681717650544603,0.28473467645454636,-2.459113700974769,-2.1862346713776986,-2.4205427918575326
20,-0.7064311306030835,0.19123142661553208,0.2774881672799572,0.31941818420362966,-1.172470049457449,0.12314774017314578
30,-0.729740221900493,0.16680209524917652,0.24735300014881778,-0.04232266705188881,-2.6925066557906128,-1.315568029202589
40,-0.7031858892611441,0.19142738176225613,0.27410831006913544,0.9271369983448825,0.25618895760454524,-0.9169431881582587
50,-0.7217803792797505,0.17374240958999626,0.2594409281261191,-2.042257862183244,-0.6701314188355336,-1.745561477981365
60,-0.7309159215609371,0.1634758604975956,0.25523029115057977,-1.6067389753092542,-0.13669813155466437,-0.29252301206358444
70,-0.7165437049592953,0.18241127543066857,0.26805279347366595,-2.2272401103905146,-1.9791358049875332,-1.229978917844722
80,-0.7186194197090356,0.1833016491670278,0.267541550950771,0.7831552516296068,1.588608804703917,1.5548172622481167
90,-0.7448698386723881,0.145573642661239,0.2349222118879839,1.0743787907570783,1.595574495113185,1.1317288642504608
100,-0.7078967292959766,0.18229507121019967,0.26705244491558827,3.2695417662796005,3.5266447970724117,3.7416932258268236
110,-0.7531994740100737,0.15246506203445237,0.2314003782446942,-1.1789021380556677,-0.5709606121250319,-0.7673947811614423
120,-0.732373040433494,0.164525217318418,0.2512269947641873,-1.5714068527470393,0.43814207722163845,-0.9212286546316285
130,-0.7297765479178268,0.16746119026710896,0.25041133883762,-3.0450647729229443,-1.5055326645282705,-2.6365019337906257
140,-0.7120185919555594,0.16140653502306043,0.2810946804672818,-7.056773369567155,0.7067964049608129,-0.12094582505291551
150,-0.7739040904919252,0.07283500061947225,0.23391558263366904,-13.831410272182366,-0.19193887515318123,1.8315335929716539
160,-0.7914694067899741,0.14708828862032894,0.27940259387793265,7.752079084788063,-5.085251192216491,15.825417863403302
170,-0.7793136436179124,0.11874668239439062,0.33962643225204153,-0.22065718484610364,-15.256908605072104,18.579661244349897
180,-0.7233250155221083,0.11375272512285772,0.265919712495813,3.370732315432403,-19.797204023618004,14.8265493651463
190,-0.64048865162218,0.23217647617099443,0.23993038148903068,6.473336647452253,-15.962028546454944,16.092494151440896
200,-0.6054631450494949,0.28319670353015125,0.2604902360429235,-5.129305405877295,-4.050704654795218,19.595220567619865
210,-0.6119376099512988,0.3025903873230033,0.29908891126727094,-16.13992621961949,3.7862077066118736,15.30047302253133
220,-0.6909799984162457,0.27394228887805494,0.25512494207063824,-28.773646654466134,6.343053493543335,10.879839978994418
230,-0.6876712585326314,0.2828232694447138,0.24464110708107542,-32.96122047636326,8.793471321891602,7.006237524272734
240,-0.7191986516696353,0.2359384390578153,0.2521806094626357,-29.282280369570135,11.518097626613125,9.62070152647291
250,-0.7043650206139004,0.194538678146439,0.3044719398395809,-30.65163804109313,11.846039113117687,4.368688873852821
260,-0.750329111583832,0.09106798902846704,0.2606512761993136,-31.011345888950252,8.85683310677586,-5.289251449067034
270,-0.7158542396017817,0.09539287872762674,0.2855290426620363,-21.031978150831403,7.1029048452022385,-3.800344049485485
280,-0.7261868342711945,0.08413624829467511,0.2622124312353551,-10.06657097084619,5.6788515024050366,-4.327049059154125
290,-0.7009362250638789,0.1642866545087207,0.23743270587229262,-0.7679557926366589,6.825006555211431,0.8490223283689566
300,-0.6334961007263655,0.21589937499690318,0.2714517584106331,-1.0105924337815029,14.07049348524304,4.674496140619199
310,-0.7049315845792914,0.18543009084997025,0.28199277805118356,-6.214159678991046,3.224110020356714,-4.143027455815805
320,-0.6951251371456308,0.17565441822969294,0.2756272765990689,0.12910159593397658,-1.315875640881989,-1.2259131782339288
330,-0.7083723747900087,0.19361333542570597,0.29345461796700656,8.395059787451933,-2.9716921798363005,0.6430937097640285
340,-0.6928110094006071,0.16925336245710354,0.35400509498474797,5.777115295577989,-6.003575101464532,-0.08853249445252254
350,-0.7107214712523451,0.22194154457171436,0.253532517848405,-5.356248994036219,-5.277931828354124,-2.541278365264316
360,-0.6857994025586677,0.15154831173173974,0.31481600283978883,13.243988529523373,-7.147976398461437,2.138911988796017
370,-0.6825699480343631,0.17827559648658553,0.14972087543989504,32.69147130267825,-15.692055050668394,-4.570748910220758
380,-0.698450575932694,0.21423757844199626,0.2355491837340786,29.477946881146664,-9.772667446591768,-15.07262749576521
390,-0.6579544317022231,0.27114907141374617,0.3035951848357508,39.71056498291581,-10.099945121607744,-9.841016690819695
400,-0.752289470590575,0.3282314261410778,0.10509319697907332,26.511193087362027,-1.988562009673097,-4.263330133205741
410,-0.7315151660916855,0.24408249057833312,0.24126910510127086,-7.456109805790941,3.3030025911346246,-24.594389442313794
420,-0.7312649082401661,0.3446072957025942,0.34534441408366384,-18.894404053925467,24.116796681475126,0.2633131924326455
430,-0.6535946778320824,0.29118411604817895,0.12155888686445457,-5.044746150879574,37.63159399285166,27.167112402731842
440,-0.6679883809544783,0.12836144970723176,0.2237018427674112,-20.307426375183645,23.355612007752903,21.419240278590358
450,-0.7123161233614199,0.20210870402903172,0.15130256552252108,-30.606589267095497,37.29567244181427,29.829568468236126
460,-0.6795543180531229,0.14494068377264394,0.43040301664693664,-17.39413098480797,34.59239053220853,21.538020747132023
470,-0.7495164089557014,0.20832575465435496,0.13974885906609405,-7.661101399286653,18.471229417512163,4.149463236806593
480,-0.7070756798775408,0.11754560487486954,0.27036919709180274,47.87637625325482,6.512091842638733,26.06805603162901
490,-0.7375531337785676,0.013890383039164976,0.3122216787188972,53.50285316105385,-0.5102068124905332,30.067673472939088
500,-0.7271067633126018,-0.07363373908071219,0.330104318186732,59.337045483861196,-4.227742759495199,20.218166549608394
510,-0.743032222424808,-0.14825970006780803,0.31883386298648575,49.39770074453593,-13.488747966938515,-7.044303226065981
520,-0.6831116349937579,0.18373317894209146,0.28870712646235447,79.4560599948008,-19.648482163726044,-8.878393757690553
530,-0.7015941661258662,0.3228599603216774,0.2546925803727227,31.821607784161436,-2.3159820157723505,3.3098712194437567
540,-0.7434212565435345,0.22894176530500743,0.20953647888552446,-1.8052196947732202,0.09713681591789658,-5.1819364955628995
550,-0.6987113725919136,0.22548050966299846,0.25695138377706245,0.7305956060050525,-0.8925008376471175,-6.426330949913283
560,-0.7384711577738003,0.18439923038414088,0.23277197669881342,14.38114863283644,-0.04716119714400646,0.306330762096068
570,-0.7218753924084316,0.20760888748915934,0.2363260983104489,12.630896628935567,3.1700647435247484,3.656213403341687
580,-0.7023357089144927,0.22896206143144363,0.25761989656710055,9.196018325172924,1.4354476266690428,3.3024083301050506
590,-0.7377287537910246,0.179324225007256,0.22758063463089695,1.7524075364416414,-2.1516387225281357,0.3367811329816472
600,-0.7186319173769367,0.20634044082432368,0.23937454981951248,6.164753059868255,-0.48015257147021184,2.1874974542092356
610,-0.736631386591394,0.20752449861741842,0.22306609541787323,2.438240888090208,0.3466761234323801,-0.6207713374408399
620,-0.7063284502124602,0.22772636974988697,0.2530001485159304,-0.6707069810947566,-0.5034561668626936,-3.445097189306871
630,-0.734746661373932,0.19991073554875383,0.21945035215784855,-7.314661499391492,-4.368897977578651,-8.570316402702666
640,-0.7119119962147047,0.21096753710125182,0.2439688607786912,-4.590331321853519,-2.288375775922871,-4.267733136408611
650,-0.7319382908167607,0.19783282680944989,0.22964105620033234,-1.6765959156571313,-0.03464512257528862,-1.1585832430943301
660,-0.7227596186743996,0.20470084037236322,0.2384530794816073,1.0184279671585146,1.2390784406354889,1.320038881412211
670,-0.7047944038420481,0.21814266404432794,0.24522111960616197,1.9859879844772599,2.2226747521857257,3.7420715222181915
680,-0.7244279989208585,0.19632276653115854,0.23657308820733017,-1.8009255378264788,-1.074411898313783,1.0731617710811043
690,-0.7107697559549793,0.2104564094677443,0.25082846706981815,-1.4688785018138615,-0.5407135270234074,1.1255304006119875
700,-0.712285755470466,0.22177473571545392,0.2522728287706098,-2.904472895354039,-0.9418511919790581,-3.6863374823607455
710,-0.730237034598985,0.2002494313193644,0.23200741093985594,-2.781697292046351,0.6497326060486885,-3.101366828016026
720,-0.7246944527572754,0.19514259262235162,0.23501553320981106,-3.085010693885413,1.255961978165279,-1.173184452389083
730,-0.6703107360232647,0.24829422959541747,0.29078185001232426,-7.751601125732754,0.624366316710909,0.10330796572223355
740,-0.703703383575067,0.20240002149724018,0.2593001282929643,-0.8727847096885246,2.0856210995061253,6.339204019030986
750,-0.7242043469660084,0.20275928576585792,0.24075236067456068,-3.002075243617192,0.18953896548308347,-1.6774964783974515
760,-0.6926640044007872,0.23360644820298854,0.2688213792850816,-2.0553497002035392,-0.524885351470597,-5.004168649505872
770,-0.7012672462518375,0.2221814016240012,0.25989247848837366,-3.2150911492457674,-1.0591473368050455,-5.090887630794378
780,-0.7254515345396007,0.1826399208856047,0.23068096814346561,-4.284134066483159,-1.9764970470889685,-3.6266628279721296
790,-0.7053565242234094,0.20969938643230474,0.2564604083243372,-1.3470017784323105,-1.2503973762009482,0.40768540564337097
800,-0.7171474990638425,0.20011820949023912,0.235763878769243,0.973419791853765,0.47409834677295243,2.815721170716458
810,-0.7174047855472504,0.20006227565934528,0.24229517795270025,-3.217166098294001,1.6497308413535994,-2.0028743756233043
820,-0.7132019218321822,0.19978674987518588,0.2510065098323647,-4.080701608971161,-0.09940744507787072,-2.7958223350788285
830,-0.7104537328608045,0.20945074165618482,0.25132534911297544,-0.6454327336238833,0.5791318738375653,1.0234802633005053
840,-0.7033007198154773,0.21705568038209222,0.25531559801622183,0.4437073345215265,0.5585467587355908,2.9670125936906073
850,-0.7326512383805073,0.18967808978773165,0.23071167894869005,0.920166814823542,1.4468323091534252,3.3850983404677897
860,-0.7310182338767122,0.19165825168519476,0.23301718602746363,-2.610165797745079,-1.0051480644793818,-2.3587690076349164
870,-0.7485056282407677,0.16783982215255408,0.21328136886203125,-2.490694324347829,0.004648096107106543,-2.265510830431335
880,-0.6972494994300349,0.27482608286246174,0.26774619178890574,1.1074365211223305,0.6364013929969854,-4.798590811773888
890,-0.723683498397449,0.1892844530265736,0.2365948866769035,-7.1159849482885456,-0.3023065727775007,-10.397588926573283
900,-0.7117456017983737,0.2012573036109292,0.24983991118883386,-3.87294048847816,-0.6207216857146342,-8.345266526609393
910,-0.700759014365539,0.2313079870440111,0.2592972509207861,0.1341402941792991,-0.03726405491060408,-3.5397955536925134
920,-0.7054594766727194,0.21491205806763014,0.251269731137383,3.562851478976226,3.3870326217304894,6.561626569063683
930,-0.7161504926447695,0.20771948910822052,0.24859971426598074,-3.325331325080677,-0.4373032812826083,0.04014384274871974
940,-0.7221091122257114,0.19968839812619288,0.24347896277105133,-3.5061298841873936,0.8896938394599767,-0.34542414454663806
950,-0.7370645937417626,0.18217935545343497,0.22713810105643528,-3.2187981218909254,0.508006190012483,-1.0200481673471145
960,-0.7625401581715944,0.1550468185464146,0.20438644881176282,-0.8207666671386065,0.12117564842111453,-0.44577737923367944
970,-0.7129175444696709,0.20522518383084548,0.25102065483697467,-2.233355434270236,-1.7557576401531307,-1.2834214550707022
980,-0.734022360742027,0.18162847350672592,0.2350066651988309,1.988385850062961,-0.2384750146103265,1.1412098350778805
990,-0.7346058668568906,0.18095456677185456,0.23346610386043265,2.350426115219107,-0.527603948568337,-0.13786460573600895
1000,-0.7121816776106502,0.21957054701310091,0.2603123326007374,1.0417835494404537,2.7720682000827677,0.051957313107736436
1010,-0.7422368872214019,0.18092689735900172,0.22708000593604308,-2.8547558070372485,-0.7795730455042952,-3.5623937171484106
1020,-0.7182194071463047,0.19704312372383329,0.24784904338408095,-0.04439042004010152,1.7198299587542472,0.5764711206872275
1030,-0.7202049460551231,0.19316030947518617,0.24544028841857574,2.9739451832137567,1.3178083550906463,4.141628759337119
1040,-0.7135407291109639,0.21035693740022562,0.25245524709337885,1.3736409970047558,0.4453541963084947,2.6305881580511445
1050,-0.7083852159668145,0.2193089214684767,0.25332912024975196,-0.9502116814800229,0.38716572434267493,-0.3530349540692227
1060,-0.7227324752028985,0.20303330527367458,0.24516274613230554,-6.250797814228379,-3.215620698033563,-5.440647106248862
1070,-0.7296184844355597,0.1849175707236279,0.23850115347814715,-5.221568682756426,-0.8073717085766481,-3.1168092750276988
1080,-0.7099050691031337,0.201473519316488,0.2543242893515465,-3.243765547742164,-2.153332874752733,-0.7545909751289654
1090,-0.7084201873068953,0.21034986021930713,0.2517938035568865,2.3746791363934516,-0.36416185758167985,2.4017438700740446
1100,-0.7347407186226518,0.1854762763413232,0.2300265196442437,-0.22524088924461605,-2.196678341196462,-1.8152890083682185
1110,-0.7172701358241913,0.19765113472453025,0.24472766132401863,1.2986190193422642,2.104251870092102,0.7365205369936147
1120,-0.7321104579823579,0.1833549132270535,0.2302447653516641,0.5599570018896929,1.468456722598282,-0.2218035478221625
1130,-0.7154123683991103,0.200326279663064,0.2507664682369255,-1.1423481399925017,0.685360298545054,-0.4610762894124607
1140,-0.7297553373698537,0.1888205691670472,0.23697591408445065,0.3549895259241156,2.067370097892809,1.5320761483583676
1150,-0.7259515420468698,0.18773926801509633,0.24151968952040004,-3.238031014481921,-2.033772428685325,-2.5007756342915277
1160,-0.7293672628252008,0.1872083907676961,0.2340826059314066,-0.33216739468749057,-1.2672282297941329,-1.1986263976180103
1170,-0.7049984462922576,0.21633153440735828,0.2561892565080935,-0.29086272021078186,-1.082362765901361,-1.588137631805902
1180,-0.7377619200445255,0.18183824714501626,0.22652318300357605,-0.5301074418539188,0.23615751697658757,-1.091948738093111
1190,-0.7160271769221498,0.20001493414643218,0.24666675173488445,-1.2863526181547993,0.8500212857265842,0.0634557297384225
1200,-0.7097582874975394,0.2055811236360582,0.2578101554593319,-0.6633172513778224,0.5866377374741925,0.36895478865300946
1210,-0.7160390123095788,0.2005819423254577,0.24897638443796627,-1.887425578579728,-1.2338978683667352,-1.7495532742229387
1220,-0.7249660506076357,0.19042082502415406,0.2373373566787034,-0.3450151973880543,0.6561372766667409,-1.2953395081539465
1230,-0.6856314601063289,0.2344340982145616,0.277547921382993,-0.848481317466919,-0.8051010298276593,-3.049050131719415
1240,-0.7157224744184946,0.1971350422078869,0.25058078676539614,-2.2256983989057106,-2.3505533692273137,-3.5777314880398707
1250,-0.7288111110008393,0.183694132826915,0.23657352639944057,-4.059606233413645,-3.5536854018860127,-3.3371500420987936
1260,-0.7083281435893349,0.2058666683668533,0.2546450758911171,1.474014805668285,1.9415386917651867,2.100528701130748
1270,-0.7281264351619177,0.19000293968208298,0.2391071224131812,-4.052808908305709,-1.2010547867612063,-2.6971870200436685
1280,-0.7119491408097104,0.20002790361607584,0.25785523624869544,0.8483050053489389,3.310708099317468,2.2734271865530546
1290,-0.7195876837003422,0.18648626711583677,0.23803248399629814,-1.0338075439826455,-1.3073515957229285,-0.19442671139771006
1300,-0.7674975611592988,0.14047405429339171,0.1934541838391099,3.9658531423982404,-0.28776098403240596,2.256704175021352
1310,-0.7430656491465155,0.17937131687255142,0.21943358753482367,0.9788102274540007,-1.9313243360946397,-2.470883157161478
1320,-0.7512653496721168,0.17013059783302628,0.21583382938026136,-2.034365839660577,-1.3444103236607572,-5.983170260973861
1330,-0.7579381717317122,0.1506428142323156,0.20374110680532526,-2.266806889271745,-1.2777944622547182,-5.36656516939717
1340,-0.7331020904641465,0.16857990628522176,0.23541923189523525,-0.19434018987279916,-0.46411419093055456,-1.3250165067741535
1350,-0.7317849597277059,0.17819166919791313,0.23378831557338964,-0.8484242489039548,-1.121712576742055,0.04117734853136912
1360,-0.7347445066614083,0.18415973029851124,0.231281083793678,-0.127852043553059,1.2125286897543526,0.7130240551293261
1370,-0.7296845432560504,0.18414983531932483,0.23354157695163075,-4.5839061715095575,-2.0757362327144926,-4.128474027447966
1380,-0.7105819735031386,0.19702044206976427,0.25651949835404086,0.2788497885863699,2.1178193816907322,0.09529949866692067
1390,-0.6988246491199998,0.2098558588021354,0.2722380782870548,0.7674267820395178,1.0957392120307845,0.5317692722879979
1400,-0.7638142392922938,0.14859770949780216,0.20756212304925442,0.6030068388693289,0.6817850658987111,1.0864974187376133
1410,-0.7213393658300342,0.191550864867198,0.24773843600922232,-0.4641768741514438,-0.3413390034752608,0.5800925570388454
1420,-0.7425895053732929,0.1730242337832422,0.22683623221076457,2.1733855662105444,2.844113487922941,3.279597710798135
1430,-0.7206155182024109,0.19267593878198083,0.24196246431368224,0.0588814029658703,-0.12941242715003076,0.05901447032367757
1440,-0.7072095907321394,0.21565031124467618,0.26814207661829975,-1.5265937078345326,-3.529214639054396,-3.5957608992466805
