time_ms,ax,ay,az,gx,gy,gz
0,-1.017523922526882,0.8234934866657737,0.799328089943287,2.172642663881504,2.742584155638888,2.264738434449696
10,-1.0493378541005838,0.7898309515937775,0.7628814515440283,1.2364804388240846,1.3507124825631949,1.1335523826983018
20,-1.0374360882591984,0.7952615853150946,0.7696511662789779,-3.5692375431627186,-2.4680269146216602,-2.5747500442747544
30,-1.038373314897648,0.7973157592687582,0.7680904970695744,-1.1425425945380905,-0.5373843828875259,-1.4041142966119498
40,-1.0436356361619512,0.7908652428439071,0.7685525145396205,-0.9383420724302304,-0.8919454621056855,-2.577431641490373
50,-1.055323707881059,0.7769003697439095,0.7586242396493509,-2.324006933154867,-1.798109755421376,-4.427274212841251
60,-1.0361177069453429,0.7984606589187171,0.7701904776703573,-1.9453643397591307,-0.1552687319488978,-0.46420551825117157
70,-1.0437728480652175,0.7970574545080027,0.767670382047018,-2.7769474688400684,-1.1865441685912588,-1.796548738178354
80,-1.0505656476907794,0.7867896563280738,0.7600204230605643,0.19649259210477743,1.8346337920420082,0.136454735714453
90,-1.0390554427433787,0.7957970488344142,0.7778124467144384,2.093956921026013,3.3313927127626544,0.7876990886810606
100,-1.059551757021949,0.7695707546054975,0.7507673793034559,-1.5254049034809296,-1.0481159891973673,-3.235720825684904
110,-1.0637524781325969,0.7772286403793879,0.7527656354622603,3.2565667654108625,3.8283459253283194,2.283527599307381
120,-1.080728957737066,0.750527198624785,0.7244479279375634,0.1623677540671069,0.33597659751274744,-1.6307698100244647
130,-1.0590219868493203,0.7763256644717497,0.7580692366674118,-3.0507274056345914,-2.6701866486731087,-5.695599440054438
140,-1.035630090418816,0.7971303984259046,0.7823978572667476,-2.5566983271443893,-2.083471852721719,-5.01729921411713
150,-1.036101695995927,0.7838902239436157,0.7831798919341957,2.433983497272893,3.017279126835073,1.8070256357523353
160,-1.067328267291188,0.7620582754382853,0.7735026400826056,-3.859044053159963,1.299810956077852,12.807048790838714
170,-1.0619736654753504,0.8189446176049083,0.8545582189362135,1.3022738922474701,-2.945904996695764,17.999642413413554
180,-1.0906676103762893,0.8063133119022201,0.8561237573649826,6.276381396984508,-19.486172062176877,18.20811912111303
190,-1.1485423356869575,0.8307066868014726,0.9258565446180993,11.084885798190612,-36.5828558741736,18.418556392162465
200,-1.1169375853015426,0.7823288391921678,0.8195380992201291,16.090153628227064,-42.77687873488796,20.286662547805424
210,-0.9655910157972738,0.7338541664466968,0.7126066373524766,1.9740823998821977,-23.48824049879,-0.3148363106550849
220,-0.9601360852123791,0.8180892211100385,0.750074245440177,4.540280154169959,-12.653799452955804,-3.892269663113117
230,-1.0012161804412973,0.8084762978194147,0.7710142447313217,1.5919790681000208,-6.706994583170726,-6.408994022079172
240,-0.9849034180265388,0.8161393733827,0.8435284978229729,1.4032222442100737,-5.17238408159295,-9.287724506118199
250,-1.0513543533956171,0.7298870162377309,0.7998301611414381,2.08138898773748,-5.840553715544411,-11.945495427438352
260,-1.037102425532869,0.8108893544370143,0.7641985791647566,-6.205562113775301,2.7636369318815026,-16.043271534181024
270,-1.003307230060849,0.7936419147496945,0.7977664834937033,-1.6139269155659375,8.22058806011669,-12.28424797049874
280,-0.9902532799165004,0.8228023491046093,0.7896368615697242,-3.7557714643956905,13.705200069077748,-11.240345659924285
290,-0.9600514858151092,0.8361563889592215,0.7588915790605925,-8.578532774448947,19.738179511379236,-13.621039488777654
300,-1.0462116418597927,0.8569597161432297,0.8357554728771389,-20.713797784508923,12.427588185991484,-23.079212227711405
310,-1.080415568558144,0.7723318322041126,0.8458044449229869,-13.041558050792135,1.53745275414462,-17.12142909881947
320,-1.047751471802401,0.7753754510663147,0.783673574093767,-9.860327095517551,-4.171998306859242,-13.654334136288005
330,-1.031990120880803,0.7424746693959434,0.9119235253424798,-9.420082363428298,-1.44013117252324,-7.512427541319125
340,-1.0422932373521716,0.7842179120342067,0.7578832617017058,-6.861506821020536,-3.2930440451312517,-10.537043648294578
350,-1.0381172137592836,0.7485345687999919,0.8264685564160387,-3.7584749077788526,0.3464820005061364,-8.825118151671932
360,-1.0667664842997306,0.8077841737584731,0.8585317276233638,1.1948426011741686,2.2230669222387625,11.46458647321111
370,-1.0127121218698303,0.6451238089030125,0.7960684548031725,1.8316220235084772,1.1583794142708337,13.939443453450936
380,-1.0118178900397976,0.6734973678774736,0.8994775600928615,15.839407817738252,6.829504713491038,20.646591454885268
390,-0.9989868733745336,0.7666817701300741,0.907690007173459,12.27494658410385,1.9877888470323286,15.46185881550926
400,-1.0208933271563232,0.7015143591729394,0.8768365294444354,9.755844465805305,0.4992739502942154,11.618677984994555
410,-1.0533010704944843,0.7723632956755372,0.717729624898923,16.925297783044364,-9.424394337077686,5.42284737365282
420,-1.0435650991607976,0.7274876607039131,0.8784278841732319,15.965382841664436,-20.132249078384632,-2.6151779289670003
430,-1.0532750061271434,0.5477278734644135,0.8342448136025425,-5.598693947382646,-18.07019726865692,-14.93478750834385
440,-1.0933189296935015,0.7051922996739121,0.730707717613316,8.925681209784278,-5.128920712431621,-2.8784596039716526
450,-1.056919049372571,0.776483006926412,0.8668642687149457,12.730321600945226,-4.478115655974076,-13.749459551596212
460,-1.0655857041979664,0.8709222561971199,0.7180074379406451,2.21105908242291,1.0207943161601976,-10.426848635274538
470,-1.0449974138937084,0.8353079781861009,0.804668394325975,-8.694070591964506,1.0138423794937412,-10.491142252484256
480,-0.9383143090473701,0.72962939716154,1.0268133516323306,-18.734198736634934,6.9208765759774185,-18.9997547910759
490,-1.0345657146209224,0.9155053919356867,0.8307002281775759,-3.931301631053354,8.844641455163917,-4.616741729293491
500,-1.0204604323285893,0.9615480375215874,0.7788393159521829,3.4052491934122067,9.875917369178577,8.103710919916649
510,-1.0146224556435006,0.8402020747222418,0.7114755973797721,0.8564922275186844,8.990666476833349,12.878918435138075
520,-1.0551754419711976,0.7608638174118202,0.7795561373758888,-9.534447788927574,13.865907416127008,11.308012210890258
530,-0.9883639826044158,0.5396870581147566,1.2146821888198045,-20.499169562883473,8.67087945701465,-2.463099607274425
540,-1.063151875626134,0.8488667107996132,0.6784353567798932,5.847715378999561,5.040631909651571,5.834712168738434
550,-0.9738601040920164,0.5797732704298427,0.8836934966887242,-9.25037510389515,14.384723700410287,9.959903760035884
560,-0.9835325105019924,0.7064124223835455,0.866409524992199,-1.7620399165438645,12.354270754092646,12.094340072863975
570,-1.0026115739469361,0.743792394256404,0.876101644594147,1.309354488429007,5.293203829301032,6.543926908758046
580,-1.0097447958295016,0.8350199796140119,0.8422072635923944,3.845235996389107,1.9615153554439178,5.5047428406277215
590,-1.0220801788259128,0.736896610432461,0.8100807402316718,3.1201561935550224,7.671037928610606,12.661285055412806
600,-1.0067060001027193,0.6405228356065219,0.9023965528375967,-8.680222704143448,2.244897460939859,-1.82370044263548
610,-1.0454362741370489,0.7539785791897893,0.7976006533310585,0.8210736640307721,-0.0006665996067918845,-2.269811202707353
620,-1.0399416330747793,0.7616865427131908,0.7921611595624595,1.1090745185981103,1.4722511691358697,0.8483517460031668
630,-1.0198644770226795,0.7771639477611453,0.8112730506960815,-0.2300240286482385,-0.14797969290634322,-0.24132388624684975
640,-1.0311406594543078,0.7631776012414572,0.7986536786388929,4.006578898083185,3.4966508796052,4.994611489943993
650,-1.0290733092338007,0.7677474978022724,0.8067016477883091,-1.090785768087048,-0.5896500410588126,0.7412786593839769
660,-1.0408140539520518,0.7555241927418667,0.7966245443212799,1.7502081113519006,1.6314183289345323,4.913174421524376
670,-1.0391930606725548,0.7469075356631606,0.7961466307247933,5.238661351360522,3.129839319422458,9.688387224599921
680,-1.0318864969253545,0.7540481178836573,0.8019568120922497,6.811185600812367,5.277219118813179,10.544952588921294
690,-1.0445452897378187,0.7253183218147555,0.7984750872449287,4.762485812746305,5.933317446637929,0.4339315029716173
700,-1.0186304609526022,0.7533383979040402,0.7798311673317693,-3.6394198078870783,3.1994387149063126,-3.003116593974192
710,-1.0470931895395839,0.6950374435686536,0.7172825694669703,-1.9875891463080464,4.999438803609682,-4.306295825799468
720,-0.9781424026450078,0.7825143062514017,0.7598717497345203,-2.3979715947743685,5.488661523680973,-14.218639103316049
730,-0.9947170289530468,0.8416029774580109,0.8324833545236796,-2.224295702923377,2.7687645893801327,-5.704814112163071
740,-1.0503036698474306,0.7402826229820462,0.7987992782962352,-3.4382602548638377,1.2833863117324489,-9.230642993629813
750,-1.0411024179565973,0.9018106200008582,0.8281969004952277,0.9756027015797437,-1.2170458398593804,-5.279417892924979
760,-1.0351572623180632,0.6704022476646684,0.7238038043278671,-4.8490494783527165,2.110041724557421,-10.474199194245507
770,-1.0507456429947961,0.7061070792590307,0.7697662470525986,-0.9505438956247214,3.5158426422894777,-4.762161615747967
780,-1.0355731865458913,0.7993017285213392,0.8053378759196089,3.6588842209877837,4.813301819290581,-1.0650571489078402
790,-1.0467817712879905,0.8205253195939821,0.7878802109077848,1.0990136379583053,0.358859115060868,2.3319885933358058
800,-1.036006782667327,0.7789033645118817,0.7903363925733417,3.085387844203867,1.393965815414977,2.8133029776505003
810,-1.040654522382991,0.7731193303025207,0.781378545629456,-2.150817515691145,-0.8060302085628072,-2.177760619522764
820,-1.0524806930178314,0.7549668865370279,0.7818390921398489,-1.3176558862791596,-0.834524889571945,0.005551912962180605
830,-1.0164972883866492,0.784446527166078,0.8083662922042217,-2.458860933521201,-1.9207924259564844,-1.4073149736156043
840,-1.03180260700096,0.7655650529108843,0.7932478370750241,-2.1134975065728345,-1.156980630377012,-0.9468962202845372
850,-1.0386882997614042,0.7634094652384695,0.7857128791238895,-0.9422079638177977,-0.3398539070941602,-0.6298574791316224
860,-1.0243389725705547,0.7787213493012847,0.8070112983045447,-1.3696389290797597,-1.300348171987721,-1.4198004882927107
870,-1.062639900756282,0.7303759591748529,0.7645215504499122,-0.17323224842273943,0.8313460861714667,0.8440565714818373
880,-1.0257467834072342,0.7666484411912283,0.7972802347926907,0.8372657517328433,1.023139469684549,2.1685236717064704
890,-1.0678053154492626,0.7335620821897912,0.7598907532187721,0.2639306210479748,0.5867565578660634,1.4692179057493464
900,-1.0444142882766536,0.7606861537711228,0.7838726848525926,1.9621834187808282,2.2439092094629185,2.882892764283876
910,-1.0373753688035945,0.7670635340177852,0.7883096609677785,0.9240041108908074,1.0329450104447084,2.0025921317829445
920,-1.0208133726708404,0.7792076065255505,0.8055168453575636,-0.20397306318913677,0.19679978293343048,-0.254633532453173
930,-1.0120283950747326,0.7898759469634901,0.8211892312222999,-0.41885225223142175,0.4894264469462839,-0.508501159574837
940,-1.0224540281565053,0.7737765501230272,0.8117902644168159,-0.7451770386400269,0.3255987782094964,0.046663732305456354
950,-1.0286183819604278,0.7623176686859348,0.803387374026971,0.9892659418493022,1.384995375550249,2.2309021552033057
960,-1.0375424814964493,0.7551754694038664,0.7832221179944844,0.5878006415683972,0.7952554721808336,2.065341994159845
970,-1.0403712528916578,0.7580848356748359,0.7835981214284754,-2.956299360263589,-2.5287137481200173,-3.92839777039797
980,-1.0519555776595206,0.7428303233610017,0.7740632703936549,-0.6082226863530852,-0.09572119543871105,-0.7744867922334885
990,-1.0386197794004404,0.7553527105507547,0.7934949453301431,0.21839449126951244,0.4228871882928919,0.8310435995974246
1000,-1.0415909146381177,0.758257690294853,0.7894475140363634,1.6618805522550635,1.664800380799075,2.5414822771433747
1010,-1.0530197523011915,0.7539214601045533,0.7790455956911447,0.7884532265466496,0.7958365555005066,1.4539292023721972
1020,-1.0084315779850166,0.7971568310690688,0.8231572249079218,-0.018379719541425477,1.4075395206821297,-1.1869664959277262
1030,-1.0467325502824332,0.7414960996469762,0.7820531293286002,0.5936750726628931,1.7118669573082037,-0.7162761432985423
1040,-1.0440014602460903,0.7472174527220454,0.7863212864991194,1.0315137355390191,1.7025556471438077,1.341197618788093
1050,-1.0363830679925459,0.7584597363022743,0.7919592426020607,1.06780332459163,1.6392822707323855,2.6390695825953205
1060,-1.0308909290839003,0.7664313482563627,0.7952484746111709,-0.3787331365300257,-0.3032166074429481,1.3171749579010945
1070,-1.0196112896934804,0.7715692971642555,0.8038368844458678,-1.8431081095627393,-0.9732202553918836,-4.09682795448775
1080,-1.032515287281972,0.738109485868261,0.7935301552692804,0.6834793336588978,3.3862439007826852,-1.3516740535050593
1090,-1.0213418257907696,0.790718974353134,0.830133342939067,-1.077535046966303,1.0929730131353836,-3.9001784589169475
1100,-1.021931762557147,0.79803352527865,0.8135554585052077,-2.766389470188223,1.9828218401053637,0.27698768014766784
1110,-1.0143163831225182,0.8021270553793399,0.8206012062427626,-2.824298895800194,0.758862459718209,-2.002948030623228
1120,-1.058752773185639,0.7370389058996575,0.7682551411663128,0.6419818184487436,1.378408586829414,0.8658018435396054
1130,-1.0149648480573907,0.7867015697355401,0.8106820634967377,1.8919577057117758,1.4113167168000134,1.3910806239272846
