time_ms,ax,ay,az,gx,gy,gz
0,-0.816159541474148,0.2937057023947189,0.4807268563247959,-0.5566381898641398,0.43920215989894196,0.16519234740710292
10,-0.7974641721232005,0.3033870326510581,0.5051188203967325,-1.0638722630078443,0.45073816887677604,0.6812202817760671
20,-0.8299240959012383,0.2758644260875632,0.4696953592819479,-2.867272145752857,-0.7727357945469477,-0.1451429990348112
30,-0.8158250052821103,0.2956618741410302,0.4815527585461255,-0.3374483854958552,0.7901224203389494,0.845924151221773
40,-0.8070543343973704,0.30415966260308375,0.4937834458690404,1.772872785095877,0.6342914477272824,-0.6246686918479665
50,-0.7949104956256269,0.3093385425456475,0.5081918368777089,3.2982275504560423,1.4079950680765325,-0.04847084772033927
60,-0.8031263705635366,0.30910348111423647,0.4959618963069198,2.650955561190827,1.8720623438492572,-0.1734982440059185
70,-0.809618268729231,0.29445701129665114,0.4821048239994812,-3.1130554652790927,-2.7707164581588755,-3.654830709617028
80,-0.7709519831956477,0.32678082773572154,0.5245505828479085,-0.2406116080134566,0.5447044611104939,0.2818621369388785
90,-0.7782814733064098,0.3348427672985854,0.513406064820029,-5.465717600491973,-3.8001205597587684,-3.824742156276109
100,-0.8319427198218706,0.273375758749089,0.46765268523890724,-6.07525717818563,-2.1187647466802324,-3.383154169987721
110,-0.8005815085342528,0.299319502346289,0.4993879813315433,-6.74764982374144,-0.7318158389184104,-2.4595595716280854
120,-0.8238276552990452,0.2763315054654011,0.479255006003668,-2.7083115732433107,3.252363299759989,2.1068519178507694
130,-0.8266474841612614,0.2692015411330537,0.4724469506633877,-4.353477733742928,-2.8640382471870587,-2.942487080763633
140,-0.828355058850441,0.2731317270444084,0.46951454005962157,-0.23438068855860755,0.414631507069481,-0.073920684676125
150,-0.8029586366741173,0.30588167779484693,0.5014414868028558,1.2875435614331967,2.0273555348946,0.5924647467518307
160,-0.8239208096448384,0.28072157970191125,0.4781741117452637,0.681906256372947,1.034865790808633,-0.08260224510918168
170,-0.8112685117896379,0.29075987965333344,0.49216349433626133,1.1044579163845165,-1.8758674501303763,-2.6688477505375516
180,-0.8183202011431012,0.28413809535042983,0.4840299493094837,6.075435318749523,0.046504838667640325,1.6097895515464955
190,-0.8793174879903471,0.21669001326206003,0.4972609551449941,0.34062590836067996,0.6153459110128463,17.24994988378984
200,-0.9109110341357807,0.1799359998794323,0.6626517061432182,4.556858193256498,-14.334819358787056,5.501822332577462
210,-0.9171640474683133,0.24515236583738712,0.6446266414282354,14.277444321014224,-27.800904563156166,-3.4484987807711724
220,-0.836844324613355,0.2359636472731466,0.6163342786507406,12.821600689087488,-40.3592982932131,-15.703422122538086
230,-0.7609057702273238,0.3270186768151264,0.5372208391350806,13.963745783402963,-40.94194976408169,-16.132500291504986
240,-0.5656515729718189,0.4538087552699431,0.2899958073968413,7.210021437562583,-10.372403583632071,-4.811084967933199
250,-0.4965333615864853,0.3738334740396027,0.34128198001921123,-3.557854479911912,13.313523510356811,0.1552144771228683
260,-0.601381819517436,0.2711205030628819,0.46774622077389244,-10.309062799637774,22.80222656868501,-3.262125178144906
270,-0.8556880180327079,0.2552487947007531,0.5915095512886402,-21.119980029785395,23.575160499238294,-3.2516144658874158
280,-1.044664890579556,0.2964344171413956,0.7619419320149112,-24.242636160559883,6.9233425832123325,-6.49762966906069
290,-0.9265482962847115,0.30079657086593886,0.5886978896007415,-8.528049815264868,-5.30838426748563,-0.2435697624334594
300,-0.7598815856602528,0.16263855585530768,0.6103065981927936,2.9353008322399283,-15.083032439366438,-6.217257212586257
310,-0.74177407901872,0.05576493102949988,0.7266991550256011,5.3752772118958365,-15.948304980144952,-8.696624457382155
320,-0.806956130875694,0.3204534606507714,0.5226154333823467,8.693790551613173,-8.099847145524558,-9.697588460244887
330,-0.7550171531063173,0.02222198611210227,0.5951002800355418,13.251418817444048,-20.38771620268729,-27.642333511792415
340,-0.7437077319482659,0.01531715824684627,0.5389566641464107,14.069963671261448,-18.395501609342446,-30.906039364213356
350,-0.7811698728001729,0.3757760944648378,0.530976191218608,8.074779434518138,2.144140097887468,-13.790300802894752
360,-0.8133467408963899,0.29340982033116697,0.501966119593393,3.482953101628606,7.493792633982734,-10.929288530885543
370,-0.7834981916240124,0.37206298891453643,0.4505341800350873,-4.973300440565527,16.454113042050416,-10.08692416646862
380,-1.0063027629340688,0.3247620073700989,0.13419406848401597,20.43527561632602,6.552106137066929,-11.094223349175229
390,-0.769330075307188,0.31409260380218895,0.5331017327386796,-13.58434551250367,17.095738168333607,9.917007479433131
400,-0.804960785356659,0.19331765899911654,0.46409630387138257,-9.38724020384392,21.127162921099195,23.104301108868885
410,-0.712925849398929,0.030149799596488357,0.7279574903865296,-13.802142706946197,17.404418869746216,17.017778383159484
420,-0.794536813163494,-0.049500061454558604,0.6977227676123869,-13.80175734908914,8.285390920074608,0.8587737233226918
430,-0.7696890353202963,0.2960342624427544,0.5114731140795378,-0.07210572483036781,8.18714320621356,1.5061831632429417
440,-0.8010312024660781,0.20650398595432753,0.5297756203517482,1.45341274857517,2.7313475842726214,0.3516279843661363
450,-0.8223141191246128,0.11382743808516953,0.5611083301933478,28.882341671340622,7.953499966130807,16.72623157923983
460,-0.9418111868141382,-0.15451213815526954,0.5966797580713425,26.127226123002647,-3.150620118965316,-5.422877176566557
470,-0.9821923630457962,0.04164245944573636,0.4236215692498325,29.685945485370553,-21.09817817922108,-38.173788460669215
480,-0.7530628989842526,0.12948127582051783,0.3860645356584351,14.218473732129748,-26.752513829731186,-43.42464108388368
490,-0.7414627900168538,0.2992559131221265,0.38125610231692636,6.984614312371172,-9.035327897920718,-17.725205494899125
500,-0.7883156195678096,0.3900084003254593,0.48854146164492795,4.561381706850219,1.3724998713050047,4.787066317648208
510,-0.8121498825000955,0.2873355747916654,0.5234717933794675,-0.7889921441406402,0.928606110963127,-4.879063269326846
520,-0.7751316756091576,0.3032977584814001,0.5481510287549282,-3.940800185786397,-1.5679881017653468,-9.792139751779638
530,-0.8135701280532096,0.2581394511905013,0.5081487613690463,-6.226666347726582,-2.410980138072869,-10.365554259834305
540,-0.8027246633741109,0.2510609947308866,0.5113110366208965,-3.50434272620337,-0.921153594009837,-6.890609561739861
550,-0.7950754545019301,0.2609181544974328,0.5218341350860652,3.438047885183337,1.1389514802316412,4.965305597623949
560,-0.8001969614736513,0.25939859570696905,0.5269188833969491,3.335081151885061,0.6624370472931582,5.758422390002062
570,-0.8090686340481528,0.25986444792418756,0.5064967151334053,6.317515816469185,0.7342163289538064,4.75587773893643
580,-0.8114720462524893,0.27616692632179735,0.502353699536913,4.873261684610955,2.2852818324853432,3.42505320068652
590,-0.813229940513637,0.27243716821664987,0.5021821235307298,-1.103099920115912,0.3407267659418159,-1.1685883242969919
600,-0.828494548730036,0.23883232631049445,0.4866687079880518,-1.4625871685996554,-1.4822102302243263,-1.0318378314441552
610,-0.8076721018785097,0.2570541151063223,0.5070914776941094,3.877838201131575,1.3079460398435965,4.627633080378016
620,-0.8089974357312624,0.26797883453184074,0.5177263571760315,4.019840887732451,1.942386281053654,3.842407124859094
630,-0.7852144614456,0.282031505979516,0.5345535475093031,0.3205155689700838,1.6013185002005352,1.6648675025506798
640,-0.8030571117140215,0.2767552673462565,0.5190307619451282,-0.6412224715601527,1.8432886178805867,0.9227148862529911
650,-0.7978879313046526,0.26794891787998365,0.5228573667496872,1.1962199408836236,0.7365763378914669,0.8953013818010531
660,-0.8206106908255557,0.23892269184437287,0.490990720145553,5.199509273136998,1.362575073796558,3.380837740852447
670,-0.7936351657455879,0.28866677190825174,0.5218015518320992,0.8517050015402632,1.5530543846193825,2.5664852378947667
680,-0.7976279611839396,0.27785902754252056,0.524484265504861,-0.22372870242781523,0.8039801927371049,0.27830839437291016
690,-0.7965973555555813,0.27404815025257095,0.517352344113749,0.5189263741328174,2.4293241554153058,0.49595690984909546
700,-0.8157878427953007,0.25187998054639477,0.5020238482694681,0.6537180557377413,0.6621703617758636,-1.0937319729451564
710,-0.8110042940316438,0.2573000040590194,0.5050518724298917,2.454482511689217,1.0662082843108014,-0.20277100308897356
720,-0.7880284655721681,0.2799493504033938,0.5279169957446381,-1.052403062290481,-1.9701952059756755,-2.4658140612024373
730,-0.8166649062964135,0.2547929386011573,0.4995924391888383,-1.6799122967115052,0.4034964643744666,0.629880312735036
740,-0.8160347031858101,0.25283626897582256,0.49787178418295064,-6.244888322534218,-1.925267694589871,-1.960943977107234
750,-0.8116392349566283,0.2529340311886385,0.5040322861045321,-2.1036147383421966,-0.9220764991030574,-1.3071988028414692
760,-0.8129370791141394,0.26630055229393507,0.502490067717979,6.219511373392524,1.9895479866611638,1.8842642168016002
770,-0.7793818004404199,0.29125035068678085,0.5387205495721786,-0.44437023783814167,-1.2408418745786294,-1.5855649950497852
780,-0.8166636298593434,0.2470332589067639,0.49602195458183784,1.973418417153555,2.0652760558512373,2.0730408658110284
790,-0.8228076342538811,0.2459041586889812,0.4915200735660237,-1.8741396790404496,-2.959540526636985,-2.029773448949173
800,-0.7989651284191881,0.27374329983364876,0.5239200759722246,0.6565261686187716,-0.39552810926178594,-0.10130763985861546
810,-0.7929538673637543,0.2793778686365513,0.5186896063943436,0.28701016796079104,-2.2471549978973937,-3.1897192840966477
820,-0.8027839112830716,0.2699271004230078,0.5107327542824219,1.5568999517838606,1.5325719159446227,-0.7775953484036124
830,-0.7917873901610456,0.2724264760983327,0.5235072460125719,1.0964043771539225,1.7254933572285198,0.3892739499169331
840,-0.8334043180115902,0.2406439482952179,0.48229423144481953,-1.5548761215370586,0.6291889022071752,-0.1717615204550134
850,-0.7705890915511009,0.29475809342599624,0.5433053683528828,-2.124504708984228,-0.42008766124564134,-1.154596064203434
860,-0.8147517647940389,0.24760447995178142,0.4913388334689978,3.34779552243249,0.9102640535516392,1.2193704464686803
870,-0.7672397773420421,0.3099973628566326,0.5458363546266716,1.7143448224544797,-1.0551402113074135,-1.1744357867625965
880,-0.7949378032236021,0.2789875365246354,0.5154367699335626,3.2098222807482935,2.30291119122835,1.5050567168425129
890,-0.8316361544547212,0.24566582821920427,0.48097989767658966,2.3891149006891546,2.1085916041655746,2.1348019562675633
900,-0.8050357852225607,0.2675896836382181,0.5053319847825845,3.834117412107263,3.4533639019763402,3.4190540056766734
910,-0.8030731886024244,0.26996590975870266,0.5053191617754614,2.1365219871954904,3.3475267298818547,3.4216007958062358
920,-0.830864264471706,0.2369891006511699,0.4782022328008656,-2.134206793038996,-0.4098755735834194,-0.39828061362001793
930,-0.8089464657596711,0.25634722202054283,0.5003786826225024,-0.24159573006966995,0.42337810362557593,0.0787724216085044
940,-0.8082348054915356,0.2617852024946324,0.505210865972045,-0.27197958300160696,-1.3245941282141351,-1.4072588914675677
950,-0.8182761383144302,0.2601441327442084,0.49667230201820745,-0.13009571087815322,-0.6038815754861887,-1.90390158083089
960,-0.7947454758347217,0.27897414325477315,0.5243301985033915,-3.5227818077994506,-2.041214546672587,-2.9401114051395623
970,-0.7871784352669488,0.28007106368885515,0.5271087269488262,3.3661020412150764,3.679415832161341,3.856195369034426
980,-0.7994309155270389,0.2662072318294973,0.5140160759164141,1.706585447724337,-0.32209234338634585,0.3915389327233018
990,-0.7565395429381742,0.3098551293446974,0.560559760191306,2.7664885294540067,-2.1363652583649593,-1.5124526011584865
1000,-0.7911272819524339,0.28092615885393113,0.5178185722467076,2.6688442520366777,-0.9164175686533267,-0.1043248290237368
1010,-0.8196969983273659,0.25973684740463704,0.4905734633460045,-2.647976751611488,-2.1885885476002245,-2.8310888782894783
1020,-0.8037216371096667,0.2618938640085611,0.5061723112074521,-2.5258554101890796,-1.8352963456010534,-2.2028357754804673
1030,-0.7949480912278132,0.2731432741068975,0.516973000775561,3.240042334207338,1.0062603342577965,2.1305831002944844
1040,-0.8284534460458538,0.2504658207212357,0.487523342405061,2.0962238950456547,-0.31504612156276574,0.9312223446131347
1050,-0.8160284501979027,0.2584204547581931,0.49467770360658553,-0.10171410407969395,-0.1112948400458742,-0.17565623406838687
1060,-0.7866534012878411,0.28938014142626217,0.5272461519463886,-1.5078910120668108,0.49004890732168094,-0.7626318218527043
1070,-0.8162059442428341,0.2508062806470658,0.494353286691923,-3.90135119069193,-3.0449420533869724,-2.941648841713902
1080,-0.7933428933071032,0.2763785246100839,0.5213456782644498,-0.13799630080479508,-1.8743724845337764,-0.8585625200250038
1090,-0.8185301545313437,0.2576829465256415,0.4953803029046316,5.045457638604495,2.3184211906576353,3.5438255394588554
1100,-0.8134618256498636,0.26155790108506316,0.5001186200935254,1.3036723693262031,0.5945364049434707,0.5501527158824207
1110,-0.8168081135164438,0.26004804064911136,0.4926080030755075,1.171281451872091,2.7587306760692667,1.5998638248055734
1120,-0.7740619221366862,0.29506628512451505,0.5347602232953798,0.9386424958353925,-1.9749234236560302,-1.2080392592338025
