time_ms,ax,ay,az,gx,gy,gz
0,-0.8359513413115958,0.8310812097677683,0.5479922401189193,2.384295269708592,0.2392339428163605,1.2040012294630495
10,-0.8637719030713783,0.7954565230724887,0.5123579686329022,-0.20621719749037815,-1.9779986203643773,-1.0221778156951427
20,-0.8677623286906512,0.8016442658702159,0.5118886803274163,-1.5108350450390626,-0.7721761470870381,-1.5309027549256133
30,-0.8249066807988303,0.8371034961659224,0.5507157540595362,-0.810039403971946,-1.679349199447039,-0.5278180443808824
40,-0.8350836682523947,0.8269930202291603,0.5402364017831807,2.0582628966840555,0.08699276564258462,1.8656254311668352
50,-0.8627862089428526,0.8108763246552785,0.5126350121931766,-1.8858776757848952,-2.2687751106511898,-1.6649316929744673
60,-0.8481774233989221,0.8215380674665221,0.5241510951074505,0.5198194063497302,0.43442493224776096,0.4779440010863967
70,-0.8516839606306539,0.8157234904703643,0.5233065816742014,1.4420360007560462,1.3166088457572802,1.668256263039534
80,-0.8207423525860706,0.8404056641208808,0.5511292901450269,0.6781361165024058,0.5170949917324127,1.3301831177800998
90,-0.8564193698112363,0.8095681822188068,0.51707352827424,-0.632218571800016,-0.888339401308307,-0.5157287365426367
100,-0.841432281003142,0.8282618194673198,0.5328868762038607,0.6492752391515628,0.6563487446148317,0.021978154953655953
110,-0.8404968066368707,0.8273621065564172,0.5363589092584256,-1.177947574614133,-0.4735276569591071,-1.5001197487178901
120,-0.8585493772929527,0.8079643920081431,0.5196224927229176,-1.4842284110418102,-0.3891236688695424,-1.097741887065706
130,-0.8415209440664767,0.8226094179795397,0.530668549033368,0.4719540233252537,1.3020263365087212,0.7215827227060001
140,-0.8566347110671713,0.8098757454286513,0.5179013893140977,-2.610451006080096,-1.960031783285065,-2.7862151393528825
150,-0.8458054388747324,0.8219203340857588,0.5341812961034627,-3.101383834461798,-2.287130688446023,-3.0364860839304
160,-0.8377003360421246,0.8274757473859568,0.5403838704041897,-0.7435990335277556,0.14755828722921643,-0.357418744125709
170,-0.8428742270305913,0.8252088651193269,0.5330796645251379,-3.4650043228124137,-2.2189062429103843,-2.9984309400676343
180,-0.8534843850618172,0.8160563141382141,0.5231746532960178,-1.886364415800357,-0.6950492464915727,-2.1242190584376432
190,-0.8445175920334398,0.8260656924781888,0.5320031801039486,-2.6554024786106547,-0.0014492839902268788,-3.6148431734511672
200,-0.8522810413262653,0.8112826114618076,0.5246030573743232,0.041922251949179534,2.2521031754037946,-1.23108134933634
210,-0.8043442862628055,0.8441420341663909,0.545184904759173,-2.6118238963748865,2.835228675521029,-1.7416607118426268
220,-0.8531958476921326,0.8185944246134088,0.5185327108644436,-8.159946337905762,1.9896861700673063,1.0565037941546496
230,-0.8756578480077836,0.7923519696357834,0.5073813831669225,-18.234010453394134,-1.879384721173369,-5.698286529035289
240,-0.8662535276662572,0.8161716344479978,0.5275982559238892,-21.16777916629937,-5.320298372301618,-11.950871127242806
250,-0.8476962300717584,0.8518367251853327,0.5542257620686075,-27.810921680493838,-2.406305361553186,-19.56609178141534
260,-0.8749083028568736,0.8599399032861612,0.5518595724219777,-42.4126029680694,3.562267957350464,-34.86056280857651
270,-1.1811810456576692,1.0948589243116897,0.9674588126444601,-55.27910076559477,-3.6213772327543823,-41.731304816596406
280,-0.8630868955860107,0.8892141017734994,0.7397994727531193,-61.67973547211531,-67.42848698793797,11.711574516434682
290,-0.6409969132841342,0.878026011998642,0.7937268819121411,-87.74869356823672,-92.35126566804871,15.570018826248752
300,-0.5162515431331054,0.8635319850308716,0.8110120766041662,-94.56479237863678,-86.52452983150769,13.844539858241376
310,-0.4300255489616687,0.655717983271059,0.5830650777966334,-37.91555874254792,-84.57205255878831,35.137077038111585
320,-0.38771511861360813,0.6843778507600624,0.5437773079643803,-22.066847056707946,-73.0038864083668,36.808723754481754
330,-0.41950922329601675,0.7341033810356346,0.38924553283134417,-63.234827069655594,-56.09463134265297,18.584280841527722
340,-0.5621732710199906,0.5892215233220472,0.35136120766567636,-67.71020902847249,-5.784911176039128,4.433083930648394
350,-0.9008050135533655,0.3102670953746558,0.5709156309688047,-80.33499159504063,37.32144844932665,-34.57229691600983
360,-0.928873315614208,0.3057979804628416,0.6081514905377289,-56.998913037938564,39.261624869896615,-41.55594996788393
370,-0.8171276710490103,0.49036697203511115,0.5250604091634011,-29.796966592810328,43.38806076827305,-36.78535879047469
380,-0.6884080676783354,0.5633412363168173,0.4297154742443383,-19.023858131629424,48.068633235643475,-27.887547401449552
390,-0.6379141967223091,0.4718192109122602,0.49900890044036417,-4.501339381230476,63.17785082917947,-14.119728016823338
400,-0.8294698952176455,0.4959214720507939,0.5898911894022437,-3.2233279910202834,58.551159056817795,-22.732366894681476
410,-0.7380483584757849,0.27854315970269294,0.7702986622768452,-3.922376006634016,-12.416628883208784,-64.46911151849864
420,-1.0067509192306685,0.6551265719213738,0.5118336763264396,37.83536206182336,-20.137963280944486,-32.2607922334181
430,-1.072851936215433,0.6502215147236889,0.2987270356034345,95.82715176939158,-14.151424420367274,0.035894804161898275
440,-1.0738157299546365,0.7191529973719445,0.5756869911316924,122.81286127222707,0.8262299190629299,-10.746844580343593
450,-0.8971145625502878,0.15243078401362953,0.6919381997636594,88.58637110934133,2.5549499922635928,-42.32935536247013
460,-0.6566502792870651,-0.055476016300939485,0.2684204684717492,80.16145383060233,12.640896823261276,-57.83887125275779
470,-0.43995689938898636,1.1618431696819829,0.7793307376973536,100.78226065015329,36.99895771333345,-18.05635886257715
480,-0.7137453145336754,1.6076020179486672,1.1572823221199728,117.06194007086071,34.63959308117783,29.655133046436884
490,-0.7971573374398362,1.7421889549493523,0.6233806245540775,112.66908111050833,33.95897219108676,54.582368218397704
500,-0.6420672151781022,2.0116244017617695,0.3906079752878332,66.86964935922755,36.407256171794,52.124054708018555
510,-0.5052494826537515,2.147594790445794,0.4953795479275552,20.38474270891939,46.102844280953434,56.217613285713796
520,-0.6086200853518422,1.9203986240078226,0.2180382666124052,-16.063713436578873,61.313480834733134,78.79896398862033
530,-0.4933669877757739,1.2700370256119187,-0.05851246119248937,-50.36756626877047,55.80476320476477,74.24920398321055
540,-0.3417960184947523,0.6833627023550174,-0.04811333815055788,-78.44474901373931,35.04986749226546,36.54456885255766
550,-0.552118831970233,0.7067843762696412,0.15257560784405116,-87.79740569596521,22.839593775983147,14.746578570630893
560,-0.7657422084586611,0.7189909557354992,0.03648292965763493,-77.38583345174193,10.47810233203675,9.487971129147216
570,-0.6968480661985893,0.42631310221989344,-0.15233020150606233,-46.170012996765806,14.931133291418307,9.430273602528443
580,-0.9447380708350935,-0.008828068870865442,0.5489543256360042,-27.948542829691046,-5.731175860809053,-10.52799073190913
590,-0.9161695015436334,0.7307099836080506,0.6185927450106085,32.306954209933984,-1.4165209350765422,19.707880051081958
600,-1.0810582780512497,1.539013702319706,1.1516595452637153,107.98147138342684,-16.986214235094813,-37.62784734058356
610,-0.6685680376424049,1.6637552621678957,1.1891148982281203,71.23794319102247,-9.485255048861289,-54.64844147250043
620,-1.0559904124841608,0.7438396981380848,1.3432991739519737,81.52445313207137,-20.303435885515487,-86.32661105387683
630,0.10631756347250597,2.564795713990252,-1.7262572872419943,190.09563811986308,6.624122883386384,-10.15960252975226
640,-1.099024887968501,1.947170976623395,-0.3443909192633654,139.0494650618951,2.8289697166341607,-22.850493353169412
650,-0.5985366172234149,0.7488142059206844,0.31208339391176787,58.93578633089088,-4.3090999477003145,-70.64725702635609
660,-0.770124296408048,1.0562623986567257,0.5264304160145796,11.044469931390651,-0.713539027772157,-18.700671342395506
670,-0.881511417479782,0.8577226636849085,0.5557856053771435,-0.4790674266089012,0.11732483500830149,-30.94917931743394
680,-0.8591597984391017,0.7518474402033684,0.5304123872153991,2.0247565457443466,-3.2157334242670648,-30.478355062087367
690,-0.8724415009920569,0.7123998806425964,0.516284570498592,6.829159081684905,-1.791189289410883,-11.684368270612367
700,-0.8593261116965423,0.7257860218945509,0.5256044881541935,13.23125798771005,-0.37869802811623776,11.517159124560177
710,-0.8594831902689529,0.7692364464462016,0.5280989952147688,10.27456499551516,-2.552535982471906,19.448387016506757
720,-0.839193874982578,0.8134103301779386,0.5507628480456286,1.4216703565697741,-1.696349283637341,2.198712016799636
730,-0.8558154124632957,0.7772586042969957,0.5277945535093298,-1.0121021424207521,-0.17963085143674087,-8.667995563913884
740,-0.8577034945490253,0.7612106594433935,0.5227292188186798,3.7975367179696864,1.5134107594179678,-0.8250127034449477
750,-0.8503378421778109,0.7854605978620711,0.5326211543166729,1.4454087832197864,-2.59313667084633,2.8565588041667596
760,-0.8616836301897872,0.7922434802411756,0.524874738425135,4.669365109001443,0.9860013729798174,10.383339986170041
770,-0.8481172921798494,0.8115665660202382,0.5369941473537642,2.3419648325242908,1.728069869336678,8.540776115055138
780,-0.8586976351165407,0.799222353888339,0.5290938185201277,2.0264610951446134,2.92160684385936,5.439924858497363
790,-0.8465159173853172,0.7733362122808978,0.5599368445910333,7.260536965369071,3.0661012405876056,5.137672699907904
800,-0.8879995060260949,0.7663995400896789,0.5022271298565542,3.5476018744525204,1.850188548048296,3.9758455673126436
810,-0.8587446777397916,0.7966044063028906,0.527804092830207,4.138506941664211,1.1697217200086294,4.1131945158337775
820,-0.8589095345109533,0.7892289813976877,0.5227956127504714,9.146897950917833,4.453331951512611,7.0026615993710895
830,-0.8403659943192834,0.8360040527184355,0.5477919685232928,1.0268744206312481,3.0323563713149433,-0.5571365150399117
840,-0.8772846630623767,0.7771602796415684,0.4841826523604463,-5.285789144979219,0.14072713531996328,-6.938964067019787
850,-0.8590462953987534,0.7674098765725894,0.5153497675798835,-6.334682460808284,-1.3006782739158078,-0.5973698211861167
860,-0.8681087479452965,0.776836211474733,0.5153010304131842,-7.769921280670147,-2.4637155523752994,-1.7394422900818132
870,-0.8610510352414958,0.7783315562906955,0.5185625831979179,-3.0438821757606194,0.7899563739878174,2.6699379979633706
880,-0.8905465422607146,0.7589517550524845,0.48878076824181255,-4.600874723157913,0.27401039417328954,0.4721225055261165
890,-0.8547501460676321,0.7876680697983879,0.5294957730850106,-5.0074000424877045,1.5564691897824665,-1.3807757352398986
900,-0.8697641821765717,0.7749731797166082,0.5105574152575404,-8.217845635955713,1.2315610121419605,-4.16352646984032
910,-0.8593375373355618,0.7764536074550007,0.5195199373944769,-6.520637650200215,-2.134542514812789,-2.496520883505005
920,-0.8266537204896829,0.8054619337867401,0.554257849044948,-0.739358277664786,-1.313096937289374,2.5516554428248437
930,-0.863377910312737,0.7767750575868813,0.5249134157771939,0.26725353044072375,-2.2315966403717558,1.802721997763634
940,-0.8649988589561985,0.781772491644655,0.5264924942185992,1.2883049411533376,-1.2003173550888993,0.9799364651049012
950,-0.8204674627289851,0.8253358538027081,0.5677321807451355,1.6662090033364778,0.42916319104035616,0.662052386544562
960,-0.8565254668026083,0.7808379629741516,0.5256042319675102,2.290682983467527,1.420351357094915,1.3663675794220953
970,-0.8347153132893266,0.8015336548069055,0.5401435968611209,2.488889451385229,0.16246981883599299,1.9364915219761525
980,-0.847147504978005,0.7990401559868431,0.5277804506701369,2.693858043806144,-0.5857476093077072,2.597382539349811
990,-0.8592496847231739,0.783606717438756,0.5199019021578506,5.181206026724102,2.856803620516535,5.084026924051136
1000,-0.8569707029635462,0.7826524550309553,0.5180266883541439,0.3490965135046171,-1.8326857069835085,0.21390705171863944
1010,-0.829408756479821,0.8089922495288451,0.5508700863237643,1.9379910530862063,-0.6406837867716757,1.5936651358145855
1020,-0.8274398422292054,0.811527259403756,0.55628592212777,2.6719556255907047,-0.8914569846101152,2.6294511599842036
1030,-0.837604308766367,0.8119424653212404,0.5446238967577454,4.501032903015733,0.8251038338284262,4.629600845215392
1040,-0.8627337834454332,0.7903938144568053,0.5124522183580329,0.8323420694690054,1.2889429525980498,1.9776300381135048
1050,-0.8347192150452163,0.8009335519489573,0.5396000149272271,-0.529500376970693,-0.2865851316682159,0.010944036838794025
1060,-0.884100538748523,0.759906290537757,0.4956673404268642,-0.8756921487326683,-2.601676350243428,0.050401040743501824
1070,-0.8552745138808171,0.7999650526611009,0.5258389554292923,1.254275258021719,-0.513537343844046,2.092476376503139
1080,-0.8611927669888143,0.7861886433358156,0.5201619802954224,-0.8560461341851304,-1.0415112922982668,0.6940666309811105
1090,-0.830384846427669,0.8215537561317473,0.554649822470129,-2.261607904388037,-3.341983443015859,-1.3928556542229125
1100,-0.8375400760259722,0.8064418199165712,0.5482267856426554,0.1185802441247189,-1.5744043468844633,0.3156205708211469
1110,-0.853345364325547,0.792901834905185,0.5270718616376895,-0.31195937352596315,-2.220255784454488,0.08740126107101576
1120,-0.8319873812109095,0.8117703333734109,0.5478881791803404,-0.4049333060907814,-2.7898031431846864,0.6358887318440054
1130,-0.8501887848459497,0.7989931217602027,0.5311490858544357,-1.2947686566609296,-4.045019170298245,-0.15045998867044608
1140,-0.8139136129419383,0.8403399656786172,0.5684944247209727,-1.352143133395701,-3.6055849659467842,-0.42055944926267985
1150,-0.8431260290951673,0.8072195534548303,0.535886880603431,0.16143651496022549,-1.3164864170238402,1.1230784631051045
1160,-0.8276626515653119,0.8250396057822732,0.5480655351747747,0.4466301103673853,-0.4041033530822785,1.6373076096021881
1170,-0.8465682468922096,0.8131238440380567,0.5312991997739464,-0.8312852255972552,-0.7027996909903523,-0.13770501804997226
1180,-0.827447455709858,0.8285002186514973,0.5509625200324951,-0.3113810769765337,1.448643806173851,-1.0536344581737618
1190,-0.8769590513783453,0.7726357363921688,0.4982094252838549,-3.063310639194147,-0.31237901284186426,-4.878085098071115
1200,-0.848927061136709,0.8018945399766482,0.5265960910759817,-2.5869294054926457,-0.6743759784449703,-4.41702448286414
1210,-0.8548754745370533,0.7951855594070097,0.5218632854469075,-3.6753798187673326,-2.4899955103554556,-4.635249874753209
1220,-0.8402842851392511,0.8021338376152055,0.5370984638912235,-0.9099671273287184,-0.6526499917794162,-0.4996495938097114
1230,-0.8561073511087548,0.7880950860335155,0.525336280009901,2.225651450587588,0.8269199361962892,2.450683209459064
1240,-0.857557246159967,0.7856439432333262,0.5241430085234289,0.5276350567845074,-1.5872343302599714,-1.1339309551286452
1250,-0.8351599212794417,0.8086352073038661,0.5421386011252198,2.1850895893447975,0.9552820574823553,0.4951900399964877
1260,-0.8471096113255442,0.8170342481177276,0.5423412763894152,5.994037255846379,2.340927392842735,2.0245781976828536
1270,-0.8315646549193206,0.7967835242346671,0.5318120447262554,2.9903662571261513,0.34877467521577177,-0.34668641271858397
1280,-0.8561340786930901,0.7969386201939918,0.5290208371614049,1.0426030902511703,-1.094729530947871,0.03987418105782137
1290,-0.8753643838447942,0.7875584334469234,0.5143302929134467,-0.0016447778760690923,-0.7041881733610129,0.034613487767208184
1300,-0.8333620084478423,0.8247436078095886,0.5481841065233103,0.7707188700655998,0.17495210636656333,-0.5776447787898892
1310,-0.8651461855056246,0.7851351908847198,0.5064947469771224,-0.5365524879759042,-0.2538660416361914,-1.6112755692801557
1320,-0.8382078529642133,0.8125404108750965,0.5397250270308369,-2.6421217832943036,-3.7557133024007343,-3.8839852104698718
1330,-0.8732358420718125,0.7797577318283535,0.5106863807913026,0.6905336144978802,-1.220222225588379,-0.4461196357340096
1340,-0.8871488243620937,0.7667560000320041,0.4933759242975486,-0.740661647940634,-2.5531086974008295,-1.4057803297797231
1350,-0.8219349078260757,0.8351959970467409,0.563022665227943,1.4657557561317438,1.466421249547281,-0.04831280594379339
1360,-0.8400474058960787,0.8148903592080762,0.5434438066173612,0.6269616554859427,2.3147210425644733,-1.6492206496058692
1370,-0.8495465134104605,0.7980640031154195,0.5302846113741176,-0.26601381659744283,0.8606414963581148,-2.206360178737772
1380,-0.86161564376846,0.7821203869075409,0.5213656583256382,-0.6907738947197537,-0.7546883003808125,-1.4576000320090365
1390,-0.843354705823093,0.8019062806915674,0.5392428808212583,1.6941202580571786,1.0810965804447545,2.339896021297414
1400,-0.815321509176599,0.8355482140318972,0.5649412496404177,3.7433824921996646,2.6121822117953872,4.709423973109238
1410,-0.8578460031328455,0.7953909367023805,0.521730412574047,-0.032527706498321485,-0.3703500175770353,-0.24891515589470198
1420,-0.876161831714892,0.7673479462226184,0.5063137646262394,-0.9216290904981362,0.55521887724342,-3.095525983775255
1430,-0.8653188852211992,0.7696219916822277,0.5138559958719054,-0.2816471426255672,0.3867009486605943,-1.356795400392623
1440,-0.8589101013721018,0.784750396065253,0.5237601451647569,1.8795042321580668,1.1924158490440941,2.821676825304526
1450,-0.8594147719277541,0.7942967567556901,0.5229385148452317,2.2981277527122788,1.1130721361036555,4.0648287006617
1460,-0.8756531678928091,0.7852206071862268,0.5113453543484684,0.890198224301313,0.1727986501328886,2.316176460263939
1470,-0.8478577148891576,0.8021263941524305,0.5269884420418222,0.955172581547804,0.6855931479819672,1.272845718531977
1480,-0.860034274810211,0.7855573303763921,0.5246197090716281,-3.678110479388839,-3.032716708033413,-4.849622264358027
1490,-0.8311262815160873,0.8092482947932153,0.546878397093272,-1.9831554166851788,-1.8155982263148638,-1.1295298009162937
1500,-0.8462167529073301,0.799005757677657,0.5401061985013333,0.17455928026094777,-0.2717150610318613,2.04455116923072
1510,-0.823349724085262,0.8295601553174552,0.56151287939211,3.0099611200959164,1.674155339806759,4.332703689107214
1520,-0.8525073993242379,0.8029323900641222,0.527644403937155,-3.720899844267277,-4.393635228239842,-4.0012760868181285
1530,-0.8400421866219095,0.8116985028376206,0.5387805318483718,-1.134885442355182,-0.6134066343939895,-2.5589368603911193
1540,-0.8402138570514605,0.814533542669973,0.5430076363967076,0.0066977684018549866,-1.2806269721249575,-1.3839827084267033
1550,-0.8286949527106152,0.8253976619759436,0.5537885625578075,0.8636072983684095,0.6318153192183228,-0.00039240996748984847
1560,-0.843544776767316,0.8085900319271923,0.5392292696684813,1.8202510429989254,2.3525838275863524,0.821258637822343
1570,-0.840298349083055,0.8098714486546065,0.5406660672495097,0.5310974407673862,0.25706868064583754,-1.6065666356734913
1580,-0.8157353331896109,0.8324070887450196,0.5645239864576503,-0.2057736258405155,-0.9511509154365281,-3.1645683660020802
1590,-0.8556985909914226,0.7924249444455321,0.5236042347283373,2.6219489640758735,1.969903760435049,0.1185763651232552
1600,-0.8217841309643534,0.825682060783923,0.5562588640982484,3.3147394720870125,2.732897646934158,2.2140105275765367
1610,-0.8385717124666991,0.8066324063649536,0.5445791358096203,0.5196983557893645,-0.10798898950095592,0.6863677313666182
1620,-0.8496968350022244,0.7963704724781242,0.5317539851843177,0.5100987911338073,0.49842237642383774,0.7140873092308391
1630,-0.8389061963525647,0.8126836113984776,0.542771932408299,3.705695099440328,3.6945356562515563,3.5134488632156704
1640,-0.8612153962644037,0.7931196172431193,0.5245372520984456,3.496422661014952,3.8246093911355423,2.767528465829346
1650,-0.8506082816369441,0.7983919805138338,0.5306461695144994,-1.5947359787408557,-0.7862422069254247,-1.4862721641096583
1660,-0.8114124680389483,0.8335934566933443,0.5668295508002748,-1.3532784657531,-0.46233915557498184,0.08688296472352841
1670,-0.8596898071477893,0.7947638077626494,0.5197048868079007,-0.09079113858595594,-0.03542774686255713,0.23739477424971867
1680,-0.8340009896739548,0.8140444971645641,0.5502341950644041,-1.9583674445725867,-0.9132689427918564,-3.5815292515479467
