time_ms,ax,ay,az,gx,gy,gz
0,-0.9332983511655845,0.2084309065235329,0.20061145137085717,-4.945155314431927,-2.5327727048065896,-4.371902069875138
10,-0.9282857000263599,0.2138687944899195,0.20957395180026625,-2.298671735754502,-0.3727880070249307,-2.321898455343046
20,-0.9463597071323654,0.18810734228345832,0.18007550812715742,1.2218933817077273,2.4532573214010926,1.032140208384562
30,-0.9348304183813604,0.20108972919294396,0.19451662406815193,0.5798676917810518,0.9814820809813893,0.6169804598324578
40,-0.9289550169779179,0.20622058868067797,0.20597954781592814,-0.3257195623217197,0.19183791379677329,0.3901215600093185
50,-0.9172722138938432,0.21842247662638783,0.2163846945180856,-3.7791039611192643,-2.773237494888799,-2.8836424175687987
60,-0.9237297265992307,0.21648463564152545,0.20780020466162255,0.02862081901731066,0.9558046515312664,0.4528933993644978
70,-0.9196712035350563,0.2218380196619894,0.2146881179171151,-0.19279191418859268,0.4636981868101338,0.02387890959823047
80,-0.9316866473891656,0.2063312126896118,0.19902707121586044,-0.6945814802125437,0.8259420692801803,-0.2397360666414025
90,-0.9286114759622303,0.2113981634050022,0.20983183543534412,-2.7377196881942427,-0.8887181704648537,-1.943817561796218
100,-0.9325447124805318,0.2013956983814175,0.19983726497890397,5.5507290917587095,3.9795862436441785,3.84555199354094
110,-0.9182792647069327,0.2219606958966966,0.217793366586233,3.9366972490662833,2.107855647031203,4.005406460303479
120,-0.9591694875677421,0.1817142961892531,0.17900705440267675,0.944164808848293,-0.11321207285433366,1.8292005764478403
130,-0.8931130667318788,0.24881524519937698,0.24102198699275867,0.39059331388223983,0.9112147119681547,1.237343916026973
140,-0.9359405135675037,0.20704513332197827,0.19226579112765008,-3.1775238094564977,-1.2487512440808541,-2.724047372557595
150,-0.9552620521370249,0.18429045549726764,0.1726954193653481,-4.7235020970466115,-2.3045475329777374,-4.919635810295795
160,-0.9289170741331103,0.2047213583361868,0.20340336653473184,-2.1278546003000858,0.2985391085698823,-2.768141219960111
170,-0.9360847720148444,0.1973080289636672,0.19140182464687572,1.2726564037655206,3.6231794990435753,1.2533754330298024
180,-0.939912763768545,0.1921839826981055,0.19359364647433097,-0.17430041795385687,-0.731589934882219,0.7967046218039382
190,-0.9281206157449773,0.20492853787041126,0.19834570600707535,2.811691823668922,2.2351886609967515,4.123028336998527
200,-0.9387203475307945,0.20482829959326396,0.19355859693469168,-0.1892235320852691,-0.6025765324168805,0.400513009418177
210,-0.9240583383532838,0.22043229254917332,0.20705030823100026,-3.2543459705617277,-3.1216839667157656,-3.5907711783829432
220,-0.9277316497676903,0.2169002799157366,0.20083793155776603,-2.0548119050512264,-1.3081994293130448,-3.400294572655423
230,-0.9248537201381588,0.21790171736916683,0.20624131993073916,-2.548338410708382,-1.7573520264311409,-4.6419819010452255
240,-0.9523392088606488,0.1862481048714995,0.18654761986986665,2.1019284176198845,0.9367191731890743,-0.02452021327691778
250,-0.9530284530379864,0.18958354228085586,0.198629837169226,3.108401847978511,-2.798108910693494,0.7136599385438629
260,-0.9636096597657846,0.19527664391677446,0.21139060521229172,10.57458907381298,-0.7203792647694449,4.475131731798179
270,-0.9491444988368718,0.23665356751913025,0.26043462379915683,16.074188655465004,-4.062865283145944,5.492867588425482
280,-1.095354943610229,0.11666150850029583,0.2599334926455251,4.6234663801438005,-7.7138345141005304,0.8649882116860296
290,-1.176082741546208,0.283638393748782,0.19918855171321642,3.9996647412840574,-15.99217582995534,7.5881391179867235
300,-1.1565891586061288,0.3724342092207704,0.22859822993363288,-1.1703746627784513,-27.67726420998245,14.875777788050314
310,-0.948421282619634,0.33994597953405087,0.20402173006276483,-14.878545061542669,-32.51255991088119,16.832600435731486
320,-0.7248941671587653,0.32540651258903214,0.183225115817359,-28.525821432240466,-30.868446368452123,13.355360138558137
330,-0.6945340100149371,0.31452054756947323,0.1945777200200377,-30.72038012175531,-22.53463438412262,12.778255978585568
340,-0.6927648439434658,0.2855965568924848,0.23189145939532546,-31.531754242676705,-14.204486088839023,11.473292608895951
350,-0.7194304107003465,0.20424701576391593,0.22605446014307978,-33.440426915588205,-5.982857843377039,9.17069723618388
360,-0.725554427852358,0.16529583043889445,0.28800191858195656,-33.79796981160125,-0.7039542312141474,5.700975153561032
370,-0.7940696090059515,0.1878297974153654,0.25596452751848386,-38.74909675851787,1.2983116452015477,0.27354208232761934
380,-0.9126958141805794,0.1226481277016264,0.2772995601985287,-32.18544749118837,0.3758920951183336,-2.781982673459197
390,-0.9632436940449224,0.13057495079956907,0.2545168173071685,-26.16010459405395,-1.3481064958827544,-4.383229980980036
400,-0.9314463260183229,0.18225860451176187,0.2225530773973,-24.492569810594397,-1.7987731501727757,-3.6657961328873396
410,-0.9024034246426893,0.1920730590075508,0.21604151702906205,-23.666598710311202,2.0780428276200142,0.24573692585603446
420,-0.8965464143872661,0.16699867727043996,0.23159311523328946,-22.197925949249242,7.239545193955559,3.1750181008455507
430,-0.8620203743257752,0.18086960895367127,0.2568084494024608,-23.149026710592562,6.587328690222359,-0.522728268247409
440,-0.9530712649493817,0.1528828276538812,0.2565682616819642,-20.831678476889238,9.930669088321032,-0.6303657164143834
450,-0.9319539058052551,0.2237571597327353,0.256556255379488,-20.608143504255832,10.774528650009657,-4.573533436309358
460,-0.9075152012201034,0.1686540896016852,0.2566483015618745,-21.34451211951283,7.748036325453336,-8.803806266208024
470,-0.903696968682258,0.16278126463877163,0.29458633246505816,-17.586496504519292,8.990065849883681,-6.474975094939383
480,-1.0486382961239542,0.17210254256391125,0.3110650632988264,-23.08075110706861,5.836081301357023,-2.8455914316878337
490,-1.0543824965868769,0.12544663332410827,0.3002532920764194,-16.79195934640929,-4.324661189959004,-1.3199567589598047
500,-0.9593374723809491,0.0509087402755838,0.2808725453928214,-6.980105185664783,-13.403902209975257,-5.351597813717177
510,-0.8798535240367152,0.041746516137890384,0.319567364483954,-1.3913216588667547,-15.726759450062415,-9.9503080832876
520,-0.8177124527283876,0.01333340887542507,0.3377034149280384,5.6854563104614515,-25.080482686222,-15.463683009892122
530,-0.9528653753836844,-0.025919768992831983,0.2113237881458379,-3.022421661330929,-15.230377971019383,-13.418260213213923
540,-0.8743723450349081,0.10301335287045393,0.15160460383269014,4.135498934554429,-18.42470397850845,-11.012407642281607
550,-0.8193277307376768,-0.02328724607651682,0.3138078260774935,14.133056752810123,-25.998911731519893,-21.105002420644443
560,-0.9126350959375876,0.06814742484107013,0.49767080293481136,14.281773981449835,-21.081346799096085,-16.449853606487736
570,-0.94811109801271,0.07008183868547353,0.522510448718868,24.532653921276637,-17.655921553913142,-11.47104703091165
580,-0.9425392251953006,0.1857550971097891,0.4706304502423635,41.16070729057128,-18.0729485533646,-6.905878529978661
590,-0.9509637520066191,0.17938327135231982,0.34832394555429813,39.331979048964946,-16.161191043739745,-8.183458746945197
600,-0.9530346614219892,-0.03424777607023335,0.22690433373822083,24.916750302819572,-7.528192391919777,-11.071714804595183
610,-0.9662538506428775,0.11870456706228165,0.2686851014256845,31.670883045494083,-5.064145870427402,-5.739760862220453
620,-0.9412783345450362,0.4041049950722013,0.29783163246949224,36.774474304373506,-6.152503387531603,-5.274291486975262
630,-0.9783970160462616,0.30089830326039463,0.2796242054706831,56.55447807714485,-4.9260281196721465,1.1107608651741925
640,-0.9870573357605378,0.1211300039865264,0.4801099482622096,45.51909199792184,-5.7207288503329075,-12.26752234383882
650,-0.9824237012780604,0.505742423854412,0.461399413037396,56.49264930386842,2.8722589399392087,4.241997920230688
660,-0.9461225352994969,0.21031148219140772,0.2060652525746847,30.91355908505861,10.611330148691977,2.4451797447927763
670,-0.9251966659156664,-0.013438635437853334,0.11328855364464313,3.136864307570914,8.441677848463742,-4.372093680047858
680,-0.9766553994436166,0.012020214655703002,0.11069916693930941,3.6865509251554607,5.019699695422019,-4.20557715636451
690,-0.950591218523922,0.07251356714487904,0.1799595174738979,17.06703880981959,1.8497438967301685,-7.354912788708361
700,-0.9795815101241,0.3509464613879128,0.3849115165951708,32.77296369610104,-0.5985025385979341,-0.5367214068821875
710,-0.9114586555304777,0.1673947201652257,0.2322005749960445,10.708628482420405,14.842086037866796,-0.116147372394376
720,-0.9653737105532317,0.13640155180063368,0.43884642675964325,13.86164003888619,11.621080664402285,6.375685550707661
730,-0.976281260876803,0.20495789931551858,0.5370133439180657,1.1759782012170434,19.950688958629147,10.718751933231488
740,-0.9689457858485517,0.1179217284858465,0.21147248139561262,3.112415341797657,21.332436650674275,7.8151791982202425
750,-0.9681329329520628,0.07915841880377228,0.26199799776559524,10.020660347990827,17.93186984918304,8.95044399673731
760,-0.9177628776807587,0.18334260607609257,0.20670567271722667,6.059203881006951,23.64679954312444,12.812452755275386
770,-0.9388073155806709,0.24921310757018386,0.06779405122277683,-3.1641326882185066,29.7093704250017,16.27541972248743
780,-0.9601359294468778,0.2951143123474712,0.30257625713407876,-3.9952579039510847,30.090012926462634,24.930809982626524
790,-0.8846852694275658,0.33894412119883244,0.2008730910012143,-20.168691901703284,27.641578143478224,22.312621734296528
800,-0.9877693850326951,-0.055306666759861324,0.43565219566974056,-10.791072750953166,14.798642577226131,7.9747762568572
810,-0.972898235730148,0.09605508165568885,0.17063621737150386,-13.037719907966842,13.125862151748235,6.332871760112166
820,-0.9724232804924412,0.11964759176234034,0.26124940502509864,-20.00490904327553,15.43877216058061,2.646349282613598
830,-0.9765977303625163,0.07788156842273002,0.36285908641884285,-23.037726487377896,15.878977990820601,3.5675400236675996
840,-0.9354004390922424,0.2556714278965318,0.25474047536616434,-24.629559587546446,11.34685709938561,5.385322718791258
850,-0.8876187864086266,0.3550631149683826,0.26308009664240994,-17.324915425610527,14.581681114516819,10.640811240951379
860,-0.8408642637778587,0.34880985082964616,0.24854229402521205,-12.606415597550615,16.99884355435472,12.06999970982322
870,-0.8322920220133052,0.36364864451305284,0.02058863215114263,-9.847473519315725,14.85890096319667,12.451609501702437
880,-0.9676914188470873,0.09182608189784658,0.2596000403863018,-7.184988114897534,3.948486491535439,0.4902285409391296
890,-0.9542988150775089,0.2539786469828379,0.19043551908716183,0.49581206480081974,5.5852310951225945,4.109975908997428
900,-0.9204560512271968,0.21813524509064475,0.22439660553764618,-8.471284949821476,2.0677668325717247,1.2039672279935405
910,-0.9543627203587899,0.14424140467761204,0.21588229787364369,-0.7847624457736866,1.57662338308284,0.1437757971186472
920,-0.9530366142414495,0.16677537828269823,0.21610738786494196,0.7346579597272304,1.9409342530384048,2.408879990139581
930,-0.9521687694723883,0.19615951766786185,0.19988937750199684,2.3274921302388454,4.685010315033895,5.514303286387504
940,-0.9354703265767862,0.21815638698820428,0.20927124708851483,-1.45469415739986,2.12439807785053,1.4437457519450325
950,-0.943924592414488,0.20188808537890884,0.20065642620100693,-2.6219912540548966,1.8890357487860296,-0.27792067760279077
960,-0.9056951570875721,0.23874892566382772,0.23125150047573212,-7.216828174565423,-2.8315205107279353,-5.599236475417576
970,-0.934552154679895,0.21104656870453647,0.2040233738759479,-3.1246732308390874,1.2818120460637066,-1.6015562818713533
980,-0.9344912074738735,0.21012688788153075,0.2050276314328335,-1.119084999890029,0.9198554193747377,-0.9758579028509454
990,-0.9304777545361639,0.21913559482891723,0.20795286791156417,0.31077282987197197,2.95227038117029,2.198919439608603
1000,-0.9526948351738891,0.19735877230834042,0.19071011031360463,2.3838890220168287,2.0826731891805994,1.9993914396471641
1010,-0.9347402559416449,0.20801129954215294,0.2134889042488141,1.8086811328850203,-0.9615218714357163,-0.7371116751942643
1020,-0.9164100310004288,0.21133009025457455,0.23134809369143775,6.141827036493223,1.666061262588661,1.9471841062776094
1030,-0.9545972942188201,0.1343180955422979,0.2229982617718723,7.076256765738919,-1.803882301608615,-2.273841886925232
1040,-0.9432167171297966,0.1305476642424702,0.2373676765481142,11.643964389716693,-4.32783699414775,-8.503716974422284
1050,-0.9053284002643174,0.18769936101324564,0.1924708710764601,22.25515384339698,-7.466697353183752,-17.41409071898182
1060,-0.8618358906217034,0.15526000125895043,0.269099640606961,55.495381820234584,-6.703225891121534,-15.185775176312674
1070,-1.0264352611398067,0.34899406355889817,0.4597129172405459,35.82051775792181,-15.011170148510859,-11.55555583570533
1080,-1.0208690722180267,-0.5114312599914819,0.3948066606116379,82.84322532674922,-23.299982806657066,-18.251868912305962
1090,-1.0642020953329747,0.3826922801716555,0.544344774292575,39.86326015911767,-16.593803215709215,-6.095950741105783
1100,-0.907548693083755,0.30763314301763534,-0.03318548269089933,24.011784298610824,-3.5158089933038585,-10.909350908699768
1110,-0.7924336209905511,0.27395344881038153,-0.10420721744377485,41.97186534578187,-3.4724065310560492,-11.454140741145222
1120,-0.9204997206599125,0.2737886527104769,0.12489679116846952,42.46832803460044,-1.7406738332549256,1.838003838725116
1130,-0.9543774620643524,0.20302944539593903,0.27885882319721594,15.195091013983884,-1.2512314494391699,5.850222210231151
1140,-0.9397215520341938,0.17599722966555548,0.2778763306747276,15.718429252963837,-1.7914465098010468,1.7185285698667263
1150,-0.9017660121824499,0.22589030062538096,0.2816702171146263,1.2732961783775665,-1.4657204137061166,-10.09135355916477
1160,-0.9225150627721205,0.28230590571100633,0.23213268015754643,-1.3447370439380395,-3.3025014910428543,-14.391655414593448
1170,-0.9049134850552624,0.2986338539826738,0.17605556903743824,-6.24177282476589,-4.043211739021231,-10.998189684613026
1180,-0.9588292118500462,0.18959741017133222,0.17487833327677754,-6.020869839604634,-1.7796341097550012,-7.190992134399579
1190,-0.9490787651033318,0.17584006342745545,0.2016465934552603,-2.5230434663047716,-0.9045808851220116,-0.021664724006954073
1200,-0.9573423702631021,0.17116991136520207,0.19385123973715515,2.1213687816919866,1.6833651562627971,6.017881981047703
1210,-0.9490016600723155,0.18956488196944093,0.19729884610942378,0.2725320217182625,0.46841972780156715,3.826136115751947
1220,-0.9258895535721913,0.2176154303195693,0.21616342534975946,3.1914747419138685,5.571377731662014,6.309835265729687
1230,-0.9502976560762474,0.19120671992194027,0.20642010040054565,-7.496314797145373,-2.6098979329795546,-5.1367240169382455
1240,-0.9505273403266954,0.19076204154555665,0.2010682983174245,-5.394353171663927,1.129968802792881,-3.3534356174403923
1250,-0.958141868954715,0.17410566842241693,0.19501968511221296,-4.368130794589691,0.5756633682981432,-3.1636146216397054
1260,-0.9343935798388748,0.1967413667448069,0.2189150815647244,-2.605264878304526,-0.8750308171437794,-0.025452476540445357
1270,-0.9385927094954745,0.18616479326370303,0.2054731481525697,2.5517152415855064,3.324036010481756,5.420726137644422
1280,-0.9461220553462982,0.1668061904344835,0.19772690730806983,0.1534897776961548,-0.6107842656971072,1.9666750552527337
1290,-0.9608893010141929,0.16211846037735686,0.18675883732247112,2.60368737819039,1.742000426377065,4.253422105631666
1300,-0.9615224496643896,0.17712713816865475,0.18808644788019535,-0.28497552872175724,0.030211529219115407,1.8386708484365637
1310,-0.9344603546284548,0.20362246039999524,0.21618950201037135,-0.7985755042880933,-0.6202254439279816,0.5507717864413411
1320,-0.9335283224817498,0.2020734960122632,0.21884923553510147,2.321077177984448,0.8778216783149978,1.522654864930677
1330,-0.9271780783668431,0.21342066760774325,0.2225690637001306,0.21544007059446024,1.047519394267235,-1.2057161935216065
1340,-0.9181695807016779,0.2103834268995997,0.22528929290008431,-2.589598223454058,-1.1033811284161021,-2.273266951135464
1350,-0.9316771862843748,0.19032916240446557,0.21259330520216818,1.0039627486431981,1.1666212818254682,0.7117848084494909
1360,-0.928352217216775,0.20745954025894628,0.22605043189268692,-0.10263115627726926,-0.14522395076120864,-0.731981718876817
1370,-0.9499970964367926,0.18392818356018903,0.20818599184578987,-0.18914456951421244,-0.29407239709152866,-1.2811891912147895
1380,-0.9561395045501101,0.17295120741164488,0.20060707182539103,0.8680958594471762,0.14696182290913973,-1.071037866843166
1390,-0.9300415323662321,0.20008197214393075,0.22058660948922612,-1.899490452879052,-0.561689485670277,-1.7442282020084827
1400,-0.9627507575771359,0.1651789985229559,0.18024012211935914,-5.6961956311170745,0.0200390149543746,-0.7723857975419868
1410,-0.951298977918027,0.16549991585261953,0.19304601586567754,-3.560128118164584,2.404016373492621,2.5807479409080276
1420,-0.9119344703231257,0.20311536702550403,0.24372721218365015,-0.4082842654025569,2.881404246118164,4.367907910768035
1430,-0.9674609239203783,0.17331258064808033,0.1841531442089984,-0.5861206215864664,0.728866240488546,1.9758296294378934
1440,-0.9195710312840276,0.21479704652770393,0.2268328353111854,0.8205354443425719,0.5542452341324879,1.7914474560673768
1450,-0.9161591002662528,0.21960859115117193,0.22949414811922647,1.654882717694972,0.6957981350642843,0.9163261159693508
1460,-0.9377651157510516,0.1920198103584674,0.2059079377308299,0.05968458537614052,0.6942093858789363,-0.07220515744691225
1470,-0.9359796489832533,0.18386991365066105,0.20955760068563628,-0.47898882194818615,1.5554234572946637,1.0995761815613887
1480,-0.9419424081650314,0.17730002427535604,0.2088866398889968,2.1164888391772196,3.9644306008650725,4.923646378382881
1490,-0.94404276130403,0.1849076579933969,0.2094329506771425,3.06028047398395,3.5828792679035906,5.807981022257358
1500,-0.956316097588645,0.17705343027511122,0.194555958782386,1.8594299278978106,0.7137170146678017,3.0947030577767407
1510,-0.947561509817142,0.1819520738465755,0.19743078866006036,0.7181489660471911,-0.6007928246471519,0.6713082240891548
1520,-0.9593082440913139,0.17644482379261545,0.18813382685496446,-2.6315597810923927,-2.1612189410517235,-3.2738416979370806
1530,-0.9178607191918916,0.2141118005893065,0.23172333331206232,-1.5117912542049157,-0.40256805083699043,-0.09379441608169092
1540,-0.9488926423138794,0.1779370633737165,0.19850467833472255,-1.6012584947817623,-1.4085849715577001,0.1098319868078852
1550,-0.9464063579506851,0.17089828373588076,0.19409128828298836,2.6299559069528753,0.806446968490091,3.0542001834983927
1560,-0.9319483961189527,0.19019484417957866,0.20770480392812277,5.345919136385152,1.9889929361702303,4.035421160165482
1570,-0.9259689310313749,0.20765324515732228,0.21887909649430953,4.54780593833081,1.0112298051377229,2.120473294646832
1580,-0.9816078349778502,0.15469888874986085,0.16681692385814878,3.772217001796108,1.0308550926412587,1.0603806223517953
1590,-0.9343121495327064,0.20478731245890278,0.21475439043554995,5.812006168075497,3.9954444689056907,3.362997044076385
1600,-0.9536450144910634,0.1714072220533861,0.19122283502298373,-0.5217698719977781,-1.657784277826633,-0.6889137634084157
1610,-0.9282942491880904,0.1987989600404732,0.21639687563742455,1.7170006883182647,0.8540273467135563,2.5728601687297865
1620,-0.95005880985285,0.18564626544340934,0.20009198790207328,0.21013269955142988,0.7904632618213625,1.7628359405831884
1630,-0.9285322123942886,0.20953541209486048,0.22205726751879795,0.8262105922388506,1.674161871572047,1.7318275881739313
1640,-0.9366666001545071,0.20187608862660808,0.20944810016681842,-1.9172631568726066,-0.27777852343900233,-1.3796995855015177
1650,-0.9313201322305076,0.20706326523570825,0.21345138692409682,-1.43149618001838,0.9435421240963181,-0.9856187149281392
1660,-0.9301852555510762,0.203529079887333,0.21477469919555728,-1.9503798493152802,-0.4915181300423065,-1.786680482993315
1670,-0.9492312662655856,0.17626123664078153,0.19256177134277214,-0.19360832827533403,-1.2074694560442336,-0.5303461600614232
1680,-0.9357227602801784,0.18799306591036533,0.20551375009530995,5.074734408297,2.6628350203154114,4.319924252595595
1690,-0.9137323967426414,0.21155307688054148,0.23016542828394737,3.6868811954456344,2.9234377881037874,3.2210890404932297
1700,-0.9566134675845472,0.1824949403385111,0.1945489139598686,-2.704927755896449,-0.6288946727359703,-1.8064281289952602
1710,-0.9430473410011125,0.1914659303081257,0.2005571348422523,-2.568340852225205,0.14377706514914923,-1.2698320080421666
1720,-0.9246409723674097,0.19967251961459745,0.2172350932968041,-0.2961330625927219,1.3412276815283197,0.4412864964910853
1730,-0.9388724592034025,0.1854691015619613,0.20188256591938533,-2.535681468159334,-2.1222406097449436,-2.04006366180525
1740,-0.9601580557917676,0.16202260983093736,0.1847930558516211,-1.5929157348763134,-1.9724024744397763,-1.0048693013823595
1750,-0.9586867177858721,0.1695349943594443,0.19443226727191498,0.787438559614142,-0.24224822785479116,0.7031629503145984
1760,-0.9565875900349718,0.1909597445048819,0.1989016965672696,4.770697244713265,3.0281082143080376,2.9626565816968067
1770,-0.9416475485489052,0.19478018525284999,0.20832880055692832,0.9236110158242941,-0.9522490097776735,-1.8581910506124124
1780,-0.9341506831273798,0.20179657357560635,0.2127842603013973,-1.887394813081074,-2.240360354563479,-3.8149447740921416
1790,-0.8998675789064875,0.22529289228643706,0.2417287917050452,-1.0208378437166845,-1.1580932048626098,-2.5730293758412106
1800,-0.9345409456277041,0.19489420996515408,0.20860234800920827,2.8355053345067516,2.6390581766437506,3.5688530289239866
1810,-0.9345405757915689,0.19693066919312205,0.20935896141777086,2.126633945285644,1.7055712849501359,3.3255222149009973
1820,-0.9248358165660574,0.21170124693125017,0.22249342953851764,0.867850574813498,0.4759601071645731,1.7455968945585916
1830,-0.933952887444653,0.20579092243622682,0.2126397696130297,0.0754324461941599,0.29996227156729927,0.7033767065588322
1840,-0.9264271483722997,0.2099296580760041,0.21584500955877803,-0.353490974355095,0.3245754465589803,-0.39187901932226166
1850,-0.9194839254938533,0.2135208833212574,0.22382735268900902,-0.35922236553892173,0.12353672448708641,-1.5884212602751684
1860,-0.9460154272420632,0.19262521192897253,0.20271993495055304,0.7163474218697621,1.6894321036362245,-0.2634417380585521
1870,-0.9199406595924786,0.20878499799194028,0.23195822632766064,-0.9519969847100131,-0.48599428185907,0.28319093608244794
