time_ms,ax,ay,az,gx,gy,gz
0,-0.68036790502501,0.2799998006305565,0.40875327889848945,0.5768341587244681,2.3591620687394887,0.9135731825009312
10,-0.6789158838952016,0.2870133030926092,0.41081140460913407,-3.7819677728575347,-1.3358228770108538,-2.772081707908341
20,-0.6694878084345958,0.2902422066599048,0.423169719809116,-4.807686263568467,-2.617208717801617,-4.1164624014029485
30,-0.6938081458651043,0.26434895898193017,0.39779216764792646,-0.8423506151665228,0.4616173772699713,-0.11650647763129363
40,-0.6625459375385985,0.29919664176091837,0.42629292370106586,2.118619125236569,0.5777784742689476,0.8858717544675743
50,-0.6687952892236281,0.2970969391815954,0.41947670206467114,4.072393028767975,2.5406137200504584,2.1117841351733113
60,-0.6670687983068321,0.3020567417119071,0.4211075951970162,1.5102931412355454,1.2261041187548356,-0.06781376951554308
70,-0.6482441969941312,0.3187136454982713,0.4419362799397232,-2.4865918938992326,-1.8679633286646486,-3.4045888702638285
80,-0.6735662299495284,0.2898496721311542,0.4178382452085577,0.525542374244945,1.1736449635212458,-0.12949993425561446
90,-0.6883297443159867,0.27516802448264693,0.401829719409062,-2.164882855998447,-2.0789646225384733,-2.686501318108367
100,-0.6853652697392433,0.27771519508189474,0.4039134692211845,0.521838526435338,-0.3275027139076618,-0.35228958938349325
110,-0.7058575502882649,0.25413994417841096,0.3840453316259796,4.175690161235454,2.1656160258799373,1.9276147079284145
120,-0.6874075803251896,0.2713165638283152,0.40256901973142784,0.8468251912480929,-0.7483160261866048,-1.459926713396546
130,-0.660835208110371,0.29487320442469916,0.42548201520583157,-1.5523316070066402,-0.8768492126282702,-2.3526773861264525
140,-0.6890325886754409,0.2737311329754821,0.4027911190899399,-0.019328505934368634,1.4591390948485037,-0.6787218930807382
150,-0.6802450745075905,0.2904077970345261,0.4294252873545003,-5.323437942102437,-3.6864036402389146,-4.600482679577213
160,-0.6815612251153605,0.2804436705038928,0.42638758645077124,-1.3948784141435049,-1.3802313257013008,0.9848067232252077
170,-0.6875837519027179,0.3028094717058675,0.43323261307883665,-7.045426117636612,-1.3767171212771014,3.4361003232431804
180,-0.7875551016292052,0.3082707096496479,0.5872089076790332,-9.441286778554716,-12.481930985653904,1.4587782709559098
190,-0.827391732452009,0.3432040698784043,0.5862104747617293,-0.24835933539579358,-21.120691536158652,8.802605266750577
200,-0.7976455914726432,0.41043433676237395,0.6634627908416575,-9.780572016966635,-39.27823044790814,7.627792496752642
210,-0.7402719503419479,0.455104953795909,0.5327114451613619,-12.381882123804226,-50.10331760454207,9.194911983659571
220,-0.6670676928562154,0.4838590099878506,0.4818659820630888,-22.95391220930336,-58.02726778416624,14.043648610852687
230,-0.5466168542637018,0.41468458519390355,0.4210675111765763,-53.559538212339035,-50.20724439339964,16.983735453729707
240,-0.4073853760179772,0.38926957496034975,0.36467948252346977,-73.31044549753916,-34.95435594791948,15.773687206412047
250,-0.38000427298793316,0.44147305782432655,0.3560354095764175,-72.59973572237743,-18.532334825206455,20.99799575816087
260,-0.4544504935838791,0.42492001930313866,0.34249651881211346,-85.39651607906107,-6.914209984893324,25.40733869683368
270,-0.5371334862419201,0.35036424041384334,0.4286370141661413,-88.03084820236239,2.583801532563144,31.167922271570124
280,-0.6762751729232336,0.23538271739977565,0.4516131305461188,-88.20355531022507,3.688673172699529,25.603262030956493
290,-0.7049697333017148,0.21949854517212186,0.4747078216404885,-88.32506289871354,6.477027944850785,22.011774087024897
300,-0.5681610054778359,0.19255907477280856,0.4548421009567031,-66.6912946374174,14.861235712145305,12.735684977950715
310,-0.535788670371631,0.20480337936354676,0.4172477098304675,-56.85993997470909,16.78722430067587,11.748680713070955
320,-0.5478160718702092,0.18558986457120058,0.44223706550438513,-66.36526521651533,29.666969028469698,19.421522410481575
330,-0.662332087717665,-0.020657621948569047,0.48906426158972777,-72.09894046112427,29.676480504567834,10.090965434560847
340,-0.755279019016402,-0.03096755442892126,0.6817540310676993,-103.10680588984845,19.513443917496087,-5.871871341489645
350,-0.765562901931471,-0.045886905353875046,0.6481540137521183,-94.6541105954043,8.706391279436039,-19.84557012651429
360,-0.7774730463431528,-0.0782961007532598,0.3849980562900966,-37.670805624887656,-16.920875518612302,-14.517368996137565
370,-0.4975601063367742,-0.1932293043413215,0.6160680183307096,25.552750330799196,-29.62865179265068,-9.940010568145151
380,-0.4279039327426895,-0.29044580951913956,0.708320453543481,53.00865703236161,-32.83864321532356,-22.798366925737895
390,-0.7228929426216625,-0.08522764845073816,0.5188374797382249,78.52512401775213,-25.66293826903644,-38.333306471723766
400,-0.8536620767941043,0.15518621919609102,0.5060874894498115,72.9388296178876,-17.230131347553563,-39.480803233651315
410,-0.7185096837920691,0.2382526611042407,0.5997202809025333,73.34191059972086,-12.780107246255978,-35.65694204522281
420,-0.6768179979167471,0.33635042345050026,0.5759541686752315,92.2775756105774,0.9494196978358638,-43.155624217943135
430,-0.5969412833396778,0.2320796227452464,0.6200197567286055,-28.52254703333733,28.035797296098412,-35.34829542657943
440,-0.6848321169673883,0.27523160815287057,0.3870022041709307,0.9304521524538292,53.52912763551266,-12.448703711217867
450,-0.867890647730593,0.4668737512779745,-0.10074744292663892,19.68471791693549,72.66987694380623,5.732699837294631
460,-0.623821708637495,0.7066080404728384,0.4688863685121595,-18.826182997918085,85.51269128669247,30.785329830575918
470,-0.43145966428916094,0.07640762721868549,0.4931573244615787,28.297794957511442,98.53786556306268,50.473645787669
480,-0.5619856361847425,0.36756058230958444,0.2590031327262997,-2.8436862159785483,73.4886490257365,64.59414395873817
490,-0.9670151590580005,0.08013129909157488,1.38200139259651,-39.80245129441364,57.40209114349603,65.07991747065803
500,-0.8746496860823919,0.22767830358589386,0.5445916508748002,-22.961954222081907,56.058188224456146,52.61848113384791
510,-0.5980370614477722,0.22422782780801964,0.078767220136052,4.48540883177308,53.861183682034714,32.76758097672839
520,-0.6700836872352702,0.1025213868432921,0.28297648745448534,15.00268761544809,29.546676504747012,-0.06001696612449581
530,-0.7082824544569952,0.22051299627722665,0.37489895843012205,16.789859300384677,17.058092292212407,-10.648459036464828
540,-0.6450490722876655,0.25267171092786245,0.5462449686844657,-26.042996937096575,11.301803452767661,-7.682714390281605
550,-0.6911160192321774,0.15545726853328493,0.55577285057903,-22.196634239398545,8.997725754394272,8.071934877794567
560,-0.6773875236279292,0.22972515825617598,0.4281713202347768,24.59864468107291,4.721462181204457,17.729598011755076
570,-0.6610348179300591,0.22700364470572654,0.46148325883144287,36.7373426119759,4.45178789005335,14.501147134435605
580,-0.7466913468521112,0.12103642798935615,0.4579718813001037,64.55505576244826,2.791638667006376,4.0900971747789745
590,-0.7462026152237673,0.035817887059102535,0.5632232385164511,67.48578968878053,-6.866176241996443,-27.374309721735322
600,-0.634646895530176,-0.03930552008686117,0.48372992708442947,22.840675427622127,-25.393790275864045,-71.41722275268651
610,-0.707287870143158,0.10478765467328216,0.8182482907738972,62.56357576957225,-29.193968300394666,-89.09441465800964
620,-0.484774153797401,0.80396366661228,0.599939531048408,47.18754512294556,-9.45320761072701,-26.70442269170858
630,-0.7134400190570787,0.7578517903452924,0.10642911284772781,31.951008488713008,1.3189571802565947,9.139558270115598
640,-0.565884720949557,0.8844492329445749,0.40229316706564966,60.94306904631917,11.429785199102586,24.531499522081784
650,-0.6375110755568149,0.5581052854870998,0.3971066041854,-8.910479359320414,14.385081029198002,25.239605337645063
660,-0.7131822632136882,0.3099668027464074,0.3648116411996277,-18.33742141105673,8.081015278371598,6.6326103513559
670,-0.7018344204975115,0.2921058305716213,0.398093072229967,-11.433376461469077,0.06595644357474517,-18.102842355477748
680,-0.7038593550462868,0.24914759963629218,0.39617129366163994,-13.17235576119939,-7.702225605054615,-24.32592144647656
690,-0.7001601188902243,0.21093850287780028,0.39640910532524104,-7.269344652891676,-4.47100920260433,-10.990366146844334
700,-0.6710633665169699,0.23203145687498145,0.4276861709695588,3.686140644803382,1.306588967257442,3.9636714696718425
710,-0.6654904369131522,0.2499433354502139,0.43339090847668177,8.634024658682517,-0.8147331426103628,9.597580670077994
720,-0.669109973857885,0.2637443246561597,0.4261949848047289,15.863686913075965,3.096117534846419,17.51860199211618
730,-0.6750254453606617,0.2693403644439744,0.4217242129797834,17.098918189791767,6.779784038201664,21.354562860726745
740,-0.6587278034491098,0.29818136253505717,0.43774340790985317,10.454068249279121,4.331222985857148,14.297267873151704
750,-0.6819912421353596,0.28990595662294427,0.40186251122596006,-5.953185892024283,-2.7851110082700012,-5.034428036859445
760,-0.6708984760547689,0.3049698699232257,0.41834222365122214,-10.08491266501845,-3.942610259386193,-9.483709036100224
770,-0.7016937786014985,0.2499732671695878,0.3947277159510422,-12.176505174245612,-3.5191277092654114,-11.072299267101306
780,-0.6924349898068842,0.24788761732957892,0.40309645099475094,-9.124381213422543,-0.0499623379384575,-5.963156262975872
790,-0.6876244615417009,0.23964449281720737,0.40489993780188976,-0.866180311366189,0.4586052446466442,-0.49369085129115464
800,-0.675665685397491,0.25763407247151326,0.4203068618028691,-0.0848787532613598,-1.209764872968313,1.989605209294454
810,-0.6702490734182128,0.27939697649134476,0.422737632890969,2.5002715698848297,-1.3186680864456466,3.726219588120597
820,-0.6482012750486235,0.3160109664614004,0.44443560649159597,5.630170312922337,2.772204587539204,6.649850792052986
830,-0.6813969703059822,0.2832208780847652,0.4098670141447421,1.2559222418471414,-1.1895192211434353,0.403660893396697
840,-0.668252514586439,0.2951604883327046,0.42186600545513026,1.130767094909987,-1.8158471468513278,-2.2106335921559817
850,-0.6708025753401549,0.2870673733668171,0.41594574862368444,-1.6759500017584708,-3.442396009254743,-5.559096015981058
860,-0.6889703855094037,0.2656879826861716,0.401434296944826,-6.3587796585701915,-3.9489573326741296,-7.9092170525997725
870,-0.6752041001134561,0.27293556856795437,0.4220926690500696,-6.4438339501648745,-0.3847822906691436,-3.519395491294573
880,-0.7032883950091734,0.22963464665751954,0.39210599074506064,-4.125320425075211,-0.2714087594342735,0.9965125634373412
890,-0.6492346651899452,0.28559476671178397,0.44488217991601736,3.160266136105581,1.3283689161117924,5.7027528656521405
900,-0.6398511753401811,0.30209368435702183,0.45106726375260614,4.051865212593309,1.5591655063891405,7.165932556708592
910,-0.6627498742874578,0.28781042831237863,0.4301649910997004,0.1323962451870968,-0.9289828349661002,4.2580355582593805
920,-0.677916563769702,0.27597441218486635,0.4160936979564116,2.378558199505792,1.6129275821363802,6.129607573218848
930,-0.680081114175769,0.2774644851590296,0.41779666882797406,4.422881072946457,1.879938936656262,5.9788545174371
940,-0.6634412794518671,0.271700322291332,0.431353254162248,-0.49619034120540606,-2.071891811063798,1.030689004000537
950,-0.6581430812942431,0.29356241978400294,0.43373240354559417,4.507131732539727,1.119943774153484,3.9876305794102995
960,-0.669057103174815,0.28485415910241635,0.4214295639959879,2.84148625862749,-0.9900797356330615,0.01789069333602944
970,-0.7063903760808397,0.25438297176372726,0.386140012448169,0.10390862289554903,-2.0584563828301303,-3.2669625901299506
980,-0.6823020454799373,0.2819505269749178,0.4095477727940837,-3.523475580652616,-2.9879390007836615,-6.379648002397749
990,-0.7050568884278368,0.2541923048414285,0.3897540621535366,-3.8901202395339882,-0.8878911291056933,-5.638195672955519
1000,-0.6724168938820914,0.27504442465463497,0.42035891797566266,-7.288271348276195,-0.9254252199335911,-5.553198876648567
1010,-0.6842301721162383,0.2586298131042392,0.4084504968808004,-2.423486364591611,3.615812319874613,0.5158808607192937
1020,-0.6858603985096754,0.2669488452112369,0.40913541930264424,-0.09408055470533139,2.530462576505111,1.4233692102758644
1030,-0.6921897692875542,0.2668147033815512,0.3999694425210924,-2.5160471840468643,-0.8428014889146652,-0.9111854771742135
1040,-0.685584592056632,0.2653624193667404,0.4065040094581683,-3.286900727971337,-1.353354216614013,-1.9587134668335584
1050,-0.6900844177350165,0.25999964384606655,0.40614603889374706,0.7434374986785188,1.4678735034256813,-0.0830905435704079
1060,-0.6751499454558693,0.2735792302661401,0.42189576363735065,1.56021000598592,0.17547591209957303,-0.9815984258776573
1070,-0.7046302531932268,0.24045392675162053,0.39046450143427447,2.809782900970311,-2.8490240113566365,-1.9520332509309493
1080,-0.675110586796478,0.27941443621573875,0.41944602610969794,-1.7211003660720101,-2.799061416770359,-3.013538934461402
1090,-0.6804676541085807,0.2734974716814724,0.4182667017094351,-1.3823603678456067,-2.0702231470249535,-2.5303397306215745
1100,-0.6680157762141289,0.2838470335991977,0.4334656001006782,-6.194276123713102,-2.983215331518812,-4.000289610226046
1110,-0.7000774751514351,0.2414694047019181,0.3991200337433962,-7.377018153507812,-0.8441265305930452,-2.5738339979247837
1120,-0.6863859057638032,0.25382009296424324,0.41204369540519764,-6.091279046472473,-1.7418303434601285,-4.3478560876356545
1130,-0.6822288917472472,0.2559963918343994,0.4163585578368605,-0.3756048640498214,-0.07884384282243939,0.3009348107765383
1140,-0.6550830192036012,0.28232106422960224,0.44392461039882386,2.3399612578208284,0.7896241105581729,2.7549295048198705
1150,-0.6905810510420753,0.24921894896387642,0.40802160484296884,1.7739276180695231,-1.2340106413369774,0.9094626044836556
1160,-0.6747927708396414,0.2671349625802513,0.42275136224903376,1.5617145829071277,-0.5891204128724796,1.0373952257854029
1170,-0.6793271349357628,0.2645026226976799,0.4208372130070264,-1.5083836419352412,-1.5119597106645375,-0.6646849987470946
1180,-0.7069796909200291,0.2389346781817025,0.3965403485569726,-0.38001789407289016,0.27401761143023484,0.423169624461015
1190,-0.6808343422296602,0.26578812428050624,0.4191016295221985,0.26412863027536587,0.5816324022702399,0.17759902203384798
1200,-0.6788451130144152,0.26658085308826696,0.41503824058914285,1.8331488643445724,1.4563263995131392,0.9718862058446783
1210,-0.6722769170028267,0.26872533468845144,0.42154432601350483,-1.6643263774729282,-1.9881670628343113,-2.863165617505522
1220,-0.6657301252389642,0.2781266073043025,0.4324253388426511,-0.9300610943818379,-0.8602802671489014,-1.847554661335396
1230,-0.6804234612997591,0.25862505731128155,0.4190006799385469,-0.2206469459199039,-0.46243000664506173,-1.2982039361040507
1240,-0.6685000568997944,0.2704140023762208,0.423956570072642,2.4418393999485546,1.9313080525777244,1.4319824096386753
1250,-0.6598487625995078,0.2790932947428033,0.4346934744654762,-0.03980904488310433,-0.9133822716374421,-0.3773663807810935
1260,-0.6581933145606752,0.2888959852354585,0.4432535516585901,3.9785689118538086,1.6613639046652127,3.764326327228328
1270,-0.6818465553277636,0.2555999076041183,0.41740699830150163,1.01430791540868,-0.7466826320987954,1.2652833901756764
1280,-0.6718931934089752,0.2660066335788244,0.42312847560686917,4.384477877414237,2.1505926128863377,3.9523004844163
1290,-0.6949413186559478,0.24908930831959422,0.39844222231866033,4.834595308408705,2.474835287604335,3.797774818222355
1300,-0.6661349914168525,0.2819725849646142,0.4286532244302747,1.338401812079679,-0.5651804328363115,0.31508262564264844
1310,-0.6544143778215334,0.2967805994969391,0.4402887861543411,2.315582923478669,1.1531513809150242,1.2453155525215678
1320,-0.6861953641054347,0.2585386266741189,0.4095289672079033,-2.0913415406330307,-1.211456320653664,-1.669893350866125
1330,-0.690891874555135,0.24704114898901242,0.4058150153263761,-4.082501130969246,-1.6516148764194236,-2.0494067366499182
1340,-0.6741036746055492,0.26607058602342404,0.42183976374824966,-1.3755178809585256,-0.26571211803317474,-0.09528257679772678
1350,-0.6986607329367681,0.24341936416260407,0.39759467792942504,5.124287591192633,3.816730614632464,5.144893596082024
1360,-0.6760652445189322,0.2733279395908298,0.4173028225890645,4.65027356918434,2.020433532552943,4.154281065926158
1370,-0.6868121089684993,0.2645636106809414,0.4059768692442046,2.209831324471713,-0.3358067333930409,1.499801707967454
1380,-0.6828362358599329,0.26059884753957396,0.414326780903451,2.2798819272834776,1.2610550926993431,1.8519498820398215
1390,-0.6607164975476822,0.28673699588443546,0.43428453338542156,-1.5950289269167377,1.037899394699268,-1.4226527831420133
1400,-0.6732894000807512,0.2726540533401586,0.42172897567872186,-1.9445480171337626,0.40436480965308563,-1.9901888539805723
1410,-0.6923588519731798,0.24705727558330476,0.40246447324703016,-3.6898126666893014,-1.74014683622223,-3.540511087398818
1420,-0.6881297490465272,0.2522969442926787,0.4123678611640811,-2.035091869481051,-1.288356241598674,-2.3814261593256116
1430,-0.6775858269272942,0.26317775478105176,0.42082365563883634,-0.3545552966570643,0.7120835018070826,0.7671904271660525
1440,-0.6712451426230234,0.26733366293585265,0.425677630679224,-0.6313190276399887,0.46068672731681537,1.2085051675521046
1450,-0.6661281652016803,0.277024468117795,0.42473289604861775,-0.25230744125700477,1.266715533503851,1.576915996164232
1460,-0.6703951073516444,0.27544330407446604,0.41951345040798366,0.5421438605886506,2.36998822628164,2.026411278610953
1470,-0.6925929911734943,0.2557927020054801,0.404376241652331,0.5288946684506362,1.3533634330186255,0.38314296717253815
1480,-0.6802042638964617,0.26704711668850073,0.41661328181619983,-1.7128321236863953,-0.8313833022014399,-1.887868018503484
1490,-0.6783301247842717,0.2611758248643494,0.4153388506231303,-2.932735829525332,-1.2471539890315844,-1.895135678212078
1500,-0.6681789788317277,0.26926960905676817,0.4303000516161645,0.8583852585986107,0.7853866625543958,0.7357601674064376
1510,-0.6926609856326602,0.2532174121418451,0.40655528684491415,2.8090500923602244,1.4148956790938352,1.5674027710050082
1520,-0.6842894658286239,0.26685400120105024,0.41773201430604057,-1.4280787236577286,-0.49868394922436565,-2.6111190688432546
1530,-0.6806414932683901,0.2667060614193822,0.4170953797175906,-0.4647292893107404,-0.6505707165395551,-1.9808840359115938
1540,-0.6778333565113582,0.2652976715249134,0.420043373471188,1.0080334376775266,0.5591381941140999,0.886440009305612
1550,-0.6816469058764747,0.25848049739366813,0.4122857995684642,-1.8003612713702255,-1.3550255713223567,-0.7503044241561732
