time_ms,ax,ay,az,gx,gy,gz
0,-0.6499563478300832,0.09428263197711885,0.547258218524381,-1.5729163951008798,-1.1799245370156939,-1.2960910727094985
10,-0.6764607363714145,0.06540314290678417,0.5168384749296742,-1.119673666008338,1.2342918159762493,0.8936926899022899
20,-0.6581557731489796,0.07313441394133471,0.5359218151534905,-3.4929088397142145,-1.1150867925217676,-0.6470011932894308
30,-0.6737941129560792,0.053672415084442836,0.5275371844409262,-0.2605264397372775,0.5742735975301698,1.489423026189584
40,-0.6323155268195697,0.09508383045791131,0.5615701625861657,3.890136602482479,3.518660009776105,4.546128407434841
50,-0.6616272207990165,0.06946722102963501,0.53518331355926,1.762511442409755,-1.6675348291111842,-0.6216713811939667
60,-0.6521625811278466,0.0873794345660932,0.541623757290202,3.266550215301851,1.4362807194591827,2.4400596318608434
70,-0.6584511666277044,0.08429150461400363,0.5388620349740532,-0.5902712759455687,0.0029767438118957767,-0.5196720640901152
80,-0.6587464689026601,0.0794178243310274,0.5383326631825693,-0.4813104089463013,-0.11569140692290605,-0.13511273614256708
90,-0.6672049063367976,0.06601675362313512,0.5273983120046709,-4.093049026812655,-2.5559809497867194,-1.6513582384605425
100,-0.6636834214559297,0.07415191449967311,0.5341224538590958,-0.3415243514644779,0.1294174098234192,1.288956314881396
110,-0.6453992477892699,0.09313210500327587,0.5508056288805301,0.1171594364836332,-0.2987319404468315,0.8719040441157984
120,-0.649510616369436,0.08385576691357952,0.5425702198138279,-3.306429747223607,-1.0319352146877643,-1.101435098208621
130,-0.6521928166233574,0.08343001188472522,0.5436715512035601,-0.9226079029484722,-0.34465296582558763,-0.5502011036459189
140,-0.6491988989489437,0.09286636341233227,0.5517228951931205,3.513759295156352,3.061305455850657,3.481861797472671
150,-0.6627821415045824,0.07267674870138502,0.5332320368731113,0.1462442284646528,-0.9665693079439294,0.20798213566969204
160,-0.6579826987946863,0.08032055083044452,0.5407030250068021,2.396851791445174,0.4077606131115342,2.926836106314015
170,-0.6843990250985679,0.06761844916164046,0.5330751245349089,-0.5078241688769851,0.12033176763802478,4.0473575537184265
180,-0.6811756846638274,0.07901728442088161,0.5780638525609487,2.0915158909491933,-2.34711443083662,4.736033654302981
190,-0.8468170202304008,-0.0526172280026106,0.7500627153572561,22.15084108714231,-15.039581731794607,9.978140842814904
200,-0.7338901031411896,-0.06784679948822953,0.6957684700631946,34.10122692639741,-27.542392539310946,0.5209561324494703
210,-0.5972678093491401,-0.06769412666396125,0.622178311281593,27.820582502240374,-36.970947384955096,-9.798765644422204
220,-0.575301163074663,0.18688291739082213,0.5629045122937089,43.000015045370425,-41.494899894409464,-7.889041938406488
230,-0.5643729467455387,0.189101639671843,0.39923779464581977,31.788042040141068,-30.23578172512953,-1.9278377087389438
240,-0.5008723602806295,0.22179283595429355,0.40450173105381065,-7.673040258464629,-12.571735255811952,1.3270451192942767
250,-0.5895337804111536,0.19760339839785482,0.5337371631870456,-45.58242391130273,12.232843533521526,-7.0118797637340435
260,-0.6322210420094739,0.11768384453691216,0.5634366539600709,-47.600643736233906,13.550521668926926,-12.16699109165964
270,-0.5945265751611309,0.0696772296212839,0.5180012698313078,-46.702855831106945,18.30845272359482,-16.894426876441297
280,-0.5998192793626309,0.01111223927283457,0.5361291024276527,-48.93284498452939,20.65177684857609,-21.551626342105838
290,-0.650311424444208,0.026131925896031617,0.578783110493781,-45.86978586270137,13.436320553059641,-25.330279800228176
300,-0.8490799530504723,0.048477724799192407,0.6564418978379649,9.834401798283334,-10.13221682258408,-14.172885397783563
310,-0.6368623081598465,0.005856779243375045,0.5418440924249759,-2.392319851009532,-13.79877200244208,-8.180781900615605
320,-0.5866831202043545,-0.1110946327480731,0.6187020593207367,-11.379196410611208,-12.286278422500953,-9.946322987823876
330,-0.633365241071458,-0.01783835995792442,0.5436324968212701,-24.484107792779,-9.752737832893793,-10.291289353621128
340,-0.6190522370613848,-0.1574525246815622,0.4963428008879146,-12.872361353709914,-8.882964818974308,-15.973205242207547
350,-0.7284462855150937,0.16440032541366145,0.3688600210542933,34.31470894119351,-4.1493989335453865,-14.831385519521701
360,-0.6687485671998662,0.08374093796826311,0.3720124728223607,40.72529934394611,1.67053702074092,-18.301609434721474
370,-0.6078566735322388,0.034973009240943195,0.6070064597060328,9.687631616044406,17.893979235832038,-0.594961235820918
380,-0.6356736671185331,-0.010852404879382542,0.5731174043550904,11.014567975027076,17.414801869709056,-8.495458432371436
390,-0.7381070450921892,0.2936661803649855,0.4434201587180287,8.02937510042085,30.573708027698938,11.052591079883847
400,-0.635316319962175,0.253991710551824,0.4946180200289359,17.79519752190364,36.90487519018673,21.500706148625095
410,-0.6373807862349009,0.07266853504276395,0.5289586756066429,-23.220414687893797,17.049920091564694,14.889565032833492
420,-0.5135117314770783,-0.03785005377092837,0.7015202870397003,-2.070480868027368,14.341678252718292,20.699586520461985
430,-0.5829656745097204,-0.11232651232180157,0.6819750001360221,1.5713203830289937,4.046579588308936,10.019174530708467
440,-0.6738507471106139,-0.04311938684015882,0.5527238196355133,22.091315540930676,-4.807373707015965,-3.987226620329528
450,-0.6598176728545887,0.03075895093057828,0.5287668314732072,25.822636465232545,0.5612098616816226,4.3243554202893835
460,-0.6591683483085644,0.08359035953997743,0.5449672312060958,23.728222677008645,-0.0022770768202882152,6.0394350903376415
470,-0.6567885949481019,0.023608280633928377,0.5457358553865707,25.39746033514273,3.2422094541170434,11.261013362178195
480,-0.621146626267502,0.06472382751236005,0.5073903853657039,20.12681827760769,-2.0783267780589902,-1.1090828227279697
490,-0.673280312646936,0.2074995360581633,0.2676993701283017,23.20032234307316,-4.7900068871548145,-27.19512455450024
500,-0.7696851834419938,0.29182920012882796,0.419230956316417,23.50837313755686,4.332062962324713,-6.554381878031302
510,-0.6279831993363277,0.17236388440502526,0.5440670620757615,-3.4524930289338025,0.13090937908145994,-2.0306017544370762
520,-0.6447908995853229,0.1586458426337268,0.5707399364660931,-2.7016102949224483,-0.0007530124063936938,-5.183038882442219
530,-0.6412386959935236,0.20110433741177658,0.5634666145318478,4.5478494201802935,2.938803630688794,-6.759028818999023
540,-0.674323121446494,0.08450918859561062,0.5150386185185548,-3.067783377877737,3.1909012645084585,-8.911423962818663
550,-0.6464465700128533,0.1103372082102532,0.5515095241663812,-2.0466134677630614,0.5675270793913387,-11.460307141550576
560,-0.6712107550179149,0.0816671973574753,0.5213433043642619,-7.926006959170306,-1.0620181917342195,-9.92680883143863
570,-0.6717194649937476,0.08273353202649149,0.535927434340954,-0.13389825971855251,-1.6929604364147581,-6.305612633447591
580,-0.6762119563682755,0.033964181398337234,0.5128340828697054,-6.477079925240804,-1.5739508235974013,0.4813966788225055
590,-0.6424952280614249,0.0943000611537487,0.5555940179585632,0.6704299411363908,3.273829290047377,10.591705655330628
600,-0.6795380532401898,0.07445670520899081,0.5143489620933189,-0.518671118219094,2.4640698080882317,11.134705156196386
610,-0.6797002475722836,0.12187682028655487,0.5236998842563573,-3.4581110125308054,3.5913143330047546,6.944055700735363
620,-0.6602904934495172,0.1321385902812128,0.5477921084854042,-11.699641329365196,3.2604798172723433,0.03640031458806903
630,-0.6531709023072159,0.08444164849346256,0.5300393720404357,-20.90725730461684,0.7253728027540823,1.16728368636972
640,-0.6844200340863594,0.053218798321264305,0.5049486235596086,-13.634128066481715,2.475199030335741,10.323358528694856
650,-0.6368625601590467,0.11512030421869285,0.5499756167941102,-18.580917454812127,-1.8311462945969839,11.229979196804237
660,-0.6901627561027285,0.06322085769517535,0.4962870265706967,-11.21185632924314,-3.5076886370400766,12.009702514268426
670,-0.672788743985161,0.07112694743040855,0.519582636555759,-3.1883818473234675,-6.656201586011417,7.740127447840024
680,-0.6440478135286153,0.11036865792007103,0.5483675281275473,-3.533914226423527,-5.949921967911018,3.384226349334974
690,-0.6551372817724808,0.10007211299702827,0.5438813115113981,-0.8945809042335524,0.9203836947754604,3.3008698520550057
700,-0.6591448872230619,0.08687464568552603,0.5397392681218253,-14.334697703987697,-6.3873198707863015,-9.010398628901132
710,-0.6409981172005953,0.09410647839435017,0.5511741792872572,-10.576731693340454,-2.807383952884334,-5.823424130693086
720,-0.6559625996807871,0.06816528308813756,0.5322307190336187,-6.845427280414658,-4.398303075409562,-2.3095411787040305
730,-0.6641971618860977,0.06434369043089622,0.527846113040915,0.1824160050951893,-2.927832090425623,5.3627422045323705
740,-0.6158374431703624,0.12103984293319264,0.5736568278021388,0.6520980360105356,-1.9397134866977608,5.524839284210822
750,-0.6640338533990764,0.07815734915597786,0.5254413012865783,0.1894866736274579,-1.6717232514971776,4.426174992713275
760,-0.6356615215479973,0.10826126385483127,0.5630712037762667,0.6814301893265174,-0.7670847674444174,4.353609615254962
770,-0.6713652383779064,0.07177817769191852,0.5289068968955668,-2.77187259179991,-1.1710296979472439,2.8068007011767118
780,-0.6660832866173574,0.07342189240183204,0.53331557865129,-1.4306305529095082,0.11926266934266683,3.703171513729316
790,-0.6523112786415938,0.08780516488270398,0.5461515486152446,-1.0501170442076782,-2.2528503524576826,0.9920849298345769
800,-0.6469786262016678,0.09128263360019749,0.5487146447282477,1.422598144500663,-0.022416298203339402,1.5601449582510354
810,-0.6385539122906939,0.09983394281002955,0.555384559490451,-2.6878015456193713,-1.9816692928618653,-2.394943625177783
820,-0.6543536345207567,0.07921187762967738,0.5421879177370745,-2.2286120897135953,-1.327881606865318,-2.532244604196257
830,-0.6598366819988812,0.06936429356413099,0.5345796567231205,-0.5104279015580162,-1.4044682378061175,-2.1053255398074593
840,-0.65528556722373,0.07861414236900444,0.541107114031079,3.814588000408902,1.0611706591367587,1.3036497609479891
850,-0.6392518072231749,0.10237356319526719,0.555565842159283,3.414297798055149,-0.12281833148437687,0.030745435033050827
860,-0.6725908669975784,0.07211870504105292,0.520584379598923,4.551477535142199,2.6205760640208497,2.0316786369151423
870,-0.6302880883080768,0.11553278167704406,0.5648821546392461,1.407261953441963,1.500535439047134,0.9103470489103647
880,-0.6513330630053469,0.09638664727753946,0.544688637242075,0.6836254297710851,1.2332027809269746,0.6912161931783233
890,-0.658337137154506,0.08543330091913788,0.5432922060896948,-0.592881070496755,-0.2744393233209623,-1.3198839856184303
900,-0.6459009459915559,0.09339647052939291,0.5541826382772486,1.2564150065610176,0.525457035001714,-0.1490784942599216
910,-0.6451636348667964,0.09302821969515074,0.5497952317084961,-1.8723092391332727,-2.5549032914875998,-2.0349284466045816
920,-0.6517737441621223,0.0860715812968774,0.545031315368963,1.7352588047198843,1.690969290918737,2.843932214812464
930,-0.6408528722277536,0.09669445498935667,0.5560276616936213,0.9042040364718796,0.5843158072269151,2.1124940351522477
940,-0.6762434172109174,0.057556115504654115,0.5191043416017679,1.126655456913682,-0.3031874911687572,1.3675974770207506
950,-0.6385555633373907,0.09996555705958748,0.5585358725320593,6.035974838242266,3.587631917017495,4.61233901711733
960,-0.6499903554150087,0.09882701131992437,0.5502543903872192,2.3787340839516027,1.7918337873132837,1.764829615646094
970,-0.6418904266265947,0.10542889915030124,0.5566904954864075,-2.3086388121157695,-1.301377093688626,-1.4968610295532283
980,-0.6603046495907886,0.08542018808152707,0.5376013226609091,-0.305017332722316,-0.293949525743111,0.08891933884688845
990,-0.6568569957126864,0.0860629083336548,0.5425301037088248,0.5659245647933792,0.40257942431502186,0.9133518806819619
1000,-0.6271730645705441,0.1131513077956518,0.5669537096033829,0.027631671575803596,1.1158576079465643,1.6573476111121712
1010,-0.6605138342583935,0.08259016403631861,0.5306682047220502,-0.7668121676503051,-0.12624248614324518,0.9185905042141351
1020,-0.6408564127881717,0.10536523811785303,0.5536992159561388,-3.408337873710209,-3.337240327709051,-2.387915213036477
1030,-0.6384090490852661,0.10535662731415207,0.5566389904519324,-0.6253488423651787,-0.3282579413816294,0.4937159799040314
1040,-0.6370621673003262,0.10694940048367596,0.5599807634948497,-2.7729319452631658,-2.3677471794019187,-1.519217982855983
1050,-0.6436654985923199,0.10527958695596953,0.5544960703957723,-1.7015147698854254,-0.6238017827035045,0.09870288332150075
1060,-0.6511846245336608,0.09545321792559594,0.5445618667183758,-1.3474638049966976,0.5977561056200323,0.9681742939893061
1070,-0.6517817163485544,0.08711649442043878,0.5420115978873525,0.5671893105097391,1.1565646742539615,1.4774004776829124
1080,-0.6599442239111439,0.08061541915865911,0.5315618976228571,-3.4870896917643996,-2.83244160038924,-2.6922946375306784
1090,-0.6705063324786276,0.07357084035679406,0.5232071084802257,-1.1204296841658317,0.2397596099362705,-0.08428690893945594
1100,-0.6307769516801857,0.11256668197331424,0.5629255865975622,0.8405369486982482,1.2487843087610768,0.8392194037111398
1110,-0.6774885405741512,0.07058581422628801,0.5150582880607425,0.9949004187979419,1.5866219376176833,1.2215568585686216
1120,-0.6483415123946051,0.09911230270321827,0.5488331542927839,-0.5385788615854941,-0.3765219521958038,-0.6840642108081313
1130,-0.6700403629185947,0.07357304628813865,0.52611184301101,-0.46057785773670845,-0.2688271391840978,-0.2626305056644942
1140,-0.6587160399128248,0.0830706570839036,0.5369856426372515,-0.29803089460045173,0.9957400681184837,0.4599963367961334
1150,-0.6502106823826189,0.08863454608005518,0.549368566975828,-2.57540867242004,0.6970076837971416,-0.1628612501369362
1160,-0.6651168707343686,0.07479016246902959,0.5348177683147917,0.4140943524724212,2.2541855905797035,1.8425761051183527
1170,-0.6322868012281747,0.10707391030989068,0.5627084299524033,-0.24141297853811383,-1.166956808506965,-0.6933744316493324
1180,-0.644404422113839,0.09920189172442903,0.5534396637002641,1.7466440354111161,0.6832787192835752,1.4101366707784044
1190,-0.6435582241630302,0.10029525809576952,0.5562899549847767,-1.075535272578478,-2.0631312695378146,-1.6308519076909547
1200,-0.6812249777882666,0.06006392826101121,0.5163238891999022,1.9947776646871136,1.1448445876711513,0.8387164249074625
1210,-0.6562975924368704,0.08589884715050454,0.5395981749397231,-1.247016107650309,-0.27227472602397285,-1.1049613616118505
1220,-0.6390705419150328,0.09808744729778708,0.556642285178205,-2.166444264431594,-1.1887089434904514,-2.039636059879764
1230,-0.6395400392002679,0.09872931918148582,0.5584657098895033,3.3227905633330517,3.133268769963065,2.9718313911807854
1240,-0.6550659308589781,0.08896870549606434,0.5395591813506256,3.3306424488104787,2.3672475343788517,2.743978824314081
1250,-0.6500587874263706,0.09118025522823456,0.5456839967690498,-1.139211286157662,-0.16047402261207677,0.3870341051373516
1260,-0.6488816343042493,0.08735910583239404,0.5485142706830817,-2.2476593474135718,-1.2193012845322964,-0.4534340383920833
1270,-0.6542847307268524,0.08773506323351386,0.5384622298964253,-0.24133392800643852,-0.16330616896166403,0.2715933166176753
1280,-0.6583332239241907,0.0832819315638058,0.5369971794533134,1.0204216422431798,1.3428219049689574,1.1016866987477496
1290,-0.6559923032082192,0.08812440649800987,0.5423451759382635,0.6547658897903217,1.3575534878588507,0.9581601747768036
1300,-0.6617446917138263,0.07994390903977387,0.536691008521472,-0.08993795529502935,0.7013642520107467,0.23929638403734488
1310,-0.6400532770130588,0.09650939381553011,0.5555736661847598,-1.917715375867564,-2.1682543174034854,-2.0804969335079173
1320,-0.6823544842973981,0.05889950757601606,0.5127041707886858,0.48559172074280976,-1.4660635753084206,-1.1810515991323156
1330,-0.6407684251130569,0.1061157997278918,0.5515860931023993,1.010015966712852,0.2569216606421756,-0.1239732132023087
1340,-0.6607907401580823,0.08594094828978374,0.5382012853820691,-1.9565830605469559,-1.0881835301534988,-1.75000677772801
1350,-0.6547065820743126,0.08460501553565886,0.5455283747544913,0.3683233241747892,1.6622721849762312,1.068433322445271
1360,-0.6470331134924574,0.10122179716599718,0.5573218090354475,-2.4402899880200692,-1.4126472541541144,-1.0396480131968697
1370,-0.667265981042372,0.07248058693752096,0.5335279084941853,1.1873851177083368,2.3863399363750224,2.95481975057672
1380,-0.6554611281770313,0.08306493284931185,0.5373867832766699,-0.18731025232540433,-0.6807086809298779,-0.591359741906645
1390,-0.6512425273217123,0.09148352871150882,0.5454982631925316,0.061400899357924255,-0.6385227152068299,-0.5787458324234003
1400,-0.6420125829450034,0.09918329261901104,0.5565334215286778,-3.520838282451593,-2.403402712607077,-2.696236709744672
1410,-0.659467611557479,0.08276055058224802,0.5337990706140296,-1.8869320342761235,-1.1314220294472412,-1.3800732463639962
1420,-0.6369453249537144,0.10559578902757122,0.5598097305363284,-1.7071887940797477,-1.8266408949570898,-1.8168895754540635
1430,-0.6414126821277335,0.09966288735082632,0.5500328870948612,-0.2635033004579248,0.22319407817205233,0.4612232852007749
1440,-0.6557987612492837,0.08287415621513426,0.5368096834940504,-1.5427477771333946,-1.90294095946064,-1.4301625838306742
1450,-0.6255463365979426,0.11970535816157521,0.5704138299752668,-1.4000887179012556,-2.380112065359799,-1.8741147865918157
1460,-0.6559013073488265,0.08902883822628488,0.5448284035316331,-0.3420129055605363,-2.026809239071965,-2.2096186025229323
1470,-0.6763152055983059,0.06214708924091315,0.5129998373719381,3.1697261560821968,1.6521445452174852,1.3319744692402573
1480,-0.6319470415164078,0.10896303282975946,0.5614798482660188,2.640720837638901,2.7565646878779915,2.480095934083758
1490,-0.6715931184903139,0.0786966176416306,0.5234022574609359,-4.56335006764133,0.8576807811139859,0.5376791252697521
1500,-0.6441596957018412,0.10591819215351678,0.5548275446099084,-1.8467875515865995,-0.8195650743128257,-0.4453357474206615
1510,-0.6688602028993529,0.08242429327074191,0.5260960206516948,-0.40561380283766946,1.3897362845280454,1.6313824641962564
1520,-0.6351013553999071,0.10373186605703198,0.5599189520692246,-3.818890727809644,-1.7138637490333841,-2.0800130233464293
1530,-0.6602698453401085,0.07579066816973427,0.5342137658391591,0.5656076291524647,1.2613044576309298,0.6709496447693738
1540,-0.6319726540128936,0.11257047097793024,0.5707260855512323,-0.6450454133535584,-0.08555316497227111,-0.8565555104483206
1550,-0.6648484490940629,0.0737483319148339,0.532897296163629,1.1660452972037305,1.6402323861299852,1.0345742963764386
1560,-0.6696273799592637,0.07891289656434436,0.5299320600584355,1.3574610961835618,0.5167216515157261,1.6150343784001895
1570,-0.6408739100097359,0.10643523664949503,0.5581261026651446,0.5147051272673265,0.6987686883697922,1.386982071283225
1580,-0.638868301368894,0.1074231334532419,0.557640755450938,0.12920719213548582,-0.14851338521617552,0.05172070301967123
1590,-0.6580044212495779,0.08671417024072364,0.538034811134593,2.3678481080949463,1.3469177947702113,1.192692675069276
1600,-0.6978736795979728,0.05172654807086086,0.5017392303892172,-1.9454497270305438,-2.4326990461027735,-2.7188303957582107
1610,-0.6563570314911376,0.08661502492373056,0.540678068961362,-1.8842400949635474,-0.20676571187734546,-0.3891138633620794
1620,-0.6704545685269288,0.07014349067908639,0.5286874427123418,1.0698501908978644,1.4970245615137283,1.7192350125831855
1630,-0.6721538391342994,0.06933471786623518,0.522670223446418,0.910420596191944,-0.25799772316748565,-0.17463342295561674
1640,-0.6426536853988164,0.09642247838434786,0.5550310198975716,-0.5947082997063153,-1.5607556387981039,-2.0800947354196904
1650,-0.6556749070840828,0.08513975290667708,0.5373149671157083,1.5423453896042385,0.058078923528171233,-0.2278849737740117
1660,-0.6274868962176647,0.11675024360657077,0.5733369443493789,0.8784185178621097,-0.24732212497272316,-0.339986469752235
1670,-0.6610837183141846,0.08355149301176129,0.5394815334942304,2.518455331960073,1.843488100646923,1.874721682950974
1680,-0.6387019761231603,0.10472875498745825,0.5564802055604063,-0.9274932727484908,0.22699482149033595,-0.19313976281884027
1690,-0.6325753549670534,0.11185055095292841,0.5599792626661384,-0.16921250031672952,1.2275412879488306,0.8852411891085779
1700,-0.6760052950836086,0.06637111165561625,0.517419947082659,-0.7305490416612478,-0.025309291159732503,-0.2802750732786833
1710,-0.6218739718969203,0.12266476473328225,0.5718189578464877,0.9878786262786373,1.6563166565457117,1.7530541081268802
1720,-0.6399913638406072,0.0909544936522795,0.5571553121693462,-2.8867858995023443,-1.4740385835449783,-1.6803990094372467
1730,-0.6585196649745559,0.08725906460585771,0.5410265382343484,-3.736997810772378,-2.128868585182243,-1.8308270134869649
1740,-0.6355244592372516,0.10358463347574628,0.5626585567765234,-1.8731824745799828,0.6479878749854536,0.11064313649818175
1750,-0.664256099042991,0.08094749229767395,0.535225377057508,-0.17890510628533507,-0.9385954429180087,-0.8548745472053456
1760,-0.6390334864895634,0.10999022467436997,0.560597478293742,1.9326662472000251,0.02924934212326824,0.9174283188205834
1770,-0.6432437191977929,0.10130992893484198,0.5518767360408153,-0.9386128076667993,-0.10657602935563443,0.0529772820809149
1780,-0.657283363090279,0.08745328532561986,0.5387054829590091,-0.9417070484782084,0.5234948006161873,-0.11325727566794896
1790,-0.6597007650368971,0.07775771529414462,0.5354016620649414,-3.1628499954999576,-2.4715014088330123,-3.1004204134154474
1800,-0.6405174747951157,0.10423947584996587,0.5561475284036772,1.1483874801149048,1.1614041397312362,0.8842362078202994
1810,-0.6418753049228435,0.10110624112852407,0.5582376256402015,0.7153596481080473,0.6709413951518607,-0.03503766436446132
1820,-0.6344342958698892,0.10698459274391257,0.5571871659549515,-1.59081714337995,-1.1928003207556745,-1.2874879297501225
1830,-0.6659187003590598,0.07611692898465934,0.532778193496127,-1.9424872811809646,-1.619362030147753,-1.4128663539695592
1840,-0.6412806333668514,0.10273993359870129,0.5563265047088044,-0.8612498430014408,0.20748958290336625,-0.2460142906487614
1850,-0.6635769115905685,0.07524949074587262,0.5338930462845568,-0.9831558691476084,-0.513909158998984,-0.5459582166265368
1860,-0.6722773656796461,0.06278309368809326,0.5195620049756194,5.248260021345254,2.773534613206345,3.2248876096682126
1870,-0.652783562364112,0.0880825819394117,0.5447350137266587,1.2762205443689685,0.759347408029277,1.1624903035697844
1880,-0.6614612283411834,0.08464453971137281,0.538226743336908,0.8424677451654983,0.49587845808462916,0.9106802321377289
1890,-0.6556190044853208,0.08315396332775192,0.5443895939844403,-2.9534235391414314,-3.016427904856165,-2.550638269443712
