time_ms,ax,ay,az,gx,gy,gz
0,-0.8294714296831189,0.21472599113347632,0.42318777375464883,0.25786949834375966,0.04349779010021798,0.5386900864114172
10,-0.8707957865044854,0.18022096675155025,0.37532269328868517,-0.6140897564218923,-1.7501158043186045,-0.8716015305984289
20,-0.8853204889365446,0.17151754504188527,0.3648133067456733,0.5347399824204692,0.38813196233677016,0.3613688130556098
30,-0.8656505519566947,0.18583002182912103,0.3795969898014668,1.9793543112232894,1.8499251388816154,1.2062715500339034
40,-0.8909248765567981,0.1594408493307949,0.35455787460866933,-0.8809421043128189,-1.1028712129950533,-1.4213527895816371
50,-0.885091883294254,0.1635621204968849,0.35965972171868443,-0.3322935039115172,-0.5509847025536261,-0.3389658681480278
60,-0.8828166961633693,0.16329904786173907,0.3605859151738474,0.919447869194068,1.2623561182673544,1.518808038970285
70,-0.8598632944367832,0.18959763086206916,0.3862649800918055,-0.08630767892711444,1.4210866229191126,1.4408948824179408
80,-0.885709216488992,0.17119044158195498,0.36434477700498064,-3.439724578222911,-1.5932748733731092,-1.7164795514577673
90,-0.883963426451705,0.17414068513567368,0.36761059765530973,-0.14556504885101723,0.20163744752820612,-0.27145060843887736
100,-0.8611033045630618,0.19644700752058442,0.3918898821231313,-1.4302363800072286,-0.8294840510423975,-1.4118793673194798
110,-0.8797781632109227,0.16921989141860277,0.36397521067760397,1.0183344258198295,0.9437322037943818,0.49858685242736583
120,-0.8986530668420274,0.15779382072039108,0.35008902960719124,0.6661655856660105,0.46394367623087507,0.31131803049810214
130,-0.8577231226572587,0.19325758760151526,0.3955365639582523,0.691520425889111,0.8904454153202002,0.7591987771787881
140,-0.8829820882811084,0.16982789841828927,0.3696603993893886,0.06269436121165808,0.025952501684209622,-0.09367419760667664
150,-0.8775517874357317,0.17901856042138525,0.376363804664193,-0.8359756084924828,-0.7136812382574673,-1.3074080415906804
160,-0.8760066092493857,0.18221752335721136,0.38468066949601726,2.0012756800679803,2.552568939853262,2.4614851708481655
170,-0.8867721236669469,0.17488080850362628,0.3797682493895362,0.3946997444378925,0.21139487974143212,1.6975265964494128
180,-0.8925787339155099,0.17574020001402174,0.3756140643071656,3.079400510499222,-0.7494280021553806,2.9015454880024185
190,-0.8908433178447678,0.18366618880331356,0.39801309272324004,3.5785706309941467,-3.1847623704358194,2.922896102521773
200,-0.8678039299453687,0.2090457063316628,0.4821494997429017,-4.120765326351325,-4.08519479985216,2.985298414100593
210,-0.8604370594361308,0.18286509099476048,0.4438772733389153,-0.9084328606498462,-8.151707233596671,5.863914038785205
220,-0.857861602130597,0.2215829368364535,0.5679521235949969,-24.129635924406728,-15.350344872735775,-6.749238932927665
230,-0.9113026771943046,0.14206992809336555,0.5454440701279092,-16.762249613300845,-47.44465156032549,-7.6167647220654064
240,-0.8377332403605668,0.20071069381361986,0.40343224046903564,-38.776840638173844,-52.38922400430234,-16.015275312122775
250,-0.7857781189416475,0.28141285794181975,0.28574738431716756,-38.059730037605924,-40.18673924725256,-14.699623874950813
260,-0.7516565851436332,0.327834083525203,0.2727793246058252,-39.783873966076825,-30.955637100988966,-14.183821159478638
270,-0.7384639967870009,0.3310094827658431,0.29231975790499665,-44.77444829280848,-19.659921498008025,-8.796553142443678
280,-0.7472328941720252,0.29937596656900617,0.3215454177234252,-51.30403227252601,-10.24229239782406,-3.62024375652083
290,-0.7484924322079175,0.2511034253262668,0.4094912077502835,-60.00480393092791,-5.581001149284332,-0.8364040815704866
300,-0.8211968269110629,0.10942447427552242,0.38522459282273613,-70.56809698940981,-6.389207011206363,-0.022187172953578083
310,-0.7694493283446554,0.08079807028152317,0.29751820785334193,-66.45777267339982,0.4836808911291186,1.361441977987151
320,-0.7904577635562231,0.020572772694100107,0.4259500582666947,-62.50391648328758,5.305023954492706,1.1514123111191648
330,-0.8746668989172276,0.07758069976037667,0.4392866202603458,-68.98062292119072,0.7720089838462378,-4.222333476515651
340,-1.0653481363524169,-0.06129509242002995,0.5912346099203265,-76.3577646434649,-7.277252851865784,-2.3167441390344328
350,-0.9223605889173042,-0.04237309688068405,0.4908272136033918,-55.770400402997076,-16.40653164110951,0.23319907228301906
360,-0.8896083286076297,-0.08640792449622703,0.2911868165750975,-18.515391727079137,-15.55954861507173,-1.7572419379439994
370,-0.8522924214347473,-0.16085321209165496,0.27536493855621486,-7.260459409814702,-20.607541012494135,-11.259443378202336
380,-0.8165394939004564,-0.16373150409032106,0.4702369589107205,-15.849970448171993,-17.915656326517624,-13.582547265699763
390,-0.8606162599145722,-0.2369032270071619,0.6386364895146288,-28.35568799490836,-12.45715277454814,-21.459357813651945
400,-0.8876147381585294,-0.5265116116759766,0.6135437279681135,-29.996438147226073,-13.519611677567813,-38.499772815751314
410,-0.8913396758343519,-0.590996638931681,0.5139807431568229,-16.943682324464753,-8.682068543964922,-40.153658436851714
420,-1.0554154527988298,0.10102242157739835,0.10960083371834761,-5.607611771019185,-4.016513582954794,-35.19439201490933
430,-1.0038245083003783,0.3466205733122836,0.8187896583082932,38.55108509094659,7.17005926432875,-20.96803318568096
440,-0.6575077472941171,0.03564196644528382,-0.07454544203305466,15.906845584566518,20.05752376661512,-20.098162580525766
450,-0.8438290710476452,0.20993779392035358,0.13760739630512317,39.90989094241291,23.570014607435237,-2.0144218906280735
460,-0.8707442014713549,0.09685417296590815,0.6762316756684675,44.426526189543544,23.83781732903045,-1.3846873664770971
470,-1.0563995171539458,-0.11483043543713654,0.3443273379578352,59.761459418601184,29.192999702499442,10.314723212774503
480,-1.1494475728097846,0.16170972409015016,0.5439308070980372,102.43496475195283,45.214456355556806,51.01279865436945
490,-0.9009415553522077,0.4265047744005923,1.1594670074117124,86.64633851513307,57.152998562735604,78.05747726789411
500,-0.7842782027757083,0.11664484564009041,0.9838617821775436,6.419516508727332,46.99646539934286,58.87918040160652
510,-0.8456533247677024,0.18483985735723385,0.7660649245935897,4.846344272426741,34.58110581989438,46.3412976087114
520,-0.5058769477825252,0.49103371900001375,0.3744146707653562,18.827294483211386,37.5554541793641,67.07937698748069
530,-0.7245019734614856,0.1872784062101791,0.5940937366650572,-8.709790684813854,43.62661984202491,62.97563897629772
540,-1.1109462086576025,0.10978850681839,0.6308028554320678,-32.76696657782184,28.29802523057581,28.920156019867214
550,-0.7614038088264037,0.07695546901847594,0.3157976392145863,-5.988920441923563,24.126814738652584,33.331714856957525
560,-0.8556603413218037,-0.039709857848161,0.3368974887729121,3.760705108541175,5.5117777190611745,-3.2619999777364326
570,-0.8759558190135653,0.10890872644248631,0.37016619534825634,13.121008314421523,0.5474231379459077,-4.7984785518235515
580,-0.8699646351734485,0.157001317503222,0.3567063589334172,18.395287470071615,0.012118025297658153,6.709054615022784
590,-0.8918376847981417,0.11980927829375204,0.3454130899851413,17.588147648388123,-1.6816958309752326,12.057959137555912
600,-0.870817283361872,0.16005996009751206,0.3787209099293401,24.211339041669245,3.2346171446147327,20.215975830503293
610,-0.8965181461953363,0.05814952001215814,0.3878993660999293,32.48525291425487,6.789451356493886,21.858016864101227
620,-0.9271461335339497,-0.24772762996794725,0.46550703321637543,30.91180419972273,-5.861963939130373,-9.220857216864133
630,-0.960602546868118,-0.6089815637222851,0.5420467503766414,59.680736229148955,-35.32526595900068,-85.63181864842102
640,-0.6309511465772194,0.40733653082059323,0.41128837786704414,30.59066338565173,-32.536952506865454,-89.18368486608432
650,-1.0758477718910229,0.2679644270732422,0.5773869619557858,26.052362379693154,-16.07151723641918,-45.96089363973505
660,-0.959075566832633,0.02547150999881044,0.3007578528847359,14.31824056696167,-11.96806907357109,-30.133739375944838
670,-0.8011533971081105,0.5757112322593015,0.4054118361522593,18.65969270406926,-11.381935562081916,-9.08698166874339
680,-0.766555902843246,0.8304982192567936,0.4391359214235274,19.97336202448535,-6.484169799285787,11.291877034815908
690,-0.81356317770311,0.5815030365645623,0.3885033280656839,1.3731003629171719,-1.666675814260612,-0.19702695213096777
700,-0.883295091330305,0.25867781778422705,0.33761244237871374,-15.91531838783326,0.02481945751472142,-21.665406894294726
710,-0.8844789165082363,0.1797852828884167,0.3466389513605086,-19.602340345972443,-1.649159684851764,-27.308446374730558
720,-0.8992956364810587,0.15391414110689583,0.3471117365987543,-20.643811636856352,-0.9004669655145954,-25.5392667192128
730,-0.8765546755943716,0.13660275584909443,0.3723303734045488,-18.58950888687636,-1.0755141922665552,-19.681333338478556
740,-0.8754163765829992,0.13458144722590448,0.3685993482435087,-11.24367038650083,-0.05466778761293356,-8.664397363081648
750,-0.8675559296990752,0.13393260659751313,0.38211815635314583,-9.543925157020984,-1.655169804405391,-1.057139620639901
760,-0.8736763828266314,0.19028292312943326,0.36839745653912986,-3.7964885264829578,-4.737570251064611,1.3322330051068976
770,-0.8561928607145937,0.19786106761459182,0.39206897855164413,-3.7337762671733845,-3.423629066671435,-0.3299124103232014
780,-0.8834256734378405,0.16829458222661314,0.36663567912917705,-2.9969427385277987,0.009371147613445707,-1.2536803051465948
790,-0.8608359632119611,0.18351934064825667,0.3882919865692893,-7.515100602227369,-2.894783162704903,-7.102471838069354
800,-0.8526196229966367,0.1768183345307319,0.3965542067774826,-3.9409244543391804,0.47488419118558156,-4.096769373481846
810,-0.8536343771036929,0.16702238981988235,0.39396855101743833,-4.128326203008536,-1.6146929831527945,-4.04669622429753
820,-0.8520520222776454,0.17467362592679472,0.3931381449677263,-1.226545622051772,-1.3790452553569463,-0.31975340427865195
830,-0.8491760628220795,0.19467348734092965,0.39909617947713016,2.215894093389429,0.543606263409429,4.364566502663402
840,-0.839811495786987,0.20757945185991514,0.41024124887019825,-0.2632126845965579,1.123728906312711,3.783833109089387
850,-0.8693794373405499,0.17934027305518943,0.37925661996577886,-3.8489974223301298,-0.44738236889620436,0.4302672587724543
860,-0.8600761978055919,0.1805835890714648,0.38969580132562887,-3.1523404918136797,0.279027452646922,0.5454772272342161
870,-0.8761108263564332,0.15753582522551368,0.3780937238754121,-2.1335077492879413,-2.5810174679123636,-1.6952758199087166
880,-0.8745791614709808,0.16666406102008163,0.3800940125903458,3.107909979291665,1.9914611071173245,2.8280292507765985
890,-0.8478138475898118,0.19296371431197692,0.4016183451583916,1.0919963441775016,0.466599812414667,0.19316617410562142
900,-0.8525514176177705,0.18152221600195065,0.39659882876828256,-0.9142801063553472,-1.5810064046267622,-2.029978500521641
910,-0.883607807582849,0.1467842593050058,0.368812181562301,2.758945977895303,1.770266511493412,2.37070895870198
920,-0.8781528574271279,0.15702089987105058,0.37281265954912063,0.3164736518388216,-0.9846322511379068,0.7722286754213485
930,-0.8639702213233018,0.17820534720023049,0.3810556054873373,2.459228576881202,0.05462007206700967,2.3333556805224784
940,-0.8704636271214502,0.16773721931593774,0.3740696632368081,5.642086490597715,1.2641828757588975,3.287503448703591
950,-0.8704897214127723,0.17366608337434147,0.38706049148962096,4.793261303545799,1.0416288395299182,2.3354066135914913
960,-0.8691637054000344,0.1848046193164412,0.3882609492577484,3.3192603769075495,3.2017273276682157,1.9581518412742522
970,-0.8894448212163047,0.15584301622574578,0.3620714110244983,2.6341382902044614,2.958531547545711,2.1926159207336187
980,-0.8715047510222855,0.1137539096024793,0.3622916730584392,-3.284425820778959,1.4912823148576657,0.20259311250754242
990,-0.8853691285519184,0.1302934428713903,0.3568765358254865,-0.8131203079476554,0.7855273055890295,0.7201602807067375
1000,-0.889789610621855,0.15236527128358482,0.36192641422501587,-2.7988186899600898,-2.5805893573038903,-2.1526657830158955
1010,-0.855182370273458,0.18696905730509342,0.3973502855436175,2.1801662045167487,2.8060149563833727,3.1642869943870706
1020,-0.8994408078283543,0.13667682025671446,0.35068887679068156,-3.844287825865546,-4.199519211826249,-3.3344875151486426
1030,-0.881943488181026,0.15385013482117674,0.36853900431961584,0.622129689942786,-1.1159110222876223,0.20631884516905774
1040,-0.8480298156156019,0.19458070382132003,0.4072998248037574,3.1527595637139223,2.008429253071484,2.4511063205488948
1050,-0.8924915516538551,0.1490146350740883,0.3664298352879069,0.3551718969292579,1.1434502424226314,0.3498676456002494
1060,-0.8673332496797072,0.17289011836083656,0.38117903474251214,-0.3979466785384249,0.9062566390597802,-0.2613387070841229
1070,-0.86051467638538,0.1816639323018972,0.3933452555735243,-2.392485302941462,-0.14442952787806496,-1.4694439133949544
1080,-0.853038156686345,0.18852684027122696,0.39355410460509366,0.7225749411066789,2.6391351602357798,1.5856283097285626
1090,-0.8819267095987365,0.1570680132608015,0.368980360298901,2.2399563417377473,1.6049187566261958,2.6742617987413233
1100,-0.8735111463937666,0.17811423811720123,0.3808720431270384,1.0753462022962008,1.723575291250523,2.4393128683195267
1110,-0.8731984724237711,0.17777328296977452,0.3808340159619371,0.5453278774190602,1.9682369157604471,2.065547990511008
1120,-0.8725075442243028,0.17302953283704997,0.3802730231284156,-0.7626528307504163,1.290021137818997,0.7495085754159121
1130,-0.906831749247042,0.13622374797155767,0.3441085162216506,0.7270116387653713,3.700038786081623,2.3356407418576506
1140,-0.876620458074175,0.1623440529269838,0.37296359180774696,-3.5176798163679526,-0.7700685999710288,-2.2982896125554717
1150,-0.8774553328208865,0.16211742575393576,0.37441196705543534,-0.8946926913077808,1.516452966301138,0.4736124010168521
1160,-0.8595580887516916,0.16696595369088627,0.3903130954552452,-0.05236998216842925,1.0113728989063269,1.1365350745751897
1170,-0.879774750039119,0.1602133393952392,0.37715191192782055,1.631350588908107,1.5049414216719277,1.268887413026608
1180,-0.8721895353512593,0.16725387017415777,0.38096405607265443,-0.1638902657330299,-0.6363234238032812,-1.4257956803290468
1190,-0.8883267246564307,0.1515226935885781,0.36555501086934344,0.3997664408891632,0.7527043402579568,-0.6489619715466299
1200,-0.8619095555623408,0.17296221158380107,0.3941628487850847,2.214923767387707,3.1939234036936197,1.8238380934334666
1210,-0.8655500775451025,0.1700527526512043,0.3866213968337096,-0.3731743994749288,0.8195889705491225,0.04851839508304767
1220,-0.885900354523175,0.1544666975097329,0.36600543492692655,-3.271285265882565,-0.5292697464721985,-0.9911432983488047
1230,-0.8663835916562246,0.17523005531681765,0.3907684044643024,-6.732978297199871,-2.4044945768640753,-3.3353871375907405
1240,-0.8882242363787108,0.14877009334190336,0.3679648672957613,-1.8177408901667924,2.114917954988118,0.8730633909125769
1250,-0.8636855030809946,0.16874168666149827,0.3853891400746749,-2.559358698679669,-0.028919658011201388,-0.6485816761444856
1260,-0.854701129489589,0.17974745641817202,0.40192872873982416,-0.8169517733312961,1.3760555733058484,0.9484587305898393
1270,-0.8899900364390492,0.1456113264176277,0.3687113336159999,-3.0331081235372253,-1.3901236491539595,-1.7377250882327837
1280,-0.8957452449380321,0.14071602528366361,0.35723939814989,-1.7885057635061723,-0.8042407125293864,-0.6879099394752273
1290,-0.8433403608474509,0.1865341774341429,0.4111487886413966,-0.05135585485502214,1.0913061445175396,0.36565161225367004
1300,-0.874399088711301,0.15930439708116792,0.38033210297842795,-0.45301613069437174,0.8243689683831611,-0.2664085915132016
1310,-0.8741418254429044,0.15851828671396365,0.37863428539589905,-2.2560669118446857,-1.1299534370558448,-2.0751285497303753
1320,-0.8817347412442913,0.14803094521382337,0.36705509761374444,-1.9664015663712306,-1.1584177045800266,-1.3866711161328757
1330,-0.8671541597318201,0.1667106308259698,0.3861787495956123,-2.2867705053283918,-1.83244775668989,-1.3741936401839097
1340,-0.9023666496180186,0.13270939723502848,0.35526449471592536,0.7520964348910751,1.3116185981298325,1.956376631527031
1350,-0.878051456571341,0.1499397014743398,0.37265704399250643,0.47202091637529553,1.2151386152335315,1.4663956365567588
1360,-0.8822387075240474,0.14656415299486042,0.3645646686373059,-0.9113787036047525,-0.6270976323903878,-1.1693648791995204
1370,-0.8785587275615142,0.1570740479929464,0.37855158630024,0.1274791338545671,1.1385853590318034,0.11664473744221071
1380,-0.864400308498815,0.16710574178277904,0.3959432610461762,-2.038787772477069,-0.708585157107386,-1.374479034442036
1390,-0.8656681154146786,0.1663930130507615,0.3865524585070081,-2.251318130402084,-0.7862053641078777,-1.136971184745571
1400,-0.8472303178357335,0.19123547852021638,0.40527090962560736,-2.543005263972632,-0.6586297947870894,-0.8049544558256584
1410,-0.8861291820253289,0.1476495885762556,0.3712597291636015,0.20968439423570961,2.0604870589206805,2.049361978848958
1420,-0.8935410358245979,0.13490305887947554,0.3649859177401695,0.7255041125552932,1.00730894766561,0.7342537700300957
1430,-0.8693294551115187,0.15563054339117863,0.3864152273350637,-0.7527541392975701,-0.861782212897944,-1.6132851310056464
1440,-0.8681347380887373,0.15674519535659512,0.38327372780762164,0.3995712498874324,0.8395793858551546,-0.1453872085213216
1450,-0.9063043595685059,0.1210285028164265,0.343926651561965,1.0806648381415243,1.386524480059476,0.7347576418566902
1460,-0.8446244917698953,0.18508468521272756,0.4071280689202237,-1.83050154276757,-2.0692171817762697,-1.952922247067193
1470,-0.8895461977184539,0.14135009597197157,0.36005995877188446,1.1095009866614478,1.165472886950006,1.883302939768459
1480,-0.8849360494743342,0.14067225663319752,0.3710120333501594,-1.700021921723419,-1.021633501669835,-0.5024874447571138
1490,-0.8615176037596445,0.1627179043061456,0.3969927202947379,-0.554105605403552,0.7234574687362418,0.49091029670952363
1500,-0.896288675337432,0.12805483292154804,0.3546124864262815,4.409136044536426,3.2791321718092847,4.198786434093948
1510,-0.8644858609218395,0.16143292380517615,0.3815465063350458,1.4508556315147623,0.2438820450052928,0.9008029452978468
1520,-0.8677269303499838,0.16058919878703484,0.38255313696642973,-1.5554734023070909,-2.0053942489860344,-1.926371189831187
1530,-0.893273020358542,0.13954204850009133,0.3616481449469918,-0.5121777234929358,-0.24270766653486284,-0.5720754523157382
1540,-0.8763942846880809,0.15993095637611784,0.3760211999855025,2.1216721578590074,2.4222736150972946,1.9295276813010904
1550,-0.875099087028514,0.16287078263275306,0.378856952408936,-1.7956215815785115,-1.9304309751642428,-2.136187096813954
1560,-0.8679965726836056,0.16452383419681832,0.3928684722158307,5.929347945901712,2.8095385274216693,3.5998975482974376
1570,-0.8479917574279545,0.17397740267741185,0.4102074943808626,5.05889873264964,-1.7507198511416409,-0.40998386969070344
1580,-0.8964423644208132,0.13276217956349315,0.35777271136662264,0.45510329602372285,-0.2544231091588038,-0.8387114417675562
1590,-0.8480960761254895,0.18030545426685143,0.4153002860160342,1.6221355734391736,0.47243483645934514,0.41530936638607674
1600,-0.8636955432149531,0.16470718810715157,0.3911942722717558,2.2054364690179287,0.17841676389700323,0.614101530145061
1610,-0.8616625309849834,0.16932002236073848,0.39266321907353247,5.006580150288751,2.3976482862079456,2.997887674810173
1620,-0.8996925107877694,0.13446389764233804,0.35460546389632974,0.26551138935059715,0.464805559162814,-0.12691592286841558
1630,-0.8969203993203986,0.13277749116170007,0.3563349375448948,-0.6966373313865217,0.22494635147547207,-0.2950528997630756
1640,-0.8643232521390942,0.16659569360410822,0.3923043379361298,0.9041675298682561,1.365165529437044,1.486987571428695
1650,-0.888035238155127,0.1411301770982201,0.36874310075597827,-2.289646253270169,-2.173921205108556,-1.7947348838297277
1660,-0.883775057823909,0.14457783468464797,0.37245112310342476,1.7550370981202652,0.9292579045298086,1.5358812242987228
1670,-0.895274708582098,0.14095390697237214,0.36009216436350977,1.872487195746722,-0.22728555665254102,0.5905291286322747
1680,-0.8733041562279908,0.16325703455841167,0.371485525081469,0.7140929916309693,-0.4538723669816266,-0.4455912889033915
1690,-0.8749813481568325,0.15095412073951667,0.3743805780918673,-1.3364120126934806,0.07741862889966614,-0.6553863520705002
1700,-0.8608073388755735,0.16591804478934205,0.40095298234099624,0.5725561413756494,0.2949819237392063,1.0420553567702902
1710,-0.9063310328276817,0.12874053355849635,0.3489339300116005,-0.2182215314867868,-2.228268361187705,-0.6370876480160881
1720,-0.8941019447397465,0.13672790772410937,0.3629937339417487,3.040742904343742,0.8476009139999776,2.4305660209546214
1730,-0.876004108016325,0.15567722270877285,0.37928822445913285,4.524125257786476,2.820863360430098,3.6223461971104847
1740,-0.8791636966241404,0.15628988152595844,0.3771108425485811,-1.0096387631723371,-2.1389582712727426,-1.9035537200294912
1750,-0.874969362464625,0.1582250700373107,0.3777110532772556,1.0705556034690011,1.0165355035528043,1.129434564296519
1760,-0.8600629668570283,0.17152280334569275,0.39102374782649035,1.3830372233543848,1.4951337390626538,1.9907630504684117
1770,-0.8739170937603329,0.16166024360749556,0.3853031926452724,0.029343688251955602,-0.5920004677606241,0.5323924490821325
1780,-0.8650035808586749,0.16917172301812736,0.3986434338319319,2.4737282755874275,1.5873740131154634,2.9815956081396124
1790,-0.8816204947618146,0.14255252874184468,0.3688403750436429,4.333606146145144,2.9412715069282496,3.87241981072909
1800,-0.8833264054087764,0.15694420252359365,0.3748855686303215,1.5570936206164403,0.5931537745704601,0.4381788930910541
1810,-0.9102670796185746,0.1247907718851181,0.34749439055438647,2.0084071327677173,2.5718243849479254,1.9475695513238047
1820,-0.8838210279750535,0.15202487548863194,0.37695659796902975,2.6405816343181003,2.150103463043444,2.8050081667203632
1830,-0.906669404393192,0.12687084907460458,0.34961540286496595,-0.4217294625074778,-1.2232177200343741,-0.41345399463976795
1840,-0.8712248905498083,0.16166497114369555,0.37974597657293174,-1.72812480281811,-2.5579821806236405,-1.9138195415266204
1850,-0.8784168507652498,0.16096834964787818,0.37645748252282163,2.128279236383594,1.5839579386597988,1.7729977065565035
1860,-0.8563263910312845,0.1814608196618774,0.39943999449993367,0.889311276088306,0.28717470775353404,0.24716139337949225
1870,-0.874877983795134,0.15880633524969323,0.37795459134606413,1.5163823255979403,1.1402932347122166,0.9144428778997294
1880,-0.8806013558849992,0.15222501759445045,0.37177197552310265,-0.36434853693933106,0.11657430286898528,-0.30402842612462283
1890,-0.8773735543250071,0.14823563744175292,0.3734464193037887,-3.5390937394470123,-2.820966537466416,-2.7420775864966953
1900,-0.8729252174239865,0.1538742168348324,0.37540274268442303,0.37222253230663105,0.26353638544516844,1.35712415257921
1910,-0.9097544203614408,0.12598728374018667,0.34126562290264245,3.0465086401047436,1.4596193134483886,3.2467693372461186
1920,-0.8422203727474136,0.19459501820010802,0.4058465226204515,1.0334883937380503,1.216698170592584,1.9897895026986832
1930,-0.8634448230099797,0.17249653906959303,0.3881146284187442,-0.13799413203999045,0.3358932601696359,0.3094638757049348
1940,-0.8943690945932803,0.1449449701823289,0.3610006052607356,-0.9301544015436246,-0.36102911787504416,-0.7454720480347199
1950,-0.8690936180932558,0.16899148816938567,0.3821544288829837,1.8895055673724972,1.409104408462874,1.7922064372931792
1960,-0.8741682126849506,0.16282532157066334,0.3747305797479832,3.2816973530876847,2.864320456684961,3.5832590409182115
1970,-0.8839171539530066,0.1602110056097069,0.3690481617011642,1.6170434441475874,1.993802546457123,2.2002227960343004
1980,-0.8742808168360449,0.17213135183303896,0.3792481839775269,0.5991264562572496,1.1941272989188445,0.7978198020117262
1990,-0.8884811088219142,0.14903144033011842,0.3604053442780203,-0.09406502769288326,0.22861564998299921,-0.44162439171648293
2000,-0.8677982579986511,0.1695901596767859,0.3841852622970729,-1.7879413859276527,-1.5334235242012841,-2.5283866623922138
2010,-0.8715220572946408,0.16102679721679766,0.37744452614261653,0.656849860522738,1.1711171443039752,-0.17774075480948448
2020,-0.8777460413971823,0.1576501389832784,0.37706847209109734,1.617911781061913,2.965209592402899,2.5660806628660935
