time_ms,ax,ay,az,gx,gy,gz
0,-0.8195084931575718,0.2219740544438232,0.5184372384436203,-2.335220491307351,-2.4224991518744954,-2.1312109054798065
10,-0.8424121446996085,0.2007208643734841,0.5031161353506574,-0.6936791028818413,-0.870327957247374,-1.8960044297802754
20,-0.823887835259296,0.21940981666612427,0.5133205085439492,0.583981896669045,0.5226919201477022,0.15499782095630626
30,-0.8245842969566507,0.22101716551115316,0.5133517865663645,-0.16576191127465822,1.226406742463356,-0.012296448940709137
40,-0.8331910225826,0.20372598922992596,0.5074090328114564,-3.2909824760851225,-1.0224529433344782,-2.386718709883925
50,-0.8244109588033519,0.21588571009782923,0.518026383349683,0.3154976930926674,1.3331438694954691,0.6350062217641202
60,-0.8512799891508923,0.19092653699175077,0.4908018486916712,0.8206203877608957,-0.10070827980233976,0.621926748844114
70,-0.830328427980093,0.21359566765127758,0.5123985311692931,3.8346827832940766,1.9668986015595022,3.2160052883094616
80,-0.8179573887855265,0.22215461007130205,0.5179398374113291,-0.22667904453543852,0.12509187682629774,0.09926567144334053
90,-0.8241863815594684,0.21476871444615495,0.5121808380504064,-0.982606625359087,0.5792545137825093,0.1353299165339361
100,-0.8437159804629244,0.1975674289432425,0.5025637640253608,-5.863847013726855,-4.058143188658775,-4.837270406541184
110,-0.8289747958090785,0.20713931599531615,0.5010701597408739,-1.1104415963099594,1.2007666969108193,0.18817296881941048
120,-0.837277545575573,0.19970897525793133,0.5034556679223273,-2.0517114695559573,-1.1048976279775076,-3.015527871646075
130,-0.8320770458614526,0.204779205017514,0.5142791376893805,-1.9846784631760048,-2.437929721662813,-2.973656133075826
140,-0.8400288325641807,0.2031475460105213,0.5204815115154613,2.882808679638808,-0.9628260180216297,0.8363545232209145
150,-0.8782803664831371,0.17670281500893303,0.486748454686623,6.352507194271681,-2.2397029600257294,2.8872304021500863
160,-0.864047420840775,0.19607876373783506,0.5113948702044874,4.66783711297084,-4.266633111203886,3.889053455973983
170,-0.8480875150150662,0.19392036907873866,0.5792143256297474,7.683778687187755,-11.892051116010826,12.096316540221403
180,-0.79412540503495,0.25301111275772137,0.6357742205016716,6.509804876790755,-51.40237032954591,25.848956137483057
190,-0.7010610079178059,0.24389251723323097,0.477552721826117,-0.8306479207579924,-50.73224867702416,25.03811381319614
200,-0.6940661595212789,0.26399118718323517,0.4243062808053042,-4.139541900009816,-39.82885571612802,25.266429127886607
210,-0.7001995865673657,0.2744843868305723,0.37230093517391755,-6.604409404647186,-25.60957270415279,25.93337685780477
220,-0.7142280460927547,0.21172928630559026,0.3773777718943152,-5.917157504036462,-11.32990848167168,21.24622769703209
230,-0.7938364471776613,0.2479732973604652,0.5442489858508599,-17.424215857448516,6.035562640591434,9.57613928765413
240,-0.8539216906293813,0.2311838361132856,0.5726304245938948,-27.92837792232311,11.212428204831443,1.7491479038259412
250,-0.7767735979392807,0.21298156273570165,0.5634657532000413,-29.246551536336067,12.52584655359739,-0.9167251364424319
260,-0.7555616667695582,0.13190400984791695,0.4898019629925084,-26.802851985002693,17.429634317097324,-2.708854797324526
270,-0.6563467366092779,0.14013354379143628,0.5862299426330553,-27.038338806973425,19.08046026768411,-8.407221647432054
280,-0.8623781737947811,0.20347901435486768,0.7212106087693471,-29.663594675631433,12.09119045001216,-5.957893412107715
290,-0.7549181020600604,0.15407151397884364,0.49372444644947433,6.437330966629027,-15.888511520241504,-2.7110838607779906
300,-0.8454870071537085,0.14876916496071663,0.639457185973474,15.03661890042389,-7.659587158551666,-1.8922838065700491
310,-0.774871727594113,0.08741236505622127,0.5755517302506765,31.432437575582348,-14.764624747461468,-25.734592705464518
320,-0.9055683042011402,0.25557838469261246,0.30093629105738284,9.11771497371753,-10.28476783348139,-29.754978885870283
330,-1.001244935372496,0.37046457710599107,0.34243245373358433,-10.642995387149966,-0.015094665675392971,-23.277753048238807
340,-0.8689622986277271,0.32717647234235114,0.639232748401564,-4.815466542453016,22.62607943564945,3.1575746381088954
350,-0.7010419523152618,0.3617142638957584,1.1273550159800168,2.064988632087631,34.476003404216485,31.38716058992688
360,-0.7553457485398481,0.2692552993680676,0.670643625956898,-10.854307337719014,26.312648877990583,29.075246419058168
370,-0.7379409094631629,0.10282691208019701,0.7291855615609905,-13.563135822742536,19.32934000084989,17.960813153080995
380,-0.789308798017757,0.027458197240568097,0.704246401584241,-1.2869107943858051,5.183682640280438,-4.661613286529729
390,-0.7981939592882638,0.1386975346119509,0.5753232850567795,12.611268645611693,0.30356716762883185,-7.0445725157260135
400,-0.8997859325145627,0.08259732316573845,0.3818621689890586,11.125870866670667,-6.846111395995323,-28.474278571322287
410,-0.8239073419638473,0.49825487490575127,0.6640081519968626,28.910984182487443,-17.31944257050266,-32.54064696081101
420,-0.8328702037937532,0.42077793509760436,0.5020904421755997,14.82976436663241,-8.458275736327387,-14.014976104238311
430,-0.7406699359345177,-0.07485572990216124,0.6808334547332053,25.637178309338424,-3.5353777144481096,-6.799176188254452
440,-0.7909032766244551,0.4183511599220561,0.5181517562924333,21.190105041722973,2.022443146741584,15.177764336536605
450,-0.8150642874393684,0.28369366389105777,0.5187983465966988,11.973930782743771,4.065592011214754,8.706449028791848
460,-0.8281414261117551,0.2225589023664762,0.5214013619784327,-6.9037304623916125,-2.78025378169985,-11.270131236375018
470,-0.8179908995509483,0.2315474029413397,0.5303955507653753,-10.749999551566134,-6.418125393130456,-14.818832827719344
480,-0.8333821701725229,0.20552934361335554,0.5175324760647597,-3.2886800145108355,-2.986265077557043,-9.02312179677044
490,-0.8224111138595571,0.20759751055657652,0.5294882976525245,3.1849387451441116,-2.7439121495968695,-5.421301203878237
500,-0.8049245134738081,0.2161614974850378,0.5412549736223429,10.36439189351246,0.163384296681659,0.18252754767061985
510,-0.8338093891845026,0.2041189066647929,0.5138692922377058,3.426186502417214,-0.7232028839122788,0.3324147733046829
520,-0.7986234523551731,0.23348012554337652,0.543071746162805,-3.4496950479731927,-2.336629865333685,-0.4655587156570742
530,-0.8211636722996664,0.21263115670113583,0.5196719714298121,1.7372100191447046,0.17442125441035508,3.2552105878106294
540,-0.8236795063157472,0.22554213517974359,0.5212320634919618,2.994048954470207,0.24997230652821775,1.8845054447430867
550,-0.8219559450220728,0.2294018347091115,0.5234011197312342,2.7207056540203842,2.324681341756096,0.9727191108401698
560,-0.8380472148133226,0.19886218624363056,0.513468522241043,0.07636575922796585,1.5471784135841014,-1.1161868540518334
570,-0.8142913302481429,0.2274906871615341,0.5405434622983524,-4.050892596846578,0.38874314351094563,0.9502840747130641
580,-0.8454371112912038,0.18819483425545486,0.5053380192862487,-3.180260263013325,-1.0279595420140666,0.9632063269005053
590,-0.8355476029650002,0.20363242273272414,0.5083721181297831,-0.7021342635919741,-0.8665831990569887,0.9400615204002682
600,-0.8265025554315826,0.21124394169408997,0.5283413418913633,1.7734315022085902,-2.197592858467024,-0.8258279361554473
610,-0.8309733147967222,0.2101214921583445,0.5154407994482728,1.3458352844300163,-1.193799780132803,-1.0640099407917778
620,-0.8134493367241712,0.21929375744772064,0.5310583578995751,5.1021905823345275,3.738390760268105,3.157377202373973
630,-0.8274332911090815,0.20682467912940886,0.5190291112497799,-2.559457438295813,-2.6246181702733073,-2.724566890620993
640,-0.8424985462715042,0.18968806902336685,0.5048534119663398,-1.391226326233608,-3.2855861813474343,-2.3611116314194818
650,-0.835848992093698,0.1813942134101453,0.50914706099846,4.535149106526904,0.9214810145818714,1.7153435333513656
660,-0.8116562926801554,0.22462124196191913,0.5433984609909643,4.6435810368849335,2.2099297460028446,1.8292677337690995
670,-0.8347498533881482,0.217534145815471,0.5143319152447499,0.10075570858685823,-0.6264053473203194,-2.0306591732855157
680,-0.8030988170424174,0.23344632460547624,0.5415271968885589,-1.223933346598822,0.8617119595417141,-0.3630131356724293
690,-0.8384660676990732,0.18007713909962716,0.5042543894876265,-4.931250492928616,0.9634580239864895,0.291200570154179
700,-0.7973677041039914,0.2234503684933972,0.5501013327022714,2.7774635793651283,0.7844279146902368,1.8317816857278355
710,-0.8256823523368475,0.2175740201960004,0.5298650253208433,1.603496096444064,-1.364821356890698,-0.25062224840376146
720,-0.8038040966137443,0.24177101010528468,0.537959794725411,3.3108871403857574,0.8583661192519451,1.9923946122251737
730,-0.8381536162472881,0.1991329463475601,0.5074635540399337,1.04006144562697,-1.0409785055750647,-0.12165978899627206
740,-0.8495577596071225,0.1905510628577772,0.49361610888403495,-2.501496923801823,3.2365063852364857,0.42048226129318467
750,-0.8104921902260347,0.22782076769898815,0.5404653414022035,-4.002784715026942,1.3070846034986936,-1.240764375976891
760,-0.802721996695953,0.23120642857373838,0.5434531938967802,-3.8307729310230805,-1.3078852103954004,-2.9384383127737443
770,-0.8098649378701243,0.22261790166426879,0.5402677810587972,0.8538103846053654,0.5875370818301309,0.0972929598370218
780,-0.8600219812940142,0.17859878939715546,0.49282611112416114,1.6596348466961037,0.14653509491430483,0.7778441330161392
790,-0.814197247546284,0.22159036448264136,0.5335414922707725,-2.2296919396218953,-1.340553733746499,-1.6785984600540398
800,-0.8235417794454826,0.20354027181386813,0.5237195191005182,-3.6422081845893692,-1.914899510362219,-2.971414953677076
810,-0.8379122408657522,0.1927438395350313,0.5090672271070045,0.45830598086849483,-0.055723647203898885,-0.6143609193472026
820,-0.8184623065139185,0.21126535627682866,0.5246372192626569,0.8471003551747508,-0.1663345304474777,-0.10920078466520838
830,-0.8196984794481297,0.2275026921699545,0.532455458180553,0.28484460193564876,1.4484421254388304,0.6759723052201687
840,-0.7897081125750127,0.24860657942433526,0.5555115633841964,-5.010291109440948,-0.906232551355242,-3.2101628189399936
850,-0.8259208850794925,0.2033361502015458,0.5222803000542808,0.4251777853754035,0.8928453701551918,-0.7102771089341773
860,-0.8329202199115264,0.193056087150323,0.5117804432848259,-0.9957674031589647,-4.215132895123087,-3.6499185701070833
870,-0.824451815863478,0.20591271423187993,0.5264157331383696,2.3277040383257903,-0.2151341449701164,0.13893225349178218
880,-0.8120334576914374,0.22789628732484227,0.5404348019869722,0.3407803922999053,0.19246460047155522,-0.15436412243746916
890,-0.7607765795070502,0.2725407688026979,0.5865880849050412,-1.2966191715499802,0.5032875031103131,-0.02029613268656011
900,-0.8136613490557567,0.22226051609357422,0.5345098966346086,-3.300976803175598,-1.337242491747637,-2.195984624202147
910,-0.8591520980046311,0.1731235315169131,0.4878814688317191,-0.34558909803421345,-0.9008178120035002,-1.2762797087716056
920,-0.8136275690588638,0.21861094532270986,0.532834410190692,-0.6439879986481665,-0.8231603134143872,-1.1506770570974618
930,-0.8324091769241501,0.2036796691440416,0.5187482241197331,-1.8469141375023226,-1.1094484201669885,-1.6159897455864383
940,-0.8399667940273335,0.1946523417755744,0.5147237818983178,-1.7223636016453483,1.1298471907182752,0.32766568855472844
950,-0.8177283665149783,0.2108155216604705,0.5305246207872678,-0.106248452653662,1.9395096272184875,1.4455773124606908
960,-0.8269729341593849,0.20541655762684433,0.5243401433928829,1.1096236060665208,1.0850078493687565,1.4697528426130917
970,-0.824645396287166,0.2073029875872868,0.5177447448876352,-2.289981315284847,-1.8922270188220383,-2.010160683680543
980,-0.7983199398016358,0.2283535238524187,0.5489361893472163,-2.0067549764365067,-0.6566174025084701,-2.067667630258395
990,-0.8108932564481472,0.21470789778396068,0.5444059168420196,-2.3537988022242815,-0.7108870823612624,-1.8603654340054963
1000,-0.8014488993526918,0.219293724524417,0.5419788376616037,0.5793070246516081,0.6997185629443688,0.6436963418964168
1010,-0.8201158464025329,0.21094675493632287,0.5322242322454359,-2.8906274106357563,-3.293332687101623,-2.637608159662617
1020,-0.8115521517120748,0.21552445062183367,0.540291968740863,0.7058854056283436,1.6226304901561237,0.9201794646888276
1030,-0.8204957425992445,0.20628537456061896,0.5287717359849129,1.7994880780004139,1.70991694347201,1.4724926571417531
1040,-0.8072967429777581,0.21907257409266132,0.5384067265193507,1.3285082063066342,1.394203047083819,1.433239449460028
1050,-0.8183199558517414,0.2146667636849715,0.5267324620872998,2.2283412083698213,2.744199094631021,2.6278370607046466
1060,-0.8354470094215876,0.19868018216244962,0.5147132356971091,1.9232724283295668,2.7534467175502857,2.54727625300768
1070,-0.8284241142611073,0.20274076926104972,0.5238371518349406,-0.777335933985459,0.6501224180800288,-0.4129023812830821
1080,-0.835004463026195,0.19823844117005937,0.5194109775476271,-3.1496080869463468,-1.9306888154221502,-2.937553888026189
1090,-0.8121359243732666,0.21956009929154557,0.5454320424329749,-1.9000939318342076,-0.6156849557490484,-1.2021556507982463
1100,-0.8241496164391162,0.20596700042688484,0.5323501376659818,-0.7442529479890561,0.12195913836473796,0.06551787603506856
1110,-0.833178989946662,0.20120108560775235,0.5256426972508401,1.1825483678943747,1.1706011025426972,0.9308346304466806
1120,-0.8016623494661884,0.22115084514991462,0.5422971429683505,1.417864009671108,0.2810310619516094,1.2832717014086539
1130,-0.7986775801236272,0.23501649888034404,0.5527433004268898,1.5769751294991465,1.4291659265977408,0.6777711245246882
