time_ms,ax,ay,az,gx,gy,gz
0,-0.630980121719977,1.046839715950871,0.8803964144526027,0.2118324838381893,-0.44999160038529396,-1.333884779686059
10,-0.6010095816416301,1.0776073866936666,0.9026957972983919,1.0493682014474695,0.570794543245682,0.6440618036683168
20,-0.6259053424385447,1.0583454194798778,0.8819626727771065,-0.1365652695053995,0.5093294102536617,0.460366463367355
30,-0.6151592067282513,1.06676784920567,0.8935942048213789,-0.0345146599899227,0.07440877740041524,0.0048768833001948675
40,-0.6395079813314235,1.0349785129921683,0.8637971561720178,2.44061572574842,0.14482865766483122,0.8003461352919872
50,-0.6472810603732507,1.030631376304101,0.859323606116484,3.566000354218194,0.5652987976029183,0.9349018563705345
60,-0.63319473824598,1.042200812913515,0.8722346271383357,2.886421648092893,-0.20911059963254885,0.06549094307573372
70,-0.6261380189623137,1.0523197522848062,0.8764713046982777,5.482381647530593,2.7650319520192346,2.56260005912312
80,-0.6566795695763898,1.0225331572173024,0.8466737781881913,0.1874381722015379,-1.7852101193806442,-1.9946892067437823
90,-0.6355487165413123,1.043034855153409,0.8717123372561173,2.390285885113153,0.7881077244252284,0.887365723739345
100,-0.6457866461584909,1.0330720679450507,0.8647452835654431,1.901739597813984,0.425543353478589,1.2137065787246166
110,-0.6513036989099078,1.0273297839443007,0.853450031523179,0.10890351562747291,-1.4480444394836574,-0.22919410130459061
120,-0.6248687767851964,1.0556799096376914,0.8777159459867528,0.08106348542729647,-1.1896847951725573,-0.12773477423220947
130,-0.639230715779318,1.0423033184507613,0.8650529677654681,1.3077179562966312,0.38295431041739947,1.1920410869468254
140,-0.6354960456262623,1.0437532020667775,0.8654985499525192,3.6678743300477428,3.0389952690675406,3.321549215440606
150,-0.6191113079585063,1.060051423638423,0.8837529677313474,-1.3430947822551966,-1.5257154936894626,-1.5704052239746364
160,-0.6432929784225037,1.0388990102042883,0.8625913024772092,2.2575062051973047,0.6926323941341912,1.7586178102121675
170,-0.6586524433888761,1.0296468184731409,0.851535203284737,-0.8772161584245919,-4.323779367346485,-2.2362154714138653
180,-0.6135013774422133,1.0723431775201586,0.8954848365131309,3.4922137928668047,0.053213658663960106,1.8200298496440843
190,-0.6127577185062725,1.0742918716130265,0.8935044603013196,2.281379831041477,0.10677725034072083,1.8526579915942079
200,-0.658204030755495,1.0535212118344528,0.8625168755425673,-5.658246339027787,-3.4213937128806036,-1.2564338019763266
210,-0.6670375976057172,1.0520944749389136,0.8575249924122501,-11.109975073543817,-3.8888065448614935,0.31543424308663104
220,-0.7085393756063896,1.0327352581761189,0.8820976397695292,-15.725878258817291,-6.269974066403113,6.109312541763162
230,-1.0655522305931986,1.2448749392311602,1.6201783019741887,-58.26120135714923,-38.40119487976396,77.79149285493408
240,-0.9625398421261105,1.3215086461594898,1.2213211277523388,-56.47459511065913,-88.84519659024478,112.26458572034322
250,-0.515565689013757,0.9364700190675902,0.8907381432134922,-30.4866626980198,-92.25465859872827,107.95431426698148
260,-0.2725772405206679,0.9742186912400647,0.48039907287373435,-25.009094343937985,-82.52988344750985,99.44174649483723
270,-0.0642299038400702,0.8482242513630089,0.6040475818773853,-11.087710454394518,-55.700067559047,75.90450847190773
280,-0.11451296250926507,0.7782403645931262,0.6198455086144055,-4.02458990750099,-18.33753143595162,38.42015417072269
290,-0.3275336071918659,0.818380387365102,0.798708377102723,-28.64150631697172,45.03104969430045,-21.716478297490912
300,-0.479541133174929,0.847346826357204,0.9172024753009644,-46.69722850426709,72.7486676264388,-52.64830546962519
310,-0.7805764265204566,0.9975392680138646,1.4301709739407231,-49.82835508718973,58.02052364750645,-58.080121087250575
320,-0.9294098660958015,0.9274966989871918,1.160268581774786,-64.7725060294497,2.2998680561415945,-17.6255986999033
330,-0.7499951965574025,0.8622341003714723,0.8005109517706903,-19.216099195505937,-13.258472417253763,15.010326682871103
340,-0.4654913624489584,1.009494649316433,0.8834229906173717,50.04329617615451,-12.654109039045498,4.2196183158517755
350,-0.506697463642827,1.4932374520113472,0.8831542232646017,5.535927056643098,-12.949542300704099,-10.969146836120977
360,-0.5481152079284756,1.9685931171455862,0.82646547690233,-36.90506338721246,8.143543247013485,-28.1227079754216
370,-0.5104289566513927,1.581964081544152,0.7563549855604677,-7.325134648138309,2.299381178332461,-72.66586776051295
380,-0.4356806551218349,1.276263277837201,1.0366472048415378,7.293973315512747,1.2490783580891023,-75.21033750999023
390,-0.4583989245678228,1.4414287416952678,0.9741584808414618,33.740964053711,9.568329709929046,-44.66046709043299
400,-0.7914089121958101,1.3124370582547613,0.5203104368612701,-51.36688142604926,17.230604177415252,-25.911917634108146
410,-0.4353799222827539,1.1418969899230582,1.3777309818751011,-30.702894481527707,25.651942402478625,3.917193607879895
420,-0.3565777050086075,1.0229786328611128,1.801067214108078,-29.2880717183176,44.14126683919156,81.7578102329785
430,-0.6640129407334816,0.1991498737046614,0.898679899519568,-4.36600892715129,3.5973844367350942,14.691554474463986
440,-0.6085646286217986,0.12949412968658658,1.5220702430387292,-49.7827449690572,3.585804565929594,4.2703504078930195
450,-0.6183798031066727,0.8693737712446783,0.9029065748457378,24.29353349031917,0.991092121686284,4.499653507774492
460,-0.6304219288720782,0.9220186745931279,0.913732116546781,30.280935917506415,6.686457153645598,14.928687762458543
470,-0.6541368296552728,0.91226499803103,0.9063189759699418,42.49461936698053,15.076239923178171,14.864081696874713
480,-0.2411045969149901,1.7632068682605462,1.5325169267096896,-52.399031571664786,-9.665204473844682,-72.9644089916684
490,-0.6018559651556198,0.9283655124193673,1.5266553604657227,-94.22480166567786,-16.71222518495677,-100.83417113018919
500,-0.577550502394949,0.1415839372656783,1.3170259737041399,2.99221169700144,-21.359588982034545,-114.28217773904564
510,-0.5644405361511332,1.1649312074390656,1.0986953583404784,-45.55838099604857,1.7811218113065381,-8.233766473707266
520,-0.6160976542267305,1.175717447533074,0.9863282103268297,-0.09787253533888907,1.9252960595180686,6.069958598623842
530,-0.6317443730465411,1.0249888389778261,0.8997889037422852,5.5078740030949165,3.4104684869595725,-5.882018086547083
540,-0.628518888124215,1.0143907853916483,0.8838991496557885,-12.486823772011586,-2.385991332282715,-10.38621572005781
550,-0.6515791824637674,0.9800819128359743,0.8775002260851967,-3.8255920953489886,0.9234866325497815,0.26077220998723005
560,-0.6294640751189395,0.9955360304467027,0.896957762458747,3.4913532088883086,1.2949699267783255,6.182410863967966
570,-0.63244392121623,0.9916763506262639,0.8902298285199227,4.5755679212397276,-2.4883201431809887,5.71626056377303
580,-0.6300601462698562,1.0067846065632722,0.8957312078185506,8.418386661907395,-0.23018299048093072,7.901467807038076
590,-0.6324784948757286,1.016686292988824,0.8949973542352548,12.570579553173484,3.964439075779341,9.162223003881891
600,-0.6401545694383598,1.009382242031217,0.8880907634028062,10.169727767228117,1.9841771652736375,4.463801256382991
610,-0.6474757288562354,0.9987076440186254,0.8745995456874507,10.345344044163987,2.381281970045545,4.15517688087983
620,-0.6475328153150073,0.9963006464284933,0.87275765738397,7.4819455772179655,-0.9101425207998335,1.3975665472965355
630,-0.627355306504822,1.0289997521779934,0.8935156291854549,5.639292543542995,-0.3140367074418883,0.589315881120866
640,-0.6331070700866748,1.022460859314079,0.8857178598467534,5.440725461216758,1.5241425006303382,1.113828146879499
650,-0.6392025514340889,1.009253122726891,0.8792641848442145,5.771578261734297,-0.37565865183723063,-0.8326225412715023
660,-0.6461059824954847,1.017452053850043,0.8772804666255433,3.6898356734595255,-0.7465569974102151,-2.297413614019894
670,-0.6281294297502382,1.017659246696986,0.8965957066686538,7.4497701334241615,0.5335412544264627,-0.005006571873434895
680,-0.6334985708853897,1.0078152597642058,0.8863442313522946,0.2391245043716932,-2.2919623265333255,-0.5974806118711204
690,-0.6182449934036671,1.0312341673073528,0.8989619039056055,1.2789998332493582,-1.808205170020956,0.47416680632902564
700,-0.6122984054815412,1.04294933476308,0.8979401843263575,3.173224600265722,-0.6484515811773074,0.9860212687359597
710,-0.6411989490013111,1.0102237875480495,0.8743899659381477,2.816917606654627,2.206134964142889,2.498532719772082
720,-0.6333227265625756,1.0169233973365484,0.8882004085611122,2.5580186234033606,1.5712279286447575,1.126316716310582
730,-0.6505969268924386,0.9977131587788303,0.8694729382728692,0.1003113495854131,0.5820690396077788,-1.9655280019314636
740,-0.6312892978681146,1.011548141988745,0.8904038840144667,1.0882675176148673,0.3178668608404933,-1.315743680687837
750,-0.6009833918430421,1.0451493325175665,0.9175548972549196,5.069252513248052,1.3265226299636685,2.0388301288106576
760,-0.616995815922792,1.0385480068678623,0.9015927616367873,4.439637889018854,0.5660429571761612,2.961894613781573
770,-0.6569023675659967,1.0014680729086032,0.8676988361250195,3.919676465584688,1.1872531435155989,4.193802392212937
780,-0.6485780905734406,1.0073614926277945,0.8777591837980456,5.26584636223612,2.231630108157434,5.035114917818639
790,-0.6229120783465159,1.0336856805490269,0.893550752944054,-1.490914494903377,-3.6219589101900533,-2.8675948549280483
800,-0.6456069115922292,1.010991982097914,0.8671307271692523,-1.66264221818625,-3.6389098745500856,-4.447924112421852
810,-0.6399691927319611,1.0173513316012557,0.8842795315108557,0.7355071632431787,-0.870535343024545,-0.9984128017427465
820,-0.6586063982090925,0.9891467829968305,0.8626190435251329,-4.5909469049398846,-4.546108338165666,-3.5581665760596968
830,-0.629979357750072,0.993249633822792,0.8562173476860854,-0.4863779634772369,-2.3541403950384128,-0.8309802247968535
840,-0.6030767812595492,1.027105293189504,0.8773370554547905,0.665199866051361,-1.9760510556360333,-1.2509296416390552
850,-0.6676070863402094,0.9925056456179924,0.8651688422202654,-0.7230372225781763,-1.185802928623554,-1.7312715743498561
860,-0.6161696031077198,1.0340071210466415,0.8979974616503607,3.4223060797026106,2.008051877418342,2.0044835950679714
870,-0.6503442918077578,0.9908564074763946,0.8630101411131053,-2.554658631870463,-2.080198122912797,-2.0016057327908348
880,-0.6217943733357425,1.0248135913970322,0.8890239341308028,-2.2721682725510917,-1.881336638695306,-0.2986758794836646
890,-0.6255636282444036,1.0282372729623273,0.8969285213262348,0.4567797403167829,1.503450582423817,1.8247843929781955
900,-0.6079402996036051,1.047268551020766,0.908588108771497,-2.319868347123907,-2.4662714332554136,-3.1573266369252915
910,-0.6062414684082824,1.0513262319402585,0.9174613177645853,4.409383935814873,1.2380192000817467,0.6010939667036821
920,-0.6270158296717981,1.0230787036951499,0.8925100261178042,1.8581275329405393,-3.0843346141445607,-1.9062620546122548
930,-0.6412738508349235,1.006394311761797,0.8824131380670788,2.4700078986295946,-2.5447909137860467,-1.2019476294287408
940,-0.6267452823330568,1.0229141732286011,0.8885525069081793,4.97082399293768,-0.8104396912120224,2.2580245396804304
950,-0.6313095182721881,1.0144057052520805,0.8871582969077924,2.325218210627811,-3.7499355392156644,0.3690413654943314
960,-0.6208198309977746,1.0330388277134586,0.8984757465663694,3.7372537773523598,-1.380161102010306,2.555734252737002
970,-0.639598795530596,1.008729134254223,0.8763245233109457,6.3082181736943035,1.3973726424463244,4.193529949053419
980,-0.6066067593662698,1.0371544560607602,0.9075958144322703,-2.685788422700773,-1.78721933240596,-3.8319390559861137
990,-0.6240397144487844,1.0193730762028488,0.8891478282972447,-0.6603691353508367,2.2526611180594927,-0.21371295976927684
1000,-0.633023821065346,1.0222235902955987,0.886116507550119,0.9318945024821768,1.5408298220174799,1.451289345151094
1010,-0.602720084740293,1.0519287355921605,0.9166983781622584,0.8083531124735588,-0.07339808524376079,1.1924677819840248
1020,-0.6384105839225254,1.0145245740829456,0.8754845115155275,5.442703715915139,4.007558604423279,5.983758159181852
1030,-0.6331518850945161,1.0265707553562697,0.8829826614014217,1.884357582910196,0.2930529128285908,2.400066675029163
1040,-0.6418018442375533,1.0185185552540224,0.8742365898721125,2.442419091196274,1.640591585553362,1.8931798578906978
1050,-0.6180314956237123,1.0396726506225809,0.8941412777440195,-2.3779361870794116,-2.5606125385814393,-4.408918992872216
1060,-0.6371743815410806,1.0183444566239939,0.8804096294341744,0.7006118586518895,0.18115475638125722,-1.3867138607496952
1070,-0.6547553486683184,1.0022502748132869,0.8594526482009301,-2.0706267067150024,-2.1916833352705454,-3.5596510588169084
1080,-0.634762220387778,1.0290068604230287,0.8741510785085083,-2.7422233090020462,-2.053615704212737,-3.669237092420488
1090,-0.624844557310166,1.0331725752376337,0.8929767626002361,1.7900422257278314,-0.6158017024539337,-1.1991279014734733
1100,-0.6376711184041274,1.0179469807813701,0.885332944192597,-1.8047685849063864,-3.9033111607742974,-3.79825029613123
1110,-0.6320994400796369,1.021212068387558,0.8860595432383759,3.2054289976223,1.6206834309401976,2.5996299439977633
1120,-0.6265116659120149,1.0350178528545781,0.8900005249596568,3.732496413112729,3.559920872337024,3.482001620246778
1130,-0.6191924717832897,1.0498088563352974,0.8875904747905105,4.152470924896985,4.831043747339068,3.7111857488293367
1140,-0.6306072189132205,1.032696665080126,0.8817955954414619,0.6068655294056011,1.9155699224977245,0.13807213152527403
1150,-0.6325105517821491,1.026599685535113,0.8819223450422268,4.011716168983292,3.4013351229768345,2.029347109574204
1160,-0.638392372628007,1.0234684489128298,0.8745682017270237,2.3917634562768217,-0.06482384452921613,0.5610691187394364
1170,-0.6268149124731994,1.0384451625750009,0.8880096748761687,3.106890490810228,1.1097201680826139,1.3040754038236055
1180,-0.6232391010296444,1.0349374104227078,0.8903629000379659,0.2937012678904942,-0.5265645877869276,-1.398435144835806
1190,-0.6360131907731361,1.0171904760744395,0.8784630413074581,1.1931574774573346,-0.1602196685722101,-0.9430688711464876
1200,-0.6113422751321571,1.049770625717679,0.9016010353209494,3.6466867145758606,1.8270336446654492,1.9488632979853708
1210,-0.6254227795246894,1.0365719061055876,0.8863946165667879,-1.206621059841612,-3.631757288664965,-3.212257148811389
1220,-0.6010788511899583,1.0593928383766222,0.9085033111767535,-0.9192838625891937,-3.356440514615965,-2.7803559820626003
1230,-0.6200764128668782,1.038102210623374,0.8887469334347164,0.7731470233914468,-0.9547901109299763,-0.6477592018549336
1240,-0.6182141548050092,1.0376760533117304,0.8940392236678556,2.972956910351435,1.585810426864493,1.615519537096346
1250,-0.6529487819543761,1.005656363689224,0.860083713579165,3.960375809472551,3.123089826492869,2.7293816564721576
1260,-0.6348797969912597,1.0286869230881834,0.8762164149145647,1.362672396054461,1.6128394379919424,0.7653635887445251
1270,-0.6209301033011987,1.043165439813418,0.8860300995769473,2.3242938480945172,3.092923050738733,1.9673461242601866
1280,-0.6186809199463946,1.045380646240259,0.8853444172284674,1.1558731977824408,1.271839628012582,0.397338080757595
1290,-0.6187439024039553,1.0492743945753016,0.8907483604691928,-1.8680088732620515,-2.1063356888296627,-2.078741389931504
1300,-0.597173146310899,1.0693155728609551,0.9129413466401713,-0.5304865140495675,-0.17632853609284707,-1.0131275611858026
1310,-0.6207174870431937,1.0403294845860027,0.8902399542299271,0.9303604654019875,-0.52231286714086,-2.542425308946976
1320,-0.6333139014851888,1.0324318931287455,0.8757712900289516,-2.1268241771704273,-2.191905274202482,-3.687409993622426
1330,-0.6230008184616549,1.040942010365706,0.8938785941513512,-0.7445679796563252,-0.8894027823422901,-1.959327824564879
1340,-0.6211042152717628,1.0441116719139991,0.8932402903652125,1.6082717304350629,1.0895521099041374,0.6391571178209955
1350,-0.6439607822866295,1.0163349989432782,0.8596176453827887,-1.6370482178986872,-2.809619007784665,-2.4752209171895925
1360,-0.6349012071237057,1.025345217196739,0.8718807078845512,-0.7404274722207574,-0.6530283279793108,-1.5624361972475231
1370,-0.6364112425081148,1.0271097171911627,0.870179676090294,3.1032073897688166,3.4594198998292045,2.1317427713696926
1380,-0.6196139045683084,1.0481442544147361,0.8932350063456196,0.12161025852655427,0.9821890117000716,-0.8641900829808782
1390,-0.6429204999513706,1.0234774727605531,0.8683659930411226,2.7077217286388464,2.5652870608389073,0.8375119692288373
1400,-0.6248922796954066,1.0402582498566202,0.8907141853399879,1.3134427688601689,1.962390541347573,0.8182694369863727
1410,-0.6288340833061794,1.030105817991791,0.8805872472974244,-0.6090696848418731,-1.1328736824250596,-1.3434418936109918
1420,-0.658561774691882,1.0033242571441912,0.8503843091905632,-1.6765238899610622,-0.7711563801640733,-1.8323645438371767
1430,-0.6422464145564329,1.0183247425544808,0.8666325490582282,2.8771286585103377,3.265414624160343,1.443453576955255
1440,-0.6363710479021121,1.0289284622262107,0.8750010396677308,1.8418583800753312,1.9957884401320658,0.04371986983860618
1450,-0.6094529775596189,1.061141740787658,0.9046951865613005,2.572804453806625,2.8012408396103687,1.7231486766243296
1460,-0.6033596763971598,1.0667505642500286,0.9091699951255029,2.0954838830699267,1.7770228170595561,2.2194871160938336
1470,-0.6266652905511864,1.0401585428253974,0.8829342863249598,0.40001466479046965,-0.9558896580849668,0.6061510445203944
1480,-0.6160508766509493,1.0476429278533559,0.8938066931049298,0.45347922079997344,0.7409273755179941,-0.03281075072503048
1490,-0.6039761655307939,1.0629323913111,0.9000350091296573,-1.667437790992728,0.08858815040828794,-2.077928563024134
1500,-0.6273011124152709,1.0396613701182422,0.8780919314973141,-2.176544258882362,-1.6205987359979646,-0.8808325093919691
1510,-0.6232072992664337,1.0360069572925983,0.898174008757219,3.418457048608485,3.1378660952141133,5.808562674098381
1520,-0.6369986106398197,1.026567783628695,0.8798678416402569,2.665113159696209,0.4882429923231745,4.178978737726202
1530,-0.6403586581325167,1.0254133280842619,0.8692116580299404,3.3011765030464835,0.7007555556743913,4.389874184705477
1540,-0.60287921766984,1.0590822559432698,0.9078560739193811,3.3883488897071765,0.6235450552366159,2.411678446744993
1550,-0.634520800108373,1.0200875371192661,0.8711101649046301,7.826837444414158,2.9298229881145916,2.76052236693989
1560,-0.6256110968317574,1.0407360798510157,0.8780643232719166,7.732145372258513,3.3462173629660135,4.86465482266394
1570,-0.6208569262690572,1.0450591304412502,0.8853123545075036,8.414135552452343,4.513852818083054,6.734284073690706
1580,-0.6603609583556498,1.0183676291171022,0.8472759930843059,5.944856730300639,4.010252309689616,5.035601347130381
1590,-0.6091514369205232,1.071270796599886,0.8992859404989187,0.7953215607781692,-0.945544937653443,-0.4622635847545915
1600,-0.6574387762907271,1.0261294868045066,0.8546102023841258,2.6245777071572314,1.5258324390633744,0.7462180354613921
1610,-0.6025842298496364,1.0705732781205257,0.9041689976557447,5.372538823287407,1.842031742905464,2.2437119239837426
1620,-0.6293817128871628,1.0439688766217374,0.8728341480528371,4.223248703614019,1.2668943785510953,1.655965629637734
1630,-0.6218024073382631,1.0525478059389561,0.8775194926882501,1.0626307601507272,-0.8582945545536625,-2.020294578036422
1640,-0.5949979983569464,1.083232829398133,0.9101065474288531,-1.5475314723125422,-1.0881577852340572,-3.0494254575598116
1650,-0.6616884070700557,1.0160486826766661,0.8465912980560028,-0.6063511265724348,1.872514218300008,-1.0796086703834171
1660,-0.6546027060536058,1.0193058758285627,0.8536273254999207,-1.044267800756254,1.1953712142542405,-1.0689700626256864
1670,-0.6191585128879799,1.05493514812804,0.8872130958858414,0.046852149275814714,0.4553248451122428,0.8481786557743641
1680,-0.6299586641401684,1.0434454105480238,0.87524697034209,-0.836601347569159,0.7261207786287515,0.15937448468459192
1690,-0.619807608976594,1.0513171295039812,0.8837979684695798,-2.3372873657750675,0.740599805300562,-2.0112747459796987
1700,-0.6063202143237593,1.0648340730756436,0.9030338206094329,-3.304497080807537,0.31286977085490664,-2.992009035154704
1710,-0.6324198509198526,1.037475292508486,0.8781082984732124,-1.6665968149626558,1.8542909577316347,-0.8678562078658132
1720,-0.6339263871974209,1.0341634929317647,0.8725645034893008,-0.3067420480046059,1.5378939082228187,0.5182308215325712
1730,-0.6168399077729791,1.0552835799336822,0.8920774591509221,-1.258799610639575,-0.43830654555582016,-0.23092332971236207
1740,-0.6462188275556165,1.0305295964602141,0.8613736939183565,-2.8469527204400693,-0.678670815874323,-1.6886336741080417
1750,-0.646120761790235,1.0286121108138113,0.8605192511883312,-4.202898685167343,-0.980296646447024,-3.6349680339744683
1760,-0.6295604040735303,1.0400592973852019,0.8782858558967904,-3.9551762286155934,-0.8181887841811277,-3.1333893435596343
1770,-0.6232902843032547,1.0396675529182193,0.887442501177402,-1.0584552614155731,0.24597472396659437,-0.6307600421899222
1780,-0.6370910118665192,1.0252455170138186,0.8717126355196488,2.009477299945735,0.4020976765312494,1.9457277245414617
1790,-0.6221557202261337,1.0464182128100885,0.8833689669742546,1.8980670470092726,-0.5657868178985801,1.6360531294533822
1800,-0.6295523532254871,1.0635391684885263,0.8738004417254968,0.2820789659282816,2.063254159196877,-1.7401332552282769
1810,-0.647268044211123,1.0392251097910665,0.8569069893375683,-2.2446042333798792,0.09152083123557421,-4.917553752440294
1820,-0.6210557603286387,1.053226093594192,0.8875518743595185,-4.34461808235212,-3.5512472901025287,-6.916662941604136
1830,-0.644836743309768,1.0239523351941773,0.8683454805438122,0.00403091410048545,-1.8633273781969626,-2.743086186243587
1840,-0.630981658319847,1.0365683560949093,0.8770961832460415,3.119628542419153,-1.6863500492770753,1.2635928020645995
1850,-0.6278608745496617,1.0434055349311502,0.8790025708040448,4.970799927349279,-0.33448804300016105,3.4764882222293974
1860,-0.6107562624040348,1.0651783523136287,0.8949864853397669,0.11703059531714755,1.7381930564363655,-0.06038310734437724
1870,-0.6240692589625768,1.0530316304804175,0.8863400768733646,-1.5506556189485445,1.176589017813491,-1.2319649928494651
1880,-0.6254988111830617,1.051934445879712,0.8818003186114646,-1.192543346687968,1.6859833006850027,0.45667472209581184
1890,-0.6532091757627169,1.0237588371618824,0.8552072640213108,-2.881715485651473,-0.6038405726793582,0.07889949097979604
1900,-0.6402263209539899,1.0378323393410687,0.8654698360990993,0.4578086060591995,1.6224865495651741,3.5844883641739886
1910,-0.6346594314179153,1.0426325934189276,0.8711327306306542,1.4171907510126507,1.9396863212263056,3.667125906942027
1920,-0.6326235435948305,1.0428187379401552,0.8780174221963306,-0.4298906319635407,0.9599853092856275,0.23016564448075183
1930,-0.6322617713771816,1.0412796767930281,0.8806191315788002,0.12636529517737527,2.002798674316644,0.11530192907837966
1940,-0.6496566284665687,1.0232370184040178,0.8626051970022743,-3.601077017830702,-2.2033910053298413,-2.9757484406752672
1950,-0.6442048025834343,1.02876914318141,0.8650392660968418,-1.3786991972119065,-0.6397186599368438,-0.327879461161737
1960,-0.6274499487803005,1.0412845779504294,0.8772012665428531,-1.83499093796385,-1.969056205347393,-1.012012458327598
1970,-0.628331564874721,1.037606054161207,0.8751113253760048,-2.0378365361536077,-2.1405664664793,-1.3355252689231913
1980,-0.6574489961480792,1.0134480591888357,0.8455109227820243,4.515453115221951,4.800597767143989,4.7343433394033445
1990,-0.6133679671224109,1.0563506745502413,0.8889817395798165,1.7440639766759112,1.7030157315987493,0.21589640987158076
2000,-0.6293431096465195,1.0451252726155151,0.8767590013949937,-1.5439772202290931,-1.7147546259645907,-2.5161204147970055
2010,-0.6278007200860201,1.0454567812524902,0.8836303383304503,-3.4972106999335644,-3.8594703754469437,-4.156548222228183
2020,-0.5940062169220545,1.0763738424621359,0.917666177811927,0.3543634334848476,-1.2832961106295553,0.5438049756793504
2030,-0.6327995741796073,1.0370289578689162,0.8788292768417064,3.575175620472058,1.0912412617238516,2.808420197261622
2040,-0.6533112156033745,1.0184967284947835,0.8505882707851452,2.1245183248587485,1.4813399804426657,1.9941622072659528
2050,-0.6456647188996752,1.02659070664063,0.8621492672618578,-2.0922959029473387,-2.637710771086296,-3.6204951229320077
2060,-0.5930518916062735,1.074694236096081,0.9126112667089261,-0.5966486959557163,-0.9818546502796408,-1.3958642971689588
2070,-0.6560054338118392,1.0136322911859665,0.8515611013972237,-0.4048607943700202,-1.162565180802038,-0.607755792389624
2080,-0.6472193127038185,1.023806464296883,0.8650795730109999,3.69888006378642,1.9372370029034438,2.678386256803276
2090,-0.6333099067911685,1.0366714476830121,0.8736697262485206,4.694505972767745,2.674883438553647,3.8450792995787726
2100,-0.618459417877574,1.0571668389867492,0.8878541058721005,3.266914581499657,2.372066159968838,2.652937415908606
2110,-0.6210460267680012,1.0480139193238254,0.8821240053379146,0.06610238155549716,0.2249038404273492,-0.3535015434884954
2120,-0.6023361235747093,1.067525135888478,0.9061834488250177,0.2556504639976247,0.6104239904847609,-0.3450013898570879
2130,-0.6270221621072959,1.0415606391170806,0.881796626655989,2.2648292482374504,2.532543429423892,1.4268712177974874
2140,-0.6216924619562718,1.0503797583538197,0.8885200776911292,0.08644832900989219,0.37254141228323584,-0.45219968131665905
2150,-0.6387151096537809,1.0337043585041152,0.8721285086031655,0.08993186260071262,0.9491315464846892,0.4283262475888372
2160,-0.6206425615388931,1.0500885653313228,0.8865469070197877,-3.469121118193238,-2.274414501687841,-2.702434308296363
2170,-0.6135964637281365,1.055658553810052,0.891038263235949,-1.462457594744208,-0.4326634243663057,-0.9461558144880198
2180,-0.6133715416228616,1.05199113768804,0.892061735011939,-0.944958777064213,0.02172306343270758,-0.6340431831516521
2190,-0.6065741991061923,1.058780857552541,0.9024683208376366,0.16393896777114653,0.48263457411107025,0.1594051752056842
2200,-0.6128465708206838,1.0518410038901997,0.8991370633055475,-0.7334422082033287,-1.3074872895894347,-0.8820362832956774
2210,-0.6390123151279021,1.0286247510024569,0.8726191260615068,-0.18759645312206719,-0.07420564743956412,0.5084813660351027
2220,-0.6163582552132764,1.055945143031196,0.8944040570888957,-0.7657620321095634,0.3763747643456659,0.04293816457179156
2230,-0.6285614956289278,1.0413924644141268,0.8864035169561756,-1.1985435024998765,0.11355334092247849,-0.7864678740455202
2240,-0.6313142137082347,1.0394440230114534,0.8832963841276364,-1.8905790393819188,-1.4854904185147704,-1.6269638217834355
2250,-0.616624761485081,1.0464601730774685,0.8966711575125733,-3.3251586268588227,-2.8582514485269,-2.475675643694177
2260,-0.6198987321211523,1.0391930321703455,0.8949250468259323,-2.265545551767032,-2.642490568078441,-2.323096050708184
2270,-0.6407851272381795,1.027903720614371,0.8722212084479236,-0.2117726844958352,-1.1202981457915666,-0.16309855074622792
