time_ms,ax,ay,az,gx,gy,gz
0,-0.7472964428980943,0.20849286111271761,0.5189612629452196,3.0089607116087973,2.827957283609656,3.3248489696720633
10,-0.7836640668504951,0.1806897373737157,0.4883092547870132,-1.2186050068255865,-0.941049525614266,-0.8048818771180528
20,-0.7444759211865707,0.22278695028159548,0.5233447025604826,-1.4878295421924093,-0.727232674218036,-1.1057986049074038
30,-0.7351890000996384,0.22778823335405682,0.5276719981813398,-1.4190772790338935,-0.6890431702687686,-1.2911758423993964
40,-0.7595709354521669,0.19626832588226972,0.5016167712843164,-1.8207326954564782,-1.8738129828854544,-2.160764616830143
50,-0.7489385023267704,0.20540058109534073,0.5135652589076662,1.4080784150679535,0.8235621922891061,1.0003792591019143
60,-0.7413443631410167,0.22125455294599053,0.5231282690337418,0.9209524951068457,1.4993985194725283,1.4809300958397398
70,-0.7689339070555156,0.18539787310060357,0.49998034147228293,-0.4500610441237646,0.5791531824464269,-0.12259382594988438
80,-0.7569600075442858,0.20142828155339296,0.5107491081690309,-1.7961903176921803,0.10468162450291141,-0.37823841990861373
90,-0.7618105721676345,0.2003939170592613,0.5075331792336416,0.3398117777709049,1.7604367041546707,1.2517929087752262
100,-0.7657352772766306,0.1903963062557111,0.502031152597061,-0.6141701373455385,-0.07467705921119089,-0.45412779613796406
110,-0.7763245075043411,0.17851059797613775,0.4907237075970892,0.4849519830097312,0.34462529065372,0.04093828449454179
120,-0.7615207893777759,0.2010958135348302,0.507812306175292,1.559329988976375,1.387015495440946,0.9644871357065806
130,-0.7555715335963664,0.19869021336194437,0.5111293105187706,-1.443526491948977,-0.6493489673605697,-0.9309315578436637
140,-0.7413956382501729,0.21947726658152472,0.52738905015318,-2.124819351492236,-1.6086584686048582,-1.7762333703131545
150,-0.7620204628642433,0.19608206133438502,0.5099408018196254,0.006949339792885922,-0.13521890762104133,-0.12166826955120891
160,-0.7752151014049398,0.18131310064530143,0.5027968902309127,0.8958436427863725,-1.2641003206678671,-1.4099229376503488
170,-0.7543733665335876,0.20819537131678642,0.5320918792499297,4.784576263389179,0.26375284151504486,0.6263037375040208
180,-0.7883401220586251,0.24555641960323077,0.553827279408258,0.20526035593063202,-5.209631594481626,0.5207421349781938
190,-0.8154633020249122,0.34549921941233236,0.6358865068253886,-11.253433686014704,-16.732217027634878,1.7401590916415288
200,-0.8500065553238628,0.2708606529118697,0.6206485125745625,-13.678252096840264,-24.93592305362724,8.04916223628116
210,-0.7923545723584796,0.23580443868218548,0.5961178215686358,-7.952721465375815,-35.952818260455494,11.224316596786393
220,-0.6895810485163979,0.18720776293743252,0.6144302908852676,-6.311552583037264,-36.32515846842801,14.254753904972171
230,-0.6700451810135666,0.18005218650535076,0.5191349521110945,-11.689318242319754,-38.93965670542956,6.983136430447683
240,-0.6689885268344247,0.2315955591610919,0.44560700471045966,-15.940019068960563,-34.12133107264649,3.6304796972982345
250,-0.5990408937035399,0.2865962708241449,0.44947651202047684,-25.191191729896367,-25.07454135854573,2.561715274516268
260,-0.4832958833179903,0.25388595137233405,0.44702418035276664,-32.61983669018322,-8.330696119952313,6.657850671490839
270,-0.55732305966581,0.17563873908855548,0.46608190424737167,-35.445249643092104,-0.1983511390258184,3.542013115214336
280,-0.6258689853163255,0.21187475403425723,0.5138587205348144,-47.362076487661206,3.4827897541611343,6.290685933530442
290,-0.6543655015794858,0.20983686205209598,0.5672065725973036,-47.755966009761934,6.533561836505799,6.764856865592532
300,-0.6826502328455185,0.1624135424572112,0.6203017808234665,-45.52265567153533,11.01561891423026,6.634736472272109
310,-0.8540955546474527,0.10761149525041419,0.7500054824874557,-47.34584184347149,2.9311732632982155,1.7001248788026033
320,-0.9604285382513172,0.059637714893119045,0.9040619837795135,-31.00774151001334,-12.081917575035929,-2.9233471925420353
330,-0.6812695477751886,-0.13573125066584715,0.73286213814694,12.79163975881883,-27.477739413644482,-16.58998893528486
340,-0.8360026584129947,-0.13572595533022727,0.5233332135402551,17.573937559174563,-21.78764189223074,-15.097882854468649
350,-0.7775759659759276,-0.18564346845785717,0.5740783750782232,2.2478648404785337,-11.838199139271028,-19.69340627436113
360,-0.7622444368410884,0.1171908175416302,0.6895341691756575,26.077338210766893,-16.016910582460465,-27.24218245020749
370,-0.7321278462711474,0.2227929834196672,0.698893551837236,47.35497553088925,-4.6777607109742565,-28.68624676950361
380,-0.6817330638429867,0.2621887767653747,0.6675243955422512,51.622138677078176,10.779867839682188,-22.020159826211337
390,-0.721751460866274,0.4053826518835104,0.6173867452551149,38.317171300476026,19.07887876847569,-7.852855877037375
400,-0.6887872561817657,0.5017566847878927,0.659869541693797,-8.409030387749002,44.37483613302587,8.77702500443828
410,-0.8217541328914479,0.587959478373265,0.8747545310484593,-4.746673168624866,35.63438448807064,17.96628537509075
420,-0.8385722854798179,0.7975932527135594,0.4028302032165591,-26.949972688943863,54.018472764843324,41.75270533408096
430,-0.578428964116801,0.5647332807536606,0.0491483929655227,-16.702209823405877,59.49407016286749,52.727343937899846
440,-0.49024490267059895,0.3441004322181275,0.5199659211391264,-11.44070861527744,49.60683383451107,49.91866500291336
450,-0.6492474103259499,0.21241859348408318,1.0391522571509741,-22.77247806126704,36.10810309873077,37.7712710271836
460,-0.6356921765437629,0.11475380110930791,0.7279223448924821,-19.654840652103164,27.265834125359017,19.1637979007381
470,-0.7144589127381649,-0.03460807850393095,0.5673879402635043,34.089461389506816,1.0963997923770281,-14.791545379164962
480,-0.6534278241974816,-0.1804516864377012,0.5935398217785216,5.7436672967290665,2.4470436647928646,-17.65150474933607
490,-0.7069996122528837,-0.18728432211882667,0.7046070016850488,19.215171568622207,-4.030660541480042,-30.205452817773743
500,-0.7730197304919876,-0.25052168111262973,0.38683643511363336,9.995499678610663,-2.992028137933736,-33.96887077683849
510,-0.844454471304098,-0.23230863973096796,0.22547417370832548,-0.9902898566204639,1.318499612902664,-24.59774768396177
520,-0.8227786721053358,-0.025886559552748826,0.44610910310355895,12.362980723086004,5.663249169098921,-11.083044525895346
530,-0.5639092876208958,0.32390269245984954,0.6339880754928688,29.099624203263588,1.6607578679699935,-15.26567608199859
540,-0.7288312392548916,0.33487584328707504,0.5345156624014643,15.716701766355074,3.1254759684691074,3.431798033317385
550,-0.7269702127643809,0.29857161254633074,0.5269458953005102,-2.361593572948789,0.9574949404580013,3.326274086536768
560,-0.7555107167098842,0.24049272776069242,0.5258048386672868,-8.78368021617231,1.3039422459395928,-2.584135711123271
570,-0.7411379573973532,0.2291915439258298,0.5394617063259596,-15.615461728714159,-3.745501380096466,-10.804522175424069
580,-0.7493492346904024,0.20021126552669072,0.5208350190726753,-10.829300398934024,-1.0496985828344298,-7.221870967710341
590,-0.7409553858710882,0.19683453711796056,0.5319192486731369,-6.440771810533265,-1.0357420650627345,-5.059372816459027
600,-0.7619242002925077,0.17107439559922608,0.49871861880015067,-3.875415583190836,-1.251637540968096,-2.040121574648222
610,-0.7424708560125806,0.19985842796124162,0.5340995059774657,3.127375568415593,-0.03609124841319413,5.826255452345067
620,-0.7543717698737195,0.18514822345026447,0.522051091264484,5.694427643911175,1.7518174330022533,7.219480615085696
630,-0.758585669656937,0.18658291930762258,0.5129656626781521,3.268855218285416,-0.39066341588470643,3.763393084139228
640,-0.7443370676688112,0.21543109970699295,0.5270363023650689,4.465168938156526,2.1520459354929673,4.378982193377767
650,-0.764428635437293,0.20492685615453873,0.5116572516531476,0.42328181449015195,-0.15478065075095193,-0.5161881302919035
660,-0.7383397669732006,0.22529118376434085,0.5404633032417547,-2.076063550624196,-1.2933996803099956,-4.258186573547564
670,-0.7724867015177912,0.18211793824679423,0.4997083045948454,-4.375452040483939,-2.1341407138213735,-6.1281452212639795
680,-0.7435529652635743,0.1800847807509905,0.526311389763809,-2.0548563452777886,-1.3876695928373448,-2.3301249282832233
690,-0.7797140823136687,0.15337197995774246,0.49218640601344527,-1.5720931770734243,-1.7541383523418947,-0.5939988519822011
700,-0.7645574872539453,0.18244297117027583,0.5081263424964618,1.7207034802864734,2.3903185587393523,4.858342043142489
710,-0.7309909816132047,0.21226880653212996,0.5399657330006647,3.0150153868877165,3.344761428480146,6.606247567681136
720,-0.7380909708930072,0.19936684749445457,0.5326484172048526,1.842985125054158,-0.3015898976483471,3.5822717668157793
730,-0.7619045447178303,0.19375524520860885,0.513513962986907,6.471301150732262,2.0538454982524192,6.3795117314964855
740,-0.747441148971788,0.212314080517433,0.5274162057065195,2.7260365049092807,0.35366076523496814,3.816665791852435
750,-0.7289379901339494,0.22958209728419976,0.5488111734761912,1.8896221057543003,0.8031005564435529,1.7628003043220566
760,-0.7452657862491442,0.21039362278614343,0.528349258750596,1.8713572567954597,3.155857459899663,3.086095895957177
770,-0.7435953158223921,0.21508102051610006,0.5308098202035206,-3.3721948351389504,-0.20686551074968862,-1.3138303353275305
780,-0.7496185864645378,0.2071812478218737,0.5266575321200537,-6.076899200621474,-2.9176507995745578,-4.894509028869044
790,-0.7662054257749471,0.18403175076029585,0.5083616418239078,-2.2103129637039403,-0.5899309499120736,-2.6669917383806756
800,-0.7743420726587462,0.18101197925863932,0.49710955607116,-1.678922037647965,-0.9685565003073177,-2.3657490045300564
810,-0.7610990074090824,0.19706114189981755,0.508191359485465,-1.7673839305042733,-0.0707323123149306,-1.4514490034699818
820,-0.7308418110626667,0.23119500774688917,0.5398271887160468,2.173438395548605,3.1407262062170287,3.2022759004415597
830,-0.747260389839768,0.20977655204927062,0.5239018973726827,-1.633515986686501,-1.1910369051876675,-0.8696186225608215
840,-0.7647964234683184,0.191564132100846,0.5050349758959043,-3.113364761454815,-3.460335129927924,-2.98135362185937
850,-0.7360587650067759,0.22295063232253162,0.5349130604552131,0.9500428928526997,0.8134426214825191,1.1905100756295515
860,-0.7466428643958308,0.21061428663814313,0.5285263932285463,-3.6418437315860146,-2.0840536947582824,-2.341929165052563
870,-0.7323177849056378,0.21659836370153818,0.5409669414447879,-1.1280061873960332,1.1689593103592752,0.6015067302436856
880,-0.75639394133225,0.19125576147894388,0.5095388650062734,-1.1026765979423443,-0.21264312843726707,-0.9743701391154276
890,-0.7547509345686823,0.19528469677454732,0.5169168699696163,0.34543934054278413,-1.2511655770505103,-0.4363328062792483
900,-0.740932604870528,0.2167768781319659,0.5348742667013905,0.9356356626913032,-2.0207277804680674,-0.4832683341843964
910,-0.7481069884134511,0.20971519932382063,0.5263531837686966,3.344628976827842,0.33505286040563764,2.1853633830727124
920,-0.7585458450429103,0.192252479845259,0.5123415624407905,2.8581167242553205,1.5828469349585554,3.236314463175536
930,-0.7169090739430768,0.23117744877026852,0.5532939370049369,-0.3726505330216614,1.1362769749449764,2.0514371818705506
940,-0.7346344453528983,0.22284944681111776,0.5373394938431891,-2.962564661158262,-2.1586173024579804,-0.6026627691836939
950,-0.7366259282690747,0.2266506066395665,0.535608290541645,0.31314611717803675,-0.03647081185040879,0.20376615748424598
960,-0.767694682182359,0.18896895436187133,0.507350431200835,2.3801485796939534,0.7972948174687503,1.091169736630577
970,-0.7411706479654324,0.2152315751292462,0.532188212923664,4.899265173145714,2.542146271190591,2.902519464068303
980,-0.7265339241642396,0.23290213982683605,0.5456748657429068,1.7227008264358963,-0.22882363775071488,0.10162712910439997
990,-0.7307107946212963,0.2278666738489373,0.5420069997752845,1.8346677420492359,1.0163772887685716,1.1533442526346764
1000,-0.7490855452304829,0.2040844550345604,0.5215150674416934,0.059142270335897806,-0.17716891897890386,-0.5958047439111256
1010,-0.712933445409338,0.2444175386006323,0.5573503076686535,1.3799979453676356,1.445929725555256,0.6534006618531042
1020,-0.7344430643602996,0.2140880314262958,0.5355656807370587,0.2391027184928055,-0.3195417966696011,-0.7557885629768659
1030,-0.7168918519136491,0.24023328073416803,0.5518473392373211,1.4464150327917742,-0.11437493218969319,-0.3588467563231883
1040,-0.7531779071072874,0.20862729292644303,0.5136918254537866,2.3490899369484532,1.0583944130107357,1.0192895893899188
1050,-0.7606273688151881,0.2029591266311941,0.5043648597133668,1.4008215496795609,0.9600884551557352,1.2896546384065004
1060,-0.7632358291634517,0.20173997508818603,0.5006509273122971,0.3714990109037588,0.6867048579003798,1.5262032806841448
1070,-0.7691193885507435,0.188148461468689,0.49621097934823105,-3.142290986139103,-1.7167082642481226,-0.45107759374129075
1080,-0.7442435390208025,0.2003847942754742,0.5332439267020641,1.4237118907881978,1.8816236162691773,3.1622850638879756
1090,-0.7530143985233255,0.19684975194265852,0.518808547125316,1.9872592663178468,1.9595291168817703,3.107011077064932
1100,-0.755524849200512,0.20372196630407585,0.5131637359676365,-3.954039818029772,-1.9167873142141176,-2.054324687889709
1110,-0.7380671018870538,0.2160591578398413,0.5319098368338036,-0.26025921333391366,2.401536492554877,1.5473252286402368
1120,-0.7494021030843276,0.19619343125665478,0.5215364422537594,-4.369704887289566,-2.91701223301813,-3.4500358536483136
1130,-0.7609429138811908,0.1882973241898512,0.5091765417998793,-0.3321826006895011,-0.2497103100428246,0.02044804586150506
1140,-0.7445076751194721,0.20846752188047826,0.5320490174219987,3.5285124040090015,2.4331121806312255,3.4475573648001365
1150,-0.7592764345847551,0.20121141352038963,0.5182687418272617,1.6754961759197264,1.0270375760690746,2.493658102308437
1160,-0.7460568879202987,0.22066168570244676,0.5274562550595094,-0.9320919212905328,-1.8595225205783805,-1.1449653885547948
1170,-0.7470203542449088,0.21586003132206977,0.5205462900473575,-1.5856252087306215,-0.5629859503818744,-1.1230997740819013
1180,-0.7323123287172074,0.22303732824426845,0.5335385985489625,-4.041063951264737,-2.7452795587764904,-3.691038955589635
1190,-0.7560007042987595,0.19316516153972094,0.511762433199246,-1.3775285213555664,-1.9667617800932697,-2.387934299727085
1200,-0.7481419837010045,0.19807614698262307,0.5202543492035465,1.1062781790320015,-0.6255568497767481,-0.5088868767526802
1210,-0.7732526892402563,0.1779509312338467,0.4956759660319408,0.635272872354987,-1.1529773049467995,-0.14853268864693425
