time_ms,ax,ay,az,gx,gy,gz
0,-0.7799697333991371,0.23927174738795187,0.6495830687684072,0.912503085451275,1.4139345863691402,-0.05120091657826897
10,-0.7826672780953782,0.21970624451940896,0.6324249800540959,-0.7382933605047722,-0.16525779299637605,-0.7000709762857714
20,-0.8105321700914748,0.18969370955578202,0.6046072145148896,4.159478554438247,2.2029045156050566,2.69055054488409
30,-0.7930416341678639,0.21513059695751918,0.6277074854980393,2.8440740358582275,0.8483625289908154,1.1238148122004388
40,-0.7875328418065206,0.23026125737921058,0.6328247764876365,-0.36137324916015423,-0.4910618101395054,-1.202678279197727
50,-0.7960638704322334,0.22237918897923173,0.6199166930908713,-1.2812646675232293,0.517790181077709,-1.2000418911152466
60,-0.8081485107326192,0.20132181630227472,0.6063543988149565,-2.6221042895383877,-0.4279769804801118,-2.483295232979223
70,-0.7979454308111117,0.20387021454707316,0.6183570262546348,-1.5410575170812109,-0.9007561876188683,-2.1836359546222943
80,-0.7733655106983212,0.22468991575089967,0.6438337501613237,1.1737514410034113,0.5572451669491888,0.7908272471139022
90,-0.7993372642136451,0.1972118441479246,0.6190797385615745,2.879423638936948,0.2676107871727867,2.0259712284425415
100,-0.7914352522075994,0.22158371394809953,0.6293778925092028,-2.4746863303596545,-1.1786639578905396,-1.8536576749993436
110,-0.7964644261618735,0.2191379202836374,0.6277847936484036,-4.580586873298212,-1.245430134567868,-3.067875035113119
120,-0.7937503950151342,0.21421153378572422,0.6290473910403823,-2.509877564866676,-0.23272518784733667,-1.5174267241578683
130,-0.77785094722254,0.22158588101582496,0.6414942748223363,2.6864728940644262,2.032932097881835,2.208372675993567
140,-0.7939389779244892,0.20505049853100343,0.6225922269254859,3.1515110851586243,-0.10715223005726504,1.2290310309939487
150,-0.798503851163262,0.21044541679932985,0.6173409913484682,4.2252119814477345,0.6881439463724603,2.086547311709881
160,-0.7998510327860368,0.21713988220138758,0.6249823451871548,0.5716999268514773,-0.35954245781771443,0.5918951053452635
170,-0.7935659389150854,0.21031320314327068,0.6260878596692732,-2.328137628338758,-0.5622581372006984,-1.7290951785681519
180,-0.7642387094122407,0.24262346969602394,0.6603235324452145,-1.3117652840323293,0.36556161072768173,-0.3770740283651779
190,-0.7704141791579633,0.24310510095635549,0.6537112676934856,-0.3890089136612438,1.3273973276349733,1.2134488851883802
200,-0.7661559119696877,0.24609135043789715,0.655889211448369,-1.0480638274465899,0.855330348166562,1.3739491168091469
210,-0.7935576906798986,0.20753497482387007,0.6290697628944487,0.5716612741752213,1.472053647705044,2.485852290016778
220,-0.7542766985547172,0.2419925044576326,0.6650334488556459,-0.2793146237344506,-0.04118722681251796,0.9858027900113286
230,-0.7853837293461811,0.22967703297279393,0.6288448567604333,-0.5384308863240818,0.2763684855133325,0.2740781414271283
240,-0.7883517157470581,0.25276146157222623,0.6411509831884603,-0.4690591630170764,-1.064880290931421,-2.9630227784713226
250,-0.7791778039174572,0.20879340525308943,0.6411964858507067,-6.8197021399100635,-2.247519018073639,-2.0244537823397097
260,-0.7816558977060437,0.19439977095247826,0.6401645238420438,1.337889755807202,1.6927451038496026,3.5074128153930566
270,-0.7829096189938688,0.20879987879746528,0.6381546927226895,3.4856110826936675,0.31342238994739324,2.774991568762635
280,-0.8112358469199317,0.2066325074207785,0.6074264537501672,2.3489578455020146,1.8177454224686227,4.208639925165215
290,-0.7808849332319101,0.24223971516746162,0.6342323987476177,2.2277074843641707,2.1552796303697375,4.441503970578108
300,-0.8046701065893593,0.21260765397347123,0.6116811024117373,-1.6350435465183737,-2.0182249310431932,-0.3979292283553313
310,-0.7797505330448328,0.23491840777487075,0.6413682174110147,-1.801693904555043,-0.29354848782431076,0.2922540249092199
320,-0.7943295477453955,0.20932434458191443,0.6231863721665538,-0.0963556065681106,-0.5823230850463946,0.26545211367322064
330,-0.795375792716266,0.2205114471602299,0.6177833527150245,2.3305242097166445,-2.0597968555377495,-1.2723267558998668
340,-0.8154475878173548,0.1949118895512731,0.605745313258618,4.707347608112828,-1.5329362470963575,-1.6556838085834729
350,-0.751474926574095,0.25687709998721503,0.6678052964421901,3.540737667834599,-2.3045459260141437,-2.4121364164746844
360,-0.7636278322202172,0.24822780521983132,0.653991971480283,7.540349291287449,4.337281205868466,4.459892058416509
370,-0.7961713545355004,0.22072452547771257,0.6251109512680258,3.2181551044785555,0.833589985506762,2.2711790737186193
380,-0.7664454413117884,0.23194772615281123,0.6593707013297836,3.423108728883756,1.0253193647294492,2.6657835863062243
390,-0.7661678567651691,0.2057642417779984,0.6621967082557068,3.393069281994752,-1.082548797817965,0.5163360459093216
400,-0.7832471451042115,0.19687614365205858,0.6523685384433446,6.350201139693063,-4.289971269738084,0.38069777819475137
410,-0.7868950280462135,0.18145714107876298,0.6719799892112535,3.03559354571741,-7.447735555653288,-1.5642013313341658
420,-0.7315549806294928,0.04532743538383823,0.7645764904297927,8.082040647150993,-18.247346042634824,-12.743624056820082
430,-0.7361173767507218,-0.044705236165041046,0.8676780429524962,3.624372593884602,-13.310841238954708,-10.566907008667656
440,-0.826176449960214,0.3701517802742967,0.6086945584825092,18.414993975230523,-7.146515893775698,-9.041878246254205
450,-0.8197486355842524,0.3508540636412688,0.5063608069501543,18.369023957261366,-1.2654463523053376,-11.034845489215174
460,-0.7656713066794766,0.26882837371741325,0.5646295295545747,-1.8303436502207524,-6.909418086531243,-19.4925965828147
470,-0.7963296274399421,0.28797455689717183,0.5822789465944219,-2.7565007541382016,-2.360004399694437,-13.994489902585407
480,-0.7870188737027677,0.23751327746970727,0.652053804403299,6.2249050255885585,1.2582809863377602,-14.78543238696251
490,-0.7368619738024862,0.2764672466834765,0.7260268632912218,10.26373748493096,6.147322570420499,-17.975268255862566
500,-0.8423853732211848,0.3518416956007531,0.3374048653663733,-9.078758909864911,24.722276377907917,-9.845216617701745
510,-0.8583096827295665,0.35576940315773237,0.35428946418084245,5.042769102975029,29.463866792256443,23.14471702443898
520,-0.8409003867033413,0.05153520758966575,0.7208097785122175,-10.221556576592322,22.19396952954485,24.4028213029383
530,-0.8741206595062225,0.18194973631660621,0.5729792087308966,-9.234484162804304,25.092757657840515,25.903001616390117
540,-0.844602565079981,0.1896813435942449,0.6033712374833884,-5.247906894172919,21.43146437366658,21.283757918395033
550,-0.8023380699144012,0.0704748905644558,0.7738770535045962,-6.338941186862462,15.735312426195623,16.599768529008514
560,-0.8639394905050931,0.17275844667350143,0.5776241636291597,-9.474250586113554,12.60239306825044,12.030042507198237
570,-0.7789838856370797,0.39829908342851983,0.5059901600373112,5.381514370839633,10.9123135701062,6.567158674575818
580,-0.8139124024948291,0.21638241865638147,0.6033684424956177,26.95402175592365,2.873524221063272,11.132019525655878
590,-0.8034011125668798,0.21342225088918176,0.6016180023428086,64.76800770091945,2.482437369954718,14.604878813352816
600,-0.7946949350294937,0.27078609316924324,0.6638196577969553,42.57266020789827,1.542938431794631,12.498305833479236
610,-0.8146063826334442,0.15941550547852856,0.6539061985847517,29.189066479499886,-10.656738810510351,-2.928437819597919
620,-0.8463755266707759,0.17901775317942514,0.5695475125565763,30.519555068216295,-8.134760237499762,-2.15814267748945
630,-0.8674719588918466,0.2872657648920356,0.44693094613876017,37.99955303270019,-1.6259988614010648,-6.933513926067228
640,-0.8891642841719299,0.4303404050790946,0.3579761700909746,41.85664362966529,-3.6946034075324157,-19.011605280764464
650,-0.7571569051515791,0.8286816469262288,0.547557200320691,29.262123104019366,-3.862866652177531,-1.1629845312450067
660,-0.7696835720131847,0.44004282682902013,0.5840034328174327,10.081893968687833,0.6455904384860492,3.5793120480417757
670,-0.7901606289081928,0.3481141745177919,0.6070387365774993,6.839816517609101,1.3276428956668516,1.6773574656815076
680,-0.8188838416044042,0.28305376956750306,0.5930501960059584,4.73446013093922,-0.8746799967849308,-1.042716422857977
690,-0.7958024822843847,0.31063014670451194,0.613281579156999,6.856012253065642,1.6761599739996076,0.13199659550834086
700,-0.8056473673446979,0.29500935410870655,0.5953030579409536,0.5287127628842614,-1.470827099021982,-4.874008824676262
710,-0.7922106230527225,0.2702204060127875,0.6051736599272732,-0.24172777779799048,0.8842286169193969,-0.9431241925790013
720,-0.7886522053508216,0.24639488255141642,0.6095350193735048,-0.45342142254116147,2.256981952937584,4.119102396215722
730,-0.8049431645169561,0.258830013037549,0.5933372741575809,-1.8267059233932086,1.9744968328674963,4.013574072689889
740,-0.8143267890688203,0.27173238119166493,0.5879203278154959,-2.110939211960045,1.0485107864367211,0.9045492732810944
750,-0.8220036132507972,0.2583619810899879,0.5897824737849787,-5.471602455913437,0.2627746907959065,-1.2103458700357304
760,-0.8069736358496488,0.26694203714353654,0.5963957128171922,-11.216058673881554,0.20347295161619944,-3.011740874423196
770,-0.7584927187983437,0.30578329144843713,0.633039916580933,-8.30782534516849,2.0457052298105998,-2.1588242406509095
780,-0.7720412005573954,0.2808555818162085,0.6269811412781333,-0.9496603853788153,1.697370077788427,1.3943592638664848
790,-0.8255954841802061,0.23105907608083862,0.575371796806793,4.364046553363661,2.301562455509264,5.178887416444021
800,-0.7697937840673315,0.2969462362678384,0.6249225566374709,1.3885681692087417,-1.0762168495060624,2.039124904933879
810,-0.8258567017913548,0.23717322129442656,0.5724601515722717,2.833024132605339,-0.7423586976782164,2.385712822398417
820,-0.7858789212183082,0.26902417073389046,0.6180825255100735,1.5515150639084645,-2.1265724099966983,1.0911556889006992
830,-0.8028890204611249,0.25631066694235016,0.5953939338106438,-0.19268554578105768,0.24758225062627248,1.8682382827777146
840,-0.7947155299698909,0.3094996395705406,0.6081447274748577,13.367361734410368,-0.8399682049799722,-1.5095355034519358
850,-0.804152384673559,0.27269096976454615,0.6002705700813992,10.264822190385672,3.351124891871216,3.6510764148167687
860,-0.7866365077609264,0.2824583924310411,0.6237436556791374,0.1332423831502515,-0.025231951558782106,-0.36670971252059686
870,-0.805762163193483,0.25510454310142944,0.5982301262969002,-3.8873668855500214,-1.47711629045362,-2.336996659352266
880,-0.7890658269105696,0.26981833033685304,0.6077141732033248,-1.7298211386598383,1.508657086998153,0.7165742775337988
890,-0.8160890795792559,0.2472641898749557,0.58356189713797,-2.6350523987298207,1.4485237783482598,0.6644965509462171
900,-0.8139644727228564,0.22402950239772,0.5833841436448447,-1.3699819387185128,2.8398023787802966,2.9058114250382316
910,-0.8225900389225732,0.23729840180020417,0.5862162655640881,2.2152589905063866,1.7353458791319238,4.307910548100408
920,-0.8053668713730489,0.2632981580315988,0.5932915674427335,-0.13319998940466693,-1.9629827867492902,-1.3023827175687666
930,-0.7921791004718366,0.2649220782397525,0.6038790368739383,1.189033433757841,-0.7735323088978102,-0.7919861218486672
940,-0.8055617738066171,0.24762268487817862,0.5892961355681062,0.9173958226297068,-0.821221816294265,-0.3109017811895867
950,-0.7833768556151958,0.27228959837891803,0.6146305047674276,1.4611920946621624,-1.0834588787904633,-0.008013129846010436
960,-0.7955259931122158,0.2664682469327856,0.6066230423716373,4.780713546293584,1.2384958696510275,2.6626584875600527
970,-0.7988630553563583,0.26916362997119503,0.6043049945216492,4.209769053157108,1.2933216268817231,2.500601411767815
980,-0.8249974619479604,0.2428360300308756,0.5776518825239212,0.1198558625702874,0.0804031282777163,-0.029589333390809987
990,-0.8235183888429372,0.23997979151595766,0.581655422245091,-3.652584645940974,-0.3507860198402126,-1.6540870426128655
1000,-0.7831737763978005,0.28357860650265904,0.6193193074152753,-4.013251619110797,-0.7858358240801872,-1.9089739650398307
1010,-0.8087468254875846,0.2419045316969229,0.5930373055173886,-0.9258189416279221,0.1991225519037569,1.1365528079904623
1020,-0.8068818288597578,0.24373349854203433,0.5915720590515796,1.3076073340991048,-0.2451424684051723,2.2465549286934166
1030,-0.8145873376695498,0.24528198964562564,0.5863027616666029,4.497324879714793,0.9076969725756012,3.3709363473178424
1040,-0.8165721147518411,0.25818203606591666,0.5877635195541302,2.9012731664148133,-0.3697017109951355,0.591781373272243
1050,-0.7723906887555323,0.30385029130374713,0.6320585281496544,0.9444994246787599,0.2263435050283411,-0.6348805346412207
1060,-0.7859557371794111,0.2709168934433569,0.616285346539501,-0.1920966154347905,0.8436282830962588,-0.48628631118145416
1070,-0.843124942820351,0.2155309857083575,0.5548084417933784,1.3622397537894575,-0.45531702478510805,0.17962367505950025
1080,-0.7955759461688336,0.2523996879009595,0.6040487166412001,2.5307673466674014,-2.3380480550347005,0.3791017660559344
1090,-0.7808251745004422,0.27049250785784534,0.6139585692943302,4.536871040324364,-2.1058091718735072,1.9067145175647315
1100,-0.7805709471095132,0.2920260065865376,0.62081173276892,3.358970160328454,0.048739157689495105,2.89592463941137
1110,-0.799368184754515,0.278627651265971,0.6022920538546761,4.311549720484697,2.3715607648011607,3.796898413564093
1120,-0.8104119186128355,0.2597144131340973,0.5924502454300568,-5.493473584711372,-3.7307451782233176,-5.319348917450892
1130,-0.8056093274893735,0.25352806445797077,0.5985741144815839,-3.1000654327014514,1.5808511712010516,-2.0081676367141625
1140,-0.8043481328345202,0.239680845088972,0.5949868059601234,-2.115884657253855,-0.5473702362632278,-2.5013578672080596
1150,-0.7896075858592773,0.23471284390715344,0.6057152931841108,2.612674765079724,0.1831055128009531,0.2647161892558115
1160,-0.8134643891349742,0.24061105481042155,0.591722924146756,4.7806379148130596,1.7422589170599658,3.425172559337174
1170,-0.8098278136367233,0.2624177857748568,0.5975031258634456,0.638354039458912,-0.27496237892989683,0.48551924238091515
1180,-0.8067548985356575,0.2612335761378394,0.5986378273850591,0.47562247144408054,0.7696116811312347,0.5555682564885749
1190,-0.8185000308704091,0.23056263851294256,0.5824798720190231,1.7656839380162734,1.7065260167249199,1.1563889136441676
1200,-0.8098564127593378,0.24287984228969978,0.5905093743124529,2.864794530854911,2.554015888337262,2.3077310006511835
1210,-0.7952457296692664,0.2730432728281634,0.6089012969053033,1.8454171928950212,1.268518599806161,1.3345948620848789
1220,-0.8160217732892135,0.25419506907587847,0.5890250204299847,1.0221633463482107,-0.5091599067591357,-0.23473551332147008
1230,-0.7778569580718891,0.284202011984603,0.620747496951906,4.0610791934557895,1.6284546612400934,2.4916868839844355
1240,-0.8129899815326391,0.247514792676237,0.5895802730801659,2.9586096410379112,1.1647749358675934,2.1342142715469787
1250,-0.8033228418853119,0.2578724481319164,0.5955392448782121,-1.186017444839246,-2.70980249140612,-1.3232457037253358
1260,-0.7998060654711303,0.2657744626141372,0.6003781197932505,-5.279352252070975,0.3643648023131748,-3.1397284616133523
1270,-0.7847844286322442,0.2737192573137939,0.6169549653337079,-5.429858995106443,-0.7382933985816391,-4.372085464466599
1280,-0.7945952684979117,0.26062263047589146,0.604671121718836,-5.163367288654297,-1.0398185507762303,-3.96891835260958
1290,-0.8173109006445491,0.23422345143219025,0.5814612016793528,-3.328831724397574,0.19720851213428725,-2.1157020690527766
1300,-0.8268313330990514,0.22189038369648473,0.5723774939171662,-0.6738479329559139,1.228334462576757,-0.07870425765647804
1310,-0.8056204459217824,0.25115319121828356,0.5913503203685758,-1.3035252582295414,0.5268527739859208,-0.014707267436867344
1320,-0.8146197153878536,0.24887759646911495,0.5930603053669127,-2.0497214167590694,-1.1392310730935002,-1.488598323970424
1330,-0.819423620691668,0.2315508419754506,0.5869331098406563,2.9960519914823327,-0.7013159449230472,1.326640202877174
1340,-0.8056124159031094,0.2488031801670172,0.5970689786590699,4.253152498042545,1.2948681169493867,3.510590857446317
1350,-0.7867854436979629,0.27117171131796347,0.619959713831331,2.107260513583616,-0.7149086717877192,0.9704996190402612
1360,-0.8302959093463822,0.23689848772371225,0.5729679278711421,1.5519866951674532,1.4450182695734886,1.5558272207221944
1370,-0.8209708801656811,0.24714920903948823,0.5780820879070611,-3.3799127862896983,-1.539331398815631,-2.817532648918356
1380,-0.7931955746051931,0.26563656369220107,0.606572587492524,-3.517543693884498,-1.8217574282628015,-3.3422334248218704
1390,-0.7998305627082929,0.25478884071558083,0.6018910966796391,0.05664775719799553,0.7480349149937031,0.40914124965263887
1400,-0.7893641375179492,0.27528145564504325,0.6114685886242213,3.294915340047222,1.742279165343306,3.6068357945287106
1410,-0.812219825468078,0.2512882808946896,0.5856868808320744,-0.12437943221371828,0.11730277444363535,0.36482566809865125
1420,-0.8229282973395033,0.24272059548066116,0.5777480891613597,0.19152340434674608,1.1935023109911107,1.438000086005819
1430,-0.8203559676140271,0.2450844414045349,0.5770152953451068,1.2653304234127574,2.285090043646015,2.2394027282316515
1440,-0.8117817156623549,0.2470337751200245,0.5874992600793341,-0.9704190183397374,-0.02678078240806156,-0.5813929815877156
1450,-0.7992078070916404,0.25882003037297735,0.6056549024231528,-0.41026621219318526,-0.3147033489344985,-1.2169320670959403
1460,-0.8364690416092845,0.22009784960696638,0.5719343970179582,-1.2326407080111081,-1.7504996585096158,-1.8359009978754626
1470,-0.7996878701502228,0.2510255688716464,0.605870209265558,0.5332318557960614,0.11047281742282922,1.7004764298052015
1480,-0.8064959096298002,0.25112828145505933,0.5914725057625797,2.6156038852705232,1.2346816439599893,3.245869812406245
1490,-0.8068036469940671,0.2639865880621672,0.5926850970924341,3.903699253351542,1.0014074201127288,2.458951164086818
1500,-0.8215869687200034,0.252750528980607,0.5837749050626027,1.5145974692906208,0.7168251990876696,0.5497894733594979
1510,-0.8060037637324539,0.2624655293086558,0.5967398493203314,-2.7081808380689787,-1.091019089009396,-3.1789905610807967
1520,-0.7863235682806478,0.27200118452460725,0.6201550840870509,-2.181257814826571,-1.0614375571500096,-3.221254557985455
1530,-0.8027363441418552,0.25275350759889476,0.5961903678677658,1.3092790678214559,0.9667621903793542,1.4189141603849245
1540,-0.8061231496986756,0.25406612070660456,0.5892152467223946,-0.17717190679271866,-0.8829752339109557,1.128357122759853
1550,-0.7906730628896593,0.27646789771791846,0.6099675428293557,-0.523085799920161,-0.6461731896513012,0.05494422298699464
1560,-0.8124006291858482,0.25888868993272657,0.584630656206064,-0.06535235175301328,-0.10112961431851039,-1.0121825019401791
1570,-0.7875939511137445,0.2783152191337244,0.6150866002706205,-4.30706467531283,-4.153932465170347,-6.120478697833215
1580,-0.7916308543602265,0.2782532408058867,0.6121702676897574,-2.9482973172061158,-2.256648636072702,-3.5937943243246866
1590,-0.8032043418653985,0.25446576182834957,0.596246415285525,0.02233042385977857,1.6313252070543582,0.17296801287866215
1600,-0.7986215282602724,0.2660569720241824,0.6002414262729038,-0.3373043499334885,0.1287382462547986,1.483319996005869
1610,-0.8071579002776424,0.2629192732977755,0.5960857438494066,0.9642528831695565,0.42307830642957944,1.813076916529677
1620,-0.8349377413637404,0.23493987721626658,0.5729948801317822,0.1605012989667637,0.2744878656486368,-0.07018397471574278
1630,-0.7980490640260837,0.26776020188884325,0.6078448116826789,-3.470736128384545,-1.6486095784055428,-3.3196977762192477
1640,-0.7862130061834693,0.2742528969141513,0.6124388816556232,0.5759609524003553,3.1238277446278633,0.8848328194289437
1650,-0.8152757439539966,0.24648995020174164,0.5862187562706159,-2.2197109418597734,-1.1528408793233602,-2.627071498629509
1660,-0.7742154287406956,0.2722000222352292,0.6252707062576413,-0.3680577008065475,-0.39531762458733966,-0.38900104703329474
1670,-0.8014184549033344,0.27411911585844384,0.6001297709149203,3.515660461588152,1.0856810771567693,2.4565406138211285
1680,-0.8056487022927624,0.26563475964398314,0.5912158543624575,-1.2519328977264843,-0.4017323811544408,-0.8265892591386272
1690,-0.8338204230440646,0.23545173897977545,0.5703376026485916,-1.6747931906542237,1.4932343879894172,-0.395098720352264
1700,-0.7920022539886923,0.269236159274367,0.612522937690439,-4.65275983965883,-1.0458856235719034,-3.426774907632791
1710,-0.7986164606276058,0.24722731142142443,0.5980484792902103,-2.911987642696518,-0.15302835799101605,-1.6470040942825068
1720,-0.8058017243295239,0.23727994471187547,0.5882357849661138,-0.5561047787072665,0.16969389654738837,0.6303788745914918
1730,-0.8169554434010462,0.248123681691602,0.5785648669650484,4.185339501898918,2.7720374751544647,3.7926641067556064
1740,-0.7824730189746236,0.2802834076094109,0.6131403723594981,-5.0933590028741325,-3.060611841789849,-5.187738501877278
