time_ms,ax,ay,az,gx,gy,gz
0,-0.8972479615057963,0.11105274581632951,0.352579842002582,-1.7869223217166068,-1.1254238811728703,0.6143086198475561
10,-0.8638124756291025,0.14255033171138695,0.37951450351202876,-1.167586394330126,-0.7645960055222587,-2.7533007361284128
20,-0.9005970767145576,0.10417238298093466,0.3438319716745527,-0.5441871322527172,-0.5414219158995235,-2.8105074544376047
30,-0.8999037489049269,0.10434549974239188,0.344342960769785,1.5164155686380059,0.7956145867062796,0.31649356820013247
40,-0.9067614969164123,0.10066658422735897,0.34005028130915776,2.319600866871741,1.229129904711569,2.758597931196252
50,-0.8909534839609805,0.12099333985413381,0.3556020063844546,-3.091712508594447,-4.058731800137153,-1.5966552456252012
60,-0.8720492372822682,0.14146220857764286,0.3678901923539638,2.7129688518151354,1.9312298498594191,4.065035880131895
70,-0.8840638715519155,0.129667465158218,0.3660465198910825,-1.6549583189605865,-2.308156308919439,-0.9647987981613879
80,-0.884523287566888,0.12291978845984126,0.3643587476485952,-1.074634960714854,-0.8530567428379181,-2.346568128982091
90,-0.8623024257239404,0.14329875649065119,0.37977895399255085,0.3797543594669467,-0.16898676328864728,-1.061292278638157
100,-0.9016882454563983,0.11043069682891915,0.34626824726033006,2.144071826644293,1.6300951252334506,1.3852931417514416
110,-0.8669256519696359,0.14458497410622803,0.37938632306815795,-1.662316166427692,-1.207928246220867,-1.4481446969184126
120,-0.9041954448620682,0.10530309889955546,0.3391675092807158,-5.392805192376314,-3.760128973300808,-4.197143045749821
130,-0.8735977735417432,0.13826438471410804,0.37496649248200875,-1.7341899585044576,0.4061646191164431,0.1664983482110008
140,-0.8927744966375765,0.11257131546171689,0.3545322168303501,-4.096666471912117,-2.644987106339658,-2.3156181833425618
150,-0.8739318192418458,0.13554945794986015,0.37283274782237436,1.0203153379681946,0.7132058179581404,1.0569316928971573
160,-0.8817223898510563,0.12615591977241786,0.3639382916337663,-2.3750731242239627,-1.115717853544733,-1.2657185938706559
170,-0.900799233054791,0.11030919006258516,0.3432788879506039,0.2071605358802393,1.3268436917923265,1.0805773059757688
180,-0.8577622824115168,0.1510841241018051,0.384920685228733,1.13523340987433,2.143441432410493,1.955002838753202
190,-0.9032990844987574,0.10234021877157576,0.3411532520629151,1.6969385096539593,2.318929363828369,2.4385511279784007
200,-0.9064054576515513,0.09957804467297113,0.3404952365469329,-0.4607812787279444,-1.1065249963941992,-0.4644536374169177
210,-0.8874642218783605,0.12162400958551782,0.36026493461482556,0.7755483701267814,-1.4467903308057652,0.054325235019091034
220,-0.9055229632765425,0.11964521170593022,0.36488269327959993,5.029980184719657,2.254916119078054,6.841815330683183
230,-0.9000496288468239,0.14099596624328625,0.36982411519298886,-0.5628957540153414,-4.595178045470223,-0.3372546754875323
240,-0.933704553193106,0.20075532016234965,0.3991023666768404,-18.09390100691881,-4.761158122171906,-9.402107784586606
250,-0.9256053808523643,0.1564424063310039,0.3804232223896165,-23.277425123682495,-4.607970896909559,-12.796340281684019
260,-0.9131314314106729,0.0859363256646973,0.39702886555217787,-20.678341201637693,-3.1990216403416767,-4.718197371631851
270,-0.9245572588642539,0.020027052802699598,0.47599556623991046,-15.707295915795662,-6.299925893405443,3.3983863447132263
280,-0.9006957613142027,0.03302144453438146,0.5421741202483844,-9.29386929289047,-24.765563481243838,-3.9208606410114824
290,-0.7772176605942669,0.357138246528904,0.4208537568482123,3.363061221779872,-48.41803078331511,-7.396098466735925
300,-0.6806085124986474,0.2902119619177956,0.22819638460396252,-19.454066825179492,-41.39277268793935,-16.066494959802082
310,-0.626137776653986,0.3149906523195295,0.27879118110191203,-51.23686135165073,-24.07794099473773,-19.3251065374515
320,-0.6604965390043074,0.3030847266660731,0.3380362677704379,-69.50859574760841,-12.672165895303984,-18.86967551642742
330,-0.7200805674984668,0.2467801049069443,0.39351581569433886,-85.33916496114291,-8.465378010004997,-22.552592326221067
340,-0.8287931259197604,0.1329187412177909,0.38849791887984664,-95.29137402510835,-1.1735283518589994,-22.988604436344165
350,-0.8772906669297347,0.043376953746361614,0.4385805177711365,-90.45378820373861,-3.5226525377936957,-24.523081951633387
360,-0.8435900871466028,-0.11890914508639253,0.5662644378974855,-44.19040437451279,-22.017778933091442,-22.754698369546553
370,-0.8517385029519452,-0.2958409061911998,0.3951505535981285,-31.476757755695132,-28.27194319894149,-27.61449112138129
380,-0.9336279274424814,-0.4632572277858331,0.13580602156899982,25.030949269412307,-27.14306058005313,-0.8635568736859625
390,-0.914278689966912,-0.1780113479585055,0.7915375783223338,72.87751852960282,-26.80249007583105,21.744910869614106
400,-0.8931615364557856,-0.009868254251540243,0.7660576868989426,83.68283126015731,-29.52480110115971,19.984078337925233
410,-0.7792562572583555,-0.19769894458996154,0.479392358851996,57.84342697583636,-29.75143043731082,-0.993659011491035
420,-0.6046763815717603,-0.3743323134534447,0.47327399687397914,19.056652687520142,-16.84019199709688,-24.47639379124469
430,-0.8054097391804738,-0.2697200614554306,0.19746744969299487,-7.755104644669655,6.590610574142357,-40.02274788510218
440,-0.9123331068628688,-0.17684226366755026,0.23557991201195622,-8.140356947119715,15.075409666981166,-32.117414105134095
450,-0.7929696641035002,-0.42117047416988707,0.11122055500103536,-2.320749797983212,8.695727992997309,-35.68150316934186
460,-0.8355083109437346,-0.3978811009440811,0.08880750376518666,19.11646331675829,9.673727201738354,-30.45559338802011
470,-0.9444934609954262,0.41496932789569035,0.6420830721999791,23.888642572779695,10.817784890136625,-24.15288178494357
480,-0.9814353241486985,0.49480814355175295,0.6694582862529054,-10.171136724849205,14.21934606503605,-31.80962016792924
490,-0.9467988356485934,0.14078581687944186,0.2732310455220309,2.939800159791929,26.95830520351709,-5.718025430480562
500,-1.0579439441764626,0.37176594008901337,0.28334366312532155,106.51886353771006,48.95250855319157,77.73684283736713
510,-1.0113640072873669,0.041938183511911434,0.6620860233723006,70.16121603132382,58.98953732251434,77.64531559895143
520,-0.9258434306447111,0.11749850666115891,1.066848291007893,21.25280581961645,68.39125649563005,85.46147766943344
530,-0.8651619607606043,0.361722502886157,1.7602199475130498,-37.346961580074066,49.0659811106221,61.80774845863965
540,-0.8567131893286434,0.24742685503859288,0.9183181880359456,-26.514963029763322,44.22595042926916,71.73730320076109
550,-0.6940278858753653,0.3485808940308068,0.11094892542710867,10.665708234083302,49.00734741589815,93.94914578086313
560,-0.5345522160449936,0.2924823136640037,0.07971237545742009,5.875369619024776,35.66570469562722,75.75579666781954
570,-0.6594803723413213,-0.2620274014027524,0.35054934174996477,-19.32290131581903,18.260003686035475,29.294563040061227
580,-0.8774814135819965,-0.38464741554311704,0.3387170621043899,-3.0414456535733496,0.13454897915596242,-8.569407713356382
590,-0.932624740148689,-0.08372540156591816,0.35365240326377745,52.722427890478464,4.335190466087216,3.7027572962595974
600,-0.8759450646696407,0.01913668652039484,0.33911745077591177,41.030423209264065,5.493788715584914,13.097428987602086
610,-0.9330211669072823,-0.12386456472630829,0.314587468242969,39.220594402829384,6.153892112589372,13.647025872323002
620,-0.9935279043424519,-0.2657209911738133,0.35263532434979206,53.79980585025477,9.491938300045618,14.514893082693215
630,-0.9420804510367407,-0.07836743287463624,0.4643245809662905,60.87607150095603,4.022599648605814,-3.441355697278392
640,-0.7733753202648728,0.2194988494813372,0.6376729614329522,51.610206890523244,-1.5099871549621298,-25.173067185799432
650,-0.7101526645481471,0.04171913905469274,0.6806804053820189,41.436331292864864,8.406145774688545,-11.12260454381249
660,-0.9310371408048086,0.20928830066189003,0.18608721953238022,56.761031174168394,1.0089045950343072,9.33114177611479
670,-0.9524745879941314,0.4387140572686572,0.1958186184900324,76.55274106507296,-9.090153182217565,8.660365605976816
680,-0.9504381650962105,0.5569171868791937,0.3904130407168794,54.08838283810842,-6.821591480695423,0.4756491019905611
690,-0.8911367078140281,0.5179861286926993,0.47376308164976644,25.82748450705821,0.02236546180904142,0.41766342239376764
700,-0.8955961490617735,0.28763833173601205,0.3897279714965453,-3.976065913934499,-1.7961617536687806,-8.844202748746218
710,-0.8923226554131383,0.11694196962110388,0.340989970865556,-16.630377538796818,-1.1192324393068822,-13.104458983072313
720,-0.8881477546943295,0.09906950213215025,0.35485989404254153,-17.499012167107328,-4.017127711216,-9.946718771403326
730,-0.8996040983439512,0.0705973391979467,0.33870258481055476,-9.31003381788735,-2.41046591316806,0.0035322264241699486
740,-0.8857666575354368,0.11400980200172273,0.3507558664422353,-10.661144112101697,-3.3890570466617937,2.7946787343409936
750,-0.9052559463144391,0.09082065522350175,0.3337735045084332,-4.989398880051562,-0.05919871765769824,8.072211641762141
760,-0.9018124751037898,0.09127397566173237,0.3346768500527839,-5.385138645962669,-3.2249344461076888,5.8982444932587015
770,-0.8803983400203026,0.11088228696068961,0.3541139355010318,-3.665985471279688,-3.02707176936131,2.8989479993505984
780,-0.9115225549453309,0.09205157261362522,0.3254915948507019,-4.896157356048081,-4.374692077590441,-2.6849838794660963
790,-0.8951287428492258,0.12601321227529547,0.34621762986984667,-1.941142126080889,-0.6884341376779869,-0.6329356974264844
800,-0.8933171764803756,0.10667003335175664,0.3472540280187905,-2.2580924429989215,-0.38288374069961484,-1.1805420976736831
810,-0.8930025541201927,0.10367985769518319,0.3457989026572496,0.5170992413734732,-2.81132639614227,-0.36613427496254025
820,-0.9081649385108401,0.1093841390418531,0.33783738465800195,2.529698162214998,-1.3399285703579986,3.0512005971138083
830,-0.8422976992497189,0.1763265593947771,0.3974034370248604,0.7747003124356839,-1.5876109515128753,2.6932665562677585
840,-0.8707741985828813,0.1424325794842129,0.3671318885996698,1.8740911266124847,0.31269019436506607,4.0989664206479635
850,-0.9130211719635025,0.10199542227777736,0.3273045586947054,-1.6495161832745777,-1.3637995562070293,1.253924928366674
860,-0.891941424843473,0.1302629209326383,0.34747484890060987,-2.426026529779093,0.4433960091090593,1.2309621379331865
870,-0.8919480386470398,0.12978045758464307,0.34331342379338203,-5.331953058513614,-2.199072642266533,-2.92541874960851
880,-0.922939449051178,0.09450800880852794,0.32173071547124993,-5.653136971356119,-0.8455118044913332,-3.4912478055059593
890,-0.8892685843884197,0.11450963527554944,0.3444062505479763,-6.675889514927283,0.009395655293249205,-3.3532848788208636
900,-0.8964714082391951,0.11087012061873634,0.34964222196372785,1.488268848125963,3.149608489152871,2.0635238842951655
910,-0.8725808252861611,0.13956666790376257,0.3660010824926464,0.6504246935870714,0.1217677640022018,1.6624797068212849
920,-0.8824982722841079,0.1298145827530107,0.35314756372395056,-1.557959161396758,-2.324070953407778,0.015814605966318673
930,-0.9295280170364252,0.08315489425144476,0.3112123359693009,0.6439256848390366,-0.7260882704459933,0.9904668325558924
940,-0.8730327394830311,0.14543521426904538,0.36475011323102113,1.706830300558282,-0.3118214350672881,0.7753943661314191
950,-0.8735125572943011,0.14801273686232289,0.370728160275329,-0.3302284010999132,-0.42427755611522033,-0.8440425746510658
960,-0.8844888276334376,0.13687868246375398,0.35874873036196137,-3.532121630524162,0.306128222362537,-1.428889151219079
970,-0.9000363672318827,0.11562024102337491,0.3412085404019078,-5.441920288828317,-0.788744764385308,-3.0614699525875197
980,-0.8964131897759798,0.10982848258062375,0.3450686698789206,-1.9638879562096365,-0.14970487316998693,-0.5691876586195461
990,-0.8827522104069268,0.1198162268779961,0.35395345500003544,1.789511002101532,1.5004827818513025,2.617589965132627
1000,-0.9303520088355639,0.07675933134249857,0.30681095940899883,2.0443070242345316,1.9951376654443171,3.1122352052956446
1010,-0.8916261553353538,0.12227884115033139,0.35486813361710645,0.1346185186406077,1.3248453048178281,1.5347416941471985
1020,-0.8836006844678218,0.13056338837259404,0.3603483124338124,-2.884174455984364,-1.4747566461454997,-1.8835914818883834
1030,-0.8945978551652451,0.11700289668279111,0.34517320029144594,0.6878465795587043,1.0801739650140378,0.8923980683088522
1040,-0.9065824483340966,0.09983215761004494,0.3289054320068799,0.3536345354959939,1.136629841824508,0.5290015170425331
1050,-0.9038513177066538,0.10606789444927797,0.3352265204105505,-1.5656730871806037,-1.804693029958719,-0.6292916157114594
1060,-0.8732543806654458,0.1372527785920792,0.36790769839405146,0.9549120751199459,-0.38690403662425965,1.882377916469708
1070,-0.8967304900577373,0.11235648056075226,0.3435288569935864,3.152467663255625,0.9456140985600715,3.3562876120930896
1080,-0.8981409401145785,0.11101832869723763,0.33928118748421343,3.546489138818037,1.1886204580105488,3.1174873419925246
1090,-0.8897726447268237,0.12097102943818426,0.34473765643181237,3.006609804680788,1.9956089626948557,2.5253384367128087
1100,-0.9034827172463666,0.1133735711119096,0.33873440093670215,0.42665823348380144,1.180346168199438,0.022785031978851122
1110,-0.8792890613104859,0.1346486121591673,0.3604417665978367,-2.454163998888148,-1.4981346897938812,-3.0430711102616455
1120,-0.8766525423875006,0.13660453960846947,0.36678822659411875,-0.1292547425302758,0.8050719655662757,0.9265118958837061
1130,-0.8900583324318246,0.1206116105313563,0.34577131775975833,-0.054302416099728634,-0.14938300665312004,1.2200878151975136
1140,-0.9062483529819537,0.10147641413210969,0.32575398829743335,-1.8598085474049078,-2.4241906404327924,-0.9534132899091512
1150,-0.8812316238747621,0.12848503517983745,0.35349669345785184,2.727399692371797,2.2794670039946157,3.2744559798405275
1160,-0.8700280878259438,0.1458600666203418,0.3643143610523858,-1.4205957464963719,-2.222263574992647,-1.5489186758695475
1170,-0.8869923392267305,0.12324768772282596,0.3484460350424621,0.4532435998750608,-0.3678373575366674,-0.24151530570641933
1180,-0.8782620009754027,0.12821983547503438,0.35924600860575395,3.7640797493645013,3.7104665426897663,2.855914974832009
1190,-0.8829836464655733,0.12642888603774527,0.35185447583819346,3.1400483577737086,3.0600682635049856,3.364529860275846
1200,-0.8840714029849235,0.1277107763257644,0.35710655941066927,-0.37877150375363716,-0.37113017551394795,0.8920559292671072
1210,-0.8965520817228305,0.11272642099956579,0.3446400086211103,2.526418881232942,1.174763289390496,3.5821735724764507
1220,-0.9034695710858931,0.10682080256839252,0.33200286566295967,3.403827216410228,1.913529928789714,4.394710420667633
1230,-0.9152092393233332,0.10248681779862975,0.32078896159955805,0.5993628866187803,1.427414142936847,2.4808604206519176
1240,-0.8787164710253239,0.13795465254841793,0.3688140819259615,-3.123615187274603,-2.1353186240113944,-1.5540992948660053
1250,-0.9030535607681947,0.10833323054623548,0.34516055130182577,0.166403955598451,0.6400346493145427,1.318805382858036
1260,-0.8732749138167215,0.14310258715029434,0.3729868124810328,0.9104817167909549,0.9110241122290361,0.2050373090767495
1270,-0.8953204512884635,0.11957533669692336,0.3464821063877927,1.5833744365782318,2.3672415228820842,0.9936832216654705
1280,-0.9042780000539203,0.10966690339372244,0.3376614017280887,1.7325957763795274,3.4450363107652806,2.059110749605349
1290,-0.8909076148346398,0.12192008334187805,0.35194128449060813,-2.0212843358821253,-0.5669051649177277,-1.5017210747032144
1300,-0.8964282568352963,0.11566249793312676,0.34501345652946364,-3.8725649569907907,-2.955736173876741,-3.4849923497805984
1310,-0.8893316052224723,0.12376549671894059,0.3511124549178416,-1.1628567732210287,1.0290131939366853,0.3278472648146924
1320,-0.8606148571880492,0.1382135828702351,0.37856975908603874,-1.2623692050899806,1.2824372436338594,0.49628211601510785
1330,-0.8642497585003249,0.14896467823430412,0.3754751083818936,-1.2412939274928565,-0.9212734506752043,-1.9046038991411223
1340,-0.872165918546353,0.14564400906561706,0.37443111499122633,-3.182913145565769,-0.5603944846408087,-3.9442727959637103
1350,-0.8904080438525201,0.12155423903781955,0.35839087748783766,-0.11804886859486016,0.182472944209577,-2.7531727884268253
1360,-0.8828714335704198,0.12933590578078677,0.3608083854764196,-0.9705454249305334,-1.9989370891913636,-3.971542620717911
1370,-0.894294132815052,0.11895425925490456,0.3437762173051881,-3.7913228818874027,-3.3536504952743016,-5.206910768022261
1380,-0.87788995262984,0.12495507638092765,0.3619452357405554,-3.168147644004801,-1.8354614678410257,-3.3331694975369017
1390,-0.8988047979932627,0.10407065084822932,0.3460406651720869,-1.0607068797643848,1.365270921177837,0.6766407359675608
1400,-0.8614806256465687,0.14560475112630922,0.37316679774237155,-4.491314110842312,-1.9430623051635452,-4.057334303907398
1410,-0.8945164082596396,0.1135588099984549,0.3421098007347659,-3.08266521394836,-0.6413180519189878,-2.7772050809302495
1420,-0.9205547233281548,0.08800888384781905,0.3169921168993672,-4.300644120068604,-2.3189014006481834,-4.127514452076914
1430,-0.8840099716958177,0.12359796743161175,0.35626507944872937,-3.4316889926980796,-1.2903735760141226,-2.894061151827034
1440,-0.8778100585482922,0.12508287447312316,0.3638168667990305,0.02475252337397471,2.291686614834761,1.0512934587524365
1450,-0.8823065668315028,0.1146071471275878,0.3576326623502652,-4.249240235572068,-2.521963591587215,-2.935804501153457
1460,-0.9107771384584984,0.08820693771700794,0.3314686383242648,0.6639441566136699,1.9580403278023164,2.397989809671822
1470,-0.8789204728753423,0.13094563224004518,0.3626925452926532,-1.2480663328551915,-2.2648555976823763,-2.109079943632604
1480,-0.8767390229190913,0.12287661846607373,0.3671774497097493,1.3019043717420675,1.130911196149992,1.234388604585039
1490,-0.906600268556543,0.09632839577390138,0.34007520329189067,-6.496530702315107,-3.9414114177118083,-4.774398196096827
1500,-0.9026415473633386,0.10170983104031778,0.3407904040504289,-2.343166078354997,0.10195240405953367,-0.38475846589042606
1510,-0.891143012482751,0.10026720392066218,0.34288424292993797,-4.167535916536606,0.25601710287194424,-0.3616728911052837
1520,-0.9144753629553117,0.06825632890887688,0.3158288194288076,-5.572327499629843,2.1628729374286646,0.7229257463845739
1530,-0.8944700117723127,0.10934678146890568,0.3478977411907046,-2.9034642942557936,1.20407641684725,0.6703779376787213
1540,-0.8552429316329258,0.13830854657350095,0.38416424731578913,1.6869240814118192,1.2125140944708368,1.2651571512028643
1550,-0.8910794270967624,0.11060101993195039,0.3508045631488196,-0.7709013906921334,-0.09018536238601323,-0.22825836928796361
1560,-0.8822447322619664,0.11535074002628339,0.3588347001572146,1.216567489277892,2.3404670880802847,2.43493871233974
1570,-0.8954238107421731,0.10340728440759903,0.3454593943037687,-0.24330275450041072,0.3659225413218362,0.6946972753509517
1580,-0.8858597118693708,0.1168722128535297,0.3570679251028754,-0.2863896033428043,-0.9574253551067963,-0.09345698137909986
1590,-0.8798236589150968,0.12494095333450077,0.36480071525068175,1.0588067854870014,-0.3959301546293352,0.5295293503647022
1600,-0.897698017258224,0.10777499790672229,0.3447813366928073,0.14591995076363073,-0.7881201118557987,-1.0123411781955636
1610,-0.8909801622399557,0.11688143444177394,0.34733737558284083,0.9440950670380271,0.1571173012109729,-0.7622215644836035
1620,-0.8939844798868906,0.10798114221310291,0.3484184913742122,-5.072713751876044,-2.9195106208415993,-4.477550297882912
1630,-0.8843529803046545,0.11571406761988265,0.3618983116512591,-0.3989597803406566,0.4797749751414955,-0.1222259937388337
1640,-0.8823637063240904,0.11709040597806214,0.36800189126256416,-0.987731851166552,-1.1237378226240118,-0.8871987385839784
1650,-0.9036651657095984,0.0974600416487757,0.3468404273755246,-3.112259147119654,-3.6680661999167903,-2.795249053144274
1660,-0.885492669903534,0.11903878013347029,0.35977687068451586,0.10529458378114964,-0.8656738472969466,0.5309258839217932
1670,-0.8946559976868611,0.11101489907971672,0.3446945105401464,-0.30715012549993603,-1.1665270543620612,-0.22642013526728166
1680,-0.8823415821195792,0.11781595433673749,0.3591449468203469,-3.3746988470807837,-2.089373567360922,-3.78533300895681
1690,-0.8925001907042591,0.10889817227808299,0.3570006260326434,-0.8420349131578491,-0.25267997363369804,-1.241583749864344
1700,-0.9014845225688198,0.09998296718117429,0.34571200353951276,0.5882463253016099,0.4083038031123146,0.5303871142386785
1710,-0.8832193296890977,0.1172909758031316,0.3613690270518441,3.4714156147925945,2.5980290111874735,3.346038727490986
1720,-0.8779602804984511,0.12300863758467694,0.36451460372498345,1.5817523785042602,0.18049616269111293,1.2799926699217619
1730,-0.8883533385548248,0.11508808933612939,0.35790753126064767,3.181382729115162,2.104003395654274,2.730671737613511
1740,-0.9072330724305288,0.09782289706863843,0.34129852622149615,3.4184888780201583,3.5100570329663583,2.8930297086479175
1750,-0.9115082156234133,0.09089417622671818,0.325861832868609,-2.1261804375886766,-0.9284459553091369,-2.436360291429695
1760,-0.8815136110010334,0.11871993877846312,0.3631447037570638,-2.2718674427351586,-0.21252559245339941,-1.3638121753581347
1770,-0.9023043805417581,0.09536514655204929,0.3403692237287082,-4.517142255132243,-3.5667042997748832,-3.978768452237241
1780,-0.88321321321478,0.11721561273855759,0.3553605727560729,2.194350222247418,2.333295081412747,3.230456035382603
1790,-0.8948210204706318,0.10788575668074572,0.34519195742240816,-1.3380174218985947,-1.1819125219312412,0.002016138064412587
1800,-0.8987269052385608,0.10469763884656705,0.34371900611668915,1.4553143329091338,1.3862788151462844,2.1958779690804597
1810,-0.8760730072169852,0.12729347147917228,0.3639972179614226,0.20645210937621838,-0.5064529889501997,-0.20701902507048214
1820,-0.8811432845487043,0.12221755896800152,0.35510523874304245,2.4082403620686166,1.506911184795825,1.2843655642391185
1830,-0.9103722612345265,0.09321333439994514,0.33698678825312905,0.8539685761191285,0.6723439262926909,0.038584408324366826
1840,-0.8999811473103868,0.10603216738326854,0.3502573429583893,-0.20654388517944072,-0.13419132224551045,0.4600718043347838
1850,-0.8859390782048364,0.1261872396319297,0.3555868385275928,-0.9748139470579382,-0.6135352037117621,-0.31962677477211765
1860,-0.8874478458585429,0.11846819901298315,0.3532209738821875,-1.8971591078254568,-1.6379832216718648,-1.280524807630373
1870,-0.8965357537538785,0.1021305376807685,0.3427583857786702,-0.39421379083795494,-0.9294828514050928,-0.3221840484508801
1880,-0.8844674210049036,0.1128854477914338,0.35627223624092624,-0.6475099127737044,-1.374827797975204,-1.136331406328379
1890,-0.8994965282668416,0.10040991979874059,0.34670687439127756,0.7439398942402958,0.4865181765080422,0.2951049934541343
1900,-0.9055925042939772,0.09529240792835231,0.33633727989639417,2.7396888402872555,1.0611447099526896,2.484060944126038
1910,-0.8896278624558848,0.11738531967044402,0.352599913529151,1.1156855234859877,-0.9794707233724668,0.8309267457770857
1920,-0.8610088269664511,0.1372066477851251,0.37731609537825517,2.042862540765582,0.922515652386324,1.8414839763877464
1930,-0.8706638074807616,0.13091571884618095,0.36981244055522855,3.0363574715622907,2.1556136056199007,2.327212226915092
1940,-0.8874699210094732,0.12023977389098749,0.357073062113129,2.2343428429977976,2.117739931257016,1.2868222682721204
1950,-0.8885205311505716,0.1179821275719108,0.3573299476525065,2.8420513463636454,2.4690157700042277,2.088589538068047
1960,-0.8797991586470203,0.12135394237004843,0.3646060223147629,0.414474686933205,-1.1745760732559969,0.15190027435113973
1970,-0.9197318724802225,0.08407079055918676,0.32385382358006054,3.6917616932376074,2.2373532324354546,3.8603253093247174
1980,-0.8701290727511503,0.1378770759234201,0.3705695993457087,1.0721220796084503,-0.6107136365082606,0.264561288961604
