time_ms,ax,ay,az,gx,gy,gz
0,-0.8045500123337757,0.088214175488844,0.16317351458816567,-0.6510401513985282,-0.30476114262604975,-1.4286309086318465
10,-0.7648647429879383,0.11885194343935664,0.20224564616787954,-1.734775863712932,-0.4995650042776299,-1.843914843548597
20,-0.7790354784450121,0.10111803302626106,0.18917236169744953,2.434205289227313,2.5641916917964744,2.448192207972603
30,-0.7796253995008551,0.1056035227847575,0.1862533232742592,-0.8602759103850759,-0.91611494418167,-0.33016286015193563
40,-0.753382654141483,0.13753662335421135,0.2117920177287063,-0.41984408222002884,0.016351472114095544,0.3713800036451208
50,-0.7833275139954388,0.10317231968275606,0.1862784885984546,2.1999781575627084,2.623098647194599,1.96523775270634
60,-0.7770912639444811,0.10950350687490484,0.18913258544421643,-5.203004782164546,-4.568941261056776,-5.979938094002519
70,-0.7717398680635041,0.11239422970607815,0.19774233733391172,0.5367496295567882,0.9550795489929482,-0.7906853876668891
80,-0.7445974605788822,0.13616255422891174,0.21855936039751972,-0.43641855941406016,-1.0162971688433273,-1.9552326893026386
90,-0.7839323939134388,0.10140809779497252,0.1853591026052444,-1.0996451239285583,-1.3180808373959134,0.2727228824121486
100,-0.7854327405789349,0.09566747482375586,0.17864386772159352,2.936032956471125,3.3291753134527404,4.962620616132234
110,-0.7553742227548418,0.13697494140868668,0.2111944020174551,1.0194647190091923,0.9854441929942824,2.2854381260038825
120,-0.7933792179755536,0.10239396527551153,0.179767011728279,1.815906488476568,1.6729792494457454,2.1841480052037756
130,-0.8109138473418702,0.08618084630695187,0.17492908354521816,2.0650112599653028,0.8503900921121141,1.431954104003458
140,-0.8030082292621695,0.1321623063302981,0.22924606880524045,-8.649147345241747,-4.211228866095732,-4.271463873446132
150,-0.9271118233564458,0.15541663313627532,0.32916708533401545,-16.94383524636709,-11.080391836603543,0.9803002275988086
160,-1.0127395262323347,0.1630545833799365,0.31913111675686834,-10.678627494646031,-25.74568997597609,9.895545658521797
170,-0.9691028536125984,0.2038197272088034,0.37935156270107273,-17.510824714818668,-43.88681193781989,11.036397206294733
180,-0.8148378809393191,0.1959968684563399,0.26635835851070194,-14.91452430003067,-56.10757972738126,13.439535681184108
190,-0.6735973191233823,0.12098819774771297,0.235356880084315,-21.82160208133961,-57.86275953260684,10.838609779366395
200,-0.554401294553325,0.15171052849952216,0.2400012170796948,-30.567319424464667,-32.11432027912954,4.8498272625507965
210,-0.6685817804185633,0.2015682616818873,0.20478522967207177,-50.661781491310286,-24.637377744677593,-0.43511954113901785
220,-0.7501149599925508,0.12863018366364898,0.20767966736432775,-59.12337181128851,-17.76458611218977,1.2936434645233903
230,-0.774402959655655,0.06460586149700666,0.2442136082861212,-59.80842118003059,-11.42528121210166,-1.5962099682498576
240,-0.7745090249688407,0.09456145123279207,0.29732084514606216,-65.69148330117054,-12.779435078365491,-12.017992116192154
250,-0.7610598692348574,-0.013808551407482226,0.2136516735926728,-48.03082521880142,-7.080141867724444,-7.944639542081475
260,-0.6891888998560038,0.049475638891542606,0.23228491050426514,-28.788196117293257,3.5886217495254535,-2.152678055224876
270,-0.724346830588826,0.02972851016037279,0.24857292915208637,-12.080564232545216,10.969671594805362,0.6011631119962069
280,-0.78584536194536,0.044322513899918994,0.28317467148064596,-10.355493918233481,10.408269709890234,-3.9308883586763517
290,-0.7546302173940247,0.10290784387114095,0.2841635895284985,-6.850219711805715,11.917630695753006,0.7528391275283735
300,-0.7555047189688512,0.06443794313022973,0.3079774470720382,-16.913184318890707,15.624683029655271,-0.983677965988317
310,-0.8589466646560311,-0.002993624667011828,0.3993385282480142,-32.74127111128604,12.691416141276457,-19.652546250115996
320,-0.8997168645881541,0.027521184034761795,0.405607324198053,-32.86240836695163,-6.985385856619841,-19.893397876799654
330,-0.7596495898495246,0.030191253677130617,0.3678825096081123,-26.047110911028874,-12.56207854234975,-9.233993231128185
340,-0.7780772102402825,0.0386716360306771,0.37754072040263603,-33.15846142433856,-14.576565252942254,-8.837069371964322
350,-0.7231762653736596,0.009235003213813979,0.49597715019571453,-25.394733690521388,-23.56479133056693,-6.0277234621056195
360,-0.7403110169535873,0.1115131426797343,0.18277886070918575,-16.379514632680745,-22.00008312906191,-4.0003005152187825
370,-0.6213170292878358,-0.2628203558595834,0.5156078130565026,-20.123212017234298,-19.33589762438224,-7.175894049944854
380,-0.7135564067281718,-0.16306518794259023,0.3458424702561008,-22.33615745929534,-19.504891681380315,-18.22443650723695
390,-0.845536409585314,-0.20639081499193088,0.26291863902620566,-36.82614410594413,-27.439421819664876,-38.32301802245584
400,-0.7419732607876081,-0.11038499553023122,0.38465960399248694,-33.16190527998546,-21.006228079400632,-25.861980801195656
410,-0.8329282385284151,0.0070693757685341,0.37652136768700095,-2.838960256534502,-10.144004038749626,-31.823808629102505
420,-0.7847781025390539,0.00920491969926036,0.23360038245478623,18.80039471609049,-2.7541299344746095,-38.79826944188233
430,-0.4818393348386027,-0.0736612145470089,0.06312673173171031,20.32037566835774,3.1134095107468926,-49.5763586531547
440,-0.6438464327343263,-0.2331541872063683,0.11446750432204739,19.29732968194323,12.436346463999637,-27.46121321941423
450,-0.8463923410788806,0.021559368482197368,-0.05099946687605835,-1.6632898610943436,16.474917061353743,-11.758286135678398
460,-0.8559698564027849,0.17840683353897896,0.59168543377876,50.34694397350473,28.391440295953426,11.68583975177414
470,-0.7775596992033149,0.26746537302632495,0.05555719528497412,39.73838908605963,37.45490413458407,12.809250691123069
480,-0.8938983956399054,0.2228706425862898,0.3463837076037895,11.48451431807381,45.522431054556066,24.497669964193882
490,-0.7083552279356333,0.29444463373862706,-0.28182717656281364,37.45886581359924,49.78588167254995,57.913807162055484
500,-0.8424021309144132,0.12001348088437272,0.5406416480882887,68.52197028420359,58.58613907329062,87.53075266392547
510,-0.8783184939515254,0.2601816172582164,0.4491246115898168,50.79450715426222,54.34652396666423,77.92308939596228
520,-0.6667730589144778,0.41251934269355905,0.2551801517328279,24.90722489085759,26.257235997144008,47.13668172638219
530,-0.7913495780277647,-0.05488552169577929,0.08700017513154246,-28.007698187922372,30.560093718161085,33.50541099994634
540,-0.9376773065200233,0.2702075057658781,0.7608905876316204,-21.705102460807183,39.71064616957377,36.41369656024989
550,-0.8688085132592084,0.15493452553175338,0.2865504182898602,-36.964856995313085,31.965905383674425,19.893842935667557
560,-0.5743248166867087,-0.06770262700028645,0.23245810445003,-21.391798167164602,21.67817354848106,8.158905357874474
570,-0.8070291509585567,-0.3283254592789687,0.30071533993870814,-19.295337353781132,5.02460104603132,-12.161927670625797
580,-0.7628516937044576,0.003926816964055564,0.18069692440628013,6.620327180997635,-2.570511640507635,-5.364748208345546
590,-0.7867218041111718,0.037539768234220366,0.1900835185615751,4.815590885331088,-2.2701340715220404,-2.2593070599823157
600,-0.7808013738531261,0.03212803897503849,0.22089336354136996,-7.109225454932929,1.0298422248169041,2.309201219143551
610,-0.7450026993391594,0.06547022351600126,0.2541701259007092,3.18085026702246,4.748193952587109,10.632147845773869
620,-0.7742145356810033,0.05251052232984643,0.23115911511984893,14.023469438217724,7.457746739570929,17.283553924971393
630,-0.5677215382191658,-0.07123479489170985,0.1956229322086582,89.41409890663338,-8.352288071914952,-54.35322530240133
640,-0.5514045246235322,-0.3279546462664635,0.7966492356597442,26.3077445883451,-13.653431637386532,-63.08292026473798
650,-0.7578263791588911,0.030006058362410434,0.14512367889723576,101.43814846303172,-23.37100155267769,-28.583801407387668
660,-0.8552947422359395,0.11458302673113085,0.1430857355578766,74.81585273577112,-8.77624772854317,-9.420208476177013
670,-0.8258063714241468,0.9807724324566564,0.4593002503831447,89.287268704483,0.5483977893578806,28.95579744096959
680,-0.8218708657991343,0.7783376401231001,0.25816620888300534,98.27529610411693,2.7109149691455805,37.42389288550943
690,-0.7461872940345233,0.5210156427476855,0.16120410250932055,50.028534125950124,1.8820963266606916,15.97018302067169
700,-0.7265549063326777,0.32800026171509183,0.2029385494407961,12.543750007680249,0.6073474518093485,3.6989224294812586
710,-0.761060303414538,0.1746584072380478,0.2203024852379614,-1.0444917886631502,-4.01110113949589,-14.158555152689807
720,-0.7535989397434945,0.16115551400906125,0.216929063692253,-0.26432488832917744,-1.0291086140850738,-18.456624837035697
730,-0.7547445503577964,0.12665313733544342,0.2266223733037595,-3.8553737897846476,-3.323352871788038,-20.757579625431465
740,-0.7479393022288481,0.10554556616258376,0.229224873262309,0.26410572689843326,1.2390686822106363,-0.6920164148041699
750,-0.7890322067810165,0.07082654162391452,0.1863646067156478,0.1534929864096175,-0.617838878322032,3.9348515238050634
760,-0.7641404934855518,0.10217046350836012,0.21508677811733598,2.6200687571928474,1.0766872385057955,9.116670552859665
770,-0.7682520516544341,0.10680062021369192,0.20834573927896566,1.7296695343109443,-0.27915051826912574,8.79043509999556
780,-0.7896093887727007,0.09923259898595208,0.1847071447605818,2.1747070799573525,1.3763486495026576,7.979577949060406
790,-0.7835229209036981,0.1003752483340443,0.19861082113397174,-4.945153123572009,-4.337040041271297,-7.895513133339576
800,-0.8000392266576667,0.07170328907997983,0.18404278063866342,0.2962854842746526,-0.2679047835101973,-6.5977193720060825
810,-0.7888016189066731,0.08724620150619437,0.19768289664255956,-0.8571719781689304,-3.7509539320745313,-8.553396708802229
820,-0.7536308397585604,0.1164198618488076,0.2228620474108411,3.4389669298904346,-0.6669351488343924,-3.9438859678761253
830,-0.775728018638129,0.08879800616506635,0.20394535968474128,1.5559742740001017,-1.2899300242469738,-2.9137674240397544
840,-0.7938001509440354,0.0736481652604994,0.18600323629090665,3.372511821431393,2.1733927838056464,3.088830886480729
850,-0.7660977759870239,0.11400030695013541,0.21371746903032868,-2.959494110662518,-0.032049558853882165,1.9416536559534818
860,-0.7880559916222112,0.08284642115775308,0.19176649732933132,-5.908983505444617,-1.7293773100756136,-0.5772438186567621
870,-0.7668860114441164,0.09699578605753024,0.21622565927130225,-3.1151265162356623,-2.2877564104942625,0.27489528392816753
880,-0.770951208958393,0.10779383691961188,0.2181086471719088,1.0196655349167356,-1.9489500717972417,2.0320384625470633
890,-0.7785411499222462,0.09510689093624378,0.2022103040482878,3.729348925991786,-1.0882317609016008,1.5822153460050148
900,-0.7858739870387116,0.09199361257363319,0.19777378972406554,7.426397324920609,1.588336128267526,1.2868373957732655
910,-0.7631316683154832,0.11264829516871863,0.21938465437476384,3.8574371035727864,-0.7377886942397247,-3.041494451487409
920,-0.8097839896239369,0.062089121083809005,0.17160992294479188,-0.6137022647832269,-0.6132618571198598,-4.224240984218681
930,-0.7876318662654509,0.08207506687032368,0.19537904489703556,-2.3770092326660426,0.34738904602899723,-3.552118521539066
940,-0.7754496093240117,0.09726273382365656,0.21068812560801514,-4.362952412419383,-1.8715897850356757,-4.666493204273283
950,-0.7508446917289155,0.11968734119059844,0.23102827695573072,-1.3894488289482045,0.5565224158700969,0.07759886481314152
960,-0.7897277042469366,0.07623511504332431,0.1896562762161338,0.276758728759798,1.191252048767732,2.4427737275611734
970,-0.7709492084063614,0.0887491114323674,0.20752844038236667,-1.8676869942154775,-0.7786576930182539,0.5053572598626441
980,-0.7755480738870827,0.09739174095195563,0.21007694080377848,-2.7044069535802233,-2.12890385249559,-0.45003267194317753
990,-0.7945315265097072,0.0807023782090182,0.18984870817864063,3.179243568058352,3.4666453356876232,5.190231732166874
1000,-0.7620843260092935,0.11571407145715532,0.21853704144156444,0.48292280441681334,-0.466513539838283,0.9364632120710528
1010,-0.766070058256031,0.10665384741442757,0.22199208342397275,1.0233613297141813,-1.2895031666851007,-0.9852890752356931
1020,-0.7808649443039596,0.09358399736027687,0.20588939161664505,-0.629594234195342,-0.2771662412529532,-1.9529913798783063
1030,-0.791424973240078,0.07920060196295936,0.19321611547623432,-2.185986116063243,-1.5965873103071844,-3.5704540679042647
1040,-0.7358762098563395,0.13252881202021927,0.24829450319573743,-3.49525142417151,-3.159120930146904,-4.583753151198811
1050,-0.784433526196944,0.08531632444683936,0.20311409829240848,-1.8980297989601378,-0.5949141749528818,-1.1710291514255489
1060,-0.7795087317348024,0.0850788779149408,0.20795116614848705,-0.979555854292796,-1.8833876549106487,0.3875473401801046
1070,-0.8189505855997802,0.05069893716474693,0.16595203813310852,5.027542121836504,2.373536022944004,6.060479436726088
1080,-0.7662501338520589,0.10906181147113951,0.2227129639905138,2.066102760277234,0.6710568441774247,2.733356811920905
1090,-0.785859228639077,0.09026652155666598,0.1957459994480717,1.40056413573854,0.7113869169476823,0.9687195979211319
1100,-0.769164486374591,0.10778059360215035,0.21742921396089548,2.184739254953557,2.6685496248934735,1.6013083929805458
1110,-0.7462473750575624,0.1252533587565846,0.23061249813717244,2.119724222579807,3.2314424823998156,1.879598991554266
1120,-0.7895749272609579,0.07776479133926217,0.18728867664393747,1.0078936059864136,2.129188258414481,1.8800681383152267
1130,-0.7676399992280148,0.09843415552419607,0.2151633117895297,-2.6352758508094456,-3.043946887621042,-1.9475453985730107
1140,-0.7671116781180853,0.10789977783136696,0.2202257253423653,2.0754146863017966,1.3138214830548123,2.820648475376056
1150,-0.8033949807006711,0.07197006395593832,0.1853854853338436,2.5665578371458446,1.4233982099354867,3.223132391373378
1160,-0.7544773109673657,0.12004261438807806,0.22889438370686954,2.83320956105732,1.77467635737563,2.9097434775564595
1170,-0.7795093543945806,0.09017185605964592,0.2048839193753093,2.0691921462173193,0.365563825887702,0.3296057275282115
1180,-0.7852759250413184,0.07745295531985905,0.1887441872514414,0.13037743946254854,-1.047396077398643,-1.083683096776262
1190,-0.7720888465048416,0.10179796009204875,0.20664274520362566,3.5580522232966176,2.901718762378798,2.036587336130109
1200,-0.7660829248046459,0.10466784778663007,0.2160397211141663,-0.8722780309120721,-0.404611560842685,-2.3750483269004707
1210,-0.8003489862889175,0.07655436881423225,0.18662956435312267,0.3241498984194273,0.8044811906576436,-1.485579594342754
1220,-0.7434404480710328,0.1279594163368284,0.24356224390607994,-1.1532446740791769,-2.0122836228848446,-2.1967025606087818
1230,-0.7575889965854601,0.1120949064980274,0.2227405634730954,-0.2917812740728513,-0.4872959108232733,0.28467610540965793
1240,-0.7569887003745256,0.11214822930688856,0.2242534092086396,0.014737376231190091,1.3876261516860713,2.0161210390215016
1250,-0.7811659027840673,0.0928500306804693,0.20284879773312148,-2.387012065263303,-0.15048479982832863,0.29986101134767174
1260,-0.782148541981866,0.07445957412894831,0.20191637496614312,-0.717270278501468,0.26662526423109545,0.6444577797385562
1270,-0.7876109948622001,0.08785959490529832,0.19253124193247267,0.683665782409834,1.3848958740724189,0.8257040202151332
1280,-0.7709036393601297,0.0916123977833617,0.21440280265205997,-0.34009211246289495,-0.09800716502105378,-2.8438804221581497
1290,-0.7798249836181452,0.08703435814921884,0.20539427903273996,-1.4863369345859825,-1.994721455751044,-2.883673833320241
1300,-0.7661632473322707,0.10221876636439739,0.22198117703642786,0.7662798454461167,0.15386084624298924,0.20496928917227836
1310,-0.7638060591163861,0.10346415407011585,0.22054397466916695,-1.4265803693107235,-0.8097006819511925,-0.45819264648444613
1320,-0.7785823347360147,0.09601688525157882,0.20113166268723215,1.1209822699331844,2.124313651051875,2.882940834015881
1330,-0.7849934298548054,0.07811663757998522,0.19208570525250718,-2.8370016880539515,-2.3500685741407032,-2.9575643736468735
1340,-0.7617283763327792,0.10883520764312622,0.22069014971646997,0.18461771648241532,0.4147536742826664,0.16571349008650257
1350,-0.7854635413172324,0.08028673273197098,0.19649026740394385,0.5572775273511904,0.2983251247355088,0.3010244269992547
1360,-0.7576210293016009,0.11122431162126904,0.22651340794327704,-3.237022313670955,-2.446580252397145,-2.7999214899373674
1370,-0.7751002715483595,0.09179866600014827,0.21041108438655365,-0.06936882420303053,0.3025448029161918,0.39883632515943657
1380,-0.77153980357523,0.10105569260160341,0.2136908380189016,0.7360120837351356,0.3180566795924006,1.256605286686955
1390,-0.7664065287749248,0.11127176912619613,0.21350872333381657,2.0814633773629105,3.5689162416881968,3.522566913598914
1400,-0.7810382201497921,0.09108985684701226,0.20186137338365395,0.1254684543818616,2.2893438436779623,1.1044005982207201
1410,-0.785863424357127,0.08463563775868146,0.20227099838223195,-0.5005404475440778,0.3225474731546848,-0.5498021326168074
1420,-0.7747006980000379,0.0940513375865047,0.2150932853961395,3.0785388273382193,2.530366064160649,2.975319047824576
1430,-0.7991315633691902,0.06518653773650557,0.18176941473092187,2.786550427299698,2.2244564979797317,2.8978162139606187
1440,-0.7800102096110612,0.09191857931827752,0.2034780475274712,1.9383343781214526,0.10237713505415694,1.270534717544817
