time_ms,ax,ay,az,gx,gy,gz
0,-0.5902024374135322,0.16784122969342657,0.5955642895808151,-0.9077416897078997,-0.8074664333564994,-0.4971754382903644
10,-0.6179224671240393,0.137565572079219,0.5774825736699204,-0.05556119192539699,-0.42080048196177033,-1.0551282045670933
20,-0.6104422214833598,0.15065813091052727,0.5862519286570304,-4.872359078026097,-4.5913391925619695,-4.900815610909333
30,-0.6344375492050336,0.121686260985821,0.5578740205616941,-3.2933839030661964,-2.8865088113294313,-2.807752474059569
40,-0.6109255122521423,0.15098768567973406,0.5794322195010868,2.346343756074772,1.46151009954415,1.3874140190332103
50,-0.6022126084455345,0.1580940326449205,0.592813697287886,-1.6054245251424217,-0.535313334042399,-1.214195543688179
60,-0.6140139214326952,0.13832176824473325,0.5754786547290128,-0.6727245184872429,0.2624846700173594,-0.6209628087950527
70,-0.6101208941467745,0.1436619010935037,0.5842271688521544,1.6193627909392894,0.7531690650202759,0.3287825326754608
80,-0.6279198465864315,0.12494996064452057,0.5661418305072912,1.0084762796375029,-0.32364688097431554,-0.3907938340940086
90,-0.6207463136627738,0.13317872869603728,0.5710188135082065,-1.6903785220619267,-2.1410721341924406,-1.7663983299820463
100,-0.6089057639698826,0.14361394043802686,0.5815935099115697,0.777793000354297,1.764735501275171,1.780796492588183
110,-0.6412058242931029,0.11280990161181217,0.5502847320394068,-2.406618192058271,-0.10787303296090339,-0.8647914830047689
120,-0.593639776886698,0.1611641670204043,0.600464899140769,-1.9279385694584545,-1.0648363263426517,-1.9840432256875482
130,-0.6260731235904302,0.1270903106991119,0.5658915635783701,2.2945186553456174,2.0943176554114795,1.7183919552252664
140,-0.6172783701108614,0.13369525806884705,0.5753314886651905,0.2771084525362788,-1.149264970653078,-0.8116603425810989
150,-0.6295451032346175,0.12239328042099795,0.5655311275705084,-0.5303920335987398,-3.002845633303093,-2.376769311962965
160,-0.6402443449553462,0.12218016094145052,0.5629663728365408,0.9464266046486929,1.183517563303571,2.632416688771279
170,-0.6737528446277554,0.1496267241391058,0.5934377305485935,-2.2509470185730334,0.7755988946710557,-0.7784786750083574
180,-0.7627092227829988,0.1717667114786148,0.7561170011540078,-6.488645966720146,-11.929543325220314,-9.253058866028843
190,-0.7880341710317581,0.1800950770443329,0.8129965579171115,-2.6590072281036203,-24.421323068628332,-1.8756801054754884
200,-0.7048668966086276,0.18005037957508946,0.7058850070180909,2.554634808243014,-32.52709692370773,9.861609120368353
210,-0.656259353113572,0.1383800480192039,0.5970375833186149,4.177860219584138,-40.871438009820864,13.636081807049635
220,-0.4877675281246162,0.25439184182456726,0.5390794036119965,-3.6232222502204587,-36.32767606368217,27.660424964385143
230,-0.38661984128125804,0.3072351226756712,0.430047277081022,-24.689895150613467,-19.905121293569145,45.40080832727222
240,-0.4116864390367821,0.2226489086720227,0.3646028181293755,-43.19821865090445,-7.698833948502959,45.8712420249942
250,-0.36352815097144814,0.2354686403485702,0.45329031174616025,-57.8231191685564,6.934845242186002,43.61350469815995
260,-0.42187847808466017,0.20132671971522448,0.49614574580838505,-63.18043953384713,17.54214954768868,40.521555611669825
270,-0.4297838640532772,0.26145892579018987,0.5107377716070158,-71.19098651397701,21.44517731419144,37.16007040495222
280,-0.6211499273244253,0.08279289701686429,0.5770230304918657,-73.25291151998356,10.770863335307581,30.28543814826061
290,-0.9779443690896605,-0.24824391930841294,0.8104622885462861,-83.73114460851903,-38.04226402100914,4.544104931346051
300,-0.6061091005319348,-0.16540838866783003,0.5201284911530303,-61.022580093915685,-16.39053948709603,10.160297005275924
310,-0.5399800744540563,-0.043184160451606377,0.7226944154210334,-68.18864692621263,-28.934984177149556,-5.783906430329508
320,-0.5523392591867423,-0.07945208387792471,0.8820045494012265,-33.36661899895636,-31.50981161462337,-6.5503901167016485
330,-0.9851889070731976,-0.22471072253897828,0.6123426518936566,0.8688244348934617,-32.282767733111,-17.478669510435253
340,-1.0122602252080248,0.014565452891697663,0.5981870607293864,35.43130936132038,-41.91692061324173,-35.77776113922148
350,-1.1205642847065551,0.21084382596786216,-0.18627244435114004,105.07486588183895,-13.941368463127748,-73.85150288911231
360,-0.7906532995439242,0.3288283655403943,0.7488882073209719,87.11276009607673,-3.2928872547332175,-71.33412416552153
370,-0.7401370398734,0.062979139880646,0.2509350600708376,39.55994883007272,11.438124310122449,-62.67439692012901
380,-0.6783563795602959,1.0027346040816258,0.9668970901092181,78.5508790323493,25.814834857237184,-19.484854918400046
390,-0.4562129928161895,0.5381959295287547,0.9874454455945415,31.72600047396592,29.24609617199338,-9.723859173928838
400,-0.40133890069418804,0.41420823615391034,0.9151709310507096,29.954028914218473,44.61931455969197,-10.189784212322007
410,-0.3831665894684984,0.040589056588382785,1.1356971812665433,15.574082210072449,71.0732330775868,49.58243742861227
420,-0.2878688783189225,0.09130696313478866,1.5076636641573598,-30.27891950719183,57.00149828393883,71.97099333383645
430,-0.2971741798322836,0.39481470217208436,0.3105160527929474,9.222904942786068,67.46796398104226,89.44228109064058
440,-0.4313194084167642,-0.10728264055357228,0.2893702820956552,-12.73452189791531,53.20515361506849,70.5296223282324
450,-0.6750979580121753,-0.1886518907618876,0.67058150469275,-26.957925690677897,23.273069528081873,36.790175186659106
460,-0.5538118264315339,-0.22647914791897342,0.8972474279435504,31.708405646206632,24.42836768805215,34.25968279861089
470,-0.5956112558522314,-0.04423155154070556,0.700514073855537,36.086999164655765,11.184666468521108,5.912729156303367
480,-0.6266287908140455,0.13182790438884384,0.5711657700122773,24.808723117062723,0.2286135108864259,-2.6520934025048977
490,-0.5884454603776756,0.16358148274260986,0.5913787952603636,29.55302181668602,4.516977798512074,10.547303616488833
500,-0.6281879655813035,0.08120228668136265,0.5803703882105862,30.59264098656002,3.9500308346612165,10.819120930688241
510,-0.6581108020665545,0.012981364520873933,0.5942551008230776,37.44139003591354,3.538215167371259,3.1392733106693544
520,-0.8368064090277699,-0.19070382108541054,0.4292914400687825,40.076376960390974,-1.369008076170524,-21.794195097545003
530,-0.7259909126068037,0.10997683778195703,0.5932988479876218,37.04373552485687,-11.877489202194553,-70.5853977833182
540,-0.509883740381908,0.5115541557292557,0.5911254787306848,3.5456589804385406,-9.811466910551518,-63.989966566420335
550,-0.6268627948696871,0.5393143363696188,0.3523715765825714,-8.306931494201432,-11.252205853921431,-27.947800351477895
560,-0.5817285835112227,0.6052774096794435,0.4118550003786875,14.798438179893449,-11.999678996336057,-9.856117580396552
570,-0.5286029560957362,0.5211697026192573,0.4633805678360707,16.519744173049986,-4.558962124443783,3.683841912559613
580,-0.6327897090745351,0.35017010167590595,0.5344274154248769,17.206591211585646,-3.1473004471897568,0.07959043525967635
590,-0.643372869802169,0.2244306768928974,0.53780537793674,9.757344975274801,-1.89796613919091,-8.373958783491931
600,-0.6181134674324698,0.1676480022542018,0.5608084336367097,-9.768720099551702,-2.7414156055403796,-11.648062120094924
610,-0.6571222535447138,0.1257885916243845,0.5321264248747754,-5.816751722137056,-1.262162618101164,-6.145606618123642
620,-0.6310085772135773,0.14509169351483764,0.5531821932382506,-2.907058728756963,-2.673563874547151,-3.6328869589589297
630,-0.6495037006806681,0.12112418526164533,0.5334985808129289,-3.032491533773184,-2.2790525025726414,0.9231902315367426
640,-0.6260300122746213,0.16094283472003632,0.552061551548428,-3.777035482452905,-2.856512752276575,2.2189808739176105
650,-0.6445341787310686,0.15672781765214977,0.5346244008225502,-3.757732563433132,-0.801308786667549,2.1728339969220603
660,-0.6544250407268548,0.1396992729610596,0.5334378215873633,-7.915150810862649,1.2760586657678523,-0.41118306810000904
670,-0.626315954888912,0.16097236737462003,0.5613871587933555,-6.580098911721661,0.7634208500438835,0.46579736795265825
680,-0.6420192171567689,0.14246254125840654,0.5464389506682096,-2.5916867212259125,-0.13354430600278344,0.8264335530942875
690,-0.6508918420677993,0.13411149197867575,0.5333415515672582,0.40485725742240675,-0.5935915728342703,1.7073649063439744
700,-0.6517148845943318,0.1363609495095132,0.5317753690891119,1.7373358756683812,0.46791920774340445,3.7354864978376168
710,-0.6524807517122678,0.1356284778692559,0.5242694252174909,0.2932040385891243,-0.46369443671588145,2.355403562994826
720,-0.6455922195205835,0.1451185449275984,0.5383443501536579,0.6009438176003674,-0.08468534452259574,1.2742599146992861
730,-0.6314852912166552,0.15769697751224546,0.5521621798593818,1.5040219306017228,1.3146595352173984,2.283339346052278
740,-0.6368714373632082,0.155801398201599,0.5463149408066735,-0.24686807985371895,0.5492171980536562,1.4409892865152845
750,-0.643332623156203,0.13792305011580722,0.5354074672722756,2.006046781433264,0.7862317348349348,0.4374558390010056
760,-0.6456433938243027,0.14008036698518264,0.5366361959913799,2.796833441988344,1.4681707787607772,1.7295366443042817
770,-0.6469527592167474,0.1456128780979681,0.5372469539176016,2.198069070926455,-1.0782309536596397,-0.5363306485516858
780,-0.614039366220575,0.1841362916232449,0.5700983013339332,1.7231709515401898,-1.8259921948185698,-0.5348030849719771
790,-0.6389430361562971,0.15801367227658464,0.5390631365656003,0.4612453339942095,-2.128781614013739,-0.5639616246269443
800,-0.634099316796906,0.1644985403901737,0.5463868106566577,1.1661515674338259,-0.24990647261738236,0.9517847226558886
810,-0.6199197045629893,0.18186198206808765,0.564788558648462,1.283188612101435,1.0732370753720286,1.8802012151826557
820,-0.6447682430458129,0.15535294829393584,0.5408046073014108,0.5038916193717565,0.4738183960759581,0.5694902740385901
830,-0.6367238293744812,0.15850085445510154,0.5484169509012632,-2.7801988554552035,-2.7442417762739453,-3.249160748215907
840,-0.6121691041158768,0.1816878669596393,0.5704942511582258,-0.5983534033494033,-0.3295652700637317,-0.15318910085504603
850,-0.629120478360214,0.16448443681968766,0.5534118346705416,-1.8680015589883912,-1.1858729074168117,-0.5111946751008628
860,-0.6322210991160524,0.1604113935555472,0.5510719961130662,-0.5662978562680898,-1.1696427098199471,-0.39974127024917416
870,-0.609199971984375,0.18300667932409448,0.5715589447307715,0.8004508488269169,-0.16111839961259922,0.05276906307084228
880,-0.6264126765965196,0.16744825942734615,0.5554378764855261,3.3911920315192345,1.1007674643410081,1.4053272833621582
890,-0.6255153494554992,0.1731358858530385,0.5577597695994493,7.248310186050659,3.6122915652982455,4.378678815006604
900,-0.6480283152299053,0.15287872453594092,0.5345288443210459,2.415154518845347,0.6009171521396623,0.7698671312021427
910,-0.6518324353253105,0.14829662111480724,0.5309189399866375,0.14211689079161482,1.1922989852119472,0.5627999832017118
920,-0.6365200551205126,0.15741035322035016,0.5438194622649305,-2.5858472316827017,-0.536589449047696,-1.1930781316008865
930,-0.6445112870622165,0.14573492441126273,0.5361718568004178,-2.293688256921448,-0.7094880165978883,-1.143882232843325
940,-0.6625222426081105,0.1321084253287611,0.5204957524604441,0.6247267502218696,1.2091692900904976,1.0868252447467652
950,-0.6368015493844321,0.1572527659719371,0.5436201897563968,-3.603340806596789,-3.401990202064987,-3.287355021385911
960,-0.6127973348505382,0.18257843846637803,0.5670034584135601,-0.15659581038465606,-0.1055944683066586,-0.343610370918777
970,-0.6209614674920341,0.17867109990584865,0.5578570742055242,-2.4392392304039334,-1.9298033483144343,-2.6823023640502313
980,-0.6104017917319771,0.18360708568006442,0.5715540642676976,-4.819198622785497,-1.3394687732894957,-2.152007573274945
990,-0.6540640471321707,0.14040261257065367,0.5331399751127253,-3.920129691996176,-1.1133792014302084,-1.2165171860146122
1000,-0.6225354833347913,0.1694928354169319,0.5576854096062194,-3.3382692261340816,-1.2272089619360331,-0.4060589589040146
1010,-0.6310180585962196,0.1558720757670755,0.546577828256691,-1.0962287924543632,-0.12442224749209199,0.7370045696087254
1020,-0.6371661446491985,0.1520818749340522,0.5461690940032378,-4.324582325940725,-2.657972589610579,-1.9851885561461877
1030,-0.6350422197363246,0.15813530085637034,0.544515226458539,-4.481407520275834,-0.06473812671553844,-0.8573172443823743
1040,-0.6393323116358243,0.14323598930742304,0.5428058019150585,-1.1775482956814933,0.6114806721647673,-0.5018553773254241
1050,-0.6341843332634501,0.1585668933326481,0.5480138505696596,1.954790805858493,2.357751889168957,2.3161206094778164
1060,-0.6347067564494087,0.16147121438766032,0.5543363849255983,1.0519768165995667,0.23999283384032033,0.3971212142170272
1070,-0.6524955218978187,0.1393858732873273,0.5255838511902872,0.49572349493073853,-1.407307305233947,-0.7179966265254072
1080,-0.6395643707559858,0.15930029216076633,0.5421313709226524,2.0036121579457085,0.5941976369889352,0.6987908729366528
1090,-0.6184932819360326,0.16932553091387245,0.562517646724612,-2.2225337392640805,-1.2130598786322524,-1.5101060246618043
1100,-0.6177737318128489,0.17233545596371158,0.5638130500488985,-1.9061188314043243,-0.8550268042149467,-0.9489783210221726
1110,-0.6238312811113753,0.17042390884872027,0.5593896124050144,-0.14215864977666132,-0.38705230024633713,0.17016591482059606
1120,-0.6386363205654552,0.14989183764002492,0.5391078955270505,0.015433903752744088,-0.12535343678737088,1.132561412983652
1130,-0.5987905210485791,0.19264869550591207,0.5809816898146755,0.30277945410518814,0.023215682068925103,0.8718464760444903
1140,-0.628394973523551,0.16336591121617747,0.5615980057170719,3.1330200839835394,4.651481414159471,4.8087534189971795
1150,-0.6475520060107619,0.14158379895159814,0.5394150682586715,-2.818627161524536,-0.6859150746900186,-1.8121209523122426
1160,-0.6259941255937721,0.15742933327577519,0.5585429094380533,-0.14525336536566014,0.7946312253149986,0.42056904151551433
1170,-0.6482492522637119,0.14305316654579867,0.5331285028921708,0.11695863386753366,-0.005182034714679332,0.32927201442695053
1180,-0.62748888628745,0.16071566269233983,0.5528639207908834,4.352464286274325,2.934165936881494,3.782768007284755
1190,-0.5987346379889886,0.1904299494138036,0.5848020741296152,-0.48667223385462477,-1.1505790865099659,-0.6160205311339909
1200,-0.6227722823308839,0.17421723305726222,0.5668704635124044,-0.3438215418688132,-1.3341829931566545,-1.045562922217483
1210,-0.6360650071007344,0.15643449714328925,0.5496247002196787,-3.850950592902328,-2.966671567939093,-3.442999385898343
1220,-0.6219843976063876,0.16819475675762127,0.563233913497772,-0.4868825053370709,1.1009663536020036,0.8356341060734683
1230,-0.647072523936042,0.14459162400733477,0.5396997348588806,0.4606132873921754,0.5037606741562408,0.4263050598176132
1240,-0.6213648411617776,0.1694715885702312,0.5625049092648392,-0.811771834325647,-1.8123754949727764,-1.5501732027453847
1250,-0.6437055125372064,0.14490180351250698,0.5375099504802836,2.0758963935338937,1.15696570479907,1.3222955291649707
1260,-0.6195322437935148,0.17019322503093107,0.5617656845091883,0.778203738264328,0.7874510573084619,1.1165811940533426
1270,-0.6279708213455075,0.1582189610926226,0.5541676719077404,-0.9114425020185744,1.7202684490595799,1.9142783893617203
1280,-0.6068917962337329,0.1765598851938139,0.5804389651805256,-2.526760171285885,0.5162794896329691,0.33343271094481614
1290,-0.6702963416555622,0.11966453253098105,0.5197845903324569,-3.731699685343708,-2.899746506278283,-2.7446653867189315
1300,-0.6637607088163827,0.12882570242710042,0.5205338308693981,1.6657596327635562,1.8733850114273276,2.4801044890596176
1310,-0.6387458446749635,0.14798812062913339,0.544039722649211,-0.7003920596027364,-0.36972991038370695,0.33688739352002667
1320,-0.6093228276781496,0.17547185406074203,0.5764881892268588,1.710859992060971,1.6684358255642204,1.842697328599511
1330,-0.6349337316597166,0.1534052026467158,0.5510432568962498,-1.4438475532593307,-0.8925066694900385,-1.5235294781359663
1340,-0.6387789083349809,0.14754258594148711,0.5491208956503305,-4.037951282437096,-2.2725181335455287,-3.272011912797443
1350,-0.6276589372733065,0.15530497673901644,0.5582627985222941,-2.699667174144201,-1.745595916499647,-2.649620063045421
1360,-0.6325957314928081,0.1526951696554196,0.5519587641675122,1.5194219784547884,1.7831398856700085,1.420708064144963
1370,-0.6067877600416524,0.17864347691230623,0.578335716195841,0.3893718874643931,0.7025081944805679,0.24907605580405084
1380,-0.6435277166390359,0.14564437573117625,0.5438872117505629,-1.7374619271827134,-2.2832697470361603,-2.6894523451242733
1390,-0.6617156147001277,0.12292270919326095,0.5230044221664991,0.23016834576149092,-1.5532980332477078,-2.058028277522877
1400,-0.6144294517524576,0.17690812465345543,0.5706713503310726,0.23428294941631242,0.352477111456829,-0.7600101545759043
1410,-0.6482913390725773,0.14336758091310048,0.5291976062642559,-0.4625674403240148,0.32267777579070456,-0.799820726325513
1420,-0.6275342753678628,0.15642857400557506,0.5577316552878974,-3.7103942519159423,-1.3076669701897952,-2.2779943178781297
1430,-0.6390747464576554,0.14111995107527964,0.5446991926227747,-3.928447298951421,-3.4451937031707844,-3.482979392218411
1440,-0.6174013641539203,0.16783087856842624,0.5711337786400367,-0.4771311857184423,-0.3853136362319688,0.14570553078105858
1450,-0.6489898401423331,0.13381780573431415,0.5287309423914794,1.1367506684234705,0.9273887919487953,1.4039855851598393
1460,-0.6253814687512298,0.15904945896197692,0.5580923764712303,-0.021137539011282902,-1.9381524726797164,-2.9191875156351093
