time_ms,ax,ay,az,gx,gy,gz
0,-0.6981192812849281,0.7955340080647527,0.9345902594165313,5.2327109854290486,6.877528701729344,6.851868174646419
10,-0.6918417457020674,0.8050013197761121,0.943311492393451,1.450543562052479,1.5451853527179409,1.5522901145100771
20,-0.7189979511490228,0.783691367267545,0.9168732891900698,-2.543521185041422,-3.1132147479949293,-2.6933479231810784
30,-0.7166158750868105,0.7837066034859885,0.9156254849043327,0.8437124117746485,0.7127644034135147,0.5793075818235989
40,-0.7123510142269848,0.7862266606799995,0.9143802008901494,-1.7002557580850906,-1.2944733543583244,-0.648395589346185
50,-0.7060201829490464,0.7921500622347196,0.9196108440178629,-4.4351576065602405,-3.949987713192672,-3.645735466592148
60,-0.7052987473452811,0.7967133541229118,0.9234271884432328,-0.8867601906216974,-0.9285901176310619,-1.0641545272831365
70,-0.7062562077944043,0.7864828301151684,0.9210397915543975,-2.551799144242047,-1.9479984888827806,-2.08925122924357
80,-0.7071926592167258,0.7859666442312939,0.9295717969604465,0.8372176630621369,1.1185067671330855,0.2968758197079897
90,-0.6860358463367614,0.8081138048143219,0.9469331866799837,-3.995696182770801,-3.973707979263859,-3.808951445028675
100,-0.7101177000329189,0.786995555391878,0.9262558376623508,-1.226997906959657,-1.1690527654370475,-1.1557824625564452
110,-0.6993200150279038,0.7955290733615726,0.9295871869572779,2.028249323050438,2.2499822415543256,2.4083770346167714
120,-0.6950207549665272,0.7940774124046487,0.935771053271112,-0.5305468048796791,-0.667081135011508,-0.6424508608015537
130,-0.7039601746326978,0.7902549551114495,0.9278337183232785,0.17241901981567573,0.3006910539765676,-0.2921298278598939
140,-0.6977981325825423,0.8072810984743033,0.9438243637055505,-1.9804806667473793,-1.540128534526967,0.5464336335165136
150,-0.717018320986401,0.8091002575911994,0.945114537486251,-4.8946013778389466,-4.5683973093919885,0.48001664919280307
160,-0.7182438056751003,0.8110926556381053,0.9424293071239297,-3.9916712664619025,-5.063277021829509,3.190889788029895
170,-0.7095518332966292,0.8291989987054953,0.9771922214632687,-9.005717276413579,-9.379599143101842,3.5207040661259383
180,-0.7279228207738704,0.8425675325179667,0.9629089007157325,-5.622412702863579,-8.910604901464852,13.196579863392545
190,-0.6784151032766976,0.8020735534026233,0.9686287894487224,-9.925229289265824,-17.180667023191972,12.520058636576628
200,-0.6619964507366325,0.7514787395659026,0.9219808117120898,5.366392684990544,-17.353617763470904,6.356194967976327
210,-0.6437511628600548,0.8057953997385181,0.9025501370547099,2.1010167218308426,-15.048334305571352,2.871636810718515
220,-0.6365093384764534,0.8399050626094149,0.9152482696261052,-3.155228962243277,-10.484609118378087,2.0410050012538505
230,-0.6455529499696337,0.8323115001612277,0.9362656476453984,-8.48288783384169,-6.812525212899712,-1.9416057174101007
240,-0.6093250642433378,0.8339844340819953,1.002846410412763,-11.440725836042288,-6.01696210877096,-5.345049830599058
250,-0.6712244583712329,0.7835040278601577,0.9290346608406468,-7.6422813100121365,-4.218542877801733,-10.631539369773229
260,-0.6950978145715951,0.7782330134748878,0.8826386298853277,-10.405688755244448,0.7574769099505945,-11.093127198327746
270,-0.6754050607975207,0.7929351452090267,0.900173572002424,-6.272245508005505,7.085217793360144,-10.443017389479886
280,-0.667300152415512,0.8387272494043789,0.9336733139825982,-12.779951115054505,6.8564808895126905,-15.302524933360031
290,-0.6818730178800209,0.8359653758375482,0.9487463151744561,-11.567336947556932,11.48991554544203,-12.68371850079575
300,-0.693883764948762,0.7991095068308486,0.9614803110733074,-2.7102815808576737,7.059109693261002,-4.891938356528435
310,-0.7222824375162802,0.7091688352576941,0.9497265051018134,1.120028310770307,1.0502769475735432,-3.423940751494107
320,-0.6692096779319503,0.8006704154464855,0.9798817105721561,3.259146717832923,-0.417821448169641,-1.338967109172911
330,-0.6947139185875055,0.7970581605082877,0.9226322053424824,3.4356162981065426,0.01792904506753068,0.9775480166993655
340,-0.6844759254277382,0.8067065721010829,0.9652129729261152,1.5131349391613662,4.594745355774075,4.8878461150452
350,-0.7031267057997319,0.765539890224065,0.917928365386011,-0.1297504564501988,0.517734570258639,3.516447948219587
360,-0.691955603532649,0.7188697265707895,0.9348230694199613,-3.774473076578701,0.8462525545530755,4.610334559593024
370,-0.6716863607519427,0.8517650776162641,0.9617446505850996,1.1952434813060213,2.9244130567605975,8.256600979417833
380,-0.6383375727943281,0.7064973192516716,1.0523869498667344,2.726066426519855,4.109629486905513,6.624029459920072
390,-0.6564306783957943,0.7662918441941553,1.0175992226357173,-0.9614426641713328,-1.5956674279630634,0.3190831729411303
400,-0.6440755065620839,0.8769892515632766,1.0406524254185714,-3.1371525576523775,-2.6445529122075593,10.867618352368536
410,-0.6463791790195622,0.7714730479718114,1.003449073323148,-16.921336770343668,-15.08504175874017,10.055240361562362
420,-0.7440865261876491,0.6427718998610704,0.7886404480754836,-15.35377967730474,-11.798125911744549,0.44565424585306845
430,-0.7058810156428545,0.6905436392852754,0.9683624686303446,-5.520807066517246,-7.129887297938586,-1.3062416537410653
440,-0.6458715213404035,0.7698677919432322,1.0583290313437304,-1.7025116530593756,-8.407280870664474,-0.16204769882931724
450,-0.6719293000569233,0.7722233198578881,0.9384874742354998,10.002394046829977,-5.720247792919863,1.1059577323642114
460,-0.6779533418395857,0.6848548234321965,0.8655249326393303,0.7493969534767062,-8.145423537572077,-14.344848138633797
470,-0.6788143961821622,0.7669345850547091,0.9086454139787887,-0.4510155456925622,-6.103953195455564,-14.575400856282503
480,-0.7068211575510888,0.7664599380017038,0.8893267950106415,-2.4795755981797947,0.14180337424264705,-10.192795668302072
490,-0.7008058121775177,0.8400717239075103,0.9220484521759085,5.96285327234088,-1.0694962117696276,2.6301444276654062
500,-0.673352987748724,0.7427214071654736,0.9972408961221946,-1.1810902037898285,-5.2390875532394166,-10.895286388329481
510,-0.7176755144405716,0.8909732888954707,0.9501047309786954,6.977933673673711,-2.0738240911296058,-14.216518468595533
520,-0.6706272509532536,0.7898506053649549,0.9883513335369408,4.781765335840773,2.9740797481991024,-9.428733234928053
530,-0.7232958093218163,0.7405045947474963,0.8735977305755505,7.689680203191907,11.811055651955893,-4.250612317242716
540,-0.7056420216292894,0.7485723777567468,0.8491410159837468,11.101216863505085,11.118962291427474,-1.8951114375827718
550,-0.6732343943900176,0.7801637533785488,0.959562813045078,11.66026113581959,9.247309384293734,-1.2904645811250188
560,-0.6590153257793125,0.799560444836607,0.9658199709173295,5.366713512626958,14.3059568144537,5.525982117878271
570,-0.6718231196565536,0.860237453819159,1.0342206728835115,11.4518973108472,15.748904395997235,15.49834647278598
580,-0.5570001873680209,0.8052258626938036,1.0849738293499596,11.507253135506156,24.389359399836042,9.62253089255414
590,-0.7038764100045954,1.0597029201800854,0.672766431792327,18.288429206229804,17.872485345235877,18.73119818751766
600,-0.7150153046007233,0.8975362306777915,0.8101932646543565,-1.406501739234502,13.068260717735406,9.657306649046744
610,-0.7177303367792948,0.8456738215426707,0.8905503722404583,8.241888922268629,7.692182323120479,5.4392961715545605
620,-0.6606647414220244,0.6431375895084381,1.2126672960348666,-14.485883904821566,10.185465711378962,17.644717784417004
630,-0.7064932565916769,0.7044045309962145,1.0120797357965041,-5.30646566127727,0.9986839996504522,3.887131577045615
640,-0.6918094360824781,0.754645737387723,0.8635247477024772,-7.783041209712572,11.725956177305958,14.303200947430843
650,-0.7291840709936626,0.6780236811766205,0.9405803034177319,1.1928481344310327,0.06706252719359085,-2.427911535837472
660,-0.6952209988966731,0.820885237262694,0.9218815231996262,1.5803972869042524,2.672127584716676,1.1463043619907691
670,-0.7086569605418577,0.8324505668237622,0.9348776244660467,0.6730657949132635,3.4686450968674136,4.7167963300381395
680,-0.7167397047362468,0.7716548123076516,0.9202765156911727,-0.6704410908855508,-0.24722799557401187,-0.12386163254223281
690,-0.6885673912122309,0.8067271537445381,0.9482775481227796,0.8690449301980279,0.30068667738619315,2.0855605552098515
700,-0.7141186980342724,0.7876404357398886,0.9169776597515593,2.5872999040407354,2.194374658918888,3.777187429493087
710,-0.6914001193727356,0.8098617911339148,0.9383686519109677,1.203996059632294,1.6817734498874146,2.047050547051936
720,-0.6994866724165243,0.7996808183661882,0.9345581039850549,-2.388231998309932,-2.1566269118315082,-2.9653070081876347
730,-0.6841109429145651,0.7859532065881832,0.9368328899025015,1.0650916775193213,0.2661988373980302,1.8716620253803953
740,-0.6855034665527251,0.810102056432859,0.9522512634455604,4.2546665239518475,2.436784659355877,3.8207012162672758
750,-0.7239589368642984,0.7734176535838854,0.9128124902492283,4.86989335149669,3.229356695870745,3.828321892340771
760,-0.7172815002981067,0.6916170826789174,0.9122990366867237,3.435582675138185,1.379042507392574,-2.4693886136443095
770,-0.7098023104193413,0.6950578039369661,0.9379397753705586,-1.6760716900371635,-0.9385876199683927,-8.237693228314017
780,-0.74341164174797,0.7665457228370665,0.8991772397738532,9.9972345888221,2.0794277030945247,-11.000030215891705
790,-0.766159185350132,0.8418907939103532,0.8806060687447859,-2.9350219930678145,6.470847915117937,3.323976761709572
800,-0.7274059490682283,0.6618066528754526,0.8955745778054013,-1.6022166654537042,1.0503042400376774,-4.448455360356649
810,-0.7132297988792475,0.7177650658620541,0.9497029869143009,2.5778045525872204,0.11528661546986729,-1.19612225745664
820,-0.7118982199042095,0.8430548715835539,0.9359203456206231,-0.18696110973778074,-1.1393728718397893,-1.2268969169793535
830,-0.7563733405574694,1.0121522582390718,0.8504765292426626,14.088480288872473,-1.7366258321278467,-5.861361421980192
840,-0.7459582919525461,0.7632192075545402,0.8856591509624564,1.5299964193879987,0.5677562918270636,-1.871472396073722
850,-0.7217183774675954,0.7855437886027754,0.9120872874685912,1.963875805218837,1.5830042590024234,-0.5518955788483892
860,-0.7115248390402464,0.7849031043186669,0.913348649968015,1.6047661180827166,1.731155630504743,0.3925106527222092
870,-0.7204433360830066,0.7714249460840409,0.9054603524979388,1.3947142043011116,2.3353089481568796,-0.26599060563312105
880,-0.702329705860564,0.7820697850930899,0.9221285548327348,3.0615381074871664,4.080752745831454,-1.2403306549107374
890,-0.7089250030329286,0.8082368330632341,0.9135704932334081,0.06441892121714332,1.6533659578928825,-2.105031631112379
900,-0.6949522721837587,0.8168621106101026,0.9391371487074976,-2.303413448828488,-0.7693754925308208,-4.542166050836922
910,-0.7375478723055346,0.760840149178057,0.8938314562502834,-2.4539128929931064,-0.8951842033646894,-4.0010760155658325
920,-0.694475961637042,0.8021178341810608,0.9356726975754511,0.5123797048447265,1.5262575715476252,-0.41954730421721664
930,-0.7057085757338906,0.7967453271903439,0.9251209818188529,-1.5820174742612585,-1.221411471228607,-2.3217294900933187
940,-0.6992991017972354,0.8043306296683769,0.9333295441015985,1.6746643992308539,1.58221734046498,1.3493100762912504
950,-0.6977943222676523,0.806794967893278,0.9334915946364277,0.08696311790678307,0.024673787176010098,0.0839460425510149
960,-0.6916177116954345,0.8078742773028053,0.9340239429533641,-2.364020036909831,-2.7700797242168766,-2.472005606408021
970,-0.7003437401474075,0.8077528130551793,0.9355733443453824,1.1860212072372196,0.44882501275498665,0.6503990056083983
980,-0.7049087051980395,0.7943615552083468,0.9088798737432263,-2.4120882387643086,-1.8056093717934396,-2.9355140659898638
990,-0.6836381687361762,0.8157542360897313,0.9432159498866248,-1.8071206069701486,-0.5419878850223272,-2.070302595983125
1000,-0.7075286515926899,0.7948958767959164,0.9176601067610906,-1.8335833731614872,-1.3095134861525022,-1.6364294731225897
1010,-0.7052754268215236,0.7999477998177824,0.9221593052896548,-0.2033124469599366,0.5196626502855812,-0.2493540769618771
1020,-0.7160072940654786,0.7853280164472346,0.9192865820896928,-1.0445953489435418,0.3339959817719079,-1.2600068356001906
1030,-0.7172114818688875,0.784898727720874,0.9072086228005225,0.16540011421379847,0.9737511987770335,-0.23134105605256444
1040,-0.6898885733839202,0.8160851340652588,0.9432081159199286,1.4241458300836387,2.091728479048848,1.599644120791211
1050,-0.7124513693363898,0.8069468207881142,0.9442032759692001,2.8608062750567367,0.26315608295245263,4.582674521346732
1060,-0.6767953635337225,0.8402244369247559,0.9633841169819747,-1.7432808045389037,-3.740661349880985,0.5843684519241159
1070,-0.7199737468179691,0.7880911470540016,0.9269714945764012,-2.3424409071252423,-4.062708684449556,-1.7098703162214106
1080,-0.7120716409508759,0.7893454130658103,0.9184990500968947,-2.3260358384846116,-1.6763299969195509,-4.511887139750344
1090,-0.7212074187764282,0.7626888567498138,0.8828635010368434,0.030883295765893937,3.136303491199818,-2.3443023306718525
1100,-0.7182346712031029,0.7868254066843435,0.9165470391920557,-0.8054567723197565,-0.0034700018198144944,-0.8078978126930384
1110,-0.6901687265457883,0.8207562014920127,0.9332669186153377,-2.2968241226379176,-2.6910348404878652,-1.4061404711443213
1120,-0.7071575984592942,0.7905785379921406,0.9206384895966266,0.09185368550468909,0.43242785552979507,-1.0806234376484718
1130,-0.6767705528377449,0.8191414583438222,0.9510193042770398,-0.6636092377830697,-0.7830418538804236,-3.272852565412621
1140,-0.6746300825437194,0.8209682651680339,0.9428002867484984,0.22665763424039562,0.23539178950181497,-0.5541288665039465
1150,-0.7243356650051701,0.7819342535505638,0.9116081342695039,0.994707241865422,1.0840706538585256,1.063655870814476
1160,-0.6983190031166016,0.8030759939525035,0.9344532235467475,0.04589067815750536,0.8446373253212508,0.8743534812685905
1170,-0.6759263381756598,0.8236120049623752,0.9510600737711546,1.9918660413045743,1.6363725865322056,3.2831954503608163
1180,-0.6779860014671778,0.8203368782750932,0.949325213986661,-1.6336108879835842,-2.308452699752969,-1.0093352036569339
1190,-0.7181971214054107,0.7826909465353481,0.906457988729295,0.1776343252623039,0.18917611679177238,0.26146322123971194
1200,-0.7232555293681264,0.775501747372645,0.8977983551783845,0.20687597020714563,0.6953498914340855,-0.8206124422442652
1210,-0.6799357321649147,0.8121841499811148,0.9480039008764845,2.696960800701868,2.6149631865623757,2.5566303351348667
1220,-0.7136052051582392,0.7860896181802979,0.9165510528077444,1.5330689590275535,1.5894473778638198,2.5721088654126407
1230,-0.70580932091894,0.7954480798170326,0.9193559372768187,0.08428457882672732,0.1302342348650697,0.4505127986259895
1240,-0.6991212205869356,0.800238160253262,0.928440362244985,0.20444607063571818,-0.12943301060508633,-0.39872670644792996
1250,-0.7069112869340695,0.799287240874398,0.9240056248272775,-2.654760265242933,-2.948478132228509,-3.7745358326118805
1260,-0.7049920810533228,0.8036434440502147,0.9240654477343309,0.4713748934193663,0.5334435899736727,-0.0348834587405407
1270,-0.7165286094740295,0.7870261593190658,0.9088874568519247,-0.37080500615021184,-0.021183735784893465,0.03447508048963682
1280,-0.7146578510132742,0.7911676481138518,0.915243863576079,0.36446558308490934,-0.018380232521472303,0.2753175883938918
1290,-0.7142084082697829,0.7870901586189786,0.91450385793117,0.14038751813495787,-0.782800841616182,-0.004462114550082996
1300,-0.7095282090692804,0.8014107961359901,0.9195408232837083,0.006081535314197917,-0.5635014790279583,-0.9254835430706699
1310,-0.7187393906268117,0.7869424979410312,0.916108641091082,-2.4632709415874734,-1.9678600541423215,-3.69450302652837
1320,-0.6965182410925151,0.8018440290388286,0.9301979846487173,0.6318245182223743,0.97232070771411,0.64168389060433
1330,-0.7264434213350066,0.7811358753850364,0.9065303308335081,-0.4921774283657398,-0.4858756524724818,-0.279740703644748
1340,-0.7096154043733894,0.8006313241248744,0.9204006223842718,-0.8197180075227709,-1.1731095553059512,-1.0258083613679643
1350,-0.7392688311800182,0.7669260146906227,0.8949401770192627,-0.40377183144479173,-0.6970319883501593,-1.3666600828532696
1360,-0.7208633669108336,0.7689369977275915,0.911582710773721,-0.6909219579816103,-1.221586078917088,-2.4046636708210727
1370,-0.6894044344802536,0.8045163065642249,0.926602342908545,2.8843921187159136,0.8940014427599852,-0.2519795757515941
1380,-0.7019854080771069,0.8240228984324129,0.9275766334350082,-0.17007677542365407,-1.3533203991113287,-1.830856191011098
1390,-0.6908421848757359,0.8549486589170918,0.9405810748613816,2.7627819218152867,2.6467105784465463,4.1079398645938205
1400,-0.7227293275885627,0.816713548778642,0.891081438027948,-1.5716273218532275,-0.9242809868059063,-0.6651607049271226
1410,-0.7042621507066936,0.8367259669821859,0.9356853618220702,-0.4907229919554503,1.171771475335144,0.8039851640521608
1420,-0.7151572956727994,0.8061483523446578,0.9156514213612489,0.534079321037775,2.319704313182451,2.6390554103427526
1430,-0.6899979560760642,0.8230696725580755,0.941254879169254,2.0948966349437126,3.7796294449517207,3.3115076435218955
1440,-0.7069533506394012,0.7920612668136843,0.914375764048448,-0.42595867334748483,1.9307384644016854,-0.3187471214180922
1450,-0.7091168006853242,0.7740172870105303,0.9156365229574973,2.6122417422200197,4.472653894887678,1.7367296469086622
1460,-0.6915625860425677,0.77985362792263,0.9387363164879785,-1.1338750760023433,-1.6185660932050727,-3.5570133193598474
