time_ms,ax,ay,az,gx,gy,gz
0,-0.6836965673876053,0.17638666210379725,0.6601388484044113,4.292377953161658,1.7512438595158448,2.9287429669536724
10,-0.6944583740408363,0.1685066444403259,0.6541588096208284,-0.45051234915634775,-0.800842089195771,-0.5396674923244925
20,-0.67337026125568,0.19058376139354585,0.6763472671131592,-4.180502728114096,-1.7655056858522955,-1.6352936564852356
30,-0.6709113946419432,0.18653519807261382,0.6746968130612366,0.30529740783767406,0.14595081678632016,-0.030270896064371708
40,-0.6800738592278426,0.17487582594786963,0.6663486261609379,1.5334078415052819,0.42495255246078234,0.6000859971250632
50,-0.6896079257495107,0.16930580508290063,0.6616010289895394,1.216897046466959,-0.3190752933215642,-0.08690701102885323
60,-0.6743154293186165,0.1891712891820326,0.6726839196532891,1.7644606852080291,1.1980657788866667,1.1624161579707204
70,-0.6828610036696745,0.18089623266668636,0.6667524541565218,1.3615496381994205,1.7907883955279975,1.9325279460724043
80,-0.6599904077308547,0.19779793753324837,0.6895601906774205,0.007659385587319489,0.9254956776999491,0.9917724947206857
90,-0.6567803166525128,0.19831733600222604,0.6924614968174663,-1.5647695177560887,-0.052548602613519506,-0.044041580125686444
100,-0.6737329303210038,0.17428368097043148,0.6736446621916117,-1.9576542233217458,-1.3103170732417284,-1.0648252119851058
110,-0.6644854614786496,0.18741460718392397,0.6792052894958547,1.0574484978617762,0.46838224637404713,0.6812270912617493
120,-0.6915350658209052,0.174515776043486,0.6545375893063498,-0.9160356046691387,-1.0303660199194573,-1.2155573076619932
130,-0.6813643340091494,0.18400477832488202,0.6695943627848605,0.0860148893823594,0.6128667640047141,0.007397675916753443
140,-0.6812031419148463,0.18274467769054223,0.671814127581614,-2.3459410320011216,-1.9508423798547823,-2.920533448838394
150,-0.6592553849267965,0.19692771070039475,0.695215528589184,-2.512269659278767,-2.202398915116412,-2.279883869504598
160,-0.6896600523449526,0.14509331682818513,0.6551090257223285,1.3210731044353548,-1.2088798667313772,1.4048825769725415
170,-0.6640862869734439,0.19445580319837805,0.6806808457264092,10.133065691424582,-1.0931300219417115,1.365377546757546
180,-0.7115529543830165,0.20875948021950433,0.6979537449278133,6.00342659288207,-0.3407333824523928,6.429887861030673
190,-0.7107332720919209,0.2002752104659706,0.7442733261738879,4.3812614662213,-5.73814763384912,7.073040752638919
200,-0.8017670365056636,0.26161804803832944,0.8656880496297266,8.047216942685996,-22.802080811266862,9.147774717671066
210,-0.7440342327697732,0.1608594442081244,1.0331566324507555,1.846634293524846,-38.10188022046225,16.557764342781677
220,-0.5181114351824154,0.11560798399016167,0.5695738902788651,-18.416957854610903,-61.330783560626806,0.9186279619875664
230,-0.5542477876923171,0.25546802196499097,0.45969948684573314,-47.87276020803088,-57.29169034338615,-6.829640088458954
240,-0.5798415871085182,0.36812090663020275,0.49961782660752085,-64.24835486301131,-40.52596828737854,1.5831779402984325
250,-0.5342089330612858,0.43756163153852246,0.618953787664745,-56.522647718462515,-23.952036465492363,15.907378847494256
260,-0.57801697301882,0.3428367889378696,0.6990044342541647,-63.506435071487864,-20.17700758910979,22.731705710435275
270,-0.6496667452865653,0.2577369388656612,0.7152080724427059,-74.54511096125695,-18.873578416034455,24.178188586556534
280,-0.5928745363499929,0.19469788033607813,0.6279156486295501,-82.8355726279997,-3.206466382448176,24.63318718543359
290,-0.4969034690251252,0.09407949464466327,0.6213925511376595,-80.41618965495498,10.074038999602108,25.44736363349265
300,-0.5352666337280807,-0.047092856586029186,0.6902274961362985,-80.02157584694771,19.202814099606734,29.888160485299526
310,-0.5880642849349904,-0.08530926733978614,0.7738105311115111,-91.1619657488365,14.198139095702995,19.016676523173963
320,-0.6782208282145022,-0.13797254335290474,0.880346592517377,-90.92304611688272,10.27594058193073,10.848424567930316
330,-0.780180822037544,-0.022293968452768216,0.8737717692112908,-79.45129790867377,-1.2763653580069978,11.600124581758948
340,-0.7314974948856464,0.16238100555159107,0.749285481093178,-45.410968389392266,-19.916907887567707,14.319426477691344
350,-0.4616647270596562,-0.051394813937944026,0.943767543009443,-36.369556608594,-30.071807664803018,0.7382943814803391
360,-0.46428141920135635,-0.08765719190028623,0.46646900344227576,-56.29010276772799,-38.397525362337156,-16.853470223017585
370,-0.30218205020024597,-0.29691430105474703,0.8455561248773756,-41.81080128787719,-41.97132021844624,-30.77130528385814
380,-0.49689593301956836,-0.05240420414606299,0.42788557019551565,-19.684928009797883,-43.6488365789092,-52.53847155875094
390,-0.4514843885793445,-0.20646075366436517,0.813575670183597,-27.906119779999752,-27.280720984178714,-44.374888795698084
400,-0.6534119250557624,-0.07722399234225094,0.6214754082101871,-53.251384491338946,-22.516086926585178,-36.42094679879
410,-0.4288764140724254,-0.4437675647715154,0.9813184849958705,-2.9233027559623026,-4.368170554567761,-46.63417835127091
420,-0.8977096392914248,-0.28662228666824346,0.6307528866572918,29.91339184448119,9.818034171402088,-37.99460648702887
430,-0.6318418262304389,-0.20728738122932158,0.7739829209056859,-25.55343072896846,11.202053834320585,-61.99160940102288
440,-0.3120853068979119,0.18468470476608512,0.6391969942813309,7.627911830774409,14.228553934966975,-65.2002387835279
450,-0.66408491659843,0.03542844137241235,0.3368252427566137,9.39857538348225,19.348828102046113,-37.614966833067975
460,-0.5493186989698151,-0.031035269667946556,0.6909674947072876,-21.943179673936886,17.391911200153267,-17.04061700569484
470,-0.8318462197390916,0.07333921604200552,0.4850142355080944,42.103568904263085,31.457112485733077,-1.8217358195166082
480,-0.8439413552856503,0.1311478225659662,-0.004524051169820589,103.04070521389471,50.1135777463501,16.150370047246547
490,-0.4698437922786527,0.30666516933412713,0.5473194534148966,113.43368193158928,54.04358523206658,26.269017084425997
500,-0.49348197710707586,0.2784190376858902,0.7008807201281011,99.23623501632606,44.26673559419154,23.562969616428045
510,-0.6947339448854596,0.23688860105004209,0.5453983855688359,49.7504359876867,45.06746682587318,42.17377043073094
520,-0.7851513706455745,0.31186574700344954,0.37278318741095584,40.60084342041291,47.413542172446384,45.04300843309064
530,-0.6790546945978262,0.0760553072326199,0.2448106782682015,71.57179670926162,50.780319945093794,32.06364716159858
540,-0.5110939599092246,-0.14938092439389616,0.6693684692387264,23.85235597448779,44.081977214870925,35.61650351569686
550,-0.8551205486093099,0.10166011530691857,0.020634736395464474,44.947573137952276,35.379321019815535,23.514831337199013
560,-0.7596745993974368,-0.19979509827136824,0.5727610692045546,16.873574458693465,24.627272748913942,15.783819486677643
570,-0.6827140014619514,-0.296993233595183,1.1096543382815631,0.8091286117706538,19.114629023380132,9.70146909325619
580,-0.6804345676380497,0.1716154280119177,0.4516772043883655,59.099884105939374,17.207037546310513,1.4259814694078976
590,-0.5469862922060025,-0.15057627900566342,0.8955077969231934,32.90003532976946,11.729897842167077,0.1961393507629025
600,-0.6258144562427618,0.1929115765942464,0.7318101681269668,31.18630869386931,1.4801343080650535,2.0446992265698807
610,-0.6381000732030204,0.08829504897587165,0.7149912071350818,45.084372886305275,1.734786996687936,0.8417097097088865
620,-0.7281876868304057,-0.0873165447719354,0.6824632378326201,51.584260610672075,1.531624639296851,-6.036555038650019
630,-0.7104977789112981,-0.5882427817533876,0.6749813954777527,9.786421331835285,-4.128243661145714,-35.814688972982886
640,-0.6365073160304995,-0.1749899607664903,0.809661711451321,-21.210132784364145,-14.320324929769003,-52.1848164977697
650,-0.43317991550985707,0.11049664645459752,1.0012871175502964,46.129669222226525,-24.116331967731995,-69.18981398760882
660,-0.4038858213126007,0.22293401885314204,0.7614963407665281,28.11637749101245,-13.148701734134008,-38.99755047581739
670,-0.6121332625854412,0.5451817392979685,0.44787795579130046,24.245172717252768,-0.2028776099260597,4.419850264866693
680,-0.6784279716903432,0.5142655757723706,0.5047193874732403,36.9743027787194,4.171161686213379,19.282651810419548
690,-0.6188120325458399,0.38250407230791583,0.6834830503038192,18.896281141363104,3.7853802374850334,13.191833170608735
700,-0.6799867727710248,0.29428361484207116,0.6725811897422528,-9.350559536935311,2.811229454406706,1.1550302441740372
710,-0.6897505873968812,0.24193023237088374,0.6728775033673687,-24.043060059061208,0.2693290619713335,-10.124837309096593
720,-0.6929929769814757,0.15852318938333732,0.6591677001350954,-24.410424554787284,-0.005446502460448616,-8.3187011138059
730,-0.6741449496733565,0.1559143523884556,0.6747910544645334,-18.696406711376035,-1.1425208027263332,-0.40574479923524787
740,-0.6919446634726714,0.12830776537775754,0.6578652003792813,-9.478333445538548,-1.0671587912215224,5.372568910262743
750,-0.6841612058639177,0.13791093403198293,0.6644497957718778,0.6040096202792539,1.538379881002527,10.594453887215595
760,-0.6861218752793056,0.14725213550639737,0.6599076813662713,3.932554952619796,0.8187714428446149,8.905163121381612
770,-0.673756535553688,0.17167439017522554,0.6677400917353884,-1.551867809606256,-0.9103670424880405,4.016165981619548
780,-0.6387766511379871,0.22418480135824626,0.7022365818370027,-3.770165237260072,2.053233637517492,4.754056022344317
790,-0.6507205898326093,0.1846462540989743,0.7054568050684101,-6.29031913329397,-0.033135858833120535,-1.0728369788942231
800,-0.6717071976483892,0.1672670647822056,0.6774801194509782,-3.5741755182626913,-0.9860962131076504,-2.2443212393663057
810,-0.6730039110598601,0.1705284028479656,0.6846858291994826,0.5916984549218569,1.7040629080570309,0.5976580075358542
820,-0.6701700542625164,0.161716206177328,0.6824174468726473,2.691844229312779,0.3008710632251438,-0.3377728944364464
830,-0.6395425337220717,0.18419001890998785,0.7062325490439743,2.4926378107653866,-0.08528137090213495,-0.8457591344039208
840,-0.6751637104720913,0.15675114973052187,0.6773778313212835,3.742745688228763,1.9358442844758592,1.5814981669616264
850,-0.6537909004904864,0.1795551864698953,0.6994317486569273,-0.6257109359428523,-0.802599404287381,0.5879710668840801
860,-0.6680803092199138,0.15653480704990005,0.6814448180973508,-2.032101959092182,-1.0781988698188993,0.5559263060135817
870,-0.6671623349651804,0.15823630840845693,0.6817536755263043,-1.445854309425106,-0.23669104063703533,1.1546558671736478
880,-0.6647248820067417,0.16819206203294756,0.6857474251689273,-2.6671452184096873,-1.0456839762057133,0.04517033762186151
890,-0.6722955103535324,0.1628854874128544,0.6820644064940711,-2.245438039650195,-3.3363417964919253,-2.487914093390523
900,-0.6566161830440507,0.17582894316597777,0.694122448842677,-2.2864443201369093,-2.429889724201502,-1.7978171328372519
910,-0.6517839344381475,0.18390282853933226,0.6985374079626668,0.2327477674480507,2.4175764817491157,2.372308880460208
920,-0.6389546327585863,0.19333823715833204,0.7188908792588652,-0.2312757564159169,0.6069369518195621,0.25170467479548286
930,-0.6497763102408167,0.17424000120107125,0.7054739894025315,-1.33928851954493,-1.6457636769202437,-1.6075660466298607
940,-0.6568716336950273,0.17892517459172863,0.6905399705056023,0.9326491052850547,1.1398685385664677,1.146830133547453
950,-0.6716835147348461,0.17508712842656202,0.6796319663556252,-3.1330339456503804,-1.1352533355957986,-1.232160409566006
960,-0.680148571876971,0.16522835926951515,0.6745834158415511,-4.194673065583906,-1.3134663386402927,-1.6593311912211886
970,-0.657879782823864,0.18293096057560596,0.6932598524611415,-3.1274630057597212,-1.833479265760833,-1.9625313602748518
980,-0.6629842930825918,0.16059650125084596,0.6905458119362884,3.7416732061156033,0.3339988505449746,1.840703049232502
990,-0.6397698506785204,0.19525602466080638,0.709827069027216,4.076971366619593,1.5881724254077223,3.0435484616548916
1000,-0.6566407892422428,0.19611285695471992,0.6913314573394013,2.341034608121494,1.5655439842402636,2.598077335441194
1010,-0.6481789882507588,0.18816028632185883,0.7075723458289649,-1.3890494961505035,-1.991770446161584,-1.1334342168872138
1020,-0.6610057051638802,0.17023112470172724,0.6936609758181627,0.5986968126783165,-0.08566820739679437,0.7460215911236135
1030,-0.656693298856881,0.16675766617507484,0.6915837787116805,0.1524339825211125,-2.0932988793910927,-1.0286689045092154
1040,-0.6299891782436718,0.21177089444142294,0.7239026570669633,0.8296814175303431,0.3548321383628942,1.2735032811682865
1050,-0.7057964281717091,0.13417540894543556,0.6490457075072101,0.9508163345609016,1.47910300124466,1.879001459288767
1060,-0.6559737547434686,0.1858202885172898,0.6960830204182301,-4.984748286678473,-1.5186768130619483,-1.3256912191033252
1070,-0.6661830703077788,0.17044220846894767,0.6872018990859281,-3.844671355668673,0.40418220919309744,0.6881773697684546
1080,-0.641876757305563,0.19100080614801526,0.7097153661541667,-5.829974598261858,-2.851257589620634,-1.579898685210985
1090,-0.6714949156566732,0.15541344781325742,0.6800540831187178,-2.0691297582516865,-0.07998731948267346,1.6297028945182561
1100,-0.6638918643040118,0.17068212484158005,0.6912296760142357,-1.3149928510142692,-0.047077721394384764,1.238741924859449
1110,-0.6572775886262129,0.18606947970581894,0.6964333879700477,-3.845908550742621,-3.1941200923292365,-2.4715683475601304
1120,-0.6551119816263825,0.1824174264634306,0.6906362979678418,0.16117212551180593,1.0970677068151338,1.4007385779949895
1130,-0.6713461738105423,0.16248837928642162,0.6744693612418905,-2.2702973692519253,-0.34890066997289226,-0.6679170033942826
1140,-0.6752699449870619,0.16076438890056055,0.6780474956750016,-0.09952511234466987,1.9490673970583159,0.8780312024656165
1150,-0.6529650190089806,0.1791234702003259,0.6979428026267664,-2.691817510218377,-1.8514270952587302,-2.9203583766412287
1160,-0.6747711591788248,0.15271126631411172,0.6792802791004007,1.5117066663285847,1.5688818726292826,0.7372929378482376
1170,-0.6511004255880806,0.18147112028942303,0.7052507178546901,0.4105807967733051,0.13245614511791634,-0.7105044577629406
1180,-0.6599447942345682,0.16383659822766727,0.6874657658433198,0.5406467159753532,-0.5666541077067888,-1.7075486992365136
1190,-0.6589086484816491,0.17496835736429633,0.6968715648167155,-1.7846596003859685,-1.894033387752569,-2.684902693335065
1200,-0.6425783149086172,0.19255256491040396,0.7120662581690416,-1.9955698206321988,-0.9951938861782029,-1.3149736419613207
1210,-0.6467364743138205,0.17698817001448972,0.7056978532383527,1.318836794714643,1.5229973425694505,1.6019074463053946
1220,-0.6518446132958062,0.17429075539459563,0.6962931289634235,0.25215209233679037,-1.7862547801678323,-1.80836190371464
1230,-0.6793465142635592,0.15699989592872063,0.6717154854091648,0.43352845199626344,0.2586073240938175,-0.4576013579205849
1240,-0.668620307560488,0.17269650764103794,0.6876243916946613,-3.5359398667769346,-2.3088444021425722,-2.8438534123199024
1250,-0.6827021193158571,0.15418760728883824,0.6729576193669209,-4.811565937118802,-3.7235001370634793,-4.3360049167343515
1260,-0.6708456197283228,0.16659157078609316,0.681742416379377,-1.467182337546108,-1.6356551233838679,-1.4993339832697117
1270,-0.6487598475359829,0.18409323742185646,0.7045575056786805,3.512350373350748,2.6730399003511613,3.17095847064178
1280,-0.6422912926573032,0.18946879136513506,0.708635816926309,0.6938865002821862,0.28847469863885294,1.2267563252916212
1290,-0.6362374975858529,0.19891650193321073,0.7116596953788593,-0.1332903922834351,0.7242448220148087,1.5354626115579602
1300,-0.6541666514416195,0.18123526377378082,0.6958908664412473,1.1663914781318576,2.480424797618302,2.5421834144840245
1310,-0.6599315144909642,0.17170293592519179,0.6959384929285684,-0.47940427292821974,0.4528893412321888,0.27530721352926907
1320,-0.6544179806688847,0.17590820856251527,0.7009717815525774,-0.39385400536239545,0.4603911676803585,0.45827065917267235
1330,-0.6275037921192546,0.20311311219449185,0.721687617530607,-0.36202881610282434,0.04360027583187043,0.09250260718421932
1340,-0.6488613082158958,0.180754632123015,0.6980197354912109,1.6450183407266163,0.8802965347428038,0.9966062207837769
1350,-0.6543302544212941,0.17954404164127022,0.692058458041313,2.569761930959634,-0.551266444607636,-1.310477735214445
1360,-0.6647118535978405,0.17222304162846122,0.6842525316523342,2.881775781404679,-4.505248568625676,-6.993498028975184
1370,-0.667961448019718,0.16070912159333967,0.6862506578683277,4.472617689525335,-0.7548865044291555,-2.8464574948355965
1380,-0.6394816048234115,0.19079012106757523,0.7109978148932908,6.029635678932209,1.3144956511628005,-0.7528801834322816
1390,-0.6612401941107382,0.17414989028404732,0.6903345808769202,3.6547018388077515,-0.8853725738210023,-2.352199576164907
1400,-0.6492180821988852,0.19728836068147293,0.7010611173133824,2.939829419777251,-1.1629060846097938,-1.7396768025865463
1410,-0.6641392292821603,0.17518001664435898,0.6886173104826931,0.058447257372130634,-1.171058430523908,-0.6535090688979336
1420,-0.6435712063887512,0.19115703340774623,0.7097842521416853,2.2098533040024924,-0.6079213556769554,-0.06015901006797364
1430,-0.6632256511621198,0.17864652307502235,0.6832187183052574,0.2488851638107321,-2.0824407027852354,-2.8014464107481554
1440,-0.6743902542488663,0.17114129133145817,0.675498894198232,0.7518578088434994,-0.6896766421682421,-1.9054391667579211
1450,-0.6726185530837177,0.16450456498406296,0.6762201515605439,1.2592711730490191,1.36483813224228,0.832749648206143
1460,-0.6814280452773026,0.15452692039699478,0.667897256127022,-0.29949526245791713,-0.35605137495860634,-0.18352293159989233
1470,-0.6832263346752341,0.15358889580070523,0.6646266467621221,3.499497173513128,1.9567054899103475,2.8449686943943884
1480,-0.640666922374679,0.20028385721379177,0.7083839608525647,3.1297043494205123,1.9470336642502521,1.6832535293130177
1490,-0.6417094718910512,0.20042373123478802,0.7078595746790219,0.43581275288373883,0.5966141597974712,-0.5855751508594842
1500,-0.66176122592386,0.1766341020217766,0.689617812328282,-1.210360094890544,-0.2979717605364886,-1.3713894968612252
1510,-0.6959379810925113,0.14036839661951522,0.6558694483563755,1.6018344365672872,1.0984101443392038,0.5033067638192077
1520,-0.6737868506830279,0.1649441383839656,0.673915540795679,-0.5750428828660548,-2.0286548734161327,-1.8969765520658084
1530,-0.6828757710217028,0.1597033385942475,0.6635499671502739,1.2642866372603752,1.2470759113112502,1.929943568431879
1540,-0.6473473737033564,0.1987094951114624,0.7024536217607896,-3.159912893779888,-3.31479142873298,-2.949013446371767
1550,-0.6808399188683524,0.16378756133328576,0.6677679665952834,2.0371739359314174,0.18033998776481175,0.08190942873484669
1560,-0.6697518424082849,0.16897911464929305,0.6749084487471081,3.117117726561709,2.428127009681782,2.8791839976753693
1570,-0.6614598630662241,0.1874073047898964,0.6853915207214385,-3.62271966404572,-3.089146073597941,-2.752399054955167
1580,-0.6275105478191273,0.2175948955323065,0.7253585885884303,2.552886223608466,2.1384366159092343,2.4076609721393143
1590,-0.6722060785766575,0.17349279445031507,0.6790961439773542,0.45534831841230883,0.29641077268224325,0.6307252306324547
1600,-0.6441096791358116,0.19698957261226477,0.7029875652303934,-0.7952370444680024,-0.5669922337476038,0.40137874157346143
1610,-0.6705188059175451,0.17548884359626216,0.6793792999186739,-0.40678264256772484,-0.5500655648745093,-0.5507879895684321
1620,-0.6695153076580663,0.1789306986422634,0.6838733460518966,0.9158982645013911,2.664600202004932,2.071676451192639
1630,-0.6455154497430848,0.20766129910788308,0.7064316263095634,-1.3781956431646813,-0.42732419767103247,-1.355335742315502
1640,-0.690640148331641,0.15491001868324267,0.664739645927376,-0.3270365036921069,0.47060159220748315,0.11758494455798846
1650,-0.6564649942012988,0.1827634486303056,0.6937782426316071,1.5690183723318731,1.9836895758689672,2.2659053633382786
1660,-0.6678922849219541,0.17189530102415151,0.6812359693783566,1.9547192288246042,0.27112926252778236,0.974235608279409
1670,-0.6681997141846421,0.1718694576831039,0.680900009247803,4.1139376881195595,2.7715136510497254,2.2350606514003455
1680,-0.6407698194012472,0.2012481844812612,0.7045422779214963,-2.1584479287532554,-2.2053317790451326,-3.0746698148549667
1690,-0.6660905938260265,0.17683391937008172,0.6780418555148342,-0.19618945125181345,0.313307043855342,0.069195284666841
1700,-0.6396914086073482,0.20496995383578331,0.7078921833425054,-0.4711695514717771,-0.7751074685461026,-0.8866888935688367
1710,-0.669481436495196,0.17647795289976714,0.6815530041601113,3.2161575872548434,2.8654181847034272,2.689908221922897
1720,-0.6760670903524669,0.17170665345907402,0.6759373918080562,2.0440195821296694,2.312317489333084,1.9496996121736379
1730,-0.6543963297418818,0.1919768993635278,0.6962308667206192,1.2801459327106457,1.8207428235623486,1.1766519344384876
1740,-0.6464991131030287,0.19555823877021128,0.7033928675768024,-4.142031378238941,-3.1667834372426964,-3.6245042383882033
1750,-0.6577964216773676,0.18900180177707063,0.6943069917001415,-3.3581075496377606,-2.400538082695884,-2.658894712192573
1760,-0.6537351061214878,0.19566003276730903,0.6987718903775584,-0.40417207008270173,0.8702319562424935,0.726988369713115
1770,-0.6923329125277028,0.15290586316171295,0.6598780278830441,-1.256899192050645,-0.24749675764427403,-0.49450778900477954
1780,-0.6387955903781751,0.20244475567587605,0.7101651690566886,1.1488371829336292,2.269214815020744,1.9466318147272739
1790,-0.6423073114011835,0.20154630474175078,0.7103688707180965,-0.21560440863848207,0.9583880249307867,0.8611184658917944
1800,-0.6465605186943104,0.194377899142577,0.7076153651649133,1.2531142230044843,1.4596944520713941,1.29883178039375
1810,-0.6656131872372146,0.1748071810813507,0.6883609500066841,-0.4643116401574243,1.0952951102168558,1.2112853524352123
