time_ms,ax,ay,az,gx,gy,gz
0,-0.761195085076461,0.2747274993193473,0.4020888407961798,-0.22144854282297832,0.6071547594137455,0.8911870556371426
10,-0.8158737137468776,0.2093599756055668,0.3453799591920734,3.9133196592657074,1.4683880535371407,1.933323016684947
20,-0.77424699776617,0.25866963302521406,0.3918482117936065,0.8492157323604288,-2.04557135067759,-2.058853754900296
30,-0.7797809610305761,0.24849864407516017,0.3827274683045616,-0.9522377682246519,0.11384130711818667,-1.1472156184838918
40,-0.8020699906760275,0.2238131199222141,0.35471001454073575,-1.1277225908666904,-0.26309630947412743,-0.06961465361357824
50,-0.7917660059690697,0.2425290845020585,0.37239040449864047,2.7041880014682826,1.7781370790307567,3.6492747310959377
60,-0.7963539955606951,0.2286379044934697,0.37008607721838777,2.3927325779593724,0.926569161334564,2.9180157116536134
70,-0.8146053133911911,0.21924451778723822,0.34701970143308536,-2.4267995358625183,-1.5444360130498016,-1.713566295491345
80,-0.7896350871343635,0.23867764367414204,0.3756321379280286,1.2181133575674692,3.315010213990203,1.7160177560881602
90,-0.8040373337735257,0.22995512643345187,0.36105030909359126,-1.9319659429826346,-1.2083386436074228,-2.064622006025791
100,-0.8008085555899523,0.22876655222225203,0.3637920588122121,-2.5370500941383853,-3.3804545496242873,-3.9642305241064664
110,-0.79073435390697,0.23871776792046476,0.36904240669695726,1.5255405438821255,0.05713428184157565,-0.03904663432244526
120,-0.7952420707218876,0.2306462092371542,0.3698764102194564,-2.874093925429203,-3.9261866074677947,-3.464252166808411
130,-0.7948117882598561,0.24204149980509052,0.37241018914246554,-1.0072019298350463,1.6803577085992942,0.3378277619895941
140,-0.7857217793828564,0.2380767548794965,0.3805334588877664,-2.5104935568464204,-0.88427240228761,-1.8835617273180807
150,-0.816544495655696,0.20895957716472927,0.35071258593749977,3.919861566927341,3.8745671164696835,3.951834510300547
160,-0.7927581912133226,0.23729309872846194,0.37424009921143625,0.47021437188045445,-0.5294186954597503,0.06535248239932268
170,-0.7760017427184437,0.25620678892169485,0.393971629174311,1.6928775529024114,0.32817466600573547,0.9490416614981572
180,-0.8247821448574587,0.20619451003966938,0.3437978276608332,0.18856140804240085,1.602208399315554,0.8600754133013566
190,-0.7890008202307812,0.2375051972840076,0.37148075814270654,-0.7934015636597078,0.5425392210897685,0.37704790516880515
200,-0.7956429350013989,0.2277331555367404,0.366458091492078,1.6224853181610368,-0.3763538824277796,1.100852224205295
210,-0.7948428785276274,0.24083473710156306,0.3700253910026546,1.2841571997699712,-0.6896866138036233,0.04974808511584322
220,-0.8338004243579673,0.19898741840436907,0.32819100582432637,-1.3518636364246572,-1.649052283164774,-1.9849525056727546
230,-0.8028155035229423,0.22452489991690044,0.35952109460127557,0.426678261819847,0.377531293474836,0.1187602482151614
240,-0.7786702018044483,0.24827693675143028,0.38569149347356363,0.24975175980732667,0.7115865599838679,0.6219595286901053
250,-0.8104428175528652,0.21741905269587417,0.3634341977324185,-0.951133603762094,-0.3265438917770782,-0.2749605868886924
260,-0.7785764194423745,0.2543749439065027,0.39799377380542805,4.221912413080095,1.9487481528386943,3.039993766762161
270,-0.8191363109055586,0.22243870284785502,0.36942856651016764,7.4871557579419745,0.09386424984385267,1.8910875364314252
280,-0.8004935779525826,0.23217424495689812,0.42086488757200224,2.149533811477599,-5.4960442946483266,1.5473005753854934
290,-0.8296628824436667,0.19312564542076682,0.4983843712628629,-1.642339425852327,-20.621942326689275,-1.8411947448140278
300,-0.8266631008026226,0.24231522240455475,0.4911133294413105,0.3219601476459979,-33.94987289717529,-4.640003660209663
310,-0.8106966283114572,0.2657394045163808,0.42132824649341205,3.4277449978650156,-40.10834408412557,2.079116677288401
320,-0.7178883559946138,0.19832844498857125,0.30732173846787975,-6.734960213045153,-37.84251528144979,1.1582105168242895
330,-0.6642569396905539,0.16891698824906123,0.23532733169616252,-3.901798146090776,-19.75431199374038,-3.4463065922311276
340,-0.7464286836621755,0.24165829397915448,0.44775088921737777,-13.493513841936343,-8.971102838083182,-5.699880570274926
350,-0.6794125142621285,0.29123423864897324,0.3883974495189389,-25.5536921615681,-13.787298566833986,-13.678124232543265
360,-0.7349403141462717,0.25468719566358305,0.35542193026440605,-28.84948637188663,-0.766289424034363,-5.635262718038844
370,-0.8206725444353126,0.11490560312670728,0.44044932619986876,-19.910872133125412,-16.89654397909894,-7.291209400734797
380,-0.8228339835831399,0.08719976573628303,0.4672100530552314,-30.488006883848513,-7.4183762106431095,-3.87249513497461
390,-0.7818093205449899,0.2959277290249636,0.4160723266100249,-6.227413131111858,5.534549317969361,4.001333863807757
400,-0.9459755224822759,0.478312431005947,-0.14697786153058065,13.194453649060799,-20.596740973691432,-30.191678829142024
410,-0.838064339943744,0.058943462090162144,0.3320157146395924,0.6134088685503643,-2.70874214232872,-19.759581088218372
420,-0.8594598993191618,0.039997069028113064,0.5163055377708539,24.645933630697613,3.207770323383876,-9.579780213191878
430,-0.802179638490062,0.13298173672229613,0.6031510492864051,33.32974160187715,2.372625991476621,-19.284848836782118
440,-0.7680091204041298,0.3116638464981445,0.5378077466542922,7.646151492773416,33.942786793283254,3.328400413347858
450,-0.7236902792632858,0.47515157704856076,-0.2319119953086803,-12.11293242400999,53.03847386433315,26.86125600345038
460,-0.6039386042027667,0.332118213970236,0.3490222296361817,-15.9816245161292,26.626758485386123,26.597789904958983
470,-0.8559905508089308,0.22103820031954302,0.682516119018725,2.1845327659695,21.53221607417634,30.755345938097292
480,-0.8067969819659512,0.09915009506431985,0.40379936531482136,-18.243631024760727,26.269259188943725,21.46239226895174
490,-0.8193095734695246,0.0300037146254257,0.4632114107969263,7.19490882707262,4.7023241184138875,3.388128955994914
500,-0.800561726215166,0.23106602614049163,0.3713291804183093,29.165968611985434,1.8975268717732376,3.2586920545419873
510,-0.7841555461614415,0.2444890927225741,0.347065885988719,38.022257682420566,-3.688338326070739,-10.900630085175747
520,-0.767912621199637,0.44549509744494564,0.38570541240859496,27.488114223651692,4.305443107819261,-4.673013951912918
530,-0.8148513218048782,0.37798648507398924,0.4230563531463973,21.10150596467225,6.72220538736597,-3.5246669366528844
540,-0.7208827633821261,0.4278260402168322,0.5144882723636266,17.158400632710652,2.35432951517748,1.8381466161915112
550,-0.7694946677156235,0.3184000892714085,0.3955310592827024,5.519389387514941,-0.2664289601724166,-0.13980298954157666
560,-0.7891194507473333,0.2621220273745533,0.3886857461336643,-3.088224641749311,-2.053967177080375,-7.1972436893676015
570,-0.794397463542292,0.22782204383673177,0.37864940077191434,-4.873495846195718,-0.057140373186276155,-7.038168199904137
580,-0.7800016309226272,0.22173502290003325,0.3895183638979923,-1.6909590792306965,-1.5679764494298278,-5.566930284745884
590,-0.7929659107306654,0.21170060541894753,0.38138786277187714,2.3483265310659367,-3.1876950492890175,-2.459477172369249
600,-0.8145588765123121,0.19885272139603713,0.3650858604276182,-0.3457969623157542,-5.518903123093824,-2.8383032072136105
610,-0.7898491644653642,0.22175183687895267,0.3882857478691458,1.0085733409098194,-1.003919938619606,1.3276411502294423
620,-0.7927418544038625,0.21185074542394883,0.3833013924586405,-0.1638978597174942,-0.4197137188666411,2.124897657167351
630,-0.799403562906178,0.2051425990705775,0.3764385484086854,1.7815142008523368,2.1274271037626478,3.386999376636424
640,-0.7866721246559761,0.22951338714325253,0.39116281346070914,-3.931783923132814,-0.06634838829207002,-0.8191193133451735
650,-0.7742990293096942,0.2283408127121381,0.4062502836194102,-5.823340777086045,-2.0470804014455872,-4.457791859358184
660,-0.7803021401799426,0.22525130562865445,0.3916884592716653,-1.2188222114163931,-1.2988292285024374,-2.107321920224037
670,-0.8056343855131122,0.19582002173652058,0.3659145225124492,0.4913839053601028,-1.8365699731557013,-0.8489394641044282
680,-0.7968079387608878,0.206103505933167,0.38390490806746586,0.7453125969477128,-3.1496721626584434,-0.8064336644938539
690,-0.7711379412830508,0.23577409311628972,0.4110187410322478,4.191274054135267,0.11963869967024421,3.106208379676029
700,-0.815818913229004,0.19899891252882623,0.3645406361651667,-0.6505374956116128,-0.6412358385035376,0.10424762650382946
710,-0.7831869708994792,0.2354841021185512,0.3952500388582337,-3.946535678079393,-3.070228257278977,-4.0006022851609115
720,-0.8057553874746252,0.20044975960805084,0.37433864977455383,2.1927346390677562,-0.1768137494458938,-0.990706526706981
730,-0.7849132235948396,0.22120687881924783,0.39299956425998506,0.500464821427304,-1.774679854425507,-1.9764450537972158
740,-0.7725140134463903,0.23653731596363173,0.4026554271852995,2.5158554712735532,0.618937240903453,1.2744875284781583
750,-0.8008299330293499,0.20847536740312744,0.3735106505206732,0.11178736384817123,-0.7636156941285308,0.565521339140391
760,-0.8031321166750844,0.20789199646022521,0.3699798896200998,0.7605663425157991,-0.5585369135859823,0.890485244231964
770,-0.8137300517189294,0.19930925990788334,0.36298372682791347,-0.4033262094855471,-1.726333213522882,-0.06961212149390228
780,-0.7999858359570563,0.2236699965961268,0.37337666075354964,-1.2338689906605727,-1.0654360610932323,0.11232916414661764
790,-0.7793997095092556,0.23244636480472605,0.39564602502184254,1.9265323203399116,0.21403457998223485,0.7591614494164607
800,-0.7718759200487122,0.23194089738670007,0.4029924823990357,1.9602506557471655,0.9419036047396823,1.6651149320072844
810,-0.8002108386231087,0.22066310109021756,0.3768404039342939,-3.198662712508331,-0.5265870223830049,-0.42575783979635484
820,-0.7803772603053583,0.23353450061224684,0.3946638655157232,2.453704138777519,2.37287098175632,2.5237311997646907
830,-0.7890303000313051,0.22784117917259014,0.38775216085688985,4.392583159316022,-0.35068466242566393,0.40786285071130646
840,-0.7856532408812793,0.24030415320626763,0.38905677852064174,4.459908102112487,1.299617508681659,1.6195465651280678
850,-0.7874274436319809,0.23432299888541114,0.3845841895769719,0.992329884776382,0.8372344404454588,0.03235193601609643
860,-0.7988791737830233,0.2081640791172721,0.37479118206271395,-0.6007594112986359,0.5920268195982683,1.2419687128174293
870,-0.7934843578249374,0.22927454720744192,0.3829640031539856,3.6769983293759845,2.363134887202206,4.481865745490113
880,-0.7929654860807963,0.23074887898897484,0.3776922158800155,2.855739092540647,1.436469475725542,2.8931586885864733
890,-0.7660873844148629,0.2525428394828407,0.402598242798331,-1.8726461628614512,-2.427680761054632,-2.4232529076396836
900,-0.8246494534774749,0.19020408155059892,0.3509641903461055,0.1445849044821601,1.5121891077335512,-0.15632345330344677
910,-0.7732651553763876,0.23676367013921212,0.40058085542852845,2.3334126359958995,0.5501234170626933,0.8375049570669604
920,-0.8114633514455285,0.21235898303074507,0.369750463590084,2.98580137947513,-0.01798931784713248,1.1471809449806076
930,-0.7953124296236699,0.229141395822852,0.38227202327554044,-2.033107460778528,-1.8289050281983161,-1.4344395126208942
940,-0.7891999765877545,0.23018227843830616,0.39186536563405816,0.15820408422730425,1.6171994397145177,0.7235057915262721
950,-0.7879703305127104,0.2296751730487396,0.38938341490771117,-0.3944033657181707,0.8146573506799577,0.6890675384134687
960,-0.7753717065914951,0.24136587780521013,0.4002510254460233,1.7995777012180985,1.3872259882906772,1.9283315004490738
970,-0.7913299877758586,0.23007224847620428,0.3820952690985401,0.7264795403803591,-0.04331840448052526,1.1553004795071518
980,-0.7945260900411136,0.21930671044719993,0.3784101744149312,3.6091206163573624,1.0037302563651571,1.805693680217097
990,-0.8126558890223854,0.2018400659201782,0.36461703146240526,1.2321983342433662,0.5279383521897637,1.0340805147962515
1000,-0.8080080722253755,0.213491029267945,0.3702768588129356,1.6168311535894488,1.1177515157630473,1.5845739642880594
1010,-0.7943953213713743,0.22946569227257305,0.37922629971918287,-1.2660444904385189,-1.6805781230578134,-1.837945557454255
1020,-0.7746347120955749,0.24159787324508739,0.3986413514066976,0.7989078340708842,0.6012540625622032,-0.07471798642018279
1030,-0.7744231068262717,0.23188422693581862,0.39725914703908116,2.371529274366734,1.028302856295532,1.3555180724589966
1040,-0.8101088826751994,0.20589025649474713,0.36306834681188715,3.4202761634884147,0.7578004918686967,2.310420062201397
1050,-0.7865223348529095,0.2365302738872562,0.3852928831744589,4.049371629877548,1.3956893722843975,2.861335903600309
1060,-0.7753039319302919,0.24861411870894054,0.39979428016479485,0.14492202297357176,0.6460413045512203,0.5941098003243672
1070,-0.7968221573530022,0.21391341930514118,0.37344120716757173,-2.827975240526273,-1.016884367143839,-1.5828262148006362
1080,-0.8042121183308308,0.20620602326283205,0.36525133005964117,0.40387107275576484,0.400846959285978,1.1301041141061707
1090,-0.8052005016110786,0.21454415102599814,0.3705144417549616,2.5067607336343145,1.0768002787445006,2.2495212590132545
1100,-0.7945132561661952,0.22857604942084317,0.3804088195169185,2.553613127822209,1.7470101117377472,1.834740491809065
1110,-0.7768486613904807,0.24330714782282978,0.3934213763110931,-0.4925822462228658,0.5163428653030948,-0.34012881544888046
1120,-0.7938485070559029,0.21891112792240625,0.38472583639645247,-4.047872526274479,-1.889644708361364,-2.5256100874655507
1130,-0.7897031513351329,0.22297116508177658,0.38823361995588657,0.9655940236661642,2.2210048184069513,2.3528864597306733
1140,-0.7803302036770976,0.23896220787438066,0.39888505301840504,-0.0016317350845330147,0.27132281544149933,0.507706045591106
1150,-0.8206859618950995,0.20299999220448903,0.34974846993789566,-0.06929531387937582,0.2212176515839181,0.38286369331560255
1160,-0.7633935886107857,0.24829774189911683,0.40623317360858757,-2.5922737100738518,-3.181356190471079,-2.9067862400748417
1170,-0.7704893641880499,0.24669469787993056,0.39887441945799873,1.3015523913270766,0.2745579076999392,0.4903481280512559
1180,-0.7881505067632878,0.23189319354682947,0.37866609311209337,-0.40418376080240387,0.6996494786706483,0.15331084584256421
