time_ms,ax,ay,az,gx,gy,gz
0,-0.8532462664275464,0.3375424900621536,0.478536232217312,-3.4129438165651234,-2.162697546481837,-2.660100346622337
10,-0.8491574313455241,0.33722887707218346,0.47422603423091697,-3.6466714424885565,-2.0780497496311847,-2.6054600235624528
20,-0.8367265453010825,0.3411730159734646,0.487647006365096,-1.8462651669990064,-0.7788397634507985,-1.1988350969495822
30,-0.8639813780906499,0.31105519576533536,0.46638685273653874,0.03557084009660369,0.04372941961047834,0.08921828969992412
40,-0.8681806494820166,0.31402816294763464,0.45786107767771805,1.2762180788492223,1.6377433623690383,1.6201363190148648
50,-0.8611708490734356,0.3246900760619912,0.4647645687263718,-0.44180616126706695,-0.30447589099681394,0.37702508877265517
60,-0.85251555344945,0.3320525179542068,0.47018122697390063,-0.8383854556197899,-0.49772430898899156,0.009458154859618761
70,-0.8564091660444089,0.3295350998187865,0.4692785963606029,-0.9024481468966532,-0.11772489217112725,-0.05997204106275594
80,-0.8562307397112746,0.3289288981391891,0.47414543603150805,0.09711388725461956,1.044194509650569,0.29070379708201455
90,-0.8367837779145579,0.34382232354083825,0.4955643395400855,-0.2806252564333176,-0.44904637321469976,-1.3562390525963335
100,-0.867696558893181,0.30976796642989735,0.4625693899969743,0.2207456251450015,-0.5143516957508778,-0.816475752120666
110,-0.869590313163262,0.31431446231442134,0.4616659667936714,-0.05158971964871817,-0.36043561345471514,-0.06156447943362908
120,-0.8733564623589525,0.30895992838584924,0.46019422041106334,-1.306224874836589,0.3189628306887564,0.3026228567038878
130,-0.8472369942449103,0.3368898502486987,0.4824066921279829,-2.4340774288834286,0.46846826588698987,0.16322639177214834
140,-0.839111265844872,0.3461736064144654,0.489432372486203,-2.4453471243535283,-0.665899494932432,-0.5903338628529476
150,-0.8594526902627063,0.321270747640818,0.4702709596587783,-4.448043121080979,-4.250789082807856,-4.363329987861459
160,-0.8841819520661233,0.296156347919229,0.44598143061990975,0.29129184400069097,0.3087175712385101,-0.4015661370975074
170,-0.8725406324629756,0.3105053779892452,0.4583186892506464,-0.1650378548199439,0.012392492142455552,-0.6430798159099929
180,-0.8379169714523289,0.34669907154752744,0.4897127677214249,-0.5950745254819403,-0.7027200073623314,-1.2137993824677664
190,-0.8742020556993368,0.30580196570971097,0.4538025435934405,1.5452908693041805,1.8922896729062815,1.5711085119400945
200,-0.8526630229499222,0.32477075136862227,0.48042212012292346,-2.579447707841129,-1.8138455180988826,-1.2086233268121498
210,-0.8670959589863615,0.31962593496533276,0.47522417356771096,3.842965131240069,2.3414447548506816,6.54106516012956
220,-0.8667924933264528,0.3436543058706031,0.4848030484267492,5.9432666921621085,0.615488221711307,12.081407556648669
230,-0.8595112362865793,0.38726523450722583,0.5152180086156042,-1.157274588408289,-3.4585423184798083,8.107464343122903
240,-0.9538498804923318,0.36645241398018413,0.5862280672330851,-5.859325062371181,-4.862039255181023,8.666147979574037
250,-1.0421161052349033,0.2784665399896648,0.8048771131944678,1.55018616914158,-23.135867432425236,4.494210427857133
260,-1.0731123997185756,0.34044939941721775,0.6842445884099215,10.629422796666425,-34.72810756670456,11.445763400579251
270,-0.9156050472290046,0.3250614167887581,0.698338012489132,17.074711079870497,-50.51265440041309,13.63779375508934
280,-0.6213219905812585,0.3765906638710274,0.4780857548688871,-1.2028954585742557,-56.69353041252452,20.170888332943907
290,-0.5191048311365786,0.29998210342679954,0.4262074572492679,-9.206289194597058,-53.8406679260406,12.434081790652328
300,-0.515602422018014,0.386280929401083,0.38495332917240616,-7.030797892929414,-39.42625349373748,10.807026170655217
310,-0.6035530944820622,0.41676082309300955,0.4241118622182815,-17.114623572843065,-28.736175732857347,9.481990888710138
320,-0.7089035845793595,0.468738254500344,0.44222637551335847,-31.387535870300304,-25.178513309970203,3.7720464652752077
330,-0.7338949591186237,0.5059287614755231,0.4881337075187603,-52.56141410778399,-18.992572016440473,3.578344064216334
340,-0.7716504693232265,0.4293080655531258,0.4708887127404984,-58.76211452166522,-17.836035392502886,-3.307816756406206
350,-0.766012231130855,0.37200748102278985,0.5088373108728094,-80.51711167514824,-9.7093156149559,-4.682780972716629
360,-0.8142525660405885,0.300654660491589,0.5076760078868024,-69.78763867091689,-5.270303920257357,-5.8902288510093985
370,-0.8006911668155839,0.20346109635452217,0.5859196082083912,-56.680898791402626,-5.208116575181439,-11.189881758132984
380,-0.8356128421562649,0.23214371234822256,0.5563882757938645,-53.111678896122285,-1.925051523811372,-13.161138254762736
390,-0.8414672378769302,0.31447835874314706,0.577782329871727,-52.973941997231506,-0.7048111931758609,-11.463435241665755
400,-0.8139178426988614,0.25733801817784807,0.611900775930055,-47.09541234983343,3.602566936292453,-2.9815040683799756
410,-0.8427749588027349,0.18374642169404565,0.5892606275679709,-37.15259026832226,5.747087537322436,1.5818055286332662
420,-0.8225408161035515,0.2138857097984649,0.6288970662824341,-32.55916504330562,4.979215820603207,3.8955182744137216
430,-0.7836633232901167,0.19869440763737828,0.6116405710179945,-28.15687863224822,7.954217192589271,8.939745555478298
440,-0.7520999156672734,0.14275217375107954,0.591387407639963,-23.293714841974605,10.026074604964835,7.816108646524489
450,-0.7363060047563196,0.14216333523253707,0.6244743311682865,-21.232091754685687,10.01733298763503,2.220827807515221
460,-0.8484133638374587,0.27006983027121817,0.755732167232342,-17.7848428451898,6.684204130260856,-0.5022386229111743
470,-0.9680707218695213,0.30560431352146933,0.8142141218370013,-12.56184269827358,-1.3727632901521893,-1.9195279157521594
480,-0.8170387091719139,0.19160037196820667,0.6277252768295126,-12.712400782880106,-7.346643557202855,-4.76381745094811
490,-0.7852355629553966,0.22636112239234032,0.6500062279111247,-15.92237931022176,-11.485821122134986,-5.12697109264135
500,-0.7780052990132762,0.19165880334406302,0.6080305526774691,-7.309809329902072,-11.355296609232719,-2.0243243641179998
510,-0.7498235207307732,0.16335950876424407,0.7646267342023686,0.7038473260187561,-9.860300022614842,0.4216683615997012
520,-0.7545845146367355,-0.09093506662640422,0.8163874841342778,-3.9491983391517085,-17.301041958524387,-11.426367338029705
530,-0.9997553143149867,-0.24158195551151132,0.33221817051811847,22.68140723938981,-18.748927696228836,-33.27902626498915
540,-1.0792185469099387,0.033323560080748355,0.2416152559419394,69.22288011643953,-16.468075301748456,-43.35006524533581
550,-1.1138155592701908,1.2134470121001844,0.4530250264225532,142.0102469040667,-14.377052289293015,-41.71179969395426
560,-0.724572414943171,0.7129707939117181,0.7816287886025889,115.97240361389724,-8.511345896692225,-48.44467329010685
570,-0.7699073033442073,0.7867221174286674,1.6555790430405597,121.6824735796681,4.756190286169586,-20.42777126497646
580,-0.7650030713142478,0.405465985735391,0.9006392837263659,82.52119964211792,0.2079951505348161,-40.918474989445286
590,-0.8413055046734053,0.30678082572550863,0.8174000550075852,126.89500914425034,23.601324361073054,-21.200899211075743
600,-0.8989694877378409,0.6285083593435474,0.8200011356715058,67.6401893929189,45.94626090951292,-3.9037615433388253
610,-0.8320203908681983,0.4788916878400265,1.0119621093957671,-6.859054812486063,44.56549380933601,6.8323044842647285
620,-0.9213324407197071,0.7403404266792983,0.9733368960332239,-5.470371209949221,65.41343341433455,39.230786831556465
630,-0.7855237216624629,0.331556340086824,1.3094496253145569,9.09534598890323,56.520545870585856,44.868082883674106
640,-0.5496826769534622,0.8280686871751539,0.17155808996464525,31.12053225247075,70.2532229667152,69.88735765549974
650,-0.5670775426469679,0.12098995418770245,1.3300528641186353,-27.87733457150663,50.11549280057623,56.198775691120275
660,-1.0069159930813476,-0.0035745982449861408,1.1701258262501253,-69.76488539784378,38.418711464997,37.812957213755766
670,-1.013176373933086,-0.14806782457391254,0.8175166802555653,-55.0540134307868,39.87246025240604,25.37426131049811
680,-1.0329119649667793,-0.3804248019211907,0.5087252536744453,-40.90786072453648,39.74912687167866,26.243040439963345
690,-0.9101584497524089,-0.0867621855311831,0.26296503979151975,-19.302938542979486,31.622074189019397,23.479895337700523
700,-0.8654205201825651,0.08687132510560504,0.25278757024778503,-6.153141442434543,26.1736369578285,15.852584757146985
710,-0.9101450731860746,0.09457282545811617,0.3755023409372809,0.15390168708704022,9.660038704857438,9.783255631510531
720,-0.8806693615218905,0.15641989392432668,0.4798424204110878,27.796411911944805,6.581297723503862,21.132384793218787
730,-0.944465621095639,0.009087390726764658,0.529888138301877,53.38440196662357,11.721739567560046,26.001209794881166
740,-1.0196686686068033,-0.324315959408612,0.7130067630308412,75.73510445498894,7.925348773240448,11.564366954337764
750,-0.9862057552282265,-0.3759237538060009,0.9532642252719509,98.85676371956349,-11.575199458192703,-30.80671036650772
760,-0.854053613674398,-0.5371022120587844,0.988638938340675,105.17568375503225,-30.339425818448404,-83.15444651714202
770,-0.631363867371511,-0.7671509688948566,0.9228920838915763,65.34650988325839,-43.96703294293476,-105.35666205517323
780,-0.6920508949876144,0.8735145060079019,0.6000651902161007,108.455333782287,-24.593854804342094,-36.01495035589062
790,-0.7943523953346018,1.516092748559088,0.4642750884987983,157.72352620138057,-19.322526944608878,10.05466387635248
800,-0.9083572470407357,0.756160727507758,1.1607477189333615,140.881523611895,-13.871720493058369,33.21391043253528
810,-0.836489770069233,1.313401408460211,0.4626705343589312,65.36543878086847,4.900524351125711,30.96747332951537
820,-0.7851803293037137,0.7423697929979841,0.3332362154458155,-11.894959457300079,4.327938610419851,19.3237294792618
830,-0.8759598322414792,0.3779285106961354,0.48626000319787593,-17.601375584564977,3.55691574459105,2.5697534418694725
840,-0.8476433332498402,0.31557635182928184,0.5029482685325137,-15.56377683383055,-6.355587417056308,-19.947094977080365
850,-0.9021235549926488,0.24346408439830186,0.4405002318247642,-10.630473225547064,0.09003192430811024,-8.51677907224379
860,-0.8496487756949153,0.27010794308193264,0.5028029960764756,-7.684144566660482,-2.961944418588076,-4.33430281541318
870,-0.8828763937287676,0.2379001323765809,0.4664209681854729,-1.0580232936095122,-3.3139660622496345,2.537170523610928
880,-0.8575829225576361,0.263183231341247,0.4895384089706564,9.74036021895953,2.8931715897006036,14.826669779218953
890,-0.8460568297617147,0.29623045857176244,0.499486336868185,16.292541848679992,6.46885076840871,22.301606149678186
900,-0.8784195878053435,0.31088288201720016,0.4606385515686194,0.8546916606808577,2.0825585183195665,6.204223302417185
910,-0.8406221917668862,0.3420353210446982,0.4921742345167702,-4.4232300850742625,-0.2233622055826676,-1.8184360988652826
920,-0.8345902688178914,0.3460614388115192,0.49905281030288967,-5.901696013305245,-1.7011425930730002,-5.753565822990509
930,-0.8453036778125194,0.3284254312818624,0.49197018078637067,-4.261674836117694,1.3528362918326051,-3.9573672072942525
940,-0.8558733127438879,0.30738302921013083,0.4803872808006747,-4.605631313687109,0.05249350663800545,-4.827386886410334
950,-0.8636694765373274,0.29937371323689127,0.4676688365377771,-1.964559729912327,1.875795449440826,-1.3525376346405742
960,-0.8598690207606157,0.2900361548153906,0.47189858156577735,2.2153481854439905,0.45237762630583933,3.5205229705891647
970,-0.8772649843544192,0.2857556882141015,0.458582673060097,5.679315485973207,-0.5545467005112126,5.722174918090175
980,-0.8743320268175157,0.3086963208023687,0.46256734325701954,6.679399123987354,-0.07516712328964559,4.84384081454052
990,-0.8550370892656179,0.322412170513827,0.4762633426276995,5.173390772356485,1.2790174667386074,3.0851131038855772
1000,-0.8595183070327201,0.3193026661237122,0.4751124869257279,1.4719846743616065,2.4094778890253945,0.39628440867789827
1010,-0.8575651730834952,0.32565499699097994,0.4843842268194867,-1.749604736879112,1.9135673503941812,-2.7310084112188378
1020,-0.8568157323032013,0.31283036743639414,0.48643939114316664,-3.768874538135321,-1.3725718361032966,-5.291246318420111
1030,-0.8385755405668345,0.3231632743696534,0.503862815114565,1.9970374267726712,2.230058131358069,0.6349993068952537
1040,-0.8471492784831989,0.31399302984785715,0.4929629535444013,1.7287996060926862,1.1145013626312048,0.77410944947376
1050,-0.8741253841286207,0.2880360009579056,0.46768347312092184,1.9839723268629224,1.0297768945052017,1.6549195872887792
1060,-0.8461866471980094,0.32460116089100527,0.4917939419611822,0.2938590328475248,0.03973686167598167,0.6510821482539854
1070,-0.863763569576525,0.30022040313147474,0.47345438347614593,-1.309680557038126,-1.3346768828229845,-0.9218301007148182
1080,-0.8548557334085685,0.31359404815540914,0.48229036456980906,2.143016019574264,2.556508924219581,2.4934918622473528
1090,-0.836873601317769,0.33509070529756985,0.5050317406195556,0.5224771989695559,1.9434779947875604,1.475234489574952
1100,-0.8468369557259372,0.3154799424083325,0.49274908734283196,-1.5561284596392095,-0.44375867997899965,-0.25214519387316287
1110,-0.8663216525175494,0.29161858963138165,0.4736755398373376,-1.8400032314005954,-0.09439556425560497,0.8055971152429612
1120,-0.827275669045165,0.3368453951810487,0.5072131506473502,-3.7366447764565143,-1.825558642717196,-0.03580229992419026
1130,-0.8373932268208077,0.31963391859524093,0.49484935912898126,-4.795220976760075,-2.7265711777807478,0.3903309059906439
1140,-0.8654421196864927,0.28182647793796756,0.46794438344221734,-0.092656740115585,0.2689477546603132,3.0753484679493712
1150,-0.8549043789109372,0.30113793450012066,0.48933120272746333,-2.4201363258772246,-1.3695636915594205,-2.321838891625324
1160,-0.8893948940648552,0.2785261773336542,0.4489857406376311,1.985188936725774,0.9033361932672602,0.19929232335197522
1170,-0.8509287913286946,0.3176049299042184,0.48749113979890246,-2.014954892825216,-2.5460808329322515,-3.521081029771395
1180,-0.8857661275798011,0.2702473580788887,0.4560732483193058,2.437456604341661,1.7315494665869393,1.63468742882654
1190,-0.8186450819230866,0.3422630430430329,0.5225148504080693,5.898009493375376,3.6669397615727024,4.6813191874504385
1200,-0.8413462562996253,0.33278779392659147,0.4940618391210295,1.4815017831512898,0.01856946818292249,0.7060335458131404
1210,-0.860106758014785,0.3135413061683203,0.47482710012831647,0.20262221464429553,1.5966126580716842,1.1518104720997084
1220,-0.8380286212176646,0.33292723377604505,0.5006387658571155,-0.8300919766018826,0.6458940272565503,0.05718132337399562
1230,-0.8607904283103582,0.3035492952318919,0.47894497002413633,0.19394285267264944,0.8780494988912629,0.5752501266665064
1240,-0.8358468434233086,0.32659713032469134,0.507379545054982,2.9870273931394546,2.501743786591231,2.938664643630943
1250,-0.9092323413288799,0.25467359286598185,0.43182412072328413,1.5928840895921592,0.6060313574377864,1.0083982568008134
1260,-0.848225314909978,0.319658616957008,0.48873244901358465,-0.4436126956838953,-0.7612069251214154,-0.3696683596721485
1270,-0.8655121003835483,0.2979801319628653,0.4717578018363605,0.3339185256954966,-0.936569479694072,0.4296671040856974
1280,-0.8767598920467929,0.2851109045336997,0.4630153533423192,4.743545755555589,1.5371433705692759,3.1451369448451247
1290,-0.8463639613948052,0.32456551187760757,0.4947738988953825,6.391191220839249,3.0060949579822376,4.23045961289347
1300,-0.8680765476337491,0.30750734623055215,0.4735058554028322,4.326531630884377,1.4103866847350572,1.918896192567857
1310,-0.8653295467069558,0.306323089500264,0.4721305387081254,2.7023621706721497,0.07389930606076822,-0.5690923909050013
1320,-0.8731109014851908,0.2987393152564731,0.4595164695513763,1.0393013085252467,0.25359676817577814,-1.1238415540860356
1330,-0.8809371090192718,0.2889140052836852,0.45366377824294474,-0.9124402224677483,0.1159837449413611,-0.7275311599734107
1340,-0.8677865430591761,0.29426063431468064,0.4690321036695623,1.9560443647979582,2.035119024982068,3.6536505828950454
1350,-0.853476011387391,0.3221805207200049,0.4866654433665929,1.4746333479933622,0.2264518640631965,2.5572047949654397
1360,-0.8550016233682397,0.3199247148663187,0.4789429860838876,2.4685467120772775,1.6555926611091152,2.6572863840974437
1370,-0.8566554594082686,0.3113064916806974,0.47596679186488,0.2930795397777064,1.3831931621332683,1.2651938110740373
1380,-0.8764673999911684,0.2929162498540613,0.46276792091741453,-2.4528762622355313,0.1723871119595337,-0.6622621787607653
1390,-0.8462148729180663,0.31691710974132353,0.4931283224683468,-3.94372990895873,-2.4136229341655047,-2.9781256499417297
1400,-0.832824823838266,0.3392747612541296,0.5062732657122923,1.8836840352643596,1.3427914972050687,2.066364086041898
1410,-0.8671219594004268,0.30171825687690507,0.47215722229560636,0.801107900950309,-0.1608942367990051,0.1064631966302478
1420,-0.8825028018690908,0.27289935863716697,0.44881053575697505,-2.049250957058327,-2.6001733487672016,-2.334325632260083
1430,-0.84247273025156,0.3256340676636135,0.5004435916043009,-1.291082142559562,-0.9133922125217764,-0.90542413912441
