time_ms,ax,ay,az,gx,gy,gz
0,-0.6653651186771029,0.14744839421760153,0.4388569051635007,0.18933684901974568,0.5388251787679322,-0.49225499209592916
10,-0.66517882825,0.14712167449114066,0.43918353009606625,-2.625541231609046,-2.2691711535112806,-3.4461226946513674
20,-0.6411321767620943,0.16641873179221556,0.4669830436769797,-1.1213184884797283,-0.9911466940359158,-1.8154634248891521
30,-0.6339309099274911,0.16961434116336863,0.47209330543939676,2.1202891964639443,2.3330242011315234,1.754132354146884
40,-0.6400562017767099,0.16609475880668548,0.4650172054065937,2.460267048434951,2.258085637893854,1.8442308651330255
50,-0.6651197022074086,0.14618644513815623,0.4420913560315203,0.6211663204952269,-0.08351960145922604,-0.30985009160709537
60,-0.6470310751883729,0.16337380299030008,0.4593455508900056,-2.033724437532769,-2.133799378655984,-2.2785552475557593
70,-0.6146158396365663,0.2008098103034012,0.4923851441252046,3.3789332685161884,2.936017297202788,2.344913035431926
80,-0.6619992978624938,0.15480130513485302,0.4439494171865565,-0.11866103716267251,-0.276295203378845,-0.8757135479647976
90,-0.6241561713532625,0.18935235424821437,0.482092444524901,-0.8643793808001476,-1.4276958406769669,-2.0435923258357658
100,-0.6541168957370945,0.15257475394569725,0.4471674085406912,-0.389476662166497,-0.803514153223607,-1.462844658858828
110,-0.6528408764685982,0.15381596601573874,0.4509365764295472,1.1346802244796774,0.6148125428089379,0.2820451451603726
120,-0.6786994322490125,0.13636036066994642,0.4348393745319321,3.306042515705175,2.4666821971042237,2.4747126755231594
130,-0.642452347298643,0.17842669329777738,0.47009190743409013,-0.7025111135331943,-0.8844616740306019,-1.4309280383682945
140,-0.6272722382748712,0.18973802631323716,0.4759125243701628,0.09156478714993876,-0.16526349473546253,-1.2113990501048986
150,-0.6628418218154213,0.14520274601804092,0.44261316834288256,4.588067376814709,2.643822813075133,1.3603494085154821
160,-0.6761160704480688,0.1387290652695689,0.4408752228518172,6.52776691695002,1.9367112873915517,1.8373979234269886
170,-0.6777913991270529,0.14936883742174228,0.44331292250815346,7.0588421526343605,-0.570876491404523,1.053787835480641
180,-0.6702992370482788,0.19919260240518544,0.4921043283772072,4.303113575087017,-9.950088815310494,8.896754430989587
190,-0.6589920475534069,0.25505000033929465,0.5167484025839263,-2.052209396192407,-22.143076201248785,22.131154053918454
200,-0.5796474880167319,0.30242965111561243,0.43315264465639336,-10.329222815240648,-23.88618076848276,22.61364928549718
210,-0.5265222297419926,0.3172540184001363,0.39206125880463955,-21.698560602680597,-23.224628253304946,24.79243010901094
220,-0.5710947976968305,0.361218132008883,0.4051611964244836,-31.376035690777424,-22.647259915717292,30.49185925439866
230,-0.5768423271324578,0.30409734452022186,0.443380509194051,-34.9306063760476,-15.813463624589133,37.90590710695245
240,-0.5982301753307115,0.2364060464167623,0.43718404077430906,-39.3839554328595,-13.867076261519957,35.80749916171841
250,-0.6036510249479383,0.18396312245043844,0.4224894191458281,-42.79492636876433,-10.71161268542073,31.881926691357602
260,-0.5817063448953094,0.15339913156430612,0.4083620260936458,-49.09033189448176,-7.716184704736747,27.91447666066523
270,-0.5642289511235357,0.18393128832275554,0.3586462458932618,-50.188138834285255,-0.8762503764857876,31.015275281041923
280,-0.5268533956113155,0.15318172578523667,0.3762423853967557,-51.406791941089345,6.595628809742604,33.66173395161349
290,-0.495862398264319,0.19862634848546049,0.3825258507083935,-51.3390320012448,14.833427770192905,33.17183337228281
300,-0.5335283899251969,0.17753503553947406,0.39385230429142165,-48.73891481435564,21.162269223822396,33.31984690578436
310,-0.5323837402907184,0.19153541209621494,0.48436400053609424,-46.96493832966213,29.869137644630833,39.949716820126575
320,-0.7504898678467932,0.06660060478727589,0.5712737481039184,-49.4615639572949,2.175515197896858,19.8345049662078
330,-0.9024154201262553,-0.04004284988650646,0.7056036033798246,-29.01297659832807,-31.79382626864593,-5.5306911884944565
340,-0.4919365778482953,0.012598225611501559,0.665640904327355,-7.7122896476216205,-20.681547852257097,-8.851017842278413
350,-0.5899060897986655,-0.18013722259746665,0.6183930014473792,10.60741564095356,-29.927097944177355,-20.353378060438363
360,-0.5965485855590875,-0.15307137238438928,0.5614545149537592,30.267432216793914,-32.38362243330046,-23.08239966208827
370,-0.6918986124851955,-0.22766092623479772,0.4685143053049106,16.465671258885898,-27.018755935845665,-31.1943910880981
380,-0.6860417741555918,-0.24625071426569134,0.3887745475706163,-4.4711567215212025,-19.848592473637527,-39.35121735689267
390,-0.6697235164893306,0.0503109817930172,0.2621595682691418,1.3154826214339264,-6.185814146581218,-34.618477053633974
400,-0.7517360737936979,0.5881113976671295,0.17287851347207905,43.19510156666201,14.096738059768523,-13.552248602034705
410,-0.7624589595577554,0.7744586989484316,0.473948353974357,75.52788065091784,18.97108406554156,-0.7454570482824039
420,-0.518707242729238,0.48132946928959414,0.8753616878632517,-3.2311697881480255,32.2148001991979,-7.632575526929742
430,-0.6306367405671169,0.797930440572013,0.26118322901320323,-5.896761260124727,59.25509544081958,16.485866358545948
440,-0.7896651441112498,0.8547033948345699,-0.10503333617591219,-16.68147382413012,71.78324375601414,23.68060477199585
450,-0.7778405613972988,0.8572666039474701,-0.17516094029617257,-49.343499734988406,82.14223374228112,33.10593107965908
460,-0.658160468495882,0.621377804577705,-0.0011562708724554413,-70.35099210931868,76.02198318175489,51.80483547364894
470,-0.5907094285235723,0.012027049916670082,0.38850814858776406,-56.727494894864776,53.70342562687707,68.39596471984567
480,-0.8307826889302468,-0.6948569264715214,0.6600016827010518,-76.9581177557519,31.80804661587663,28.056878946966325
490,-0.7561374204373253,-0.8066910724628993,0.7937544409133983,-20.65516221826362,4.906892944545165,-25.36876042046165
500,-0.6617292779783046,-0.15146772799046967,0.5733593695604475,13.404988276342165,1.8341350025807568,-27.245699428291037
510,-0.6379650034964678,-0.07539177271120451,0.4927094187523859,30.418884090660733,6.537170041011841,-11.14590065720363
520,-0.710896110255794,-0.22554916837875696,0.414479364406139,36.91078712544949,-4.205069037840859,-17.718365018471918
530,-0.7933716564786053,0.02972554047604674,0.2913519971632593,58.297366644934,-16.720184082935567,-31.613183538882158
540,-0.7859142781906139,0.6076460370819003,0.3124518511241865,87.52585689153868,-23.538743938397648,-35.57693508555015
550,-0.6237067642867866,0.3376170139552681,0.8467564357999228,91.07991646144892,-21.812645091761105,-28.174865984258542
560,-0.7150919595904583,1.047169364554081,0.23481141344496506,55.81363895117649,-4.11576719112194,-1.4173067180274503
570,-0.6390018068034238,0.6840214854003837,0.4771986393340351,46.309968433374905,-2.3008413447217877,5.025534780900465
580,-0.6230971475648128,0.4318246661708813,0.5552038770370291,24.469252334004647,-0.7996865156799491,-1.3165668149584475
590,-0.6450206551537035,0.33459425919770713,0.4715799123767806,4.550954606400681,3.796097173711816,-4.4241787026261274
600,-0.6611302281516478,0.2432252960732475,0.41106837026530985,-14.128388244456117,-3.36236798031916,-14.47095511631797
610,-0.6510805105062085,0.12918469234941696,0.45890578026590606,-14.125037238047529,-6.698165810828687,-17.94777933035789
620,-0.668208417132565,0.10881811777892357,0.44219139217755443,-5.510143106585222,-6.8036743399508754,-12.074527220111351
630,-0.6766356026039383,0.0915334593924424,0.4250870798292849,3.147600894800822,-2.7795727880618974,-2.151600224057384
640,-0.6777550286781698,0.10150790822028823,0.4351133180578176,6.37391559213704,0.5334655109028048,6.506590069766138
650,-0.6865917370625244,0.10559806376579703,0.42492082503875894,5.286539992728691,2.0270246918610804,10.554196883572324
660,-0.6796651956968963,0.12201788079617659,0.4255337844864411,1.628147677070075,-0.2884007452328685,8.468164074212215
670,-0.6566706695076209,0.15367391877656614,0.44579492499230156,3.719923021284725,2.24639000919084,7.886931002855156
680,-0.6575678164079307,0.16133982949032719,0.44637620032642605,-1.0452972216151153,-0.5266337699795423,-1.0716302020192088
690,-0.6347802593096122,0.17888707947382596,0.4729537158605283,-3.1437574778185677,-0.7375938934120267,-2.9842500185847873
700,-0.6503283014067829,0.14938924910394377,0.45013606016174096,-5.359102381446018,-2.860029825604494,-4.036130550692064
710,-0.6494362921283318,0.14516686704422568,0.4521078121539687,-3.376760114148673,-2.11308753113949,-1.2957835278170662
720,-0.6629359248296652,0.12962019370281408,0.43871228890538455,-2.4401893926285987,-1.8588354694155227,0.871398040883717
730,-0.6704893157866852,0.1248840618248293,0.435279863867487,1.2430020444865462,0.5060009975052351,4.718962012865057
740,-0.659128104802682,0.14277067669740365,0.4500636464523762,2.0434417266287177,-0.9884251870174072,4.102565090527154
750,-0.6180019817262544,0.18923818487030625,0.48484460935792484,1.9860540992377622,-2.916128409136145,2.230075456025393
760,-0.6609646018517652,0.14798525582798577,0.4389468271505648,4.098588343815649,-0.365250964760247,3.677096380021102
770,-0.6442901736635152,0.17735031845750923,0.4592749646149703,1.262660561867702,-1.349287534471201,1.3885876166775795
780,-0.65814513618516,0.16066173232068653,0.4464773466001184,3.826207332748633,1.2704043525633268,2.030416747014188
790,-0.6489666226768495,0.16171489583526721,0.4466186482279933,0.03615245634355668,-1.9693995601365661,-2.8626987619258597
800,-0.6186140897995521,0.1919470797252748,0.47888248962068897,-2.4610621584271217,-2.76048224521571,-4.401385180700841
810,-0.6580571102382513,0.15893162126208726,0.44866605454965,-2.097881915273634,-2.2022500763077106,-2.7485823599151242
820,-0.6591943697296473,0.15743444654109434,0.441840206779204,1.6840993895643952,-1.9750842644171263,0.3927782734577421
830,-0.6575636778435637,0.15069879380019807,0.4482783718591758,0.3366165200107427,-2.718108272390584,-0.17527902456592148
840,-0.634821813706423,0.17493962969680033,0.46711594289902886,0.4334816648214592,-2.263318102326188,0.029699669855351107
850,-0.6503266514348803,0.16564238245859897,0.44491290621259655,2.861222441499681,-0.6003452954907179,0.508365354460365
860,-0.676280528236268,0.13350729505588999,0.41902669851537716,0.0734738494586179,-1.9413710552712857,-1.7543099736422407
870,-0.680669488697765,0.12195426119646008,0.4204256240484957,-4.568476502315355,-3.201110551022928,-3.706782011826614
880,-0.6384577178788436,0.1639518737874453,0.46666125519751894,-4.21875417977125,-1.3570670313042834,-1.7679057980109576
890,-0.6522026593604184,0.1529703768129957,0.4493906690156253,0.8885537017977992,0.08685496750716716,1.2160375390151792
900,-0.6740435249088125,0.14492763869718644,0.42682376014254847,2.476621730657516,0.3041264030302233,1.2740554364449803
910,-0.6736865256145269,0.14240385307011103,0.42555979988319304,0.9978532046702088,-1.6315267359346861,-0.6038673759427207
920,-0.6671093095379154,0.1480529133829609,0.4360684951484692,2.4800315282027094,-0.11694524742879797,0.4060876270691641
930,-0.6615936719897411,0.15333436485359841,0.44254037469082985,1.4007429856372355,-0.8247107976528875,-0.5799074106570667
940,-0.6457623931132581,0.16731739093815184,0.4583889111590658,0.6362005235168251,-0.6247515513838289,-0.5323736429616661
950,-0.640179000278662,0.1694618781648188,0.46464342384691343,-0.7100225319496642,-1.7597971692619316,-1.9569299694414997
960,-0.6526076970760627,0.1554755581445783,0.450519431537619,3.2868733379366244,-0.060241191156043705,-0.6448280685698149
970,-0.6684270165958024,0.14562990249559382,0.4328261950542255,1.7955347686095393,-0.9154918243151842,-1.7669218271390916
980,-0.6529629189541928,0.16250951919724235,0.44767746303258554,-0.3511075697930106,-1.458468074155646,-3.2967258708948766
990,-0.6775071902714072,0.1368501674160469,0.42023957655070626,-2.1969009193382334,-2.239278278410021,-4.647878067786568
1000,-0.6646693294573548,0.14250011340866703,0.43521910379525397,-2.6823495354049105,-1.9639871922598444,-4.504963897742873
1010,-0.6651012041669652,0.13797854713867563,0.43759816482168806,-0.8343352165771503,0.2514227636204185,-1.8306595808346229
1020,-0.6309475481196307,0.172998967642585,0.4712316872659611,-0.216266335167268,-0.3018391960862348,-1.0299060475876793
1030,-0.6562225727741606,0.14363788546501288,0.44524051344944077,5.131102142102642,1.5170562797299991,2.7850095739825242
1040,-0.6319693630329765,0.17614413496496653,0.4690155731758805,2.251426191185379,-0.5532945400955349,-0.3204975393913807
1050,-0.6846356638019738,0.12973537812168248,0.4175401937130543,0.5242452033040479,-2.5414774239915108,-3.330856370839774
1060,-0.6453801269885713,0.17176693321169217,0.4568570379662507,2.131313854642297,0.820739217774985,-0.2974531310898527
1070,-0.6516931800605248,0.16319261113642503,0.4519846469504676,-1.0525382411016988,-0.286487025135825,-1.9225894423768437
1080,-0.6627521329957904,0.14748542895604774,0.4412796177999555,-0.9858675512025563,0.5600163005428926,-0.9883581086657149
1090,-0.6694656639249986,0.1363938878732387,0.4334335394817783,-1.554511022009806,-2.075321683686807,-2.0501589880057076
1100,-0.6638180236061514,0.1385382242287363,0.4402864349822084,4.828779058415452,-0.7442006868600396,1.5394815028396305
1110,-0.6373042917193364,0.16936801850944788,0.4584146114159456,5.717262333465729,2.1556445457875695,3.173410284023691
1120,-0.66463997733143,0.15058430936100817,0.43246301593256087,4.141687638372254,2.891810158719329,2.657108332544696
1130,-0.6423239735785621,0.17630369987246045,0.460196319252069,-4.975821705384107,-3.1467112014302234,-4.341539897620019
1140,-0.6515041382943279,0.16611425878929065,0.4498985842288989,-1.7966026950463618,1.6246755771091508,-3.637051197102892e-06
1150,-0.6594526865591744,0.15570178362204126,0.4385613170854965,-4.739418313172836,-1.4782141299052198,-2.636039714483892
1160,-0.6373884070959275,0.1738326714251335,0.46199473504612104,-3.5881869502560013,-2.075534037947321,-1.937410226133187
1170,-0.6729121138739954,0.13039484665328901,0.4300285784246988,1.8803021225146952,-0.24196834219440022,1.0394694588947928
1180,-0.6653141327143447,0.14893178073774843,0.4367778354749129,2.4507748736218593,1.0355458675848086,1.12160041292231
1190,-0.6739910425272907,0.13807621453759422,0.42785154623919724,1.270495442759917,0.3640562017274783,-0.3770077927950896
1200,-0.670994340401947,0.1387349369749039,0.4277707881121437,0.8260266852879528,0.8495620662019026,-0.35474628323759894
1210,-0.6659065233874814,0.14299069805058354,0.43476577018366097,0.056787419058904075,0.4289178200267586,-0.41039366362872076
1220,-0.6335575994991837,0.17610027823556557,0.4715520785160621,-1.6708188358470155,-1.90234839095697,-1.8315641981536774
1230,-0.6406052563195697,0.17202512345059046,0.4667633550131645,2.7631001720699477,1.4988137078846628,2.1206946483447053
1240,-0.6357061322228538,0.18295439759527662,0.47399552084371604,1.6352939735653522,0.054188365258932836,-0.04741825749267525
1250,-0.6353415215097493,0.18277151059103883,0.46446787469645,2.314620103398709,2.3070747006750127,1.0703253409945233
1260,-0.6700887924460981,0.14687877850892228,0.434440025215189,0.8017464469063293,0.7321126379336611,-0.980367293718103
1270,-0.6602061720928671,0.15389921955143243,0.4472974082310398,-0.6022041699934786,-0.5884261722642317,-2.2860401065040135
1280,-0.6570274877848897,0.1541597601437283,0.4508856580935586,0.8736309199209524,0.5874005418585763,-0.16229785289737497
1290,-0.6545501214610063,0.15693317187754346,0.45054919645608127,3.003590311034272,2.17714200340831,2.9582202525169574
1300,-0.6676823604725549,0.14533241987604267,0.4335803907987909,0.8790018853681887,-0.12033021311764996,1.813143118164434
1310,-0.6552797148865144,0.15027187933998465,0.44971608777125666,-2.2701383691354913,-2.8592837961974804,-1.0742969988805817
1320,-0.6606752284026001,0.15704717689159536,0.44641885764486927,0.7175374236735955,1.5970430344764175,1.6110894913081395
1330,-0.6645784709260515,0.15420332259096936,0.43943799533312294,2.076345358026785,3.6588126718106455,2.5551484746409163
1340,-0.6398193791991538,0.1813000741113756,0.4638596891513736,-0.4661375853989237,1.166609934102244,-0.7307268106215307
1350,-0.6620602693159494,0.1570294689957882,0.44162466289491165,-1.423519469453868,0.266517635364609,-1.4793688128482676
1360,-0.6745632153112965,0.13732747973915757,0.42755881873552126,-5.478752005925688,-3.74394090849126,-4.684772408768029
1370,-0.6638495281475685,0.1435014947035264,0.4369636219634169,0.30935545897333205,1.298498975035963,1.3243745438050243
1380,-0.6851883800542339,0.1318709206313794,0.41969088977469676,1.9721420920020023,0.592297063615333,2.265556435259965
1390,-0.6390381978066526,0.1831555856596493,0.4651511800524891,1.2565055104682084,0.4573529947141748,0.6389645253598836
1400,-0.6588458224656089,0.16118298634006764,0.4418544330943434,-0.8165984056059032,0.8679009452259807,-0.2497632191025273
1410,-0.6685604165346025,0.14900855459836967,0.4341979316294344,-1.0430622569535317,1.7709144420421616,-0.2576172346014922
1420,-0.6617899565886635,0.15435723636543192,0.44052885743361303,0.19831043410111526,2.536367709941006,0.6542076365702112
1430,-0.6645888429550832,0.14791031562145945,0.43636050498887247,-3.5661108759704163,-2.582193634619938,-3.3900994591586646
1440,-0.6616965779105398,0.14533498858938573,0.4427267529078419,0.4423083022556273,0.16982673786737415,0.5720534429772977
1450,-0.6680540396024411,0.1459286259296724,0.43595511312134133,-1.5336776036912343,-2.094802786076013,-1.010142076596405
1460,-0.6732328804368425,0.14614077698689132,0.42764774967774,-1.3817176987271627,-1.062166012951673,-1.526846238714653
1470,-0.6452985819073743,0.17276973038682678,0.456375394061742,-2.2134854804316637,-1.3494009608780244,-2.2663764217011684
1480,-0.6624697117594448,0.15236219897101497,0.4380917089896216,-0.5909145044433337,0.5746062517702188,-0.40628940753645093
1490,-0.6320972721979214,0.18194584088660737,0.4689875753293756,-1.9653086078980953,-0.9859210175700848,-1.5231532903013894
1500,-0.6599700165402307,0.15274894861234048,0.4422750151364442,0.48043858884798296,0.6421433437325043,1.039513246313181
1510,-0.6413211181305736,0.16697844163967296,0.459491280516378,0.2368653064307232,-0.46467016145360496,0.7239696365465735
1520,-0.6588568131011819,0.15654017825516056,0.44446461100838647,-1.6429750390320728,-1.2849085760347057,-0.8555360738868785
1530,-0.6911934960159869,0.12146829152338648,0.4132178284362948,-2.3474089747823803,-1.5962461695298673,-1.9596283221131412
1540,-0.6776846877939997,0.14025194331278434,0.42281769948127007,-1.205001728402678,0.8208339279188199,-0.5446552108885057
1550,-0.6445712009035264,0.17254386953281092,0.45460995431647755,-2.0203007669268978,0.69060244822139,-0.929862909684424
1560,-0.6519749448110542,0.16185784684406543,0.4478797536961104,-5.084573394377324,-2.869044822733702,-4.305070335115537
1570,-0.6695374135959112,0.14258550813759188,0.43311891304983907,0.7020671136659852,1.553653395956183,0.6838650920220603
1580,-0.6811035644340027,0.12878353929533626,0.42545877554656786,0.7042950190181532,0.22230815295199646,0.44760882207207253
1590,-0.6253331284822318,0.1753954147297687,0.4730974396339611,0.1960395790039524,-0.7886632272147636,0.05556344572893335
