time_ms,ax,ay,az,gx,gy,gz
0,-0.8062801003587498,0.14450765755327838,0.13231196017196434,-1.5141603234815761,-1.3135951206578853,-1.4533415349981609
10,-0.8031206578797478,0.151782053445674,0.14526840330738913,-1.0977696611724868,-1.0008487606281564,-1.3506976010892902
20,-0.8201385644012809,0.1405800382359011,0.1282116208087117,-2.4879394381555695,-2.113421225486506,-2.151784410372707
30,-0.7789180643327219,0.1739992893023564,0.16430847306237104,-0.13157577283095212,0.5852534352843521,-0.3489027999645362
40,-0.7875020421910996,0.16181712183400485,0.15669351888182206,1.6952058439715545,0.9053197841529373,0.7605463517494098
50,-0.7910670953479993,0.16413507172839464,0.15437113939897568,-0.381910066158607,-1.9231907735895795,-1.0467127351901988
60,-0.8115460110188333,0.1447467506669182,0.13186379165183665,1.7260556209261695,0.9646936219786383,1.832698752465281
70,-0.7903774986213914,0.16331486535060513,0.1510859522082452,-0.8677644889185827,-0.7392483745889785,-0.2889298616174482
80,-0.7664458334763457,0.18747577417288552,0.17860084767239046,0.3808590330816712,0.47879453435220576,0.7163147065460403
90,-0.7960876853594399,0.15722044503972046,0.15601667989306744,-0.20057586022256146,-1.0443274915203442,-0.6713288220337402
100,-0.7975041774781592,0.1610984582077902,0.1573097666893211,3.657979051441396,0.6442792020560981,2.866572190462768
110,-0.81238244590597,0.16217293001719502,0.15504159779210835,5.858360744172568,-0.9764746810474525,5.487804559462831
120,-0.817385599300448,0.16246039713198515,0.15999398678154358,3.9364396567865465,-4.155163352459739,3.377202549543687
130,-0.8676721195398881,0.18845326501778986,0.2690927979842293,2.91647116758867,-7.715470928613252,4.286415702501824
140,-0.9572013025622939,0.16548138280486405,0.12843446917079998,3.5151215586989455,-15.073208824116508,7.920512242204553
150,-0.8776749666322679,0.1763075497199516,0.14763456257139257,1.503043434717663,-20.32534921304452,9.854478586803642
160,-0.772744225203701,0.15524222366990628,0.1482467181278561,-0.15586760106184783,-22.869897417066525,8.3778765464652
170,-0.7395211592812232,0.213517572213589,0.16790060454944655,-7.175857806310277,-15.329765478215702,8.057079931163779
180,-0.7345140139026578,0.23115392488406625,0.19140371563012745,-8.392360470582487,-5.8702179803712315,13.249534864205515
190,-0.7926534557084807,0.11423948561034497,0.13964718868792994,-7.980490343098042,-5.557059919250765,12.089638644884984
200,-0.7564226308332771,0.1419815814120605,0.18502636026582625,-8.78985163355038,-6.715011388586886,5.937171257351602
210,-0.7402647933784708,0.22140056402511946,0.20953574437968844,-10.183509762172758,-5.474996391945329,3.281137000305911
220,-0.8013229224605072,0.22084229773689243,0.17981226953493423,-15.717517233826712,-5.510628270269376,2.276962063420686
230,-0.7974647778181015,0.2010645013881773,0.17501461800400508,-20.35584401036535,-5.63527371622632,1.7654250113008034
240,-0.7757217995326363,0.10269013077600311,0.13590241929814986,-20.029430517683554,5.966541253755248,-7.861040415181669
250,-0.7371672044844138,0.12441114544728558,0.1791977825143554,-24.821832006026668,3.4487983443686985,-15.106948076151982
260,-0.7486934308464427,0.09647171019611907,0.15842033881072992,-19.442355381088017,9.400582316673887,-14.383356540883248
270,-0.9384200999326013,0.1613555602147153,0.27219881713437283,-16.436752120758655,6.2539537087077655,-13.18903803679757
280,-0.9005580619623816,0.11104898487272222,0.273688069565198,-9.258814027613948,-1.1324723439700612,-10.438277173883945
290,-0.8337206974092087,0.10529575295174104,0.17582726329907664,-5.965738034378701,-6.749055195260526,-10.521812593071717
300,-0.8309317505121668,0.07040925770675595,0.10793609529928276,4.082108502555732,-6.2409718297837635,-5.175032699923587
310,-0.8158048363090281,0.1206015006385809,0.1262598031569821,15.854185596173975,-6.225537884520699,-5.459453381354138
320,-0.8088350158345604,0.07914757158050818,0.09536894771648238,20.859293654651164,-6.319198984375238,-19.12653988888542
330,-0.8018233867231191,-0.15060652238096459,0.09010815426446359,10.27826867875539,-4.768475108996321,-29.405928332459617
340,-0.8369011241065539,-0.042051091881495924,0.2104216281471469,-8.601672912703208,-1.3181936019402616,-13.683682525078982
350,-0.8451649187667694,0.19073457040941916,0.0642984853731303,12.700413294814043,-2.6639124954469144,-9.26001806185638
360,-0.7798844125540573,0.2670738649937051,0.15376194893061257,2.061791780663627,5.768554813467861,-6.197540421341469
370,-0.7765353769680204,0.16470271196023797,0.3264110463026018,-16.446367471323473,44.724267113710646,14.922255539322174
380,-0.8068635846548398,0.14941663787606269,0.6915278797812007,-23.91838580309549,44.32473647795506,33.29008331157784
390,-0.8739291999331122,-0.017150021996323074,0.7102445280723395,-25.12139186169163,30.924920632627803,22.819152615464233
400,-0.8730107451985185,0.02797182924427634,0.6279014814839274,-7.5309130080250775,28.44039318948159,16.950373858728085
410,-0.7519437728318124,0.2868228688782919,0.3839888877283091,-3.8323209635559863,19.478905235631775,14.559455770792006
420,-0.7167258397639319,0.2954496444187483,0.2004708224831839,-7.650882389685763,8.824179758934356,1.2376731683765485
430,-0.7884160580151076,0.11375905311457468,0.14756800610527837,0.36861826625754657,2.903058628306182,-3.6546966005276245
440,-0.7649986919224734,0.11887882879252226,0.20106065995369388,15.49247779480039,1.9316959331385233,9.285776076637863
450,-0.835308623483209,0.061853364535827515,0.1593705007301357,23.439343678066656,-1.7707845913064628,11.313785723666534
460,-0.7885625963789717,0.024708178267999353,0.2353307430379526,27.98522267422544,-8.816978806213243,-2.2031138504982257
470,-0.7645786315447558,-0.1958939002560268,0.027199512578755927,0.7557927875422135,0.021404845526775462,-16.44147722126393
480,-0.7288551539050495,-0.007208450889251473,0.10302298842357023,4.945718337220516,7.824353998273212,-4.854481310599695
490,-0.8309074696574122,0.2454000108416306,-0.24662960084129035,16.633539011592536,-3.3972331419236235,-5.4551078110410405
500,-0.7949050478426747,0.20521177818831995,0.11871080736368418,6.105271913916061,2.360639857501402,11.04364446918199
510,-0.7888034340470402,0.20532765236323855,0.18673298036727112,-5.312334365437357,-1.8704630405070983,-2.910982028480804
520,-0.7741497308663828,0.19319267230132578,0.1823509839692747,-3.053243866491534,0.5780197679548473,-6.693830483972875
530,-0.788708085888064,0.16892011491221048,0.16509051894873167,-3.4221800115068133,-3.1241174442464805,-11.107622815883042
540,-0.7671382935471672,0.1914793450079994,0.18598224128124663,-1.1016399810981798,-2.457414488234687,-10.207287349330022
550,-0.7693005614858551,0.18147769336751537,0.18328778541061308,-2.216951945353473,-4.436850859277415,-11.518543843005574
560,-0.8325979227931575,0.10994939305971178,0.12518228770380113,-0.18209217394135746,-2.8607513865624377,-5.883493152508821
570,-0.78937082060043,0.15422393769776366,0.1677610490024366,-1.6399449277170266,-3.122545869012445,0.07791458376418126
580,-0.8290088622264928,0.11720135832652778,0.12345278567463983,0.8898530631533119,-1.1102490478828395,4.440076159784947
590,-0.8008650000473144,0.15131151412148597,0.15175493821855043,-1.0789390902576037,-2.8847886051505016,3.37769368481958
600,-0.809029385813465,0.15619642233538325,0.15487808255233482,2.179927756175617,0.6690549364185878,6.425265712041258
610,-0.8011373030126179,0.15958119495518744,0.14990516093642053,1.9248503145260796,3.2628092912150106,5.838515103673583
620,-0.7948127965533833,0.16576438908818014,0.1546301677088498,-2.548616502562317,0.5913287998399757,1.452343809202025
630,-0.7874907356603629,0.16362684933492008,0.16721016657480633,1.118481581817763,2.064561909356202,4.7691913492423765
640,-0.8159685348958581,0.13608059448790305,0.1324044923631163,2.081446240211782,2.1799505029923054,5.566426236662555
650,-0.7995959565299585,0.1613885772890943,0.1480476890024925,2.6485266169415955,0.7706168304951042,5.102066720111634
660,-0.7673537188335684,0.20112074971261865,0.18052156276438208,2.809570146634738,0.6784801513861984,4.207425965399806
670,-0.8070870308654826,0.16155171364949067,0.1454079162271392,0.23741106778157206,-0.2570023636030532,0.5209423970879511
680,-0.787426709302276,0.17544107468414596,0.1669037372819252,-2.3437358261276584,-1.4958523807168052,-3.0427941641496314
690,-0.8167573776080508,0.14149741708352367,0.12987765703239973,-0.7065469510311277,0.2300723915128669,-1.5756346306463904
700,-0.7815972122559257,0.1778932818630768,0.16719550097418948,1.4113513629884973,0.7350325143242047,0.11269681953958144
710,-0.7928770049943806,0.1672865585603198,0.15426700067210034,0.18780509080347296,-2.01644636008676,-2.690151124349482
720,-0.7789772749335262,0.176757991606522,0.18015371525585616,0.7357268121435387,-0.6155713319300842,-2.5387671334556
730,-0.7700317988237496,0.18668921610785566,0.1844730910559617,1.6373632908468048,0.7138060159737495,-1.7987702057301318
740,-0.8084441533285476,0.1407688425895585,0.13966315774509752,3.944287492450822,2.6444748097305033,1.2547556525159773
750,-0.8003545244427186,0.15041935252752617,0.1491969265812893,-1.5298871043962006,-2.331989595630726,-3.087514354479199
760,-0.7701690723166705,0.18551349645873905,0.1848055709022105,2.0885285959027775,2.069656806537308,1.6537052093331006
770,-0.8135205672842161,0.14570235999060838,0.14354296572601025,-0.09438768400929676,0.5627477063069476,0.016701735953301655
780,-0.8006250229309406,0.15990138516402078,0.15501962327048563,0.9535065372571837,2.0538372393050848,1.369447140316444
790,-0.7994868392298551,0.1554814657269027,0.15179836474674063,-3.1846117844818473,-2.1146162304637817,-3.0649656227507753
800,-0.8049253481471934,0.1493132186657637,0.14525987606189517,2.425479931751482,2.9036012541438123,1.9158400345290754
810,-0.7831811643967213,0.17998614047315178,0.1708452636336341,0.896820506305689,0.6543118953451279,0.3819296234890534
820,-0.8014560909462732,0.1578667117953861,0.15125289079943288,-3.0421868234752463,-3.7965677040499384,-3.4742991728075836
830,-0.8162585620956194,0.13961166440956158,0.13577149189915286,2.3577190941692843,1.027882604673114,0.937582542980098
840,-0.7920712089422264,0.16870819339795745,0.16261603915362866,-1.432083593807422,-0.9200019419826323,-2.647783400356905
850,-0.8076569248320562,0.14027294685157987,0.14069509310027278,-2.7354430925437594,-0.38141440882012095,-3.136022361823437
860,-0.7722045824930989,0.18237086903089442,0.18173221871686385,2.4530143850070365,2.439410012262253,1.6087430912372254
870,-0.78348845659933,0.1716174457772939,0.16713237613040724,1.4123054524509464,0.36362907034622155,0.7654684161297763
880,-0.8022688041033791,0.14663158502803983,0.14571367498607443,2.475897623720069,1.3171978611148443,2.0978832161752394
890,-0.7833745065339291,0.17255330810824945,0.16773857629884734,-0.05255056812458092,-1.2148925919550848,-1.6192553187259922
900,-0.8110225123715841,0.14633401047963798,0.14065835757418824,0.09027918111731625,-1.6654982615401681,-3.2230510976535407
910,-0.7916956266893711,0.16052035228388933,0.16384430188828178,0.9787689849259201,-0.9817595045802087,-2.789038517088701
920,-0.7997639323651358,0.15228157722089045,0.15871655103264778,0.2260580076361688,-0.989783305673318,-2.305398032021273
930,-0.8167097763198249,0.1365219610111793,0.137471779879483,-0.8513400803138816,-0.6853482964256372,-1.5649834640297489
940,-0.7837055642715667,0.16439547881701258,0.17222129454895996,-3.6856514891966983,-2.259385734391249,-2.9883544928029457
950,-0.8018303222882621,0.14513649279994695,0.15464833318098023,1.9207796545604552,2.2802903962179046,3.2365777934290634
960,-0.8196178246288433,0.14265475616456647,0.13452515805507897,-1.1810526783076198,0.0577783066285083,-0.743616931785302
970,-0.8133793608753831,0.14110233109964215,0.13551339817221472,-0.8540568750046393,0.6084760607879228,-0.3353571355412711
980,-0.7873853207665882,0.16233924394563845,0.16192705748454775,0.37999499807631854,1.1466686661786374,0.5009439540914165
990,-0.8109234211324691,0.1364855802625654,0.13680825977513694,2.5325208540678417,2.2213611585129978,2.2027035094098766
1000,-0.7818737226397917,0.1727768455776692,0.170034177152151,2.7736946960975852,1.814521278140636,2.028030196739089
1010,-0.8153043981367267,0.1406467956560557,0.13857107372358202,1.0094927287312718,-0.41451773933547664,-0.3894336742881385
1020,-0.7763937636878183,0.1760562782169474,0.17667662726746194,-2.00370153257359,-1.770589380597732,-3.2048158710442016
1030,-0.7799396132354457,0.17226432922380006,0.17336775989176956,-1.4481256886465879,0.33492918118642334,-1.271562106924577
1040,-0.7980875697393927,0.15480566451821218,0.15337172222330617,1.8038685016730902,3.4935864927307883,3.189170450335657
1050,-0.8026540281528591,0.14710249838558156,0.1463241389972118,-0.15773137212957633,0.9699256035352405,1.6107841686436482
1060,-0.8264998715594393,0.1208783379054724,0.12882237784615816,2.0380371499117755,1.6735192826983278,3.87047403503354
1070,-0.7968105100093712,0.15341660408230362,0.16385938750287274,2.883197785023808,-0.5416943612344784,3.2379655967514336
1080,-0.8068393199191358,0.1599600361091762,0.15427597361174136,1.8432414211752695,-1.8448849215357086,1.572086198912858
1090,-0.8003042361291528,0.1522075145652279,0.15339890192126604,-1.010460990008804,-0.45601319356576936,-2.2101788897387693
1100,-0.8112083777253976,0.13761611510732244,0.14016449390347588,0.44962702839655355,1.5854534590417548,0.7573590787987494
1110,-0.7933392816075936,0.1526828501205506,0.15626212098675174,-4.972319842221764,-3.0630344517391195,-2.904367922647677
1120,-0.799341766865327,0.14517789418969515,0.15164249980116742,-2.152658824422623,-1.6523654494957294,0.038104219398093164
1130,-0.8071208772775986,0.14617948489947677,0.14643783247975029,2.3762867541513124,0.5023133913404627,4.096682484466554
1140,-0.7653914400043869,0.19125023746721032,0.18543878954068754,6.475406266182716,4.340213291716259,7.553643074337522
1150,-0.7626110359919928,0.19042653542716592,0.18582075299423642,-0.015213239439283321,-0.5179606219981328,-0.20022340001845118
1160,-0.826387372734634,0.1251203578026038,0.12295775353712823,-3.387134630171616,-1.6748545396338783,-3.8441516532873647
1170,-0.7857428567394966,0.16406087721058885,0.166570695608302,-0.8005890149547716,1.7383256674479974,-0.4529667577395202
1180,-0.8031098314110553,0.14337683270214374,0.15343058905106913,-1.1574763325937036,-0.7609993930325137,-1.384825283666704
1190,-0.789661148836598,0.16801341055492475,0.16186560012316628,2.4306664883392157,1.4899662872729789,2.762419517659983
1200,-0.7884317084068668,0.16416825716073039,0.16044747623933878,-1.8736714866859452,-2.4852485954894505,-1.0773094021398395
1210,-0.776021997810235,0.17787786323765242,0.17368687018408666,-1.3259937176822665,-1.230789523350426,-0.5713553577603606
1220,-0.7925665285653577,0.15850685844089146,0.16422516148366245,-1.0441178702304597,0.18846079403853427,-1.7042188487948084
1230,-0.8173774689945575,0.12552800993325644,0.13985625286491116,0.25710856897745127,0.3113457470330435,-0.15058800730287708
1240,-0.8071255745125647,0.14764961391033196,0.15154972618513063,-0.8386631526626265,-1.3438183800746861,-0.4530134624740044
1250,-0.805401921220973,0.1540146157371341,0.1475270131107615,0.04968081847921568,0.7630022402205487,1.0929813117293228
1260,-0.8049085824367257,0.15408303225225306,0.14781920255726178,-2.7465174988899306,-1.3645662284004831,-2.241867206666357
1270,-0.8086740260999106,0.147952852596445,0.14663814575383555,-2.2524888581159273,-1.3843489520148093,-2.89619423893033
1280,-0.8008607169994789,0.15179789728598822,0.15447078591390476,0.4857772180235244,0.12234428229780626,-0.3299981472609261
1290,-0.7968649370203013,0.15390608486825297,0.1598809046709808,-1.861391343724339,-3.4905447344342786,-1.77280985830515
1300,-0.8037394935570992,0.14895431840844311,0.15412327182973212,3.6703154145937553,1.6075429997878121,4.353669257426433
1310,-0.7851422980955655,0.17052060870123747,0.1648290332378194,-0.36458354279450234,-2.0029111643474673,0.5127860687654144
1320,-0.8011261263012457,0.15801206732218398,0.1474184493811906,-1.0219665650531826,0.07871097936481425,-0.05580853715493639
1330,-0.8088955880287971,0.1484693430987933,0.1453606474323371,-2.8884317540671454,0.06783415914409896,-2.1953614258279117
1340,-0.8054760390545964,0.15227111227412476,0.15048099753281774,-3.284857370097319,-0.03046826700296812,-2.912083386238251
1350,-0.7954795404170787,0.1534550539110154,0.1550668183183692,0.5634011484204775,-0.7973022513827364,0.0004306323757244934
1360,-0.7888844877848864,0.1643383345429685,0.16461573020027837,-0.9705999947259523,-2.278213499246808,-1.1056325404534348
1370,-0.7921706154537593,0.16466323572060984,0.16227881665512156,-1.7580854999541526,-2.1950192247865834,-1.84096728337442
1380,-0.7991780631586158,0.1586601869704917,0.1541702851091198,0.45117170081726893,0.6971408398845146,0.4574730218844709
1390,-0.7977299694275861,0.15698901924754108,0.15482977488273109,1.170044004997734,1.9974503551200524,1.2661282610780713
1400,-0.8013500749492083,0.14716972272591447,0.1488495403402759,-0.9092537077493805,0.4428691317578556,-0.5023684411697523
1410,-0.8062176690023753,0.1417958388904369,0.14360282934603077,1.724802013148168,1.737189986166169,1.891600952900123
1420,-0.7923623635386992,0.16356102360950203,0.16013702731791188,3.338061887452967,0.15105543102242158,1.993589413048279
1430,-0.8022384881645639,0.15527530509659757,0.1422461373989522,2.416707923440213,0.785457275714736,1.3083676237386623
1440,-0.7953178113416152,0.16051315319704335,0.1589012494542039,-1.0647972087231792,0.06247527539970188,-1.8710201363864618
1450,-0.800538302794523,0.16117067737022114,0.15960027457493658,-0.7297800765999425,1.130505355708236,-1.131964991057313
1460,-0.7966797958779476,0.15597514007197757,0.1575915764706313,-3.156796341483595,-0.8553745236678787,-2.5831478456918076
1470,-0.7944208372316807,0.16020310385417988,0.16023487739083406,1.4610121889982297,2.161199868588759,2.143475359116769
1480,-0.7845487197806627,0.16932156442432622,0.17403791316565909,1.0184838197395636,0.955848363309839,0.6408520860504295
1490,-0.7880399540528591,0.16527543894356259,0.168435592388516,3.410646972368749,3.3971286866949457,2.9476112075539604
1500,-0.8049071506086188,0.14450886846421396,0.14627402927161048,-3.1469078149246696,-3.7468903137054843,-3.1479289580618053
1510,-0.7956444144064058,0.15095993437766037,0.15427115491784896,2.2291115708990796,1.378019762653945,2.5023905364544827
1520,-0.7896763231421765,0.159526579112357,0.16080173385744512,-0.32576475824050005,-0.5789531547740343,0.26221357784499777
1530,-0.8176636065603964,0.1376759266915309,0.13389245917415019,-0.0588984286054568,0.6477535811727199,0.7007785908635393
1540,-0.7743180078288483,0.18431124023224388,0.18249537562351473,-0.9056921317196203,0.8481700849625878,-0.6786375156284044
1550,-0.7843858035635313,0.16686418478871143,0.17327642712425817,-3.452892489554605,-1.7095072583047486,-3.448476616225543
1560,-0.8057972489075009,0.1335584171385213,0.14337886435446023,0.4743596558728905,0.33731729819114215,0.9254603128588565
1570,-0.7904969987542634,0.15509327072920925,0.1625154695849516,4.247949759112744,1.9063016140809974,4.955080933919404
