time_ms,ax,ay,az,gx,gy,gz
0,-0.8192380040878675,0.24917978100393737,0.29065478793762217,3.104429841387923,3.1662929001188336,4.480828677830053
10,-0.8283854956918255,0.23354901335883496,0.2715452589002083,-0.9845688803238132,-0.9107275476245273,0.7580998242375756
20,-0.8383618663857103,0.23354829447913247,0.27464484750416135,3.12784783960446,0.026024900433120807,3.0538766215299256
30,-0.8637998864413342,0.2100771697942785,0.24013211963977496,1.6262691303135404,-0.2982810008646426,1.8848249024658472
40,-0.8414834886454765,0.235038059409338,0.2611717723039892,-2.9050365687548334,-0.2428561484001051,-2.0622419701184063
50,-0.851923706013189,0.21711234573235988,0.26002992065126324,-3.2131588416243937,-1.2229008981466059,-2.210700760015583
60,-0.8356224992637661,0.22469015167656514,0.26758535215509227,-0.1745377701948907,-0.5058535877220696,0.08200655169309318
70,-0.8348878104967178,0.23531698696701778,0.2665135208677891,-0.43590665188670275,-1.2795467547299368,-0.1533960011914406
80,-0.8212271639597994,0.24498616931564654,0.2835061534546614,2.442057189368736,0.348863474929079,2.1285638160393843
90,-0.8340175765459485,0.23457726794092928,0.26503870231740906,2.6109634797622117,1.1551520968606934,2.4697720181000045
100,-0.8490436232340843,0.22567912856030178,0.25685368361030436,-4.211801141573456,-0.8956456241078496,-2.9065520204077613
110,-0.8275665835571607,0.2361811114808575,0.27334307928202306,-2.9954664861687395,-0.6966632762094037,-1.5826562323918814
120,-0.839678983941293,0.21576299124184586,0.262415290765409,3.166275964002779,1.6298583534532631,3.7082135298327703
130,-0.8567743503940994,0.21074701002314472,0.25524451338316195,6.021986927686541,1.113100858393249,5.913230804940923
140,-0.8219257739950063,0.280036395834841,0.28130165707148325,-1.6128678454766676,-1.5232919918654244,6.327628737869562
150,-0.8366993927938301,0.2289005879068422,0.27267047770429104,-7.594590063852902,-0.5347559014496053,8.720703714980885
160,-0.9031349625799143,0.16454794635461403,0.35599794045186456,-5.986171364599906,-10.356511588105038,4.562058791427275
170,-0.9234344873599528,0.2080500238444585,0.34535950191701803,1.5710256242880785,-17.558381380671374,8.355219437391156
180,-0.8858089069136414,0.24384499642451019,0.41726877073511015,9.653813580275227,-26.63526418185986,11.504895413164364
190,-0.861934808740726,0.27690863867881776,0.34308154064716145,11.82708284152558,-33.5362236799599,15.311554507043615
200,-0.7473366103639567,0.2527532256346693,0.2435569082154728,5.02659677905206,-29.68257481575683,14.062108205712095
210,-0.7098747487845098,0.23571881245033802,0.20295861275024132,2.3458286784197537,-18.136111738034028,8.725120386724397
220,-0.712560872457358,0.3257242069158323,0.299355409940314,-16.923014956070052,-7.334707237443999,-2.979822443177975
230,-0.769050618748156,0.38211789164922116,0.2930301234211466,-22.513698745999235,-0.6690348452419863,-4.30470922417748
240,-0.7976914082926584,0.4031051171587293,0.2969564387270015,-21.96465542644263,4.880998043708496,5.663986972479629
250,-0.8182497242387082,0.20627853860899473,0.27082226819190247,-29.45139838666256,3.1268371117096496,3.6287972208684955
260,-0.8519725068135618,-0.04290223793009393,0.23093039981593297,-15.261078661711272,4.898603125295111,-5.962441837374062
270,-0.8490190865263741,0.04711883345640966,0.26809376543529934,-7.788054902189443,10.562029146793172,-8.06303209581407
280,-0.7922672704610041,0.2657795524361514,0.36318622664584366,-8.383922018911813,-3.1467379043398314,-5.829619106701056
290,-0.7806762076599469,0.2632321254013853,0.4644005624906999,-7.920994852136269,-14.29989982422547,-6.154074944209905
300,-0.8602644605803382,0.13819372234462649,0.39016482925154555,-10.89799479140059,-15.93791442358733,-10.601523585567902
310,-0.7707176970026379,0.1426071151028395,0.31268411771848187,-3.7487482130935383,-35.626201723420685,-26.750047149814574
320,-0.8262899494638855,0.2515479497641588,0.0781012233403759,6.796771471388609,-40.99780230181419,-35.950382165983356
330,-0.8735062134179485,0.3221635385297137,-0.09474232784672719,-9.21479739181153,-29.69560774226695,-38.46773690331092
340,-0.8217886091320007,0.04241157601153324,-0.030230727858936903,-16.21775524019281,-12.329983630666016,-31.553864471169344
350,-0.8239759180453994,0.05880053546041031,0.1697860629503064,6.58484209226244,0.2999375318667191,-11.798014854490047
360,-0.8525336589460712,0.2569822941112577,0.262512392168817,31.35908665687608,4.554996328754805,1.3584772425195044
370,-0.8617865901112726,0.21684879778587587,0.18520031640550483,25.899974495444937,6.038661193681715,-11.555704454407598
380,-0.9306796154485992,0.20676479370498962,-0.10146200781063845,9.519287207658643,18.800082141255558,-10.663873136048572
390,-0.891644524673748,0.2703313954945441,-0.15674679235730907,-4.9615849177908755,28.196183301620746,-6.056724557886971
400,-0.8171339884468682,0.23050173210007693,0.44987466850367525,4.629399251684255,30.319296045961437,12.613077226345357
410,-0.8712716066647284,0.11912292632435152,0.4324894669875561,0.2741236193441752,39.30211002179724,30.552042884255048
420,-0.746922227669658,0.34707969197252925,0.13292329004742387,-22.457778916472392,43.30648509360743,27.465380572416002
430,-0.8137879012751562,0.19690112744972482,0.46863114736067135,-3.2930884881713944,19.396207622872357,8.405456463789353
440,-0.8398564828377507,0.16409926203796874,0.34621351904593656,-9.061710534918802,10.279596106247721,-0.9459167418153203
450,-0.8579866179490886,0.19950367045488782,0.318669601223383,-11.17065480229602,17.71457143592785,11.294894378523276
460,-0.8400318896392986,0.08333466212322717,0.3623878092020957,1.6876599351918673,10.842448150395366,11.721710587211788
470,-0.8416956067674034,0.14175373223275028,0.29267092370591274,15.076690108965627,4.759932147775549,15.733862963374293
480,-0.8283948321346931,0.14206889795644512,0.3396622814673634,21.04904661632691,7.5695018993805565,22.6702270399462
490,-0.8511604009629953,0.0015407460539773182,0.3766475502363991,29.757410904519467,1.324980146643226,13.470984650389326
500,-0.7423299917634555,-0.1523328586653479,0.33065806172406237,42.478545730794416,-15.552327467548537,-25.523974042790428
510,-0.6965923282250469,0.1659613166653585,0.036899056928320545,7.08479750509337,-25.76443868085022,-43.131017250370476
520,-0.8673143440253669,-0.022589331474966258,0.5265387361464051,-1.525938388226685,-15.139123881605956,-29.572904250841333
530,-0.7912692456361019,0.43726250489836754,0.30485107606492307,19.454786888287003,4.511867746545227,23.998984952147698
540,-0.834428290065651,0.2543012998870375,0.30979385431118245,-0.0992950698634747,1.2276787117275672,4.302574210902312
550,-0.83904411279485,0.24679725385262624,0.3006057166438052,-1.7150328527345504,-0.1108765652077576,-8.553828332388813
560,-0.8115219819843572,0.2216260728100435,0.3115123747257146,-0.7101412617023866,0.6290333464527067,-9.549179149497636
570,-0.8359611761339083,0.21304344960615787,0.288136909359615,-2.3243293042494777,1.0632788321117403,-8.745264852200862
580,-0.8328749017976914,0.21233242918120848,0.2912476964053816,-0.464864027535723,0.9528790365349407,-6.439998286202678
590,-0.8377445886445961,0.2060288995596904,0.28533940446339273,5.576517341877743,1.624908656544331,3.543936981539585
600,-0.8218459504046328,0.20726903482826017,0.30425143122246795,0.8663879862100657,0.41119932462804487,3.581327889299698
610,-0.8143206827783463,0.24502423221879224,0.3074600178543404,3.2125648513970924,-0.761801504971384,4.3584453587790435
620,-0.8249048094104069,0.24457691596458225,0.30791224548430357,2.1795788127076205,2.207463950090239,3.4288112103348327
630,-0.8297594306632384,0.23555305472511573,0.2970547750386613,-1.580116448323173,-1.3587874790175227,-7.096080164567597
640,-0.8252765124394044,0.22614213982968212,0.30040951110379255,-3.284509280886666,-2.2698775471603505,-10.321042613010896
650,-0.821005889829369,0.19301074649383854,0.31039796591983293,-3.326103628566197,-0.5351732232836564,-0.35494519317388207
660,-0.8311872197381728,0.17560079323288807,0.3003328185532628,4.35607826462954,-0.2480733880363457,7.225021231994735
670,-0.8222055344881348,0.2226565353284561,0.31453876739704917,11.926370731502901,3.1242076638377148,14.670764514821645
680,-0.8244741353944818,0.24060092775645553,0.3059885429935636,5.6739430429106426,1.9397642851597892,10.110364909791391
690,-0.8294016130322145,0.24394330945622125,0.30509249456194376,-0.7139360365004979,1.5318144846622035,3.890010935955063
700,-0.8328386175690206,0.24017966898978516,0.2921153409571507,-8.607233977710633,0.20035067121308675,-3.6538620503600416
710,-0.8314851881985458,0.2000088557567349,0.29719379208194047,-3.9426901905596217,-3.506189972295071,-1.0215276927132135
720,-0.8491902392557547,0.176066168109274,0.27643614418546236,0.5664110204643586,-1.1169708852800613,6.029621147156266
730,-0.8414008272872203,0.19268361082926688,0.2799551961934369,2.1155572660184445,-0.09563639795940548,10.161585554244354
740,-0.8334355286595503,0.21030170162746198,0.2926440852011064,6.20668680525873,1.4702310697772045,13.158409451157947
750,-0.831492230301289,0.22910997173821487,0.2984118668926792,7.240396152832996,2.506315639652932,12.77016896058646
760,-0.8367071595398243,0.23926761641423158,0.29288057421988467,3.1700189307666444,2.1673946084307136,8.574451524988024
770,-0.8120014094763076,0.24644720055216232,0.3124194571938431,0.2585901606753256,1.2414205882362979,2.58664401297312
780,-0.8329070814894002,0.2222873919853824,0.2907302135782462,-0.3958303877989997,0.24820298899699245,1.6261592539523901
790,-0.821834225554976,0.23048956466669154,0.30357673064090884,0.3189092854442829,1.4058958980834089,3.7460586928993473
800,-0.8182954740217063,0.2293797212829447,0.30634437389233543,3.180616485956503,0.4644078171424004,5.273307738992421
810,-0.8216631027470875,0.23510351098137802,0.3067313699875376,7.58639503135053,2.4548576406192635,8.948031096525346
820,-0.817147960164932,0.2506416935240412,0.3063635544671566,9.473769120158877,4.162062334835531,9.473528930206534
830,-0.812953530285077,0.24682840462991687,0.3028673879925968,1.0534783503040284,0.6568160462524312,-0.32925988632901915
840,-0.8259186757040771,0.2239354469808142,0.29184402330882553,-2.053859891247374,-0.24501796234585682,-2.9623649686253257
850,-0.8204694006369733,0.2184693389801325,0.29616656139372854,0.021331541389749686,-0.06194926782349164,0.5457361534215236
860,-0.8275643773364365,0.2145198155671642,0.2902737527403013,4.106560322925072,1.0660609245866057,5.089951074396287
870,-0.831288335260292,0.22354633635203672,0.29086858754285905,4.458123066740415,-0.3399409560083745,5.270356598545598
880,-0.8040561556643047,0.25175386113472703,0.3167293929215384,7.945545553004221,4.014108926730794,8.339622190357659
890,-0.8211304753944209,0.23093000630386895,0.29744575285765695,0.6528104639827917,1.0457028597658982,1.130352904534142
900,-0.8307654690886866,0.2213126646047702,0.28669749231542724,-3.409629182877464,-2.4323553552350994,-3.4322066901209833
910,-0.8075064634109786,0.2483910854473184,0.31550662169968946,0.9497741537623619,-0.36257139823718965,0.2465207429078957
920,-0.8389447235076976,0.2218860950475104,0.2833080190701196,-0.2277783635041597,-0.27397605920090395,-0.18221388621141488
930,-0.8128799748872643,0.25525660607968803,0.30495829397845386,1.23288332425796,1.3794812036820376,0.7433254197580594
940,-0.8235266917607851,0.2490672651781928,0.2996266650741477,-0.061905085424131125,0.19356606274406465,-1.4121394860661685
950,-0.8088978280677678,0.26243193692559563,0.31553863181386205,-3.1223375299954177,-0.3210561122060844,-3.9182687213599774
960,-0.831113023395066,0.23580053936741002,0.29350194423882237,-4.857423529301204,-1.4698570285152472,-5.743797461694608
970,-0.8054526369463453,0.24646619650727022,0.3194189633041088,-2.876393515855974,-0.3342300561551105,-3.3513948188245166
980,-0.840006511746281,0.20585431955627995,0.28383189104770373,-2.107045294763368,-0.8196345718542267,-2.1604099971023873
990,-0.8426115696396891,0.21139446659665903,0.27978149852697437,0.8383666398771896,0.3794823903076998,0.6246204660293961
1000,-0.8301868571045481,0.22625392346482023,0.29094000711990525,2.334244990714805,1.3490067663793428,2.1005804152203575
1010,-0.817583727940158,0.2374725360718731,0.3020753855868895,4.412389479465294,3.7395354797879246,3.4384874160300587
1020,-0.8340836260547724,0.22284181000204656,0.28900085950928145,0.375515841317943,0.37535248024968315,-2.159797646425572
1030,-0.803241900392853,0.2513829614767763,0.32175654632525685,-1.255646711619543,-0.47164804730073046,-3.197013179473327
1040,-0.8311127276878756,0.2191249845800149,0.29403701131408677,1.0536882059827295,1.4107546050297137,0.2972865060727523
1050,-0.8233631043934388,0.2238593250278938,0.30177123748363177,3.5916335686598453,2.254990896833881,3.525298567018809
1060,-0.8189865425585373,0.2341426522114575,0.3056886421006804,5.000601932377643,2.866331857065961,5.240972842163918
1070,-0.8251444299703466,0.23254026221680207,0.2960467594251503,1.9675898274878327,0.4296939928967616,1.5991606749595517
1080,-0.8376690160428899,0.22472938573756046,0.28353494802100104,-0.9597423219950154,1.419981530750803,-1.5370123643730906
1090,-0.8325832726308392,0.21661972240278815,0.2824375919244067,-0.08034336143147791,0.7294034109750356,-1.059242521751821
1100,-0.8292570752652216,0.22421325859172575,0.2915806968931535,0.45879100816902785,0.8379434487391293,0.3881267987933918
1110,-0.8172941961303658,0.23550543302616728,0.3083724483969484,0.9889405541305403,0.8239894140578323,1.6536475793753787
1120,-0.8650150270926232,0.19907265078488637,0.2624375004820003,-1.0895792084349425,-0.2676068755296169,0.0325326641098469
1130,-0.8427840809727885,0.22950867411231873,0.28736102331146507,-1.8469414774358155,0.41312766427841874,-0.4325559156348081
1140,-0.8134355196032569,0.24172872010541663,0.3075772579008186,-5.842067156579777,-2.4971448311010405,-5.648344838812269
1150,-0.8215467008876001,0.23047172295770768,0.29844184054005357,-2.895667240977206,-0.922654443091533,-3.24721424646126
1160,-0.8241548153638792,0.22250048163090713,0.29944113074126577,0.7564457743239493,-0.1921501271183562,-1.359438091749065
1170,-0.8146917161548379,0.23436186427016562,0.3125396816213325,0.7479379127140833,-0.6488165636192569,-0.599118037021698
1180,-0.8134222705775578,0.2356795890809294,0.31001614506901815,4.782527241351385,2.3657971407828926,3.7627810010994063
1190,-0.8118926182231475,0.2420910332633241,0.3109490264768173,4.835532432799373,1.370754580590381,3.6031525568431393
1200,-0.8150732242407699,0.2507147497410639,0.31027015080994824,-2.4260639120158096,-0.26955674453119893,-1.7740050656016448
1210,-0.8176773573761748,0.2444003663430917,0.3035087871490236,-0.8059849568918125,0.7052006332885302,-1.2359279695647425
1220,-0.8251797968192778,0.23575757760464555,0.2996715729953431,-5.000412546462037,-2.184916148494018,-4.387786857058953
1230,-0.8192152852607303,0.21956943608628593,0.2986452798490259,-1.7335023843981512,-1.5347245432270595,-2.242626999524826
1240,-0.8336441109801108,0.21835966014712802,0.28719220803240564,3.432626733387601,1.682986060377441,3.143189388365118
1250,-0.8255685561672477,0.23082305260956631,0.2905650799556641,2.66504739037448,1.3197103939526218,3.1563237920939615
1260,-0.8152076628540307,0.24742959396345132,0.30831407129211236,1.2503721657773785,0.8647337193076929,-0.8336810212583509
1270,-0.8242838425483338,0.2396132529391748,0.2993954764154731,0.106151026079226,1.6251789922037485,-1.387053615407558
1280,-0.789304716722423,0.26713064518002094,0.3300926813061829,-0.8952675647689379,1.4573152308941406,-1.4627374285443988
1290,-0.8177861809024601,0.23029930158864353,0.30218834968137703,-0.35511001697698075,1.1740441105184796,0.006902398086002792
1300,-0.8226779164998943,0.22562843758120762,0.29264701677159366,-1.615337167019611,-1.7530330398909308,-0.631448745629577
1310,-0.8466901182600054,0.2003352946389138,0.27737938944924606,2.571083039237882,0.1480914818796703,3.2667113613300613
1320,-0.8386831510822698,0.21827990931806887,0.28510331313484794,-0.04487893588276315,0.1327811352092043,-1.11418730273001
1330,-0.8411269177066569,0.21576720390551316,0.283500863453382,1.0490435895321952,0.311076199666412,-2.017579003866219
1340,-0.8403907699034372,0.2123634630549465,0.28285486780013686,2.452106926504672,1.2225117740642952,-0.18789497538964106
1350,-0.8382524569694608,0.3330551478154313,0.3527871643071986,-71.94814936389787,-4.69062415821735,-7.60712157196053
1360,-0.8333501992863946,0.2606817788820806,0.31622972965429086,-23.140749439219906,-5.051526976815783,-4.752481352444303
1370,-0.8269260688025801,0.220783333640525,0.2991810339197774,1.1125779824667115,-2.8301112727454862,-1.1327815828116452
1380,-0.8234276531002689,0.23307443358853602,0.30148736642865315,0.8676029773813312,-2.234016992206411,-1.4715343397376517
1390,-0.8465787102554091,0.2064705886846715,0.2738265863671298,3.195801203820693,0.5554605469910808,0.9315281329191342
1400,-0.8018263965485962,0.2525902783783747,0.32064443437998935,-1.2296784111126189,-2.0968181648365825,-1.4997795953514783
1410,-0.8200115653974048,0.2300231759213331,0.30271070811693046,1.2773699627570714,2.0503879100510525,2.6549187478602487
1420,-0.8040524549885532,0.25136305618592447,0.32168412780219535,-1.1564665973424684,0.18505414853764657,0.22785816841386164
1430,-0.8708240367507346,0.18773954150322308,0.25592076633789534,0.23122476390860225,2.706919714517516,1.6662804247870007
1440,-0.8198179934768773,0.22551933818582173,0.3037375998088599,-1.2517149842289883,0.22056584369446014,-1.1656176310993573
1450,-0.8309836529476154,0.20915245898239604,0.29104548803255764,2.1260480556029018,0.833031400451152,0.7775040695452449
1460,-0.8190471470861361,0.23116497413492518,0.29853072718097384,1.1943554397110043,-1.3178802157237177,0.6243747740813794
1470,-0.831906069765342,0.2262966750656858,0.28810568880649945,2.3576111562692983,0.38343989704143644,2.8583323281437254
1480,-0.7899572161346037,0.2659800243342247,0.33282411666822204,3.017900568612207,1.8951931477468356,3.526296733046112
1490,-0.8118918868184202,0.24194204565723737,0.31076787386317284,2.8075740218187453,2.182170920063564,2.485188479103121
1500,-0.8423311949168508,0.21236802695973775,0.2813872591307927,-3.178906669401739,-3.6437765092960963,-4.905514448410658
1510,-0.8107863582444451,0.23730563393774282,0.3118073842021967,-0.5265339863225404,-1.260017299634551,-2.4000749500358536
1520,-0.8430397595321565,0.19767541872485883,0.2760164117097771,1.047946124783761,-0.6573508986422144,0.5027059651643234
1530,-0.8109081084081261,0.2319799782065984,0.30891220661526186,3.6359110172011233,1.19096888966077,4.269508097335902
1540,-0.8281860470224816,0.22413797385723366,0.29525341668228533,4.616506869514824,2.3941511590205122,5.73668410661903
1550,-0.8350362224735118,0.22346175178308794,0.28986961408288636,3.93850733464568,2.2979266311519564,4.50623344001121
1560,-0.8203865525480998,0.27229646420963394,0.3010003725400987,-11.332500342797706,2.2465519274929364,2.258194275550896
1570,-0.7751715829110245,0.33022632879948494,0.343747811632898,-17.249623132843663,1.9750422205230573,0.8623391183783494
1580,-0.8188490652217321,0.23199645830615148,0.30597537345421616,3.92104105967575,1.2365748624923565,1.432844063842792
1590,-0.8283067136610526,0.22487280768574336,0.29662893342201385,3.071026884004175,0.5494282100575838,2.149757650970054
1600,-0.7944725740103906,0.26059259062797363,0.33416351987469806,1.4023495649925712,0.07236989131467539,1.9282597067090146
1610,-0.8369500120383858,0.21479333559016592,0.2915800081222787,-1.3495175709771217,-1.3817571018509476,-0.5224465161282724
1620,-0.8399793450732682,0.224268452455373,0.2859284492322813,-0.5702554119488219,-0.13594144021575325,-0.8117556460042947
1630,-0.8184220454677433,0.24057691900852984,0.3027519689002638,2.038164475937708,0.7772221300279423,-0.18155499916965567
1640,-0.836056352970877,0.22296639936471396,0.2827995351180869,-2.5263075216643465,-0.5089553251905772,-2.3202000394427764
1650,-0.8310859955978604,0.2196281284439065,0.29616540319515783,-3.528791456071614,0.7568433582272415,-1.3671281086293479
1660,-0.8269777228538986,0.22119523138933272,0.302010634924956,-3.1759223395743064,-0.2248094425619605,-1.5266616994870772
1670,-0.8419558307258248,0.20431586734773222,0.2887248735988286,-2.9429632005845843,-2.641478376359405,-3.001047323098907
1680,-0.8434279914262685,0.2121207276269222,0.29441128249698895,1.8843538493435044,0.1153223118724418,0.5196037862948996
1690,-0.8440945736285005,0.20721881030897,0.27498028413055486,1.1421517403393064,1.130699285864829,0.28676392725116534
1700,-0.8285396045770755,0.2284221820551563,0.2897257446629821,0.4674510372472136,2.7994618592268403,1.9781248879827578
1710,-0.8447319070518211,0.20622808002637685,0.2748938700998741,-0.9137104089471033,-0.6312570646164093,-0.8478249368854844
1720,-0.8273933984716273,0.2215307850060065,0.29832248239678094,3.5179110868456247,0.36894957184578764,2.3330346973191975
1730,-0.8154918514922181,0.22915183310194576,0.3042505789651465,3.5293872222385136,0.9419677920479663,3.239441234512839
1740,-0.8171213473230348,0.24353381938407473,0.30040733995980123,-1.7875301379613477,-1.010863879049588,-0.5853632716754211
1750,-0.827012689147244,0.2279662079597852,0.29817302415933766,-1.778273754676193,-1.2934609786580964,-4.226561910502129
1760,-0.8426331642553591,0.21042188939595732,0.2849946419439817,-1.925090940381119,-0.21702902579391836,-3.8777649168375565
1770,-0.8262611669576675,0.22453593281210865,0.30414196977608177,-1.8256267104413753,0.7673329607912044,-1.8796748226405664
1780,-0.8329052339892179,0.20880618455009525,0.29545480434625165,-0.5521059981181419,-1.1338872927958874,-0.8926767908495103
1790,-0.792693717092428,0.24738677938435527,0.3250852126342583,4.828663343794473,0.4960429235596142,3.291444755269002
1800,-0.8560654999140154,0.20133931141781503,0.27010301069409115,4.692343379311116,-0.09210616734289567,2.7227601192327526
1810,-0.8099315537658891,0.24883609744539292,0.3214962320441667,-2.1723926315938633,-0.27900930895894493,-4.255349041412462
1820,-0.8432104492865958,0.2041740597907339,0.27853745408249825,-2.587788076401527,0.4438849400724765,-2.998511604148454
1830,-0.8029971708537346,0.24451439363493246,0.324468034102045,-1.8114707442606193,-1.3553103124337391,-1.6567501046334994
1840,-0.8344205093756473,0.20738206742823703,0.2897499577932394,0.4049279954483904,-1.5589304632982564,0.5950979334808568
1850,-0.829254775485002,0.21656148980515644,0.29078214967478083,2.4361818348324733,-0.13896061167450438,3.673083467439592
1860,-0.8371954601516979,0.21108875597529791,0.2851783642121897,5.139793992100785,1.254720003863227,4.406245528495573
1870,-0.8240073183097913,0.22526234859139638,0.2933649430812339,-5.204356712304715,-1.6427388173589192,-5.585931108191761
1880,-0.8440408263371111,0.20169883046166937,0.28206522184123983,-2.5481884765036584,-0.39745058156568913,-3.51128456007811
1890,-0.8285345008617389,0.2059626947700187,0.295383118448819,1.809086458406775,0.2703038579162509,1.2009241670668365
1900,-0.8260494350598562,0.21403478469731696,0.2999080504972193,3.2582102889576263,-1.4522609431776756,2.8953382291543
1910,-0.8478791911030491,0.19952797397685212,0.2785145827551264,4.34031893600974,0.5024230445604516,5.0755026769848195
1920,-0.7677472773220344,0.2868982803122311,0.35788758071137167,4.286624396889847,1.6889897445224702,3.910090140802675
1930,-0.836490923939938,0.21670312902280842,0.28635161170366513,-1.0814298621762166,1.3224568533816778,-1.577670751984328
1940,-0.8137922131300644,0.22773172821346366,0.31081189591821573,-3.8093630880014717,-1.8003875231259985,-3.3541435515924594
1950,-0.8407774880502918,0.20271971142753983,0.2819306884122748,0.7163611762068541,-0.6897003019480589,1.4572249378316715
1960,-0.8299015328002105,0.2225391508061943,0.2898837298363045,2.712721250035103,-0.03945410992935039,3.868843062188306
1970,-0.8350105869249576,0.21958928470783398,0.28774124966601444,4.0583154777973816,0.9793374601990235,4.005420562141357
1980,-0.8245933305522426,0.23257760373722483,0.2960178398911276,3.714773772906203,2.2307790662550797,2.33596137111357
1990,-0.824609855937869,0.22879620920089155,0.3021175756278794,0.48078941712047363,1.438379815849279,-0.036186173271465005
2000,-0.8122781521815507,0.22499696829383575,0.31086690811673423,3.727294113253141,2.544313421875569,2.798689429471822
2010,-0.7953556708511803,0.2655657744045196,0.3296451607922367,-8.53390541477962,-0.7298143666639827,2.3649416963068273
2020,-0.8374976721208285,0.22944037865495356,0.2886751584868751,-0.08981234094832358,3.1561498349506216,5.922356200513191
2030,-0.796991425446115,0.2670883319703957,0.3258049722214505,1.328772358495333,1.4771076895865052,2.1858474138818167
2040,-0.8157406746999651,0.2449293248968991,0.3136809523282644,-2.0597361027016445,-0.04508943896304442,-1.0471318458830754
2050,-0.8277883686730889,0.2219312923815039,0.3002166102302816,-1.1398053751580126,-1.7616779833519858,-2.033332368330534
2060,-0.8738526261541724,0.1786245428762368,0.24915132251655836,4.339120602622764,2.377903426933187,3.1968799642290593
2070,-0.8396827225440389,0.22116156986513358,0.28267605242787813,0.17708050402799236,-0.16053956882013376,0.5787263194033303
2080,-0.8214932664601282,0.23880197902694886,0.3019462137350048,-0.5871025849742154,0.723789912911069,0.33721357571392785
2090,-0.8405863173875494,0.2172181937214745,0.2864072290467084,-1.777007090625735,0.8417697908067154,-0.5116396773722633
2100,-0.8290212073562653,0.22239884068173862,0.29632774934679146,-3.969193504648658,-1.0713800979599546,-2.429880232913745
2110,-0.82993969995599,0.2265053272060659,0.29404626533149775,-0.495407633797462,-0.6718121320224126,-1.0383572479915073
2120,-0.8106515490419615,0.25526547708950265,0.3124526917152975,2.6051492766087616,0.286657686651971,0.03769542029413525
2130,-0.8080917776672294,0.25093646063466696,0.3109116204484875,1.5873519827816092,1.4014039603418522,0.09074857572269468
2140,-0.8663091809232465,0.18318344487130106,0.2530518407372934,-2.5235047154774226,-0.5038065693936401,-2.0869323286473964
2150,-0.82905986266732,0.21979465998171824,0.29505768714672026,-0.7801585272380511,1.5354931800196445,0.6543195932612895
2160,-0.8275130944718422,0.22421251054185773,0.2999425180302625,-0.47755750475139325,0.8812550705311644,0.9906967147102406
2170,-0.8287717505834613,0.22639977959009633,0.2975084274125818,-2.9756007444766817,-2.773758386503746,-2.360284844762087
2180,-0.8233444525734557,0.23430337320170294,0.30139415136348124,0.5390254107508232,1.0199842238891703,0.7522619485109076
2190,-0.8298508109778453,0.22190874532507787,0.29346981980687264,0.5348175313476382,2.492103820383563,1.2348894032727953
2200,-0.8216529646714876,0.22837589170458544,0.30299952467589625,-3.0328682958210917,-0.52753046349216,-1.9950154377626108
2210,-0.8369448112002614,0.21366493762207758,0.28856288369238475,-0.933709131695644,0.16908431155005937,-0.3035779143564319
2220,-0.7788466650066109,0.2676257554170139,0.3406249549855471,1.7266260197560306,-0.07031078397998368,0.9856836659019573
2230,-0.8137140309097218,0.23784906441002657,0.30725136546256476,0.355746167136457,-1.478427974448699,-0.07956464579303013
2240,-0.8074715222448199,0.2470943808292711,0.31382437402290336,-0.04261223503878919,-0.1818124543149809,-0.12935365766047702
2250,-0.8423598378802571,0.21302737290844667,0.2843384141753108,-1.1836378621934571,-0.6560900860122918,-1.3028785500751823
2260,-0.8105363690291746,0.24048510763670963,0.3142511684221333,-0.27564946501847376,0.8968262577308258,0.6673592874394031
2270,-0.8227705686225748,0.231344811901118,0.3016323538519794,-0.850570093046481,-0.5232662654244837,-0.7700886570611871
2280,-0.8130644940646298,0.2357770828493016,0.3110948561607485,-0.1892987368883019,-0.9154583798602696,-0.2605368499783942
2290,-0.803675911437574,0.2515454449299032,0.32053763620667364,5.214953804065416,3.830650054123581,4.339316553089794
2300,-0.8107967398253392,0.24435625787459891,0.31590146441408895,0.4879124482594783,2.6074617162596314,0.2572100574603893
2310,-0.8125302904680128,0.23971013876475816,0.3070390059916577,-0.32967230235950595,0.8779965087842877,-0.16377692230971108
2320,-0.8196320706756245,0.23226860274789113,0.3004498940561578,-1.8484191087243351,-0.44033379068153267,-0.2215168199535657
2330,-0.8494584818755434,0.20138127966151848,0.27789824436426497,-0.35277759247470897,-0.7788416454938698,0.7705099153043974
2340,-0.8252705854259306,0.2278075740150077,0.30226880196971334,1.8142752217978009,0.5209297410167874,2.4251835238262887
2350,-0.8021186699861769,0.2510167855932022,0.3222047487321283,1.6222210315991354,1.5227665828936392,2.6539910842735894
2360,-0.8206364989419707,0.23192689820027484,0.2985451110224715,-1.3905415057249821,-0.2672660276790236,-1.2122810494005583
2370,-0.820500794489943,0.23426911420106197,0.3018078292320324,0.9440000611650619,1.1779121900167007,0.25626918604401006
2380,-0.8213093085718554,0.235622664399803,0.30397560630086423,-0.6868930586357584,0.7217765460263769,-0.21494486551168945
2390,-0.8262318637458094,0.23155307795127694,0.3029079400269948,2.05080393689462,2.616941574252806,2.4649333100360584
2400,-0.8236562546829551,0.2247129008129773,0.3006858280422338,-2.1201452898839612,-3.153033327381534,-2.0800806830380654
2410,-0.7993496494202234,0.25349443124208704,0.32686527898589246,-2.0476272439736385,-2.588608562295664,-1.5910591142131376
2420,-0.8129857853868201,0.2501978718426283,0.308985538585865,-2.8500143485406904,-1.2506089597646466,-3.5929062118538826
