time_ms,ax,ay,az,gx,gy,gz
0,-0.7376639600863688,0.13424925271768315,0.665210679137417,-2.2028779692566807,-0.11385798873111441,-1.4782394375138135
10,-0.7142239866526855,0.15002596950057034,0.6923382430014627,-2.524784337887665,0.3380249525247657,-1.2300743853482072
20,-0.7401734421547582,0.1241347579588054,0.6593689051464799,-2.3375487211691817,0.13639514151303644,-1.2220195970887153
30,-0.7378582114058522,0.12307996047675943,0.667115129234415,-0.7037650165682487,0.672708460003434,0.3994728673106472
40,-0.7023814459717967,0.15329554400121354,0.696090821868321,-0.06922266099425253,0.013843707768572328,0.3956035320996555
50,-0.7335718296987567,0.12926086691210728,0.6683805305648373,-0.2753811578439471,-1.5024344707739075,-1.5081067576018203
60,-0.7557291148145077,0.10972960534616007,0.6461721501687862,0.22660370972926602,0.367030795666096,-0.3353882157211976
70,-0.7256722439825023,0.13595685140299996,0.6745969418389139,-5.076959907391995,-3.8395124517620145,-4.896464028569489
80,-0.7213693199345863,0.14448950655781803,0.6833606754755294,-2.8353813040432536,-0.9483309352649509,-0.5978042456788255
90,-0.7267015514429191,0.13191294018264377,0.6784429949312017,-1.9895002783827387,-2.5631541757479877,-2.12818563660741
100,-0.743934921201196,0.1254243700957218,0.6654362503998469,-1.4373358985027693,-1.7757735948727595,-1.27740105347748
110,-0.7762445946047392,0.09603004015030372,0.6395722618941644,5.1875345752389155,-1.8197353733499793,-0.9096805876440851
120,-0.7120294381658826,0.13197127016229165,0.6913672396770495,9.13728939930404,-0.22294829188183662,0.9660335864373029
130,-0.6906811991285022,0.12448557910552226,0.7119014777257914,-9.636424884868068,-3.4776203704742192,-2.24557168698195
140,-0.6944661350939065,0.04793988850138016,0.7849690132158758,-15.508078583432745,-16.620555540171647,-9.748453221057789
150,-0.7255091647711029,0.09317585191704633,0.8936670002993305,-12.766057216038467,-24.98773792564634,-11.850982039884087
160,-0.7245350245562935,0.11091019312850918,0.7502052032536665,21.185911430529714,-36.60133484621917,-12.681450268269707
170,-0.668839252983255,0.24359253173201847,0.6528697215753926,14.253981841395705,-28.388312404241752,5.077366441222472
180,-0.5623825948536318,0.24331764123219898,0.4575550392098552,-32.961976885791444,0.7727104318153994,25.092594595305847
190,-0.6333082744649768,0.12583157437375814,0.6055404489068532,-57.16795758154768,13.286301853940921,19.039757956521207
200,-0.6967918291873312,0.06053993591155772,0.7024732524541404,-73.34317264533067,14.52397202894917,7.847536135561628
210,-0.9015272074893292,-0.02954613956544586,0.9962385308481414,-82.40687163439871,4.166986596001113,1.040956790179771
220,-0.785686845208102,0.006218739935147582,0.6623924458966807,-43.33959262976891,-11.694918992575161,-1.7600719271450918
230,-0.6664311153170688,-0.3243404395590877,0.8228388218857184,-13.547428478877357,-16.91667757992479,-11.247487590856753
240,-1.3863981941827916,0.3452170890965677,-0.024145137023518563,30.060274534488244,-8.74182829537581,-20.273102755475694
250,-0.5688704580354884,-0.3316255049138101,0.8712631791396482,16.251237272757063,-4.028091151647985,-23.309014923855724
260,-0.702509301964471,-0.20020788230443437,0.5120360983966209,47.52531515935289,7.482014170106828,-27.427125966259094
270,-0.7883878718896198,0.0961366676277704,0.3725031263393428,28.834595134573462,24.11053265082802,-13.979126531865768
280,-0.8896679162855217,0.27671836917231174,0.3189781872156164,39.240554201430946,29.092486521887764,-4.576637703258051
290,-0.6065018196684513,0.2496358241088192,0.9082994903577474,-1.0949894659236747,32.192212898914754,10.8440097732643
300,-0.5527698295458804,0.3717753744532065,0.7144970843774459,-29.985219052990388,36.0960102778803,33.594368946769954
310,-0.7690682036933839,0.2366637339875915,1.0061816855470331,-9.951772319210463,24.903137134553262,33.13442516008352
320,-0.7673911011011116,-0.3640055575769927,0.7007311998960704,18.077493925729215,2.0394817179109257,-8.811794015377036
330,-0.7005442522967862,0.02736546840729977,0.7063764792312737,7.110149165989,0.9868316011701461,-4.376365644670177
340,-0.7389258399279479,-0.11671067504344075,0.6875923988458255,35.611528342476284,5.614474804534602,7.6278634476573925
350,-0.7306649762203739,-0.15862542414048403,0.7138645425409538,26.823631171727005,-1.9268750452890204,-2.7109399212215246
360,-1.002099401810999,0.0760313759988191,0.43535617738856924,69.60606180031395,4.398540788645883,-13.008494854891893
370,-0.7134446387561765,0.37375007755170264,0.6800806188398633,32.33395209509432,-0.4274125821948059,-13.150885219585025
380,-0.7107140569197195,0.48778509364099826,0.7463289848306384,46.3401802007124,-3.6184044016378767,-6.082286677962064
390,-0.711866255759425,0.25765821108133274,0.6785199770526467,19.945754949417744,-2.3046717602774427,-10.309226467146237
400,-0.7434471515905807,0.1362606255860797,0.6585671992404172,-3.5041292617985875,0.8564204769403305,-11.346678000242248
410,-0.743989637067529,0.11159152053519406,0.6531400233681832,-8.221486072346154,-2.211156251948581,-12.091539589558417
420,-0.7273842523892976,0.13826705415919918,0.6898017833192389,0.4760750585409688,-0.8811199484653814,1.1515621433797758
430,-0.717054071836055,0.12722093478690677,0.6985372193148764,-2.454520838551625,-0.8661223374889881,4.015659016798702
440,-0.7231561617688859,0.1398670842680971,0.6835306221504395,-2.646695050833981,0.4173089335178445,8.028600088863595
450,-0.7279425042667296,0.1305556277770684,0.6738179882325177,-9.226930675807067,-0.5104135239404608,6.290476359112045
460,-0.7645691714321549,0.10323528854717703,0.6481346193283943,-3.791336008266571,3.282532340654764,5.1189646275279
470,-0.73879648979968,0.13377934378964979,0.6660598879957579,-6.1765257545201955,5.566138926542564,0.932764245835823
480,-0.7573775063100883,0.12347241491002126,0.6426297869871344,-5.591951359560979,9.415500380562777,0.34806585785751953
490,-0.7509542857338858,0.12853887734654168,0.6537168084830361,-10.363692314552157,11.42555791198453,0.4660703944267617
500,-0.7476042965450365,0.14676830944730626,0.6801445548803541,-19.974032588676618,7.083187080656859,-6.0663136575782
510,-0.7613945902380779,0.11627442472133596,0.6670011318780438,-6.007217661252105,3.266976255761078,2.489205701604623
520,-0.7543138832795561,0.13986092389854687,0.6486900697943032,-2.41807555510635,-0.763551895188753,8.500212641428055
530,-0.7493930426016895,0.14342782922903877,0.6572430283707279,-6.237351682933869,-3.7818469787346354,4.875373727199982
540,-0.7488442048566964,0.10565912871335661,0.6550751003389571,-15.36443607019326,-8.53293633585546,1.3560681878470133
550,-0.7813400789668012,0.04854009119785877,0.6137556102345869,-4.330779592072259,-9.877664521648722,5.454445803307587
560,-0.7264283407713058,0.14693779113616298,0.6823611781610782,5.357770215694874,-5.103938164182986,4.74943414644786
570,-0.7485213329844495,0.13253169676403614,0.662830301036639,-2.573830203171717,-2.705264124230782,-2.2607846890329353
580,-0.725207494784131,0.14341877725360602,0.6808542505960382,-1.8765529775374286,3.349463276877186,-2.1323568099960695
590,-0.7640333331646637,0.09884789538871477,0.6362520977718032,-3.8367842165575077,0.15708424202558002,-4.154166447581444
600,-0.7581560680368367,0.09668805723865903,0.6477237451655817,-5.084330466148831,-4.302889442781921,-3.9825618221571273
610,-0.7527269062304438,0.10810991324203588,0.6506556173785608,2.6298437808552393,-1.7244235768083223,2.545937361680672
620,-0.7296709187486936,0.1287462524215909,0.6748682517523178,1.6903467557118177,-1.932439498308743,0.6771952774675842
630,-0.7213100048280002,0.135813667653758,0.6809237368621188,2.04970656655979,-2.2870249729437444,-0.22907855052557513
640,-0.7678950261394649,0.09687342327592566,0.6444881412335558,0.830125530163444,-1.1963803004551652,0.5460002485410322
650,-0.7365703081598605,0.1231084697493844,0.6682417489391468,-0.7042111223761922,0.35135093476083856,1.3661954873989053
660,-0.7465984748113166,0.11758252584090845,0.6665927736903974,2.0514676602054487,0.08913588698239239,4.633479507163765
670,-0.7135957322231248,0.1493361865270021,0.6952260223789232,2.865941931537219,0.706413775085204,5.287830074464774
680,-0.719311757742832,0.1363442323759147,0.6836185871384121,5.144613398036187,1.3665921451605563,4.356714927077786
690,-0.7271931101283134,0.14234518271680607,0.6810801711731039,-2.729110880452012,0.3387084512705685,0.9762572727617645
700,-0.7406721700687862,0.10336176228799475,0.648424937928867,-3.0688072498190517,-0.001363154305439096,-0.7232195879901485
710,-0.7255654692504793,0.12302011123766467,0.6788368339410401,2.9886138824722854,1.860435472910234,3.822204191227134
720,-0.7097212252062673,0.15734486673254378,0.7008652787061824,4.031367801806633,0.44689488448406567,3.151159111830974
730,-0.7495814821297729,0.10564340215515439,0.6603244038157681,1.4582989089021032,-0.19956517059694937,1.1273595420019022
740,-0.7223006977144207,0.13057289639550387,0.6827170218567912,-2.024162333708601,-1.813117334774643,-1.5645682234424072
750,-0.7124227131476082,0.1453621214636106,0.6965787300350699,-1.419770862040972,1.3644492397848285,0.9580427844105777
760,-0.7442381526822469,0.11210027486033886,0.6649236431279705,-2.874760116503348,0.18475772413746325,-0.9151869040615115
770,-0.7117472471985051,0.13932993788190057,0.6932016672954934,-1.748521380742411,-0.41223438343180496,-0.962116818370419
780,-0.756688568460834,0.09685867623822295,0.6495891140658462,-2.7015217498314374,-1.514764217914816,-2.0530434792812398
790,-0.7595425368367253,0.09498071452018231,0.6539603160061029,-1.9665737179616198,-0.6831302564965719,-1.3551775931438117
800,-0.7402675566961553,0.11537408992302027,0.664561210943497,-3.6619978255657486,-1.394187651307103,-2.557589864350433
810,-0.7774898720123968,0.0729060887762783,0.6319574349994798,-5.816296130757227,-1.7430668172766568,-2.6946466288952067
820,-0.7282271123087035,0.11099193947690525,0.6809816174351047,-3.7578264741494163,0.015086205555908672,-1.928121393862088
830,-0.6955685508325238,0.14854502661603036,0.712631251131013,-3.4703625804046916,-0.21749343196511123,-2.9460688631739993
840,-0.7397075437762226,0.1089704927735076,0.671095704358539,-4.157804687622923,-0.8155270798659398,-4.183209330996444
850,-0.7600497071554222,0.07389042592808726,0.6563547125500558,1.0808387165092455,1.5495437261523968,0.6936789876131101
860,-0.72680016159158,0.10832654983102005,0.6852131333259763,-2.018682196409484,-1.5450148086563709,-1.540736424872942
870,-0.7438880794057771,0.09300024822962452,0.6617086326951048,3.7558744997457056,1.8706323293780631,2.0037012291510807
880,-0.7594320398798391,0.09415518656437041,0.6493574364787537,-1.9144146073675425,0.3745863745728719,0.5078594173649695
890,-0.7366494263773199,0.10260508547302792,0.6784932699857349,-2.5954968109190455,-0.616521468692421,-1.2985114206453157
900,-0.7363964568302266,0.10805171068092996,0.6741195849947923,3.399205513952886,2.738205709588736,1.6383972698828748
910,-0.7371772719850949,0.1090802210490741,0.6728335732302343,0.7270710419758861,1.7476822298798118,0.40323675503590706
920,-0.7344545198470929,0.09327583105844918,0.6836703453458591,-5.566195392437663,-2.07764752641324,-2.7622117569332287
930,-0.7246658045608529,0.10606404193966207,0.6781621937637603,-1.8371846029001038,-0.6913076415034819,0.25415640587632193
940,-0.7364728194406149,0.09516735087838303,0.676503109207644,-0.8543347289031215,-0.05950762099446111,1.0912295354553296
950,-0.7190599317766804,0.11686741296630486,0.6891175930480469,-0.5387149652390548,1.3581675376616587,0.24124266475012068
960,-0.7348350397537827,0.09407830036190422,0.6743208013161229,-5.657746609005244,-2.179702581522059,-3.0659697350162407
970,-0.733220917410655,0.09224899278979114,0.674969042337232,1.6389122104282876,2.4386569381513326,2.0563358370607507
980,-0.7265636320336994,0.0993579716932533,0.6854084836003294,-0.030485617664713027,-0.6421990434915594,0.8236315754054937
990,-0.7136720008506495,0.12581375116142424,0.6964665608969441,4.039052188401825,-0.1529605441840737,0.8193011390256799
1000,-0.723655999907802,0.11943045999390883,0.6764642011969539,2.6427038764714332,-0.620099190561934,-2.152910892993754
1010,-0.7082955721345212,0.14354576020992343,0.7059129492214298,-0.39902278450401635,0.7792714051993187,-3.026562374429391
1020,-0.7491397285545376,0.0868242146484018,0.6652360146878394,-2.674656821665395,-0.025679522259144494,-3.9386004648885438
1030,-0.7341637109045058,0.09629387963933228,0.6772465546751517,-1.7130411148106064,-0.7560680782567815,-2.600897991726087
1040,-0.7595730843225765,0.11294036136931239,0.6149704877873358,16.96041386527932,3.7373115956263856,3.0171290429013142
1050,-0.7229355739521122,0.1814832535854776,0.7038139080146076,-1.2662320105027964,-1.8536836715532763,9.86249714540967
1060,-0.7137810468126392,0.10998533496831983,0.687871112824025,-7.174209154611949,-7.398577566626189,4.17787291364128
1070,-0.6719336577496148,0.1237646294101826,0.7318979888179945,-13.593978807069691,-4.80244412879652,-3.2895083938317855
1080,-0.7139501302991823,0.0661036482620715,0.7166063597692491,-22.343709296115836,-2.663577809255327,-12.243030832581729
1090,-0.6946365435338866,0.09009943350270067,0.7181230017509592,-2.585722259247204,-1.2423184199042914,-0.0721108227482421
1100,-0.7119943862130437,0.09633506216787856,0.6974869265764193,8.94329325033501,0.7214263383584669,8.275871298271735
1110,-0.7265938873226299,0.11286797573595868,0.6773553738524207,13.025603149601029,2.199179777579232,9.951217198206294
1120,-0.7565992807989483,0.11804526995337486,0.6703223924503078,1.4316188478373033,0.1786350633494509,4.877112685923999
1130,-0.7527485201573855,0.10541642732894478,0.640786291636701,0.7496413614258399,-0.4969267820630976,1.6181186581223295
1140,-0.7532308576481465,0.11382660993434691,0.6520041315591549,-6.869630258568616,-2.6012319780977196,-1.9722689458799483
1150,-0.7371859795360752,0.11019973182139567,0.6724879094775473,-4.370574525333406,-1.9386144044516018,-2.853816798631609
1160,-0.7310874518552715,0.09995562608283932,0.6765028007985153,-3.964420994000596,-0.6685149411240624,-2.3328534237074448
1170,-0.7041119015721415,0.11917865643037541,0.7131812731426171,-4.258376497280395,-1.2367149160844781,-2.200414922037783
1180,-0.6867352752279686,0.11157949373584161,0.7278573633241134,-3.0439345436886525,-0.4300294948597817,-1.1281595100019368
1190,-0.7133071494696394,0.10015162042818629,0.6987339980404349,-0.6570857378638231,-0.6081169226647527,-2.3296680417374342
1200,-0.7248075252722682,0.09185639475464799,0.6814087922828462,-1.346741442230189,0.23636096885650348,-2.173134262157136
1210,-0.7052316908087545,0.11932352459764012,0.6986345319723929,-1.1261625728959914,-1.4654531043773575,-2.712529181638483
1220,-0.7351427209528778,0.09396707515261599,0.6736069260320948,3.145752992635206,0.009501628247770344,0.01756027340461075
1230,-0.7422319125999107,0.08849009944556033,0.6699545408124545,-0.6523727157466754,-0.323335869780989,0.5272510573167855
1240,-0.699149176769988,0.1204617088899928,0.7063104726462573,-2.8123144449945787,0.9263003015591563,0.6514027786286196
1250,-0.7251205295571221,0.0913963749713489,0.6868192285968655,0.1728339571378612,2.2011881551302497,1.5638962718704297
1260,-0.7075344282891438,0.11283234048801402,0.7084239500650313,-0.4719066374754509,0.4792567115247765,0.2818886249854936
1270,-0.7225232730283256,0.0957243631164858,0.6959378063074021,1.429151571251789,0.7727170630739957,0.7212140484969674
1280,-0.7165479487013191,0.10692912100576926,0.6994316593920299,2.3087209326316462,1.826494040401265,0.707249236341793
1290,-0.7359261875222369,0.0907415477169882,0.6739895817151409,-1.9494306680304028,-2.397131388518845,-2.78097880882047
1300,-0.767418340695163,0.06141966955123209,0.6442616577633005,-1.9014307456667339,-2.1131367751818124,-1.371300174007704
1310,-0.7228650757595652,0.10164304906447638,0.6876818036590204,1.2385478640403438,-0.46831828905321965,0.4941903102857641
1320,-0.7493279219921082,0.07672759404855492,0.6626332833490974,1.6295707918863822,-0.6530310314975186,-0.10204695394706298
1330,-0.7389429955432565,0.08831213345387234,0.6752032426038744,1.999224906462405,3.0317578940567795,2.9924950265599164
1340,-0.6784149490118023,0.1343823444007728,0.7370288561361606,-0.7858826059226425,-0.2170702980649779,-0.04079734719115907
1350,-0.7369812482585741,0.08067720946234867,0.6770520134139418,0.39499267402408283,0.07917335656260108,0.18005116483340172
1360,-0.7378696027121585,0.08757780427248285,0.6776574632548569,-1.1764270820358067,0.09451466024674876,0.35719226788233793
1370,-0.7185575575446709,0.10636977983903934,0.6915526535086327,0.3372872469133543,-0.05101154594225023,1.0503927878636399
1380,-0.7342515328369645,0.09723028272904226,0.6784594386564644,-0.8990272229808252,0.33119745706106457,1.7494796122624283
1390,-0.7163774224240873,0.11166942214054934,0.692406974265186,-1.527092857720114,0.9473667967686668,1.1472727322023983
1400,-0.7078861087225575,0.12228488344145788,0.7057178316379762,-3.676597730287899,-1.0379658790889932,-2.3576901577739973
1410,-0.726545786641461,0.09415170062009888,0.6828305393042065,-1.2171494560513927,-1.8749549567602204,-2.2495023220556294
1420,-0.7226506826193801,0.09640884425802368,0.6892356812302831,1.4901748932533083,1.7515974284024023,1.6711137925155144
1430,-0.7239493117580376,0.09482329675506086,0.688715528270676,-1.4154231856745438,-0.609781417933405,-1.2865087008673541
1440,-0.7029333428011166,0.12441658378665069,0.7065499653230932,2.1987038596378676,2.2784410233571566,2.022962270191889
1450,-0.715387684847194,0.1068415970407613,0.6981760643300421,1.0958848504179677,0.30224807539331644,0.9107010360071597
1460,-0.7308691663764042,0.09717281780671627,0.6782807288881534,0.25184954980024976,-0.5983041077858109,-0.19183732430433087
1470,-0.7084755882623771,0.11514422018559209,0.6993945016603081,-0.4191485296163564,0.14848024500671306,-0.05230101451253228
1480,-0.7263833181677485,0.08963156664443328,0.6817617486931662,2.277755349854127,1.8902810346902699,2.2985742054486082
1490,-0.7305342760164923,0.09112711429506543,0.6804445013737966,-0.30743524516331333,-2.05926485114324,-1.4341280785498793
1500,-0.7223198505990567,0.10347719309529999,0.6907683334044248,0.6648245187493771,-0.44189208038245636,0.07438279832682682
1510,-0.7250540883220201,0.10359306362601564,0.6894845492021859,-2.3404760640451157,-1.1290524380218045,-1.0334791898208766
1520,-0.7304997830214948,0.08353315670068959,0.6867771125235609,-1.4830202837058577,-0.2641044335989201,-0.6031112654191877
1530,-0.7172370708337503,0.0979808132943275,0.6954888189797912,-1.1104568598287297,-1.6273799460881142,-0.55911820955581
1540,-0.7164287127698329,0.10699943836392996,0.6949538904446351,-1.4155587631730087,-2.310804005295154,-0.8568284931412851
1550,-0.7000449717197691,0.12273005288442079,0.7123372779856453,2.1275686428974376,1.5701462743066643,2.6244801431617137
1560,-0.7345136450987287,0.0949675524374124,0.6815811481006344,-0.9411804963820136,-1.9638954789084802,-1.8654612522783838
1570,-0.7437155537912945,0.08297399744552152,0.6711351804811562,-0.9669933536118922,0.7825956810236314,-0.13622252069720253
