time_ms,ax,ay,az,gx,gy,gz
0,-0.7115531767909232,0.22255990267422013,0.619056046787682,-2.474149193314306,1.8413686823382518,0.475651292387096
10,-0.7194224145416913,0.21138380594961945,0.6077477726186552,-0.8391094410419262,-0.5235675681753567,-0.8623950178272937
20,-0.6926325747425932,0.24474887290409608,0.6432070923245832,1.0064648943499255,-0.7311641216000626,-0.3779619171661598
30,-0.7163460177438297,0.2219146308267019,0.6083683943278133,5.0472166660527,1.6690812125361312,2.280361215617086
40,-0.7104553486084861,0.22241133626003198,0.6133971239877812,0.952709439511874,-0.0035148604649334336,-1.5665022726173992
50,-0.7148680263071637,0.2228447376086275,0.6128598964170079,-1.9747471459185655,-0.24976075495851502,-0.8298315151212876
60,-0.7010648123930241,0.2290837540391264,0.6319991319021577,-1.193100789016111,0.22911605432103918,0.1748794825463108
70,-0.7113876784982733,0.22379605239637645,0.6225652182305595,0.1334614619274116,0.9834468169426197,1.8486555207888475
80,-0.7082456180179645,0.2332628834947491,0.6262779678164424,-0.28366379815963383,-0.5003722713283361,0.07250739413751045
90,-0.7217182254819663,0.21451631926704412,0.6094206173619244,-3.8446367882573584,-2.7540968139031263,-2.7865799804114904
100,-0.7168799417181168,0.20933387058213535,0.6047453018813709,0.0768941140760846,0.38540067580635323,0.2215998308159902
110,-0.7304697679926145,0.20608850945298302,0.5964907395235454,0.6653712559304514,0.8690481578777167,0.9513681515318175
120,-0.7077633516740724,0.23468600925082245,0.6258311371063927,-2.8515465732431338,-1.6496133766102488,-1.9749933574527234
130,-0.702303730293715,0.2345446964960312,0.627320939163005,-3.0922600126978663,-0.9897565183673835,-1.6344242137317462
140,-0.724261249062991,0.2096370931687137,0.6054770553752529,-3.2138477724877044,-1.5293770509003015,-1.6150068717487187
150,-0.7706743114430141,0.11786264474165743,0.5914070194626763,-12.010909744330325,0.5208212861075786,3.6407298314138674
160,-0.7691300354575145,0.12185382537144272,0.6078350070284035,-6.484312152235132,-0.8083173004344107,5.89770893347357
170,-0.7807158621213023,0.2046641816339419,0.6970952774505045,13.28863754959586,-5.583953742225295,13.526096765053769
180,-0.7682821650815517,0.12224831202484562,0.7138782592387136,4.73528310420276,-15.521311917892874,16.62852734530529
190,-0.7110456669935813,0.1440385847474783,0.6135407257043405,10.501003829160398,-16.925470983776144,14.181697246723056
200,-0.6575002273572698,0.2673172279167343,0.5498531209276051,10.901323119626726,-15.901702248276454,12.71787073341682
210,-0.6391213745280682,0.30309705330938375,0.5266799303460733,-0.008025624055446379,-8.436396314850406,15.5599552508177
220,-0.6303092570143626,0.32970320793920393,0.5781862972133476,-10.872383966197551,-0.24626948018324235,17.148299526294725
230,-0.6954688413636921,0.3185090822304312,0.5774068456616132,-21.498543756156575,4.338171800343408,18.792292218247074
240,-0.7017502695728638,0.3365029228342682,0.5715152870248967,-28.813810571355653,6.098816365115015,16.498964827630672
250,-0.6885874214092977,0.3336153465825052,0.6062324214886597,-27.51124900082565,7.156425786470548,15.572692527012153
260,-0.6925618029742009,0.2666548378943986,0.6492414229895672,-25.331226433311876,10.929050660679483,17.04651565532989
270,-0.7119820238200809,0.16401973718134213,0.6466090247340361,-34.159743985949085,7.922691081824874,5.658620895650305
280,-0.7255558978028888,0.12446732759597874,0.6433016724606779,-22.205921813113832,8.818981115504643,6.1177833301308215
290,-0.701605726309803,0.09412614602495464,0.6222707221893088,-13.184505508759337,9.963166238452892,4.991161342238801
300,-0.713683549513037,0.13730410265422038,0.6194883175925401,-2.747922755466647,6.438061025251236,-1.8635354005086833
310,-0.6691538718513907,0.2646455304536124,0.5575185369593244,4.008572890766013,9.108126833182611,3.8468201940654807
320,-0.650966770791669,0.21871741443908918,0.5654575570658442,-2.2933953173343284,13.851159834953698,4.015616341487441
330,-0.7031807989768679,0.22896918904918356,0.6432672467727412,-6.283910414340044,1.148072344597305,-2.18289944053932
340,-0.7251004652828363,0.17949533597917997,0.5855738013725307,-2.3453103981002945,-5.363069335285703,-4.539260401418785
350,-0.7084642613920299,0.2130238818343607,0.6397526166681448,10.695448166227342,-0.35634743321111273,0.7359621558446858
360,-0.6914309872539772,0.18731499487275127,0.6651867246488306,2.0830887178727955,-6.992952178457677,-2.6863433839826443
370,-0.7504004667368209,0.23340582474042654,0.5815990334779272,-2.3097147701973624,-2.8637927564752443,0.9295844911534696
380,-0.6819149047011084,0.17137455534242405,0.6576184754983199,16.572341385233578,-3.7891766896004313,-0.4483931648105567
390,-0.7271818542262566,0.19525222395017805,0.46934616514096716,28.835515525245015,-16.402162477216997,-15.972020089038644
400,-0.7881204721012258,0.2501759223625705,0.47745411448338454,19.959257063701095,-9.74824576232599,-23.470189814189556
410,-0.6636983162573787,0.21326168051111635,0.686083682497371,29.708987339918068,-10.838783615926259,-24.03144993440702
420,-0.778887299270452,0.45359882291408626,0.43129643115925576,30.185508069565433,-2.9950133517439337,-13.750031008192115
430,-0.7696040459698944,0.33586457070514314,0.557235376341156,-1.1229187407034895,5.064442237877451,-13.863880443245954
440,-0.7126873799615256,0.34664415337798493,0.6729076164163356,-17.420825733758196,18.44662783187362,-3.281764546602875
450,-0.7007845814335012,0.4041222750303168,0.5601864317921534,-0.36331275587720224,36.30535867967373,24.21505620548757
460,-0.6885226087472466,0.24691204585099708,0.4696344745111225,-3.3383146614811325,29.246502008122047,27.318418996820863
470,-0.7319739500477589,0.2034866697223998,0.4938887132552953,-20.313772549605744,25.428657595681813,29.100307110327066
480,-0.6484607356099261,0.19685031829744265,0.6841762284284755,-11.918950934313392,35.233410494021264,32.155671841673794
490,-0.710400929949465,0.2563267465484625,0.6061361320253823,-17.714469260212674,25.75580252079032,14.817121065766807
500,-0.7712417933725952,0.16750668048599035,0.5327151754232338,18.80088091578567,8.79327342409584,3.024651575799167
510,-0.7224340219117453,0.14429628875373873,0.6085253515402268,57.54916981729262,6.359453875191891,11.238943244176278
520,-0.6912961422697204,-0.06110308139383971,0.7350741830960901,63.02198356318161,0.6984354774851289,9.602750524942717
530,-0.746808255137292,-0.10412188271780604,0.6117868201439106,56.17237139075041,-7.4783316746247115,-6.692686080665197
540,-0.6750533308096132,-0.18972974943609705,0.7282553328553742,35.56359578821109,-17.205024716875105,-28.806329710437964
550,-0.6743183227726538,0.2971317169926532,0.6051925997908356,74.19650051737082,-20.085619034317876,-36.076588443867
560,-0.7294924276472536,0.3753646757382422,0.587492135802491,20.57606294266038,-5.593711742708317,-9.252367543527841
570,-0.7417216538329154,0.3019657929928175,0.5725173702220864,-4.643503864476265,-0.9036489249842351,-4.706179608418383
580,-0.741280596083992,0.24441961069650384,0.5731840590637511,-3.9866932011891496,-2.738470413894605,-7.459944163443942
590,-0.7381104234820536,0.23680487454408133,0.5899610812978314,9.995552977854622,-1.9746767478118832,-5.682683824150786
600,-0.737662151164786,0.24765661129233257,0.5762488184330866,10.84831566714768,2.3234187838423694,-0.34899980148845744
610,-0.7237837918137023,0.2692207708783581,0.5881402828520209,6.456170616372724,-2.7318200805362243,-4.012710635646777
620,-0.7300397560327911,0.24338877722227403,0.5968226697992943,1.288059475120717,-0.3754012174183794,1.6096964796842306
630,-0.7439669343243381,0.2201563152888436,0.5653328175795493,3.8400936067958638,-4.578548764721189,-3.40613151801803
640,-0.7309547617198733,0.27782787716014606,0.5871019538939686,3.506041989589563,0.3918340876496226,-0.14424132993909333
650,-0.7284928973101645,0.26962982537508906,0.5853053747821946,0.6704534932670814,1.456169474763437,-0.960971709961324
660,-0.7080965925420553,0.2798587739082768,0.6040441986753555,-1.9592307938262192,0.6490760109127638,-1.4221272992941136
670,-0.7406813805027269,0.25178804644047575,0.5658282071193164,-6.756346445439458,-1.6983756326226869,-3.42117270147529
680,-0.7342443439381328,0.24285188579193734,0.5786857435787962,-1.8703199894831222,0.2144125845174173,-0.134420499150107
690,-0.7216298012045906,0.2649296494334023,0.595459059374722,-1.5897593589804213,-0.4861772197203259,-1.1613339337890942
700,-0.7418074393950354,0.24078856056250406,0.5708671410644073,0.5586773387415718,0.381610758851813,0.7139642577403538
710,-0.7539562288216942,0.22511206734456693,0.5532393909039832,0.1675068839497902,-0.02586694381763964,1.664705539827729
720,-0.7462759286615795,0.2273706652249119,0.5687012141462581,1.2546489488195538,1.124086780391784,3.422806817872536
730,-0.746748749564551,0.23206969756384407,0.5710414337845621,-1.992252501877475,-1.4727146287027673,-0.5218820445532253
740,-0.718143872578459,0.2729786300339024,0.6027646599780192,-3.911652453189857,-0.6900733793856854,-2.3762701298010707
750,-0.7285129885414466,0.2569685294441097,0.5873716939931537,-4.737823188544567,-0.10066553222022256,-1.857013856204005
760,-0.7245687285658237,0.24895295081733743,0.5881629133357165,-4.71022998765346,0.3310603091442008,0.007752878994401469
770,-0.7534507747529842,0.21771615448858989,0.560296285485659,-6.706656224187895,0.9941737942737625,3.356833611421137
780,-0.7658687426324868,0.1933844180283943,0.5514830507265626,0.4197363416805966,2.9878013820109364,7.607799821659677
790,-0.762503164199525,0.21085853525694592,0.5556952673230221,-2.9415735786297263,-0.7332085907456589,0.03788578909229223
800,-0.7508012564863566,0.23262075686319006,0.5646213712785068,-5.707126783909078,-1.990915474356207,-4.977553559000303
810,-0.737203552850967,0.24089535194612402,0.5770025570391183,-3.8324266973175987,-0.4887883256907719,-3.263177547767901
820,-0.7231951907703891,0.24158908652265657,0.5861965810959288,-5.39863437991173,-2.253247176026737,-3.3982650738833606
830,-0.7161751247528846,0.24800280404749203,0.5971795271053113,1.9380552087831378,2.6419895410032073,3.3896206619061067
840,-0.7227832857921277,0.2479736568766399,0.5861164151743207,5.674869648087163,3.1316778763080184,5.556028020766127
850,-0.7306074527627853,0.24559284126655695,0.5803616635689468,-4.037605533591095,-0.2388275637193017,-0.8332027298847848
860,-0.730708047650218,0.22979054219549455,0.5851284774846458,-5.250260925277639,0.8355676389600909,-0.5986331433436745
870,-0.7225846810208889,0.24860609381869359,0.5952689410891806,0.6139313603164678,3.332366358731877,2.746794143671845
880,-0.7324810638068598,0.2417458510952826,0.5837911900862791,-0.22792881577368962,-0.5255531524926865,0.9217690181697509
890,-0.7199291771617329,0.2548093587741192,0.5893907542759234,2.144367939445525,1.2286874195295094,3.578126769583783
900,-0.7442213879391488,0.2312405476748975,0.574774253189297,-0.44674991922466567,-0.513979078479461,0.9079308655001226
910,-0.7045999435683077,0.2715187647067221,0.6127770130127056,-5.3386575755600445,-2.8006371909574477,-4.044790587332012
920,-0.7114163561469754,0.25710292704823073,0.6014047266401402,-4.87146011300286,-1.8283022292525455,-3.168605204097091
930,-0.7396359225115572,0.2952201878910084,0.5761363192114872,-3.497345278909777,-1.61195300733117,-6.897087661884517
940,-0.7277519660305822,0.2373587230008302,0.5867987821426754,-10.979496589306358,-1.2687538158818739,-7.5799042260229506
950,-0.7372087567170086,0.2268169840234048,0.57619789198291,-10.421496778682322,-4.433939904920955,-9.709720361352446
960,-0.7538864228991343,0.23474952391381648,0.5574915255230422,-3.610452902462501,-2.2043340362944326,-5.72432531247931
970,-0.7243860634664704,0.24984992242470316,0.5831192928632575,1.390817726547,-0.5560174772335421,2.0342505971030316
980,-0.7575613713474747,0.2192520302440269,0.55863405017059,-1.877048234361745,-0.05370108317086786,1.243174515661694
990,-0.7154624248836604,0.25998361808058135,0.6051425926859288,-1.5193285238095018,2.4730398528559716,2.733336923759544
1000,-0.7194166517456844,0.25236714416592154,0.5977159303067213,-5.163826144484634,-0.9195429456282311,-1.2015387620189586
1010,-0.7403523909028958,0.23023138251915587,0.5805230006138844,-3.963021485765225,-1.8035345996965277,-1.9743697568727667
1020,-0.7338146234009002,0.23483704387005902,0.5854757617729911,-0.6134843219452155,-0.4209369208059749,-0.14318658955800187
1030,-0.7431802127567176,0.22633146464781875,0.5779787348251906,2.5501135284760794,1.6818092118049532,2.4679599139088717
1040,-0.7244791724727139,0.24204856413910433,0.6016137067504127,3.610888661586748,0.7374541905642098,0.713447804385825
1050,-0.7318941476473438,0.24315534919728293,0.5932807431022671,-1.6784758926917567,-2.0646551541169713,-3.3278796362562835
1060,-0.7266756437894194,0.2536528848047086,0.598099977405015,-3.1388316375621996,-0.533730591505808,-2.458089226984668
1070,-0.6907026787153084,0.2811218902813472,0.6317323597979104,-4.294736197523524,-1.2384633272709056,-2.59808382967587
1080,-0.7200675001376735,0.24354849034828727,0.5984495617707164,-0.41136041758311936,-0.6061223996052006,-0.3553133127684973
1090,-0.7184830084741187,0.24883732415194754,0.602866535665523,6.2171883119214115,3.587892983014126,5.359007374813063
1100,-0.7231029005197107,0.2578723898354127,0.597392955123676,2.3595995538216363,0.9263316683469772,1.8267768851871704
1110,-0.7263813586790175,0.2565785800805268,0.5914664454926752,-4.258896863189298,-2.072288338619958,-2.565686695423607
1120,-0.709017652578083,0.2697292283204266,0.6152283552462923,-2.5753390239229086,1.0308429861744197,0.2449261182998388
1130,-0.7323622456031601,0.23082837465857636,0.5882662851088026,-5.775593319043176,-0.7980180402199966,-1.2616158225641647
1140,-0.7412536907493161,0.2208492198716128,0.5770204649105366,1.623695941367561,2.0998407963096657,3.6764139117689343
1150,-0.7402402413639855,0.23161584769977211,0.5742747936101706,2.490515671630091,-0.7332424305197864,0.9517961716062533
1160,-0.7191312058858491,0.252785742134513,0.5964418666784771,2.4327879083108055,0.3675507569418306,0.39279068284793506
1170,-0.7522075868436789,0.2149076529010543,0.5621796816175341,-3.1070090444185174,-2.2811502995923605,-3.0424263784050583
1180,-0.7426013122776141,0.22479166874290119,0.5720435295426037,-3.026833650031738,-1.6702605624306492,-2.835475038682342
1190,-0.6967232787507074,0.2680484718955489,0.6212479743421803,-4.760865769514916,-2.7771019755393644,-3.5353118961854877
1200,-0.7406243792666573,0.23221813663619928,0.5802902985982696,0.19580652774190455,1.7560243655299392,1.7168766121556795
1210,-0.713778304093401,0.2496296568779538,0.6078837374286536,-1.3556582136452344,0.5483134239668074,0.432873732616128
1220,-0.747907806596706,0.2156197890537454,0.5692083236348398,0.6335411481635832,0.6713003975577924,0.647656054810526
1230,-0.7093506509545877,0.26472135921567247,0.606605678198173,3.7037908887576867,1.8565742307791462,1.2589915755334953
1240,-0.7097681054173551,0.26648914960625275,0.6062716239281334,1.041384068755867,1.6564938785591192,0.7944755756221696
1250,-0.7318939682345078,0.23851686675662315,0.5895051390445285,-0.6229618313098353,1.020217078937656,0.27735736248109066
1260,-0.7362887125711971,0.23143618971199595,0.5809867343621047,-2.2981883021462717,-0.11757207196307837,0.12848574569692955
1270,-0.7193318480902628,0.24700824770720367,0.6033983605588481,-3.3398207700026097,-2.529673362669689,-2.57451391402876
1280,-0.7381186884762568,0.23029047770369293,0.5803229608521482,-3.404155539381673,-2.535130281770485,-3.1375833894621628
1290,-0.7366212024902844,0.23258541581868442,0.5798927854834386,-0.7907976925474267,0.6475590815830384,-0.8838788965870565
1300,-0.7288815999257365,0.24248459961122615,0.5892750104384665,-1.9667326079899048,-1.109099935055282,-2.7621328528540845
1310,-0.723372992994666,0.24036768932400676,0.5981170943466586,0.12277421720714066,0.6063091951323977,-0.20321960785942395
1320,-0.7369490493297962,0.22675973673499597,0.5838072165391425,0.6422130215269247,0.8415173754997265,1.1072717764241249
1330,-0.7321308633319104,0.23348593858985398,0.5840358145301465,-0.5040688242735791,-0.20782071098599164,-0.012458143061868598
1340,-0.7255126747233973,0.24419793157811448,0.5952302659670627,-1.2235680195401555,1.7127775935081706,1.2305364708482918
1350,-0.7492611671003728,0.2127375546529494,0.5742779253538157,-2.7982374891537662,0.012589902164333783,-0.23036809944062575
1360,-0.7435259095905463,0.21301678552185754,0.5690738701031629,1.6624058961341042,1.5769842001150725,2.2424824120524827
1370,-0.7398571920820322,0.2188324808835983,0.5720989805340558,2.9947050802581954,-0.8145247398982819,0.1935559513272217
1380,-0.7358502133201699,0.23444430431056418,0.5812336311192461,4.263913825157418,0.7951575018056058,0.27273706821564947
1390,-0.7446980099811477,0.23097946029615155,0.5740345948721982,-0.6269964288955425,0.16121986036135622,-2.922322967808395
1400,-0.7032591659590441,0.26158358306601465,0.6147657722795693,-3.148188849870526,-0.6810891692064271,-4.26360954911216
1410,-0.741547971488588,0.21036730848426566,0.5782635204290127,-2.878880216634732,-1.9259650117043405,-3.8092083597115485
1420,-0.7217192111236722,0.23202739486572094,0.5976657730895046,2.096789967451155,1.3086316715300912,1.4460625165791257
1430,-0.7198287637332322,0.24744670387155002,0.600622893015487,2.0077088826293092,2.193950901071146,2.539026869186204
1440,-0.7135119374585575,0.2547724473243991,0.6017346781474414,-3.0063496181590836,-0.753110191119069,-1.2098913182283737
1450,-0.7161102630802166,0.24603875721034796,0.6020862898845647,-4.382528666090248,-1.2043401014795818,-2.5706892960505643
1460,-0.7347616665746202,0.21696735410979665,0.5832526954489209,-1.4655501737063348,0.12105671134318291,-0.8923309420940926
1470,-0.7328498861959102,0.2261675872627877,0.5929814953721639,0.7291427653857827,0.8241324622745342,0.6178896222182505
1480,-0.7213461462750876,0.23906724339509045,0.6014291235386298,0.1322221058785682,0.009362363463553375,0.4612050142654172
1490,-0.7184075346477488,0.24429065264322197,0.6044129849250316,-0.12288925293747452,-0.34594635306173477,0.6031896553177729
1500,-0.7409205975484672,0.22500645612739723,0.5823210476513117,-2.8913432593648887,-2.3462402359048986,-1.7971159597434911
1510,-0.7284545853448463,0.2360888102900579,0.586864840666533,0.2419802952258192,0.08096207135161837,0.34329310820756
1520,-0.7348717395808478,0.23824357603424764,0.5954930822265868,2.5048067245108285,0.7958551524004474,0.1808220559137389
