time_ms,ax,ay,az,gx,gy,gz
0,-0.8047122961157509,0.18405149263096846,0.3588731689978173,1.5320450722501016,0.5079481189215872,1.3694679600405526
10,-0.7929055889607913,0.19732986699348204,0.36234662087788105,-0.6925978309927621,1.1759173102833418,0.13074179357402227
20,-0.7829298549660572,0.20207501485974616,0.37184801424731984,-2.64380672542668,0.27345685970973366,-1.8078992572439057
30,-0.7911394662435547,0.19073216885798575,0.37295511128929315,-3.0505890326665686,-0.7139071482471416,-2.5555935313090092
40,-0.7991663472593435,0.17931318900796878,0.3650427336907556,1.0268255754680955,-1.2063028073382587,-0.11070892726925075
50,-0.7687807752581186,0.21294042533109686,0.39046771553168813,4.607112619180461,0.14711771917018088,1.8950708601101258
60,-0.8017641814514822,0.18308973221179217,0.35313330079232574,1.2426790083670272,-0.9333711947462591,-0.5536183316704889
70,-0.7809609864879078,0.20385596201108067,0.37746294873353325,-0.6719072703538148,-0.5867578307515162,-1.7114127113172843
80,-0.7767322928367193,0.20777209338430205,0.38057799726235825,-1.202494092523164,0.5866932195848672,-0.9142350627356407
90,-0.8026996723520083,0.17981447400613118,0.3589449510858913,-2.4995136510338067,-0.30484051560832043,-1.7581748292078503
100,-0.7929795720787967,0.18933589292861933,0.36660388600072114,3.3531093572011397,1.8291680921224225,2.2104042695135586
110,-0.7819522993842761,0.20056409122741178,0.37669836691248615,0.3136535970926748,-2.576420764414263,-1.661528409505757
120,-0.7931863451514286,0.18879529210546153,0.36594411548729394,2.756762724121572,3.1281102871982878,2.315257629711151
130,-0.7722638673333131,0.21160609564611382,0.3899460230538986,-4.153257797471246,-1.0371466358193278,-3.0134816914597953
140,-0.787601697968943,0.1942081498263349,0.38134006650695024,-7.828168989505633,-4.720943598164291,-6.543872386027757
150,-0.8074495453161842,0.1670457091106388,0.3540173485589885,-0.46533950226800036,0.5070261811967154,-0.043610357660081964
160,-0.805495276293296,0.1686785192091206,0.3511055405902573,-0.356794011951443,-0.38948781875477045,-0.35683966375335496
170,-0.8024127804047225,0.17197054119464036,0.3549498077346256,-1.354329136202104,-1.3123217381999601,-2.162918404785946
180,-0.7771755778093111,0.20092009688388304,0.3792014562569437,-2.6298433163265287,-3.542975139275089,-3.5846919457376707
190,-0.7959516985814781,0.1840132337781966,0.3620697799484584,0.24735126435366322,0.8879124898817141,0.5235569628235992
200,-0.793637076627151,0.18667272172467037,0.3602687036334072,-1.4442325321416618,-0.6298863822393733,-0.8543654454889987
210,-0.767661341732119,0.21805576428464746,0.39236185320972466,0.056434131512433205,0.47099379875111114,0.8092145315402929
220,-0.7712578858858864,0.2159150984868995,0.39522268529778204,-1.1532091203126107,0.5865296398777511,-0.1611595581668829
230,-0.8072701356678491,0.16717382100586017,0.35521729995176754,4.243339027528817,1.2687092755447527,3.359742828472553
240,-0.7912680274725994,0.19165135171295306,0.3676934533035083,3.8327905957657036,1.415401058827101,2.3716775010344353
250,-0.7903568919719599,0.20490016784829834,0.36891231865467944,2.273815642022774,2.6282002860746148,1.4419772394010422
260,-0.787393655849735,0.2026182512127544,0.36837628141714257,-0.8574284140275064,-0.28788433928767393,-1.9686356815199153
270,-0.811688177559816,0.16408070499555413,0.34574002803297266,0.22816320087721187,1.0745630080221706,-0.6041805515779888
280,-0.7783959436503212,0.19347006532563643,0.38177269407223,-0.2879332481485989,0.40711015043808396,-0.3222991752038371
290,-0.7848217424691778,0.19553318361937896,0.37741592495707055,1.0872348408469388,0.22617659840833101,1.0396787332935147
300,-0.7987394196490034,0.18202102725733865,0.3549726112154898,0.7298511831784054,0.6865292745851738,0.8829069067091496
310,-0.8048833639088572,0.17904238359505376,0.353439021754331,1.154760866496526,2.083509315841512,1.1096472677364213
320,-0.7713152601690312,0.21330034051870048,0.38904272969644166,-1.1091017647507133,0.10767779854002217,-0.8893638089694413
330,-0.7570773579377953,0.22128411208862322,0.4002504152434649,-2.2597071159478648,-1.5692839576212525,-1.8015604771643925
340,-0.7959424346210254,0.18098175671156957,0.3647779743212325,3.046153289963227,2.835457981201278,3.303188134517772
350,-0.7896780518802572,0.19238739630614746,0.3722040396331634,2.105098136671085,1.9927831001956873,2.160244645446662
360,-0.8188044640981061,0.16405322334305442,0.34096160156243926,-0.9863616960617037,-0.9736479774754966,-1.2023683638352838
370,-0.8067060214778868,0.17469988312023596,0.35508456418478185,0.3741508672412478,-0.22790710104895495,0.013655374686741995
380,-0.7806259022906489,0.19996521437800158,0.37642184095588893,-0.1942428127185321,-0.29699047945745605,0.06344989836711308
390,-0.8012067483042755,0.1693069585196612,0.34816094592870217,0.14305090264507048,0.19506647834892749,1.0708318666712
400,-0.8040989449535233,0.16947848842397467,0.35399177675046317,2.0481962396217264,0.7575671277467422,1.8802115424796444
410,-0.8044446554076919,0.18214164033265148,0.3589708475190891,2.008330542511419,1.65559781197594,2.2392033948957075
420,-0.8307030565275071,0.1577708231501153,0.34652775946236813,0.11003841462016029,-0.8962222482811681,-0.1742113470805573
430,-0.8402313388990896,0.17084418869724977,0.3575645735527352,4.451806962011061,4.259555687639189,4.99519713060206
440,-0.8769563100518158,0.18215533000000164,0.41325637465052284,-3.5611770981878084,0.4944263677654893,2.8170943551335372
450,-0.7806895468236364,0.15250412762878976,0.3384253957623761,20.789404011325583,-0.5779370135749653,11.082443073116323
460,-0.8372728075260363,0.21051199196757592,0.39351315896726236,7.303196683314271,-4.3189618264557925,2.6364805262821616
470,-0.9007178351797828,0.35535347733846284,0.423205922752602,11.53111177628835,-9.858411137993981,10.900067068719816
480,-0.7412355898140149,0.3510890630208178,0.4062545002143685,1.1764736006749816,-24.517926330947944,32.37971020239229
490,-0.6641855240184237,0.23891355928187966,0.34018467074400505,-9.846454398844058,-23.177451435936742,29.852050597807864
500,-0.6745109889777605,0.1848932345724578,0.2680852214023102,-14.791548783852853,-17.289090025086285,18.663436133212915
510,-0.6744913489418071,0.2485127871057459,0.29462820819071306,-16.20889027903496,-7.952896051657588,11.331992314872075
520,-0.6951888389757355,0.30367137116655135,0.2803435639500942,-18.72505167093909,1.3446340614040626,11.28183368391453
530,-0.637588834407282,0.31049090480809505,0.2692178327204649,-21.896760710157903,9.967331479056972,12.884856602910832
540,-0.7115374639371939,0.19348645034888345,0.3920824157892413,-45.57315643504868,27.922068566858425,1.4574092808325714
550,-0.831256028424569,0.09198322039761161,0.5031696805068835,-60.34672009267896,30.895080368427287,-15.468394070890145
560,-1.0253387141401205,0.03530966868984301,0.48517643603052113,-57.28131140455456,-5.6333398291381656,-25.655801241933748
570,-1.0209794674282047,-0.03418689825488159,0.4230132930497357,-37.42853666750164,-24.474889402044585,-19.71331333457744
580,-0.768343112552314,0.0319818553282087,0.3784834554506294,-14.52289887340687,-16.52541755106574,-12.458205368458145
590,-0.7291140449311622,0.13387559361407664,0.2649238224803234,3.8567097394114263,-22.195721245749567,-11.445253629903004
600,-0.7566710508353107,0.30052688660921933,0.22880264366123762,37.53811634268226,-20.048869272574226,-6.31339627126188
610,-0.7847580592876224,0.5649638587351756,0.3131492719246374,55.54388490701069,-2.7148212126655875,-2.2419662071775437
620,-0.7621495803546459,0.41679542151807725,0.3153363894113482,26.567438554146438,3.2269851197879174,-10.439862419648744
630,-0.8515970702508753,0.5900469954182725,0.2266140369858619,63.20056994279897,10.571143463124375,4.529870367902085
640,-0.7787970989121775,0.4277335201156222,0.33215436933369513,-1.0659252043606764,22.647651836603615,-9.71439917039378
650,-0.8409335947426244,0.39821297457765875,0.25364076588020534,-21.0083535765923,51.151479369882715,3.8089413511926042
660,-0.6445441426657971,0.7054060715528305,-0.005922272366926502,24.181240560788147,69.16158135950019,44.34448962742707
670,-0.7566619545700858,0.2687920499969875,0.35834343049672956,-51.3244786346965,48.87793349761465,25.885965950728142
680,-0.7763061418636319,0.14845737106009715,0.049070846632120024,-8.101162249681263,18.23901491363268,5.5668951876323165
690,-0.7286987835186906,0.21826014285145848,0.2945937541734569,3.6459455364615407,22.116202988219925,5.848314352758792
700,-0.7923421178768192,0.05937491285707966,0.4834760555837585,-0.6550490686843228,5.334124923879138,-12.477427630960948
710,-0.77236567295638,0.13981673786009,0.3990081951389869,21.620246590612812,0.18516744103822003,-0.9863834019432298
720,-0.781555372617893,0.026670408905679496,0.4123258847965127,46.53991057020264,-1.749051155793611,15.337599521643236
730,-0.7382982566168669,-0.1024003566169714,0.3445399199785975,35.23285023402539,-17.41231577085403,-26.045606931315817
740,-0.6806547801477585,0.35532588743314,0.1512592818963013,26.24100375162717,-10.821035489562743,-25.643219481579
750,-0.7542592598162123,0.6859300186633195,0.14690403441082342,85.00163284014786,-3.679050124032133,17.060275172456937
760,-0.8008700899196028,0.592401581314565,0.2895107462764994,64.27583952640366,-7.703550538323099,24.682524984053412
770,-0.7747453554651668,0.4648699809558332,0.29166989002721194,27.10461714237345,-3.962532394421414,12.253867602017024
780,-0.7649876901445424,0.43561059392020973,0.2752684565596363,-1.2311210466954743,-2.7126528186303607,-4.6701815168253145
790,-0.77751581853037,0.32265928490587176,0.32673175415813466,-15.654500600602024,-4.201965733799851,-15.173191558811995
800,-0.7882032946837928,0.2016584430755036,0.3441705864018405,-6.665116876691389,-2.9131984560180784,-12.85731152799679
810,-0.7958239867368166,0.19476688106690118,0.34218483692910096,-3.013218172003132,-2.474992179282977,-7.262658387949973
820,-0.7970097725654544,0.1951974656786378,0.3457203808372903,2.6908377407581545,-1.2607362469453804,-0.5972643383144352
830,-0.8040462268587493,0.1936254401472441,0.338165155564186,6.310098941247065,1.2370919669388702,5.473483411481724
840,-0.8159354014603559,0.1876647798049543,0.32833259573154033,6.262635400837464,1.6098054063995093,6.839041623425555
850,-0.8099063375046315,0.20470886321894763,0.33957939827125927,0.12372159140763639,-3.596186774655286,0.08196644642851103
860,-0.7897319562887429,0.2199983797238455,0.35574059479290127,-0.8271015912988142,0.9326741405950238,-1.1085490256663508
870,-0.7947681238566936,0.20151145513182447,0.34582032788908895,-0.7444714681088072,0.7105434722926305,0.3069582129177273
880,-0.7931679089643442,0.20467666184129626,0.34468045598436836,-0.90838844594557,0.06668250440456847,1.6538731237508508
890,-0.8019232624086168,0.19663631946779977,0.3341160926013282,1.2233098936991829,-1.2440678976111839,1.9799147628865919
900,-0.7977044789672046,0.2039032445228845,0.3390722060947579,8.150179603013108,1.1774854736268912,6.549847820758771
910,-0.7921833819532249,0.2144893686660585,0.3458013652655096,5.357878559370727,-1.6393375948736908,3.1225450211755312
920,-0.8034200335629389,0.21020103975535043,0.33241425955880877,2.5911366166162497,-1.5335783002440087,-0.8917258721132187
930,-0.7717210904256074,0.24486384041346584,0.3642716171458264,1.7868600663748821,0.09161866732573187,-0.5484678391982094
940,-0.7940324653088987,0.22687971011730745,0.3376559411345056,-3.8498294179475234,-2.6774939050315556,-4.406309136935221
950,-0.824532106980264,0.1808482603710177,0.31200300392389135,1.4644148557910412,1.1348965453049682,-0.26909549773801134
960,-0.8095048576182068,0.19830430665678184,0.32396183098034137,1.1494253837608235,-3.441218686171709,-2.529569123728829
970,-0.7837994565551979,0.22019217292710408,0.3485327324586504,6.968397972771376,-1.6729605962148222,0.6426175912245127
980,-0.7869715839191697,0.22921432072446693,0.35296584087116345,3.542252872930338,1.0048136315783613,1.7374333535223405
990,-0.7835786321382433,0.23981403761827,0.35545364058048734,-3.637453746462817,-0.6343594351136884,-1.3637479675696595
1000,-0.7765555800610954,0.2338914028170143,0.3591957268539882,-1.2188997769889176,1.2050614556713128,0.6620380638742718
1010,-0.8075584332258376,0.19840303980597168,0.3293917992348809,-0.2541772150560694,-0.08173812867111077,0.6463556138776507
1020,-0.7889460939910039,0.22301144693458985,0.35069950230577435,-1.0168187335292753,-1.751683392212023,-0.6235345057532524
1030,-0.7787553018620212,0.23415898515968317,0.3619799588219556,-0.9017532204996286,-1.5619445602756663,-1.2189879172240323
1040,-0.7906324683766734,0.2223934768404025,0.34807904276802204,-0.4839474144614371,-0.19144629248783168,-0.3664970965643022
1050,-0.7734449796792896,0.2390105627980378,0.36379476711839537,-5.377476583732566,-2.828693065479682,-3.2801541543326
1060,-0.803361087944089,0.20695923217472792,0.33304429212031805,-3.8424199808267923,-1.0025699481232417,-0.6175200788215587
1070,-0.800347212805292,0.20365733795224694,0.3395132586652135,-1.1298656279630646,-0.39228202076944907,1.3834770870332764
1080,-0.8025072073629953,0.20374665101896602,0.3424920659844097,-0.03807273024161706,-2.0138155322775417,0.27030146165437907
1090,-0.7744143344554258,0.253618384622863,0.366319037342861,-1.2202356492656707,-1.9028554377899285,-0.3155620949674005
1100,-0.8037678645741794,0.227424456687879,0.3483056150491525,-0.4359494483197561,0.23242501615448352,-0.5760095596166612
1110,-0.7736946950858639,0.23476109345741605,0.3671136826684246,3.911809819247612,1.783772882342526,0.4674676353055809
1120,-0.816019739830224,0.2241674084375081,0.3261837962356582,-1.2329977522439055,-1.265542120858573,-5.807819731145045
1130,-0.7973688079240107,0.2068061744740529,0.3434323601550564,-7.132133085129478,-1.4724483474748755,-6.647658492745839
1140,-0.7953745761128825,0.18254294860408274,0.3332040586115918,0.9140233014291931,-0.5197206951057016,-3.244210024890786
1150,-0.788638310215697,0.20784982257654763,0.3575500200289202,-5.957466856999398,-3.050130838461636,-6.997140783701228
1160,-0.7923825439411353,0.20636841055261748,0.3553766326501967,1.3522966527476152,2.671574608526589,0.9438344974139281
1170,-0.8129493545115556,0.20173511071872904,0.3292174609327273,1.5203780364207158,0.609215377433115,1.830632765381915
1180,-0.7795803758053963,0.2403005969275833,0.36181155981785923,-0.8947954396068939,-0.1489249746123048,-0.09157438804127316
1190,-0.7817659202016595,0.23444102790472687,0.3608814199328821,-2.2118187116344505,-0.3628289378695686,-0.627863030919176
1200,-0.7908782830824657,0.21933985296159966,0.35007302950732366,-1.008719256913136,0.9873741051629866,0.7056417462918956
1210,-0.7993890898925444,0.20897170606846915,0.3418279504536118,-4.191152585682268,-2.2526156478269512,-2.061887214054302
1220,-0.7914028738193599,0.21665671679943257,0.35331374845453195,-1.4317996801426527,-0.44730297406475616,0.21250224527611328
1230,-0.777978700711618,0.23056582480203064,0.36325640159601125,-1.0185988666412344,1.2088249900661734,0.8956503464090012
1240,-0.7984365990666094,0.2096385974761415,0.3429879527192641,-4.8112826850474875,-1.4807225589394633,-2.053795222175804
1250,-0.8043298725190564,0.19675862193166851,0.335808990606398,2.0440715597987964,1.67850281206648,2.8586056544483998
1260,-0.7952651751505495,0.20936545842800677,0.34016114780876855,4.983270019273944,1.7612289826254346,3.560040079809343
1270,-0.7952714114014873,0.2254805944981726,0.34827406229074026,-0.5862097783086107,-1.339545615133429,-1.071693809889737
1280,-0.8057556159259832,0.21044847975372014,0.3359460167577787,2.115821548022415,3.5202282460537058,2.3598869631974284
1290,-0.8059566755410338,0.20566001478594964,0.33274261378194897,-2.750580066410969,0.3640145722869865,-1.5090487961382621
1300,-0.800024563008941,0.2088830750925834,0.340024663943365,-3.761472115425867,0.8266816917849344,0.25378812425521796
1310,-0.797851524508192,0.20691814631432162,0.3364075079449945,-0.725322529710648,2.487599746367142,2.7722018611747665
1320,-0.7809509861325818,0.2210239952153993,0.3606616662022668,-1.2302594470286183,-0.5991687337504115,0.12667720021856838
1330,-0.7884942131987364,0.2189269859908048,0.354915496147611,4.4981705412085145,0.11983806709600237,2.129830960044612
1340,-0.7798699333523318,0.23200331954749626,0.363861117413817,4.588943472257355,2.1268448567311258,2.8565487378053662
1350,-0.7536261420105816,0.25240144352441607,0.38790738096392857,-0.8459609067519646,-0.6797590833163105,-1.3314968317475886
1360,-0.786289703567692,0.2203650877527762,0.3545112912257333,-0.3150401189640437,0.8408114204228634,1.661494153362319
1370,-0.790438143035234,0.2174654995361486,0.352388624930649,-2.138573263089363,0.2666649994230912,1.0379687612673552
1380,-0.7874961885740636,0.21459061156754983,0.350470070633489,-2.5007083693454994,-1.781937958284117,-0.6075057218882401
1390,-0.8164296396620512,0.19228229971015565,0.3226640667509942,3.3840393741378794,0.9518366632728344,2.4951002931402817
1400,-0.7852612301469412,0.22994967539939598,0.3563898791095806,-1.3698458647468004,-2.098789725254544,-2.061337634011097
1410,-0.8057841747629848,0.2004761797085633,0.33689819245370617,-1.8880601547198756,-0.9299188780209992,-2.4526493435739423
1420,-0.8182770109366926,0.1868087521108699,0.3192006861279261,3.7117956846769093,2.7598459862807463,2.342914365107995
1430,-0.7921026588282396,0.2221458704153004,0.34622135512886376,-0.5174859898303175,-1.0757135757563159,-0.8965640501398504
1440,-0.7597117319207342,0.2549466230964572,0.38169215565393105,-0.119902405154656,1.051585722300819,0.8902513987711413
1450,-0.7880432797081625,0.22267804739592917,0.3548423201433134,-3.362084080231197,-0.566429663990287,-1.0643729154847448
1460,-0.7846249436389376,0.22074578672405223,0.3586467458988928,-3.7632263768503864,-0.13083587377821096,-0.7596169094003563
1470,-0.7987370985505182,0.20476940063922133,0.34060294400192187,1.6166558858402242,2.31869526801375,3.059661913585042
1480,-0.8220861676612506,0.1860460565524482,0.3174936942821141,1.6540608753674213,0.16969257772911606,1.2751645304341535
1490,-0.7819790521106104,0.22666831675377527,0.3633885967434003,-1.743915320970683,-0.9298608958138234,-1.7617012721845982
1500,-0.7847203012703875,0.22168403585493707,0.3575179726772722,-3.624585031026947,-2.200383654128431,-2.781603823240997
1510,-0.8176001664688461,0.18741153838381847,0.3233427218041594,-3.293137233203632,-2.0131181886272085,-1.7500836094097256
1520,-0.7860657565669636,0.21633942407786988,0.35588144202793265,-0.7750918916545354,-1.0981695130105043,0.5300134861024061
1530,-0.77971092423426,0.22153824784486678,0.36351808773607036,3.2288109304198755,1.9723165728095577,3.9258385116941925
1540,-0.79437516956142,0.22042093687107148,0.35576656907715576,2.4705773441946466,0.735110703675577,2.1502704434027438
1550,-0.8028754703049142,0.2019389737722237,0.3419974846732989,-0.7904131972254621,-0.131429529064085,-1.2282634329495612
1560,-0.7887884456450588,0.21150057659664187,0.36005580832651285,-0.1561317540248217,-1.0622114779026641,-1.5769604150747925
1570,-0.7903080944001427,0.21281880516626378,0.3522558577061575,1.231283757719928,1.744088210799389,1.579567558316371
