time_ms,ax,ay,az,gx,gy,gz
0,-0.8187161833480434,0.15014555893677972,0.13516930506126426,2.814083096896008,0.7382126140532408,4.043786740065954
10,-0.8304054216450183,0.13909810142138024,0.12831266226967125,0.7031370183028982,1.5642264830711907,-0.5977201062213782
20,-0.8442899724011498,0.12402374224523185,0.11191752931824911,1.1162053117290822,1.9918857182569951,-0.5507129331580987
30,-0.7998761149697827,0.1661470696207174,0.15474153136588847,0.4611108517195111,-0.3346184312256962,-1.2535177197586365
40,-0.8213600757350482,0.14355475998324654,0.13387717283785497,4.416023190185681,2.3218661720256013,3.358486094041238
50,-0.8300443691486258,0.1385306841024435,0.12723273400218982,-1.3803591742847034,-3.416587869521371,-0.9392029487767446
60,-0.7899332840446192,0.189827993516759,0.17067554885697572,4.428705427022919,2.7281861766642246,5.646325562774724
70,-0.8188228538600736,0.15986594963659584,0.13542760125143505,1.1786342242616055,0.48678087160713135,2.4600214556186186
80,-0.8388912605750837,0.13386483614128333,0.11944215478739988,-0.8285523282870175,0.2334328660533441,0.01788218772865191
90,-0.831202568026878,0.1406926363340664,0.13042327372071202,-2.0546014642636625,-0.4696766353012275,-0.9543830367120945
100,-0.8464319511059519,0.1236921850586655,0.11480665616184763,0.7129459796597704,0.6512207870149931,1.7160982860850131
110,-0.8337357284957628,0.13583928271156645,0.12496367340768716,4.251759216129465,1.888265283924838,4.653772030919852
120,-0.8390162883958261,0.13976719041162286,0.11864195040175989,3.2851756813402693,0.9633849557873513,3.5929777369219282
130,-0.8212575327792597,0.15372966997316126,0.1380323832218895,0.7422559931460957,-0.021261299084394558,0.8004233125432412
140,-0.8162624324236387,0.1619413560028638,0.13257140147101248,-1.8733836323419382,-1.5106435611400701,-2.2119047779251
150,-0.8203499551379823,0.1533035839845264,0.13774094693615965,1.3682289409455128,0.6927899751560682,0.138689219820323
160,-0.8357903696258753,0.13926087214461713,0.13554828715834646,3.7721628745717597,0.4670157232500234,1.6990716650110862
170,-0.8479891425482333,0.13377547839803494,0.131667425438486,5.050066406389345,-1.6739179487589304,3.422659133847158
180,-0.8404686992675057,0.14691844381247357,0.14070038434283608,5.816144358536322,-5.1451063566156705,5.092926005384561
190,-0.8303593125215989,0.17442964601774258,0.13810168262526393,11.82707538932125,-6.4180142776607285,4.754467145672974
200,-0.9533097977864133,0.17302916178369876,0.21317538297149952,7.035484352907297,-16.104921088673134,-0.10818788845573457
210,-1.0491685449715693,0.24932145737351943,0.267922837250246,-3.72644990456626,-27.102040586972613,5.457173782114452
220,-0.9254712573313859,0.22710232471147856,0.31339960109625403,-55.01116017282722,-64.58175940603518,-4.983862440623212
230,-0.7743223329888752,0.15049837927997856,0.27129677089949394,-76.08005460495575,-91.16012923826382,-10.536791304423318
240,-0.7218039121382238,0.1819991479671796,0.16722484831090487,-47.892609861079386,-92.15239436488312,-10.208183255675193
250,-0.6093644190584762,0.3411054567166944,0.13228680195480394,-55.97058816091627,-80.07750448130167,-11.935909831913934
260,-0.5468234912143443,0.30036288346853646,0.10426424349576344,-49.80348878956348,-63.73203103068684,-2.721052618118722
270,-0.45276470655047957,0.3041542899095975,0.1416325907183282,-50.16093062733232,-43.26143514439215,1.2652808573391714
280,-0.44388807898978533,0.3065626974071404,0.2167754742965817,-59.15313642925772,-29.11258804759283,-1.257184178770026
290,-0.6166187650662137,0.17493374930220343,0.21659249002819567,-87.15726650191424,-11.822272972108124,-10.342611445331631
300,-0.8277586593880649,-0.0033265517294401824,0.16574698454423775,-118.0333480263484,0.9837722706077482,-24.921727192646546
310,-0.8291011125271814,-0.017077123853940505,0.16797742599523527,-98.05774753326901,2.7828510561984947,-25.128529967614
320,-0.7586727289630424,-0.028612685830672373,0.2665718860971325,-97.45181318623716,5.933030840465296,-30.560248974554057
330,-0.8169972870525589,-0.09056074516078079,0.27853708216557616,-105.99149230879684,5.112156624919912,-41.95271298119055
340,-1.1828534701288052,-0.18290522217350527,0.4607588395128422,-105.67519019556363,-14.14353608140435,-52.175501982150095
350,-1.254213328285707,-0.21665859612168775,0.250613613718933,-75.38030884670785,-25.187996214903578,-43.14756352980457
360,-0.9836521938017686,-0.09266255762514274,0.05440182593126866,-27.166746139427836,-25.333950621900403,-25.683011913687096
370,-0.8978877464911832,0.01943168406450219,0.40675357970318277,-13.242600858403211,-42.84855723807199,-37.81364010547955
380,-0.6878020073528277,0.016334840367094962,0.3693016915812455,-33.28618195348294,-29.94471290599669,-29.699573829788264
390,-0.728015763475009,-0.17122576723762165,0.04911274423302094,-36.60053241718804,-26.558384685466986,-55.75319528826003
400,-1.0041148953832848,0.08576342686776148,0.25598377366761443,1.4252826916862211,-25.76897466401167,-35.109180962269676
410,-1.1397235424445449,0.263488798204074,0.27837321428339407,35.2687405429546,-16.418269785627842,-17.442523220889854
420,-0.9397366258039377,0.18358491478959194,0.07679250778570992,56.65245851682654,-3.838287492431789,-17.338493556294846
430,-0.7335411756077966,-0.07233538286770919,-0.07421432130308812,78.7028501142652,2.54326565026152,-21.710942370742806
440,-0.8397023605247651,0.35234498583656315,0.598785424381476,115.39802641469541,10.541077071273968,-3.2040033626503437
450,-0.7198849784181228,0.1445244528515541,0.12534649123928296,25.812805828713014,19.39502408260341,-22.069611490258314
460,-0.6744918135835123,-0.1725029407197019,0.029507684410643314,26.74377055201161,31.85877971899095,-11.068581721578504
470,-0.7600580279111119,0.22836657501552662,0.047397206111754964,60.12535230626548,44.64365699491624,19.933357270324823
480,-0.853859837753896,0.6173972803493841,-0.12420326972555135,90.04497914799917,60.148905389595726,51.02865247844953
490,-0.8347910505190183,0.5538949823502711,-0.2888857330593197,84.02895543115045,67.53211317643449,60.755918954248706
500,-0.9032469281593914,0.34652336998894545,0.0240139373031478,48.93516388491648,74.30318674529342,67.95271099797372
510,-0.8193316933905365,0.030177747950771515,0.5423136585089752,20.866047902587315,79.24862039756142,76.8479772924332
520,-0.7891871423353067,0.07877222786034785,0.6820885991704434,-27.60803408414141,59.677749612935095,59.368198088366995
530,-0.7390536687304721,0.31133693411068625,0.41778016446614347,-49.62628351977919,53.33116494953468,64.1631047606375
540,-0.7123452836653472,0.29171541372959675,0.21880198451037888,-63.873835118855965,51.91426429489445,75.82509625290402
550,-0.6133026213089525,0.005605987522215337,0.12454612011989817,-67.32005215449925,55.78200233261403,81.94884013611039
560,-0.3989986471180343,-0.21093469672694085,-0.15370109995202466,-54.22072378783463,64.1054526854369,70.74779570884874
570,-0.5229496649244865,-0.03655845407063384,-0.0634398430093534,-66.45445220456317,71.8302826905842,38.407450696469226
580,-0.8499031277184532,0.17542027887822703,0.006701151612919973,-74.69500636356184,44.37040933648806,-2.659211206847731
590,-0.7501967093490941,0.18482209924976747,0.2825451629539652,-6.210177416124154,13.215801322927732,-9.20698397860518
600,-0.7232187264603133,0.16318511137774044,0.2038925469238157,8.448250511036514,-1.811433471848897,-10.304432592036783
610,-0.7769727995480281,0.11510643016971521,0.03941660220595579,-7.583247831205324,-0.4332533944079724,-13.524130725919115
620,-0.8590234517019228,-0.11916521395760352,0.06595464186869851,12.994506903120199,2.872357691327193,-13.357399597370893
630,-0.8251219224343297,-0.06635174845380079,0.12077081845425462,24.80957536124758,5.927833895044585,5.793287978973876
640,-0.8979753993057046,-0.20585742091930048,0.035619647260576065,27.54751486453695,8.297371338074635,5.59259520731468
650,-1.0350445657479754,-0.31410454025219614,0.134460877341894,95.60147111479974,4.244313363608137,-16.936482449755967
660,-1.1299838157023967,0.1438299391945832,0.5047650779285383,137.62424847294176,2.2261750130598856,-18.47393480547199
670,-1.1574359505794074,0.36812933764757744,0.4449529138292666,137.75950760537845,-1.820604837402048,-6.706805343037221
680,-1.0749573402734403,0.1766397285929222,-0.09599546758117727,121.53882857844185,-4.201113332819272,4.161644037703935
690,-0.8548105503939096,0.702975338857579,-0.03474072013671271,107.3237618186501,-1.407926564263807,4.441851972256115
700,-0.5890847883918187,0.1854838911798603,-0.17403134973428785,45.12488172239626,-5.597841625135181,-3.1830524905593176
710,-0.8028128364180541,0.6086177638225565,0.17381708959702064,47.605699887106134,-8.883061914699267,19.404190923576703
720,-0.8623073084644425,0.43440248586913716,0.197619317797961,13.466436272065831,-3.8803682248606135,8.414874217873239
730,-0.8428835860602609,0.16775803849101928,0.12467564340408802,-8.606767949857536,1.646692896076127,-10.62339123476266
740,-0.8387726250637862,0.15023963688205286,0.13361513670943162,-6.727956370944969,-2.8298949656408716,-24.452242088444336
750,-0.8200908565371633,0.15965698241222548,0.14695930824967482,-4.4209082697042295,-1.9290699317037303,-26.062957664866758
760,-0.830595845753293,0.13780021860340796,0.13434857928267308,-7.464008301319117,-1.7600138946332295,-26.741238936918354
770,-0.8359299429247663,0.11808671523758911,0.13378399371792057,-10.593483357334957,-1.846748393657872,-25.87397755272524
780,-0.8152293306582744,0.13554078259211,0.14416692267354123,-11.274927014463572,-0.9563261641493097,-21.314145041821796
790,-0.8089743385642265,0.13685335243231286,0.14663108100607164,-2.512202284146441,0.06606201833312553,-1.879204380583283
800,-0.8184378630552601,0.1260377787025643,0.1428856174497001,6.298067822833411,-0.7796682641844475,16.59086776853123
810,-0.8324138945869171,0.1253086550133674,0.13363522794673616,8.46222214064278,1.0102982135584808,19.64863920707814
820,-0.8030276985297193,0.17202960609280216,0.16235060557621478,4.015171922677254,-1.1680077097652353,15.289638786026098
830,-0.8258567832904543,0.15321350190764357,0.13537723621686906,2.9139477185062486,0.45688995144038785,11.494903414779616
840,-0.8486065464596688,0.1323398337702819,0.11655224140963603,1.386123206655804,1.1327926664450458,7.294071942661521
850,-0.849813534874101,0.12411255534925585,0.11724254221847151,-3.0220889361904755,-1.5149297433855262,0.3325802050352096
860,-0.8238568878527938,0.13747349219958713,0.1429847294389685,1.4807944338516625,-0.09464235185687042,-0.2971719430149985
870,-0.8207641912075591,0.1355398896642306,0.1468925350750135,3.5943532793583612,-3.8322408608380396,-4.4018391206768355
880,-0.8034166026105062,0.171992623609446,0.16629705929178126,2.052931468508814,-0.17618370697736374,-4.255518984775561
890,-0.8080898668753751,0.1576721811268201,0.15737115698769807,-2.010255616533159,-1.5527054572226417,-7.457616562474598
900,-0.8313268741228379,0.12869928774589198,0.13620980844772967,-4.231488839825369,-0.2868688510288338,-7.416445977625703
910,-0.8139250473826837,0.1424574020893708,0.15200146921578644,-4.992659398109419,-0.05022623241075386,-7.079468716175255
920,-0.8164264696952915,0.13265818351327094,0.14536760981085825,-3.2880844027345524,0.07817232092623522,-5.32565167920438
930,-0.8280024114445114,0.11878912395128834,0.13311328147836135,1.913977190885027,2.354674991416972,-0.690552980595522
940,-0.8255836226372701,0.14016026752404523,0.14249318610111436,-0.42935980133142126,-2.2663187651463432,-3.955980709314641
950,-0.8428442248055115,0.1263697260810944,0.12226181661011676,-1.8919003293743533,-1.2755506461140564,-4.895686932950133
960,-0.817076048226074,0.14623381490901355,0.14798069142773704,-5.086432955303476,-1.4352238896260217,-6.642624709026515
970,-0.8083943023029356,0.1448053924698981,0.15438270409736354,-2.3673314694976906,1.7265693939775424,-3.206409366114107
980,-0.8102860311758601,0.13850093538368688,0.15460708440562995,-3.6005804948140847,-0.9060193106739776,-3.9709249820045383
990,-0.8268583755422333,0.12387139391495974,0.14148246579500276,0.6511792147263047,1.405300259364182,0.8439317234933137
1000,-0.8203370314419121,0.13255270087225968,0.14587532998896172,1.7707109208442118,0.7969633638260811,2.2576098593505334
1010,-0.8090336808580401,0.14280034816304016,0.15642579153033906,4.506276009027296,1.1086477475334306,3.453556856127522
1020,-0.8359989317977685,0.12148536448940431,0.1348562273294944,2.801348404007393,0.5274955057313272,2.2489221905082744
1030,-0.8228120361516216,0.1364002858147016,0.14857085013574187,0.3809664910942992,0.22108271804335256,0.47459597775286383
1040,-0.8515766162480728,0.10471658376584583,0.11524121916377064,-0.8045074246613824,0.07288978092074812,-0.2253629972208624
1050,-0.8301490216833295,0.12088170911457455,0.13322759117222752,-1.0104336826608193,-0.8230487742366905,-0.5456164694172936
1060,-0.8277748850831109,0.12170921106601841,0.13646072485961985,-1.9975694223618112,-2.9572070021647496,-1.946578156869932
1070,-0.8205649135237684,0.13983194333419147,0.1413789910833021,-1.4500047188105902,-0.9845479110870197,-0.5896305237148485
1080,-0.8149510367777097,0.14303437571403171,0.14784286144393805,2.1990286397785175,1.726314726741532,0.053760933821138
1090,-0.8024234358992285,0.15561908258376145,0.1592629861079447,1.3786058391201004,1.0462579811121893,-0.5934796364722323
1100,-0.8044826356261527,0.15140356960266105,0.15592215471591422,-1.9050272344429249,-2.149215327159156,-3.501279505009494
1110,-0.7975524061612006,0.15644886013998632,0.16520416305516794,3.0643712263661786,3.6569264534529973,2.130301579357621
1120,-0.8265604967616069,0.12546984894159166,0.1413965898048977,-2.279672321758463,-0.5793268183618636,-2.1392337913048314
1130,-0.8487781203888283,0.0972127735467505,0.12036004251834491,-0.0683970879251683,0.7400714845286618,0.7351821200167304
1140,-0.8183607987340967,0.13259320659017756,0.14228827218999493,0.37536056133047446,-0.743152965610991,1.450611807109464
1150,-0.8298293649077616,0.12141001889641315,0.1408077681800663,4.919184856446634,3.1430784656575295,3.916583336695346
1160,-0.8177786084501858,0.13504445392857167,0.15089638220117169,3.228171218651509,1.9535643652391368,1.5204633932780798
1170,-0.8243216298432554,0.13290691740888533,0.14266762843030945,1.1651179442190402,0.9169998267627761,-0.036530199848702594
1180,-0.8597555275587739,0.10006373005125654,0.10975301032925458,-1.371655289472256,-0.4977658828097228,-1.8604981732662478
1190,-0.8288460695059201,0.12657694045130685,0.14068494861182146,0.8593431381666372,2.7716387014461135,0.5221597064622796
1200,-0.8216207952632115,0.13141543720798332,0.14648766552235637,-4.222299260439807,-1.661553037964179,-4.260467844828446
1210,-0.8448255953606464,0.11050719142117685,0.12003054608772346,0.3001516426296589,2.5078388998437466,0.2104879375395543
1220,-0.8199367177131782,0.1312110688244751,0.14625517724090611,-2.205518860946902,-2.662542960427431,-2.500568617616569
1230,-0.8247179015518238,0.13026763149778492,0.14318411437794043,-1.6915283170478967,-2.451539334389539,-1.7977002332601495
1240,-0.8191996072680617,0.13967882284529282,0.14829784870195828,-1.3234129633047997,-0.6020026873176159,-1.1125568696918835
1250,-0.8370676529850698,0.11605718957049906,0.12831844688047886,1.6810543371974207,3.04311689792095,1.9706015527857548
1260,-0.8298228172651807,0.12278682441932022,0.1351262999059291,-1.0859559114070805,0.05162303458055209,-0.541695137978857
1270,-0.8263871877876734,0.12412993112735765,0.1387896568563357,-2.530458186836163,-0.45581153166300037,-2.001308946293936
1280,-0.8278550112564749,0.1287157094897481,0.13575680598440854,-4.8330607742911145,-1.6995949865533082,-3.582880240025233
1290,-0.8083395323121187,0.14457550076272035,0.15699476585601743,1.2082150192566,1.7258474050603154,1.635343013485954
1300,-0.8152478382206946,0.13373064604061438,0.15088203880114093,2.1131776602177785,0.46291251532569666,1.9217727219332994
1310,-0.8225825797775781,0.12854981258073953,0.14302634499353703,1.2751770291079123,0.03306760315229568,1.556636269257013
1320,-0.8258779913212236,0.12343793609179529,0.14507299698983378,1.1040726361201871,-1.0559345345571542,0.9752424867161027
1330,-0.8436160307574319,0.10358853313789215,0.12408791047192883,-0.017028446260178853,-1.65877531023235,-0.20384168232689537
1340,-0.8236636231285143,0.13202755881667097,0.14582488699220525,-0.7632556302901898,-0.6441745696692995,-0.2696455166041971
1350,-0.820609252927853,0.13735806920446256,0.140888243301334,0.30672017867526646,1.202667073764701,0.7433589855144767
1360,-0.8440997288667073,0.11278852368628656,0.11427317706220044,-0.5513845295063309,-0.5409776998899672,-1.722503764000551
1370,-0.8460384790888017,0.10874270489653504,0.11738940483832189,-0.2534262413740598,-1.2726876361100223,-3.1263225123714014
1380,-0.8234768492964007,0.1269503473137249,0.14273775955125606,-0.20269315651524628,-0.2350735662712793,-2.467760970349841
1390,-0.8444768491005192,0.10047039860466095,0.12250568274693929,-0.7731843665888851,-0.30888440544093043,-2.0152651644519306
1400,-0.7881140059397393,0.1576544747101667,0.1793642505247319,4.597031588827451,4.650250213796234,4.620626041004655
1410,-0.8314794270283251,0.11948935434526992,0.1334577992027098,1.9518172155052473,0.6087875940885003,2.6994675977238005
1420,-0.8217089228992703,0.13132901833971272,0.14220058365075203,2.3547249700079815,0.4326930892141592,3.034144030236008
1430,-0.8236334457051595,0.1275179442672723,0.139131076168171,-1.4321290453834687,-1.9019414913204784,-1.1913670926713822
1440,-0.800929831280379,0.14818298182582312,0.16037255650163623,-1.8653832396593601,0.11346204540149646,-2.0173604357901618
1450,-0.835681773288544,0.11464846891448444,0.13727340957535134,0.13754687168156485,0.5295602820326893,-0.9120126485991462
