time_ms,ax,ay,az,gx,gy,gz
0,-0.7669274596467753,0.13942216883756772,0.2990415546420862,-0.13332546873919496,0.2936294518131055,0.23686158443090932
10,-0.7450507821463678,0.15951521636182395,0.32444102962504584,1.098581914111611,1.1270169517203077,0.760995515890666
20,-0.7210539000281329,0.17385651356422155,0.34318765207270446,0.5676754764007615,0.667226808977478,0.24408841513425933
30,-0.7280282052533543,0.17489231634958974,0.33997398050787453,-0.23493873336873103,0.007958169048575991,0.24174944671075926
40,-0.7227379786519995,0.18241623854117298,0.3459822005897606,2.038178881931267,2.226996790067722,2.9651441697401064
50,-0.7405732755842405,0.1683187191114633,0.32916966500102185,0.06948491764840975,0.3341580867957953,1.2711610354480345
60,-0.7368976946008237,0.1741901103100433,0.3323467434647272,-0.9430365855819676,-0.737174887281334,-0.03379596115245809
70,-0.7594682564178522,0.14653225270949705,0.3059648288974434,-2.042924813973157,-1.9840383263812518,-2.0121768636120994
80,-0.7619565881689662,0.14420021444713094,0.3035554993885407,0.3976961507925088,0.977971799822583,0.257654337943903
90,-0.7396554442996972,0.16925458424632847,0.32536840748378626,0.2790466718607736,1.124642911693638,0.5079623862897833
100,-0.7515266030940924,0.1445633214818343,0.3138520278411354,0.6969547860460893,-0.9042606871117693,-0.9992331934721413
110,-0.7263000953200514,0.1686338865275895,0.34120130716045255,-0.9042868211722666,-2.8271381887331897,-2.4314782628053155
120,-0.7409712916378415,0.17119817231957787,0.3379670586683011,4.762753372946733,0.785892979753485,1.4292339525349775
130,-0.7709803343101865,0.15563170830055556,0.3250611158889081,4.873564849568168,-3.4374696619246445,-3.074906903698839
140,-0.7949274915623644,0.20563903567447966,0.42041873528527923,5.673613392677352,-16.02828845661275,0.5477776426345645
150,-0.8542676595231276,0.15633338211963235,0.4561167134166599,3.7342690698396708,-36.36617801245494,-0.7181525803088431
160,-0.7956142374751062,0.15482972391994435,0.5144951646713355,7.346746169040522,-48.51611003371361,2.2327482297801415
170,-0.7277724982664764,0.17710089602581713,0.5662655612995348,6.691410032918594,-60.22316430086535,7.798998050018375
180,-0.7233473378076178,0.1486065275391241,0.5908890509698786,1.1855876094140991,-76.80054195077156,10.308700247243248
190,-0.6739941103314477,0.1762160741482556,0.5868674326589367,-5.722413268742683,-94.41124861850025,8.401299002634122
200,-0.5492542182001499,0.16748482927108643,0.5793165106940301,-54.15605716082527,-106.79097154791174,0.1975823001520962
210,-0.43328783660083253,0.3396202691799446,0.33367353387378174,-37.68416487591869,-83.56372309545435,-5.369558283495502
220,-0.44634780491902015,0.34380533727568446,0.3551231993043679,-34.45720297717654,-75.55229483018324,-6.159107956139737
230,-0.5044237705488315,0.22801551448329152,0.380966079267776,-15.086394840654885,-63.931838364014304,-0.6288243213731022
240,-0.48069269411596094,0.16578767162359898,0.41025738742093343,-4.710674249352652,-62.44668069459391,-7.694382021973513
250,-0.6146903626608137,0.14075799777548884,0.33689431369135703,-24.41984454900998,-62.15265384163048,-20.635626397593203
260,-0.7228657238155718,0.1941889505953857,0.3106166108249243,-64.97840967429697,-57.98475483439196,-23.633389397243842
270,-0.7492736368695284,0.09505562437657518,0.3992847094253997,-100.9548122025725,-51.66369595331571,-13.785569207574113
280,-0.7359062591854001,-0.11097062453663617,0.6237431846658774,-106.25328352585451,-36.078216067961485,2.297889577281522
290,-0.5565960243458039,-0.05386693932417595,0.48223389028528857,-81.2243506964668,-35.69444594782466,1.5971455163479287
300,-0.5509312375578953,-0.2103263413541702,0.46569712973388144,-71.74306994183378,-38.17573141509847,-0.9875919540163306
310,-0.5415336434922762,0.021499593937377135,0.43472077808367493,-28.969695811667446,-22.88868436063174,0.262702748482588
320,-1.0309623497641538,-0.07444297858730563,1.2047024622571036,-64.00137966637035,-38.51761605998094,9.197952203712607
330,-0.8610918026329933,-0.13948611240517605,0.6934706300442536,-37.86703716906116,-31.723120140889687,8.013163644360592
340,-0.6982621844380228,-0.053211916838110045,0.25545194201838767,-7.058617980574693,-23.479990803222506,-11.880151099316723
350,-0.5261825630563303,0.23248475720803735,0.5180958370698854,3.95970930514455,-22.165303384461435,-28.264313780627162
360,-0.4965927110010946,0.3370747652286484,0.7337488524324719,-22.645236076650697,-12.561229505870065,-30.274016164287307
370,-0.6259642375525523,0.1493530653196971,0.6058658677589362,-67.19751885955512,-8.180872155387153,-42.347735628464044
380,-0.5480878899418603,0.012934419070817924,0.6931128102952383,-32.42501070219436,-12.122628175068668,-53.750811847951915
390,-0.5252534827304718,0.006039211567221252,0.6433897090170819,-6.725345199574019,-1.3449552147486767,-50.17884696419781
400,-0.5465218138388341,-0.07444355318524545,0.6186300258895481,-37.91029244991653,1.1804242255661261,-26.7477133583711
410,-0.5951323235014261,0.29969771190076494,0.7320789434473967,24.49872431811317,-1.4594120345274657,-13.203821831694237
420,-0.622341181468893,0.20560646357270307,0.683701566233394,37.73451219351854,1.2644566907230697,-11.77086549524484
430,-0.5444886036203265,-0.03385091970277931,0.6336532519683156,43.12000590267103,14.273600322292706,-3.361233951726439
440,-0.5079670410261612,-0.0717889670891363,0.7812764722828374,72.76835190183648,13.219732407544363,-9.45774908109963
450,-0.5492194941409756,0.010949290105798981,0.8247983721188747,91.53757114745109,15.89025009038576,-14.184273536643811
460,-0.5774492517897154,0.07476433428285408,0.6658923735685895,92.53070457081853,22.734099509257792,-11.843578901638574
470,-0.6564125237593951,0.10332417644864775,0.6019023535489609,83.73476465506748,31.99449205260095,3.3855607105818075
480,-0.6924947246868182,0.31009646374681255,0.8797624820572878,41.14782729544692,46.92558992793607,30.954975241556532
490,-0.7648802948818345,0.12672878380234448,0.2377538661327137,76.27948227376766,38.61758460617513,27.837214043137113
500,-0.6271093810818998,0.2791903019509057,0.2775205633327604,86.48977718459568,34.625576218717654,24.991398662722993
510,-0.5685087247287968,0.2839261571833943,0.6523882191744356,62.737873594629576,37.482838371577515,36.71570468089045
520,-0.6073440580404975,-0.04795021791337524,0.4247421129156557,105.82506289413557,49.18968194984335,42.715564784842776
530,-0.6338532605071285,0.1669700452791573,0.41267145324441556,46.845622621202985,46.99786867518501,47.69706484862177
540,-0.6818151887116608,0.4001587259510247,0.7072447358430156,-9.518564544931255,49.364234552041026,55.36310345961465
550,-0.6167523836966157,0.17297950964443445,0.8066318511017773,-2.8263092156508964,49.27581649222934,52.80627225880297
560,-0.5258540262348208,-0.20809194104105877,0.8763508045900427,-3.072682671298349,46.924499446287314,45.21933244748501
570,-0.6328117954126282,-0.1879892395842997,0.872244337082443,-55.23343951520229,49.56773789672501,45.365778377209594
580,-0.8315268829261122,0.14348947716596958,0.058074165799794845,-69.50582235862245,51.39477073473578,49.00249237631789
590,-0.6604165533263686,0.2687857361083619,0.2935731764394989,-52.2399909632806,35.34736377503703,34.23545387547373
600,-0.712157551526264,-0.37103247023066566,1.033626465001977,-42.99467012305862,14.052373116837547,9.681461709319422
610,-0.5904582042010812,0.10211834346775893,0.5558077299362872,-45.69943848585233,19.75532829972983,6.705145743469136
620,-0.668311820146117,0.0035804437040330463,0.5164050407808923,-28.956821943158154,8.16449828279524,1.2610379226717539
630,-0.6688905412661267,-0.0178920862289254,0.5332796195568185,-14.305715254651922,0.6609355149966138,-6.307871102423626
640,-0.6680095460541409,0.06728286138248664,0.48845612526274673,-10.351520449097643,-1.4356094255072827,-8.990920807061539
650,-0.6871888879926639,0.08846714400421417,0.4518663581757531,-7.261118967789571,0.6053733693706795,-5.2838786961590145
660,-0.67433783896153,0.04957395978585287,0.4715707507573311,5.110504750339597,2.9125727784699103,-0.7183204402607782
670,-0.6558477986087845,-0.08549890003721894,0.3030595449143577,11.815323878359187,10.19278086380004,-8.870849838714571
680,-0.673880212718676,-0.374274206223764,-0.1375632022185147,-9.013503619054353,20.293484352610804,-45.041462089794216
690,-0.7565660549137376,-0.22186038024929625,0.2451667003727296,44.53794217513732,11.526477626388287,-48.08641125989302
700,-0.8179983236089936,0.5241580504779747,0.8511624144055187,89.2787710865922,-7.462584546251906,-40.77751221078946
710,-0.8189634754139802,-0.001211204752824463,-0.31170567644210334,68.95142289450159,2.2241754071406064,-35.066681828597254
720,-0.7705496527083117,0.16121228000395615,0.019114973793720874,69.76289428034339,-15.097452200373512,-31.869083350655547
730,-0.626100754518051,0.45719807999159934,0.1521076497401134,47.09558070912128,-10.9156320334951,-28.083896721518137
740,-0.6194911033228785,0.613668747236888,0.2787815653542646,55.422346769750796,2.9468256741572256,1.4252770457777544
750,-0.6902838841275,0.5144365544043044,0.3790695352182032,47.3518907184188,5.37771653259406,19.030800503514318
760,-0.6857196202053049,0.35018715196511707,0.41617147885238237,20.486942784356092,4.493292223301948,12.751104711599428
770,-0.7106169189446477,0.2481843146886256,0.4180789356649635,7.872087871044123,1.3412134791740804,-4.415513140068063
780,-0.6763080057283752,0.2525978292828569,0.4427881273009502,-14.23870882550783,-5.625608211839602,-25.002678699573117
790,-0.6830350931685487,0.1939223814115928,0.4355072503231024,-27.918228808340487,-9.212895255263412,-36.882719396589664
800,-0.682604441711688,0.16538518162019722,0.4432256303966714,-29.892917770870127,-6.51518476385833,-34.750689102278656
810,-0.6934339955188937,0.08973658630640499,0.43827551610403115,-7.513266178076037,-6.1759832598743305,-14.783461078139553
820,-0.690571599352566,0.10393569820036909,0.4402435533366356,3.4575986146805384,-2.287294402130974,-0.9430905178200417
830,-0.7003521967312732,0.10966791094484753,0.4327924128209674,6.1978627180392465,-0.36127077307382405,5.199490743769126
840,-0.6874431460320617,0.13948257217272125,0.443776179861057,5.938218871637394,0.42639127273801536,6.401052135376098
850,-0.6509238879558686,0.1916920477161058,0.47878312514950927,0.01996182479312436,-1.5992919676601982,2.656338996606577
860,-0.7062339504601229,0.13800188687282638,0.4250934555158695,-4.5910505339687795,0.737776119877166,2.228123605915436
870,-0.7073996201084053,0.12006118770183759,0.4230203695387273,-11.323779471500812,-2.642007236760195,-4.73802358604536
880,-0.6912022527976238,0.11807798227959496,0.43467763419845734,-3.499448159028744,-1.951653881171975,-7.235070686520995
890,-0.6818091755019696,0.14419942779747846,0.4381698204673435,-5.941332527560599,-5.048117536780316,-9.657859439761856
900,-0.6862208245802551,0.12887866580577492,0.4473499896182856,-3.7642272475184875,-3.236254713567421,-8.73501418848929
910,-0.682187753870932,0.12917649182448399,0.4612911343346852,-2.1804468786552773,-2.8223424319720904,-10.855365312427484
920,-0.6651596110496246,0.13054426346942846,0.46894122305246067,-3.0575958076814658,-2.804231031278559,-11.536508668830532
930,-0.696220024634452,0.09837172502574763,0.4399284550019389,1.1163993145506392,-2.531898565395875,-11.620495459084195
940,-0.6627363587631286,0.13562687160729558,0.47340591094272394,1.8451109627147666,-1.8914949673003048,-9.577272335058048
950,-0.69732953230701,0.11068091724676536,0.435539625766781,-2.0597306170193264,-3.1317569179477824,-10.475012954808657
960,-0.6667004687292168,0.15219862792269348,0.46723843316872044,-2.693262618910658,-2.8153364561152756,-11.923522655511592
970,-0.6775999493465108,0.12927081486211642,0.4609696042510543,-4.488183694223563,-4.915509484449978,-15.636153108215698
980,-0.7133810503354685,0.052093100037776105,0.4287154845513655,-3.42241032820962,-5.794173409092563,-17.1558416634808
990,-0.7165455767642984,0.045631311556281334,0.4299017874162308,5.062704690760351,-6.264364083972907,-13.70031838324595
1000,-0.6749101159815245,0.10354648987471002,0.45475152932806573,7.594448765617341,5.668012572196532,2.6640868506121347
1010,-0.6758718888550603,0.09886054833601852,0.46193074292427416,1.5744274799652058,-2.826878855271511,-4.252861136463339
1020,-0.6944851072466319,0.09148254551718846,0.451712486568919,3.0215373360217828,-3.952111857688412,-1.7943534581348712
1030,-0.7004956905501631,0.0799052825066978,0.4459399893276339,3.563644767894284,-1.972723432244368,0.8348511765245722
1040,-0.6968343120333429,0.0859531183026127,0.44063335691705807,0.04878963996674357,-1.616111964459669,0.41747715633818666
1050,-0.6851885772637185,0.09488603137853657,0.44763912722780086,-3.030615619929455,-4.301560709829174,-2.7696201998073313
1060,-0.6498993874093163,0.12341818200033226,0.4871637564169385,0.8451362678531771,-2.503294151364175,-0.5536935818999243
1070,-0.7013704146395151,0.08487755695928483,0.4382594700328954,1.9879975571571742,0.24407186518491106,3.12217494336964
1080,-0.6893288572015538,0.10847303194494162,0.4485606628509039,-1.5064963544022003,1.105654809773484,3.5161824453195574
1090,-0.6849145761538034,0.107011529256828,0.46067653980930506,-7.347061938197133,0.4211953779149623,1.0540819404892963
1100,-0.696892900043025,0.08857167031402384,0.4494897859393975,-7.00464360766973,0.3261924652214794,-0.21086776633542603
1110,-0.6603023417973791,0.12060987022834509,0.4745247016984422,-2.029337237479725,1.6425846770247279,0.8689539860196289
1120,-0.6962495310639597,0.08401627871028174,0.4365499759488213,1.7962606941732595,1.4130246452115096,0.43724207979034024
1130,-0.6987114410037257,0.0855904278763791,0.43244976265194435,6.20853515741565,4.419452524806015,3.6769952892764755
1140,-0.648247921088418,0.1375611933037396,0.48672560513929297,1.129322231755674,0.02652249986249508,0.7949976456751425
1150,-0.6840903270190092,0.10308387472709366,0.45328912280675965,1.0683380170774144,0.5460508089545055,2.2694321641425574
1160,-0.6757696067613872,0.11666965331317972,0.45934055422781184,-0.28607135321924815,-0.39480802224984235,0.607394458799936
1170,-0.6753781694868402,0.1226862413888222,0.46048251129720985,-0.7039949000228292,0.5294505827439092,0.5840004567303795
1180,-0.7140976826920495,0.08298150596043358,0.4244999837825766,-3.2214410112995213,-1.096401827104689,-1.1570081312067835
1190,-0.6925736438524521,0.09166182233186677,0.442173734780569,-2.6849839393724357,-0.17485481739317565,-0.5149368946988531
1200,-0.6664807564903453,0.10680983860855393,0.46781063203631307,-0.021232190124583328,-1.2244471568480848,-1.0131541354129507
1210,-0.7019514721629093,0.08835148731384711,0.4338814063245535,3.5856847928892757,-0.3760100073826428,2.2383680949838114
1220,-0.6762616641907464,0.11817855113247701,0.4588346729119273,3.8874211160932903,-0.31108154222433987,2.288595881679238
1230,-0.7031017959717175,0.088414443610917,0.4335542303351808,4.540098352165504,2.651319265983957,4.049220550287944
1240,-0.6790523071926723,0.11992336759363016,0.45126933418590554,-2.2977449919292323,-0.6653025909542276,-0.47144597019397394
1250,-0.6873665907252238,0.1133927630925923,0.4450814621061672,-4.502141625028853,-0.3087651435471679,-1.0647364764620015
1260,-0.6892367159660941,0.09818610556928968,0.4517996187945053,-5.921519271238924,-1.460643766584178,-2.7245216462693413
1270,-0.6767376205038544,0.10469818480016123,0.458359923431063,-1.2263910438399364,0.52857350278165,-0.5693685925101084
1280,-0.6782397838580477,0.11693850179161988,0.45456939862969337,3.034476060713229,-0.4820965680291054,-1.251256600224257
1290,-0.6987093967370156,0.09480885272487538,0.4328020314995151,3.4664096962092006,1.439374512995875,0.794201317900698
1300,-0.6750653380825637,0.12140822481246254,0.4581002323516684,1.341755109927881,2.5128105318925673,2.175574660240451
1310,-0.7002752897175015,0.08462969700679507,0.4368340055176,-1.2468103561658297,-0.20572769993201712,0.2732070384882592
1320,-0.6864004886465029,0.10917411303727398,0.4490071302532904,-2.883609294109445,0.5814443417656894,1.6091217358265482
1330,-0.6877522523769857,0.10769851494088299,0.44641929894619725,-9.000622393694648,-1.4347986644305957,1.2521922503659146
1340,-0.6912539293570944,0.10234003791368398,0.4453473049187614,-1.4417714013963097,2.8369584732074404,5.814306425065847
1350,-0.6808120547089319,0.11346713860330711,0.458644789469742,2.4098100329303005,1.3765349273938043,3.356541311868718
1360,-0.6689151701989846,0.12583557845887855,0.4701846870373835,0.32807309033377385,-1.39861175576966,-0.5935933656245796
1370,-0.6993401447133272,0.0986247601268713,0.4379528822340062,3.3892561173457696,2.670134781959233,2.4272745922776124
1380,-0.6871580592646357,0.11509111175182897,0.45058195737986534,2.2573321413680683,2.9983229041413995,3.029634741452922
1390,-0.6801715647001094,0.11529508185325127,0.4523317878415027,-1.8210280365596827,-1.5698307076762494,-1.9037046965924789
1400,-0.6927239727711868,0.09900174702002558,0.4434394300977124,-1.0656255813640407,0.18198275991485927,0.5041026140690353
1410,-0.6742051519816239,0.12269787139737162,0.4648889416750564,5.809073381577664,0.4125348506285085,1.6162383641991307
1420,-0.6626996567985463,0.1294456368034066,0.47133288582872424,8.819211483822212,0.23449671391652457,1.9600364468959606
1430,-0.6542684439801608,0.14199346889612385,0.4793378210412562,12.005518314148256,1.1037738956798577,3.130512334108488
1440,-0.6586185173890826,0.14242424316964603,0.47612244951640387,8.812588558655786,-1.2554332576065093,0.6394363449180065
1450,-0.687078915828382,0.12188056201856583,0.4459353706053581,7.350355561127031,1.3211395010901241,2.7563668320846535
1460,-0.6725101452748462,0.14030323483678628,0.45768198019501294,1.515342997072876,-0.3542875531601587,0.5418308904744649
1470,-0.6936439132040715,0.10661528615705977,0.4361038030528261,0.5435096385079081,0.4274170703422449,0.8106456685281904
1480,-0.6708507155447766,0.12787290290833642,0.46065565147361714,3.5868115771005167,2.8412849631239285,2.846608594934129
1490,-0.6947727917386667,0.10518788713981621,0.44275283767292756,2.1683165138635747,1.20340671053448,0.6929971458163063
1500,-0.6680287507614026,0.1378310668712785,0.4646272416860438,1.8890161766776665,1.7833732776586853,0.9749384123352887
1510,-0.6487377994859542,0.1599428876321657,0.4848135201073095,1.3890371332532745,2.6245133561401532,1.5854185132843168
1520,-0.6841312431682971,0.13066033366012222,0.44799999420391795,1.688026538351819,4.061807119411043,3.4947504946579393
1530,-0.6639336808160144,0.14587178666068432,0.470184566136719,-3.3589707895438043,-1.1636447857421415,-1.6490839402714101
1540,-0.6835932679815436,0.1199725377477584,0.45192002888067156,0.3068155729844507,0.8459478958288255,0.7657160782408603
1550,-0.7046808483881289,0.09630260534972293,0.4310678602682522,1.060120479597682,-0.6379108751080376,0.05133198939720707
1560,-0.6787061193497131,0.12532350882383686,0.45659164841293787,2.4284114272774,-0.6437477001474258,0.6314859145273679
1570,-0.6664352912335013,0.14685099139362076,0.46701264799293496,1.849794080335585,-0.6098691420409434,0.7453361155014456
1580,-0.6739291418102832,0.13909948992615717,0.46081805235448775,0.3424211982234948,0.15004908883771317,0.6670805868072388
1590,-0.6670668505004255,0.14242759845006545,0.46420824112986303,0.6470423200248389,1.3615743383430225,1.196210707018925
1600,-0.6955699266620999,0.10964798674267069,0.43473037227843053,3.400296382506679,3.1499022233724885,2.3255251746130225
1610,-0.6911228836890545,0.11795110604785998,0.4477059690989933,2.953976047965951,0.8186208443528776,1.2472642308129211
1620,-0.6931407489771519,0.12675616395115638,0.44552804330153356,0.5418032729457386,-0.23972591051158423,0.28167814980366346
1630,-0.6785286254722761,0.13439641701779195,0.4634883656423163,-1.4868185792133781,-1.1409023605394555,-1.4788911544565875
1640,-0.662232988783518,0.14435378092894488,0.47697884582746963,0.0019335849696064944,0.6528665527720285,-0.40312921243112887
1650,-0.6775009175212364,0.12694041690782026,0.4576978068749269,-1.9853393798285053,-1.2019591329568156,-2.1710612536301443
1660,-0.6834089553674392,0.11713218065836936,0.4532038067981411,-3.1841998392621833,-2.3958044536552006,-2.868140846423628
1670,-0.6630695277929843,0.13879638280492618,0.4709651753949827,1.8691605076945264,2.0290305056496436,1.8865000227655397
1680,-0.6738207990917967,0.13350226933261802,0.45403127622272454,1.824032696251001,0.6767360952459058,1.142541522169401
1690,-0.6874177791527843,0.11551373648500218,0.45299612196654554,2.4631456920076613,0.9923510051931019,0.6904212028582192
1700,-0.6920447228253107,0.11791607760339637,0.4466502920205858,2.6053847769158933,1.1044035652640245,0.446864612570734
1710,-0.6938315380087886,0.11916415106687293,0.4355440119536076,-0.26819252454013,-1.3939856314511352,-2.067361525215858
1720,-0.6746026974432541,0.13932353043623127,0.45474985487043396,-0.32823594049084714,-0.12300545617857679,-0.8655367761357721
1730,-0.6818711284066385,0.13088991882704903,0.45597090295759324,-1.0188708071749442,-1.6979080469856176,-2.7920925951831297
1740,-0.6610071774108317,0.14986932488469473,0.4776457876475898,1.3661974275439965,-0.35647822417646285,-0.7145615479551901
1750,-0.699289889521381,0.11159196101649921,0.43438933580144784,2.3582897347332272,-0.12519857327944844,0.5830190616216522
1760,-0.6517509793812093,0.15783260852163203,0.48147522175985985,2.6854453557894713,-0.4703629069186217,0.49101476505338304
1770,-0.6737313620022514,0.13237428057413636,0.46061870526969245,0.2315264776508208,-1.2141129407169131,-0.2521961892968385
1780,-0.6790126027924565,0.13683637716132785,0.4518644135397933,-3.4617042961619022,-0.3789150510275877,0.3691982080854087
1790,-0.7189682370360146,0.08944177600128507,0.420812233824635,-1.5569317502924218,0.9170219692709156,2.0992776330784695
1800,-0.6734148395539178,0.13679348258877558,0.4613734209068519,0.9628565299981866,1.4107366889383801,2.191812657877936
1810,-0.6843984084470399,0.12516096923889847,0.44868925777194973,2.204304822452438,2.7309554315554916,3.198176991547916
1820,-0.6576855819975072,0.15400811056114094,0.4760806758533659,0.44779379753888304,0.5595933384207817,1.0478242744759405
1830,-0.669620675414394,0.1378464656192533,0.46251975749995866,-0.4192562894648989,-0.6889978271367256,-0.20910943385256597
1840,-0.7076943869777969,0.09971529708172394,0.4247724512188804,0.5654693599528492,0.6755001674247495,1.0021407704448242
1850,-0.6580248836986807,0.15366037772786278,0.4760921077966386,2.2086973327603796,2.8462752026544704,2.858231356781948
1860,-0.7232208419486891,0.09000905750061125,0.40797889778633273,2.3338363070331103,2.889754434160835,2.5059154862076993
1870,-0.6743213312409508,0.13703821239204178,0.45186300637357385,-1.2380277410271157,-0.7378735710479756,-1.177684313534124
1880,-0.6724826876702514,0.13019844766104285,0.4610499458356337,-3.5461994672654265,-2.1668009281724263,-1.7739976546890968
1890,-0.6730302840133386,0.13059563012488187,0.46380762066808934,-0.39472505157244964,-0.37926507560018696,0.41214859559449846
