time_ms,ax,ay,az,gx,gy,gz
0,-0.745857218420623,0.08685466816643844,0.3458502165567502,-0.8848258570620426,-1.4909640811865976,-1.313448447121756
10,-0.7401289961406918,0.09894793876125772,0.3530828945243161,-3.1318014399998795,-2.8527682936941727,-2.6823551253387734
20,-0.7655915336218064,0.0677148563442061,0.33162883861130527,-1.235368263751626,-1.9248808260105261,-1.5238855661507986
30,-0.7344974942984227,0.10502525534563628,0.3613110052236933,0.036771881022115815,-0.8760256456778694,-0.8296545265728371
40,-0.7392792177280921,0.09393895033497301,0.35465929662096823,0.48763799799380414,0.8133198934068205,0.550750713514172
50,-0.7263606121527935,0.11087770991085509,0.36421135654788567,-0.3028160248708577,0.8470566267234427,0.8506918119363329
60,-0.7289278231634938,0.10926650370981793,0.37248297426364974,-3.318745248780415,-2.1760025216605547,-1.6467414365405757
70,-0.7621785831583091,0.07388762522678147,0.33799703030482176,2.572276290874514,3.2733368890074748,3.8482357355865577
80,-0.7527020953272363,0.08187090252307483,0.3435532885762935,2.3554375305862965,2.241095947675749,3.357238145924385
90,-0.7251878187087535,0.11274770109336742,0.36910894937850375,0.9279355495503474,0.1603777688350791,1.4399522348190903
100,-0.7335639210687799,0.10613315917668176,0.35508785491176353,-0.6272082578298248,-0.08981850235801613,-0.5541635135314454
110,-0.7319464277816082,0.10924080253961517,0.3614336753790955,-2.10957768373121,-0.3635572109215851,-2.0978358334691247
120,-0.7451377597562835,0.09815811419051887,0.35281458490994755,-2.206008975541328,-0.40741638449988493,-2.2654006612067286
130,-0.7480590813670347,0.09286338337464403,0.34623487167096817,-0.8949883856097546,-0.14475834838528084,-1.2300577755840223
140,-0.7511147966720373,0.08741772749759996,0.34468249132461654,-1.633925740657468,-1.4401697822107924,-1.7055993536120204
150,-0.7405351379639934,0.09363106173830768,0.35731707397036844,3.182969571946619,2.7454311929550252,2.86395286253404
160,-0.7540448307545397,0.09399865711564726,0.3552270035686567,-0.11925108183254507,-1.190192701233738,-0.7019000546045984
170,-0.7661224336116542,0.11450134945583253,0.36373502145968917,-5.6110865516342585,-1.4358266053015947,0.5940949632107027
180,-0.7872819191209935,0.1025520505771982,0.3542330714052196,-16.435955516844103,-3.607511366168102,0.14042356552781415
190,-0.8797395848562418,0.08069317206502115,0.44374785983792336,-20.232225761763647,-12.400610434321159,-2.421487397381533
200,-1.0527573400649763,0.09118869856259298,0.5766399547465701,-15.18367185728156,-28.320728131430357,1.6386657766374997
210,-1.0097460857901606,0.20048841619277288,0.5487517004260387,-13.291635347293322,-43.41099623319534,11.684246972835462
220,-0.7467594594397479,0.2299828147437249,0.438322743388943,-18.82880897747073,-52.42006806948003,16.87151704439975
230,-0.3311574926215849,0.15678606526050362,0.21609347335952067,-22.30887853098855,-42.4543457852355,16.857473043505543
240,-0.38780959416981675,0.2442548039828545,0.26722346008417164,-30.783660651474786,-25.981272221893008,21.0229284106207
250,-0.44155828254339813,0.25359433577847973,0.31657340471308254,-31.348880961420356,-7.076941388746254,31.45851973642381
260,-0.6116338165425269,0.09489197811713153,0.4147925417796243,-27.31338567984475,2.2602837179480053,34.62591988856403
270,-0.746994742300407,0.04949027653528449,0.46868369854224406,-39.88942725412268,-2.4266892069784416,20.23046702250849
280,-0.7866304914876289,0.09860652585884522,0.5099996784055214,-47.94640534560146,-11.539172026656775,5.174230024074171
290,-0.6922762505447317,0.11432099841986224,0.3796469353279056,-64.37506357695935,-11.334371429771634,-7.727050059240195
300,-0.6074744608889654,0.03375800399665386,0.3649898658065495,-60.885072031662475,-4.037056029692905,-2.380672873157947
310,-0.6446215660182114,-0.03719226842594933,0.37430484589402463,-43.11704377715743,0.6370809757395505,-3.468087689555246
320,-0.7114789836682116,-0.023612293009383424,0.4056077617471662,-36.911931322154736,6.822692566712595,-3.9127631555867763
330,-0.7282734647616218,0.06766018254172622,0.34526261962456756,-41.09696764559841,7.700231272453492,-6.963148256036382
340,-0.6849829971436333,0.11446496992079598,0.3863536943099646,-36.29366925312717,15.629711816138759,4.373482026920994
350,-1.4580587761610653,-0.054474460320175666,1.661891676494672,-47.33457949212848,-1.9159080422277994,-3.6525812441169356
360,-1.0805055908894992,-0.11026685161236359,0.6649577856250737,-27.610687258019343,-5.6100025492402334,-1.0876740615648426
370,-0.7579166301041246,0.012138400714198553,0.38637179506788727,1.6455991680892248,-3.0429741030399997,0.35589816318554
380,-0.8246818876137256,0.025164534655647455,0.2118320178755788,-18.794075035140434,-9.074101172987401,-5.401694699474451
390,-0.7180407955551517,-0.041537640417814624,0.4127658807946454,-19.95635647778322,-21.67277175976278,-3.765851058098056
400,-0.550556072478671,-0.0872357554977223,0.7053126955617981,-6.156709602890138,-26.642031906966487,-3.579706668490532
410,-0.6584120283835377,-0.029351227011342747,0.5935255243547565,-9.530643407108693,-18.9263055045146,-13.412968418780583
420,-0.6481192085912746,-0.07331371507611524,0.671612067410119,-15.010960378663196,-15.836686407053968,-16.56260387769491
430,-0.6752573155352597,-0.004965104293369821,0.6179082676548981,7.614101165256798,-16.471320292290496,-21.892420254710107
440,-0.7848981150959077,-0.028707669953205978,0.3375601406189724,29.21063176305742,-10.696458952911351,-30.330961792225175
450,-0.6800270926187467,-0.1594265342268244,0.468849311323451,33.26349559241321,-4.735567914072215,-30.274188613955637
460,-0.6977429765761215,0.007536565547325971,0.5545805220906602,77.78364271438159,0.8514671761346722,-22.717822552194896
470,-0.7714557422181038,0.3116933351831048,0.3017610945152912,115.86164286148076,10.363315901730376,-10.137798951683418
480,-0.7044030227966039,0.2037327143985476,0.18597544520660225,77.7971117969335,18.69568080916792,-4.45659115348632
490,-0.7354059124199532,-0.05718744917389803,0.3122058410005779,33.49348864715914,18.41229492231486,-12.963079887958367
500,-0.7217561824136647,0.0661413571893298,0.4705781947148688,21.11634946694497,20.82835725531356,-6.821906002046837
510,-0.6894294879528841,0.3482314125594675,0.38924396026294594,53.91560138251701,31.88400762875573,2.788529055009529
520,-0.7625099135933472,0.2361439871344606,0.3331865071512485,42.5569120030583,33.055380111467485,5.707617283488034
530,-0.8987606226194038,0.1510133070108315,0.35706367211846907,9.598549775214327,40.79952842688819,27.71705844338765
540,-0.8090551536531984,0.03426438641620432,0.27446469711391347,14.78714472930453,49.55340538924925,50.650528867930085
550,-0.5790250143723248,-0.14125789947275463,0.24705218307080384,-11.55874596440769,49.347714853030375,57.831733953209124
560,-0.6146420406925408,-0.10338865628345731,0.5632767899015252,-18.54630396350221,42.47560220309579,45.34643691572021
570,-0.6499889253573289,-0.30816930005082227,0.9923112410244639,11.711315047194997,33.018100365119224,38.663431767181216
580,-0.5705844222482415,0.4407460057401083,0.620124455658248,10.00793753421911,34.98289833816972,36.44893222249655
590,-0.6895406559216505,-0.17418589700620152,0.6479531136657625,-50.361650987635684,15.828344793706519,19.57347011143531
600,-0.7609246504150792,-0.1532406037043325,0.4844467862556303,-23.63316270463009,0.3310433541229145,-17.11612633204443
610,-0.7369630348290181,-0.26018947904489437,0.4435571479943182,4.047933296547922,-3.6358011993109987,-15.901668002021658
620,-0.7356628143359841,-0.2078394667212019,0.37936573388572087,12.88352692595953,-4.549851530425072,-13.477898942181811
630,-0.747261047217474,0.030766792116547367,0.36429454663635796,5.757085066342956,-1.7605341185452947,-2.2305907274963337
640,-0.74910388489157,0.03211795512007403,0.34121132504679497,13.916319445896205,3.2799331822867788,10.789216517812877
650,-0.7264958900525207,0.059396052539230984,0.36538447808932156,20.73884222857809,4.406678102652114,15.562796009351057
660,-0.5369237497736282,-0.5985404299816245,0.5215741710698524,36.561632476998426,-5.422662480877468,-56.02674274787577
670,-0.5503981952320453,-0.5199610928983843,0.5460803193046888,76.27239261358227,-11.784580121803595,-79.020764863064
680,-0.5646001827397886,0.26245794757340807,0.75188177093993,58.69971557477177,-2.1443025515686793,-46.334923337012
690,-0.7619419864007992,0.63284910682026,0.46397488803723025,76.92999144805049,7.433989668957446,-12.473170424379408
700,-0.6431941594787092,-0.02189382763109296,0.579603161040743,51.251158086323876,-1.4838044700540658,-22.60912153613866
710,-0.6501207502939064,0.1627590751845923,0.15519536166188289,55.63458379225843,1.120013619560507,-13.480026082995273
720,-0.7432349505452991,0.6280935700783087,0.003904164458603602,43.89493562079447,10.427566999893203,16.117935176365364
730,-0.7246829845725049,0.4874639113640961,0.296739363768106,-3.6762642692361673,13.80110358243825,26.993526056905388
740,-0.7367965270493325,0.20242998499855122,0.353619491253648,-13.426203620794595,7.851024721005172,12.399087064889944
750,-0.7803736668719603,0.10274950746882609,0.31968190177908573,-1.8928179483327492,3.2597462245263165,-2.582365404515391
760,-0.7450746665127778,0.1519534178531808,0.3553086005840396,-8.718710639043064,-1.138940392036118,-11.928902968097717
770,-0.7580937468674298,0.11598548359674478,0.3190538248994171,-7.935757798672206,-1.7098114456043783,-13.70028324591544
780,-0.7170521194075773,0.13120323512455168,0.3592865640885651,-7.927608255449428,-5.556262212096611,-14.58142313968489
790,-0.73862039444419,0.08366317404857863,0.34804751364053976,0.35752119115819764,-1.6968939252874964,-3.311294077210932
800,-0.7424758290972999,0.08392601673206472,0.3500030279211488,3.416585320195737,-0.06942822385646674,2.8840722286690874
810,-0.7353924418930624,0.10939253508040817,0.3564064145425454,4.397459710502909,0.48347303060168134,5.989685710467951
820,-0.746323610244238,0.10107062795103905,0.3390970937373827,1.4724756960217324,-2.880785881157725,2.582834269280387
830,-0.7325020211257194,0.11718420727428967,0.3514366673339269,3.3308581473805496,1.670234738094321,4.949723353431619
840,-0.7549430262822064,0.10055263650809272,0.33018727798371095,-3.645571824970232,-1.584794922312754,-2.7500773426899183
850,-0.7259805219449654,0.1121968187523757,0.3643186407050723,-2.6433501172823446,-2.3632900876969534,-8.129159399998432
860,-0.7429611835990079,0.09728354963063002,0.3526645972956253,-1.7498160632788027,-2.662677390130978,-7.6871735820047435
870,-0.728336018312835,0.10403487547859415,0.36501378258969325,-0.8131864498644159,-1.325215133641135,-5.604036883382456
880,-0.7702305282951808,0.06657308665908207,0.3254649588809878,0.7173188702207287,-1.38661873084127,-3.9985800273531455
890,-0.7186218193470055,0.11392891877263536,0.375813652097485,-1.2687807009213117,-3.4554010962262414,-4.807641621012166
900,-0.7630982396627972,0.06814479578533032,0.32395047539418453,-2.376580788981558,-2.9183033241825336,-3.84950635179136
910,-0.7292321327476421,0.10600946812545418,0.35912175971235427,3.6060485038988306,3.3636679683380413,5.506808540574228
920,-0.7378262260793739,0.10256887873609367,0.355823827119775,4.366392499048873,2.73118749483168,5.671074452472568
930,-0.7435770633198353,0.09983581298918429,0.35049663756963095,2.343593079729732,-0.0525680935382411,2.8353806845889062
940,-0.7379714506312134,0.10266020359438842,0.3478927282816186,1.9943448672245356,-0.47403226404601684,1.3416000778116834
950,-0.7431845348419587,0.10770403853261616,0.34741615071679766,1.3210882223725058,0.3760840960889438,0.26446084962192207
960,-0.721363511052796,0.12053797777182876,0.3627832879640491,-0.49244049522752686,1.0751603259837594,-0.8814934372526323
970,-0.7108939431380735,0.126623863854276,0.3809194976898412,-1.4996839968405826,0.049381141561342934,-1.3375877055412024
980,-0.7512705619053393,0.08761298265083241,0.3404424090690595,0.20753463257440696,1.7286743958972859,1.5583748362615157
990,-0.7243468362952694,0.11309974146869739,0.35849904701798946,-0.3490022518220691,-0.5020518463678818,0.3133644457956606
1000,-0.7456494817352294,0.09591839047903321,0.33878443106404293,2.0936845653836142,0.2587814687925698,1.5591148192113118
1010,-0.7459153567189102,0.09155067636478403,0.3421878194881691,2.749265356469081,1.0760854705607545,1.9113547443548866
1020,-0.744229269446882,0.09515013795657336,0.34532749811923624,1.9839299360062743,0.7999716635326409,1.131288942303319
1030,-0.7312131083387925,0.11795821800774896,0.36059622982871503,1.1809962879379619,-0.3848242387783141,0.055847582892389336
1040,-0.7440936560291789,0.10666149860635231,0.3488885758809279,-0.3701694138043916,-2.297361140997323,-1.8468716226072885
1050,-0.7346904901752075,0.11377869776620426,0.35686637039803676,-2.843295010368819,-3.2934680430428025,-3.5036605101209624
1060,-0.7538999756967584,0.09123753854090577,0.33447690747231845,-3.024990344753218,-0.6682583378280119,-1.8194878937576369
1070,-0.7347705696469765,0.10158899289345809,0.35204174473202154,-8.248017011812067,-4.610800777962955,-6.370377937976818
1080,-0.7545832703580966,0.08138198895661598,0.33591645197480685,-1.2334779936752365,0.745028250079051,-0.4206894267017318
1090,-0.7618084382954728,0.08462250577712595,0.33099032825237396,2.753067470600379,1.6214812296736956,2.1458441813308897
1100,-0.7582722089531418,0.08634341284490743,0.3280634090716444,0.1764966349174406,-1.8557445140146498,-0.7617319663516099
1110,-0.7453297816849566,0.09645120563878537,0.34121219148881354,0.5542495351391014,-0.12506055813738604,0.7181830881826838
1120,-0.7224507037267708,0.11535493178808656,0.3673669418845195,-3.186486616942781,-2.3531648672724375,-2.2293439780226083
1130,-0.7528268777433975,0.09425214581328951,0.3377082324999966,-1.514653610315632,1.9542862896226185,1.525124289018748
1140,-0.7630351356680332,0.07819304485024765,0.3276192440872626,-4.118064858124577,-2.2794214078859314,-2.429030349487357
1150,-0.7363856181282287,0.09308595312682279,0.3571853927927663,0.5202640795039584,-0.3394881776384695,0.10803865239274635
1160,-0.7375374666345303,0.10619299390476256,0.36135480779102175,4.245764025774932,1.1429027446606144,2.2998056582000057
1170,-0.7590195877454435,0.08515241428294618,0.33498599886152314,1.212483213862212,-1.326603201028817,0.08740922100477366
1180,-0.7374329151393759,0.11681096372039466,0.3564265145697102,0.7245400730824316,-1.687374181683599,0.0678289687062954
1190,-0.7496366230011896,0.09918715960498069,0.3471760460943879,2.268784081789668,-1.1896926408679174,0.15660202132725276
1200,-0.7562169340876279,0.09308191785561108,0.33443648398713166,0.6641469481345232,-0.48127258868030004,0.24907783693979535
1210,-0.7365198285904787,0.11105016722736039,0.3592041240881713,-0.5796323743946084,-1.4897434781681378,-1.2523395910311583
1220,-0.7474423032853572,0.10020648055827985,0.34402840446602356,3.1146121801186233,1.7282229505277118,2.4575808442707503
1230,-0.7227296760551832,0.12915564709281957,0.3694719902558208,3.1386992469302832,1.6265146207151067,2.6041012854478254
1240,-0.7382845189592505,0.10995893954194018,0.35653533091799455,3.239383411139343,1.747599262864828,3.4278710363709033
1250,-0.7194028968969574,0.13004604580358997,0.37623016125945946,2.2052886319955975,0.4709201313346961,2.317518596820984
1260,-0.7500671149686774,0.10453624365297064,0.34685167522620225,0.518284494802276,0.5038404764340798,1.6583623184502316
1270,-0.7407339756718857,0.11376732481047462,0.3522651089375421,1.0135900284491803,3.1281620839335336,3.32760281657985
1280,-0.7647150602419477,0.0835671074874125,0.3253301574602466,-3.275797608528766,-1.5741708494039917,-1.8438143857910008
1290,-0.7310197605166457,0.11989243980205873,0.35937766298292845,0.056717638486211364,-0.4975823639592777,-0.47879755297491333
1300,-0.7395103758752568,0.10863611102241429,0.3535360979231018,1.4891764752721217,0.38535422288281984,0.7207673897946016
1310,-0.7389248444709954,0.11541089824165413,0.35314308055089805,1.965368313532693,1.3305090544557583,1.5787661524265681
1320,-0.7516469239777933,0.10531496478344445,0.33918684896548673,-0.3385687715303062,-0.2842966042972209,-0.44311457030948886
1330,-0.7337078366783392,0.11562656894478392,0.3572784161244932,0.3500879251793132,0.6125446272464441,0.4028389265155021
1340,-0.7724796288032775,0.06814785786547671,0.31980271189910425,1.142112982806318,0.791376171160077,0.7070150810638313
1350,-0.7426689255837191,0.099669739402191,0.3489152523544246,1.5051182738652582,0.7038618901796574,0.8444263507462532
1360,-0.7586443772204026,0.09354722132758396,0.3284738169779029,-0.7269127230112468,-1.7369270204056502,-1.4512810805129355
1370,-0.7585248369236681,0.09216334686081938,0.3284695849921477,0.5565410028635172,-0.5170253228204699,-0.685364105411698
1380,-0.7209945915198247,0.12492805776201024,0.3674401409210943,-0.0850007337240099,-0.9806991488077781,-1.2238090472277183
1390,-0.7480021778934617,0.09662963980701715,0.33771608390002494,-0.573059814329548,-1.8786681171285922,-1.7611089298380196
1400,-0.746456423697206,0.10239387598712807,0.34069253525002363,0.650936665459371,-0.6269968231153642,0.056980275951116544
1410,-0.7497485589232691,0.10087687310650803,0.33849099101472363,-1.463230317414934,-1.214774502954643,0.012007320716288739
1420,-0.7356608611830769,0.11479816190588703,0.3555494685522468,-0.282764913232208,-0.3613479570862118,0.6210529739145517
1430,-0.7627003647753958,0.089468135635416,0.33060579406017643,-1.1776219776236023,-1.7098759746358845,-0.7194299466064895
1440,-0.7428282531391988,0.10516675696073592,0.3458775956631717,2.2927471794728733,1.8468036314054406,2.6214840869089686
1450,-0.7456498789502202,0.10804118005766936,0.34474586432412585,-2.190593280402422,-1.662114232165831,-1.9113329706569424
1460,-0.7474387141695472,0.10306447854657297,0.3397506323525017,0.5484442045623291,0.8170639758058693,-0.09651060273206835
1470,-0.7443320285296681,0.10920768319125129,0.34597003090313405,-2.605404490959474,-2.28093368425814,-3.6387337846734855
1480,-0.7358585564046373,0.0985946153871619,0.34977946400551096,-0.32208038026510377,-0.7184190158044015,-1.336184234422606
