time_ms,ax,ay,az,gx,gy,gz
0,-1.01884860065556,0.8459554193175838,0.7482470762388066,-0.09062551527450666,0.8599530261490671,0.13553495485803851
10,-0.9943699631711058,0.8699282652421002,0.7683815531914253,0.039780749539871374,0.9506673409003401,0.4498414833533815
20,-1.000312055771573,0.859809352577758,0.7620072093516611,0.5212626354900161,1.4806830673810023,0.5583798898498787
30,-1.0164470687732412,0.8404885293794886,0.7447623262471547,0.8332929305455181,1.559407402114282,0.635241262217265
40,-1.012603923629469,0.8442299639566923,0.748632400264732,-1.5962935156848643,-1.0973029935699012,-1.6175963013624983
50,-0.9905473108689127,0.8686973987437023,0.772767899501072,-1.4517396554615039,-0.8855360504456691,-1.0093899592463738
60,-1.0134951367672331,0.8480324608950828,0.7496263716925805,1.8806699319516669,2.615944882842215,2.6459391849650897
70,-1.0093019090118136,0.8573435688391433,0.7593421894483205,-0.734385476347551,-0.13123680197979726,0.2569351610666929
80,-1.0085243101580512,0.8540109146645521,0.7577332335424675,0.15343249795333236,1.0640045122320323,1.388381611884244
90,-1.000801520735422,0.8616445327309892,0.7630888942356192,-0.7346944753192013,-0.5706545281727042,-0.4665158325197899
100,-1.0023443762993371,0.8577483710006188,0.7589079404613764,1.3431967895990242,0.9595067415410196,0.7601608001411583
110,-1.0020937654477748,0.8535167622711854,0.7567491084568475,0.9272716084526286,0.7360431802857356,0.262402971952614
120,-1.001908890071523,0.8580790042881172,0.7575348783419054,2.0478220707539543,1.7610224616664478,1.1817069314359596
130,-1.0015676804201241,0.8621986336490006,0.7558777524440125,2.5807837933625937,2.2017714975830254,1.3304145266523115
140,-0.9866846418430227,0.8789098762208641,0.777327153654101,0.9342771231284147,1.6044098589541238,0.31353205407269735
150,-1.0151953719498672,0.8491931157835505,0.7519899796838964,-2.3664472830232812,-1.1938136866985296,-2.5298572522387746
160,-1.008208747914735,0.8604501668933094,0.7655991185414575,-1.5871559022540962,1.0087450846280581,0.6538694510135137
170,-1.02163345647986,0.8586301189073015,0.7656761818260511,-3.635757599580583,0.7581906809636059,1.7747165600100638
180,-1.0151051230727282,0.8752718879162997,0.7859128373134061,-1.7545866034722977,3.058923769862767,4.492474404169785
190,-1.0422151010712624,0.8335517702616275,0.7475599408217025,-2.2227608083272123,3.686871576704945,4.826497141065543
200,-1.0490765830976787,0.927660850132827,1.006405103513649,-2.5317673680343225,-5.401828587746815,10.384504277858667
210,-1.0167083156614898,0.9196645863797581,0.8980554796229888,-1.0050475687226126,-15.565075850260746,18.190756003069485
220,-1.046921682023298,0.9322675302897044,0.8743517990155314,4.51431635457249,-19.48513172088705,24.185424869529466
230,-1.0462648559924712,0.9458596030579953,0.9197894061405156,12.472852324950477,-19.180084584484845,29.765657778832605
240,-0.9035254590621296,0.9262788209950028,0.861973408461323,13.405034165533941,-23.377922223773275,31.710703628084964
250,-0.9415231805395354,0.910836504138145,0.8571575546366097,8.340150009880132,-18.527226458171203,30.62229112702021
260,-0.8840992641145783,0.9546112251187913,0.8638344321854005,8.48993975873182,-16.80084193130283,26.499356068564353
270,-0.840186565135224,0.9656474236028136,0.8510525418660714,5.580246700447797,-14.644429262933789,22.02921275927677
280,-0.85056233226803,0.9347931846170586,0.8334461046122915,6.0560764693081595,-9.542460605844141,19.573696116170144
290,-0.8173453684726377,0.9651323295081804,0.8803779185010667,2.6168106866770797,-7.934496514197585,12.17856750856054
300,-0.8773615945033915,0.9302838733850216,0.8234009057663667,-4.7981868382768145,-7.498300465736375,1.1141606787030685
310,-0.9472133868369588,0.9448594387736415,0.774180239178313,-11.327399593352151,-2.8752960165641808,-9.17324990762488
320,-0.9748987966160172,0.9198279527801524,0.8024093559991522,-14.755819666829519,-2.7435067016233674,-12.971861252017948
330,-0.9636441226035776,0.9369023413654529,0.8381940049165294,-17.219577742634208,-1.360681828588578,-13.861889387909674
340,-0.9964272917427894,0.9240262107480193,0.8230882983580443,-15.477057243695542,-0.6040376109851575,-12.92956529781333
350,-1.0198944327484205,0.9256543533656939,0.817422893695586,-11.35813976033474,-0.22988719081762055,-10.215650427445262
360,-1.0007024496091197,0.956710060762655,0.846977131286536,-10.46912102393748,-2.053788911290099,-8.735331844045742
370,-1.0263221537538685,0.9069310069383854,0.8040045911753881,-11.31179542562053,-2.5701628668821095,-6.634450075782331
380,-0.9731446820472492,0.8624107407441297,0.7766733222207028,-7.631359842751029,-1.9739436580716787,-4.404222267798713
390,-0.9342422091156348,0.8675165599249866,0.7739371064545562,-4.262167552917867,0.9836612116037655,-4.037096775495925
400,-0.9040442809354639,0.869873905048695,0.7481309445453583,-3.9664088090821314,1.6855381631951218,-8.00943188704234
410,-0.9153044578957944,0.8161594348007998,0.7048346296542088,-10.085983908894674,0.7801916470765802,-16.08014294457529
420,-0.9204775096313086,0.7838499641062043,0.7082024182677656,-12.774839451051193,4.94618886958881,-20.74617747069151
430,-0.9456398994207613,0.7962560696337296,0.7166961799010352,-14.343545125835636,4.600090979323383,-29.54299684262412
440,-0.9937453105892463,0.8165584298404762,0.7253627189951359,-15.32983363028453,5.400976881246231,-35.55905371643599
450,-1.0390371919243915,0.7890067174960548,0.6310413043610305,-7.316825023839978,3.023707882368343,-19.21963719107601
460,-1.059359457225679,0.8442846277333728,0.7230466387087149,-7.6146295516035165,-1.2121298267206508,-15.722419180685558
470,-1.0409923621948807,0.8926466980554453,0.8283225166750391,-4.528253682354806,-3.9855297889771726,-14.15547402385815
480,-1.0259390820325038,0.8889589756893458,0.8301358845536178,-0.9225673859751613,-7.060726601974615,-13.392444483549625
490,-0.9834700180998907,0.9321386086921208,0.8136546055305773,-0.9337283866527764,-9.25455357448097,-12.659829116632645
500,-0.9878037260405584,0.9927599651699641,0.824203070394674,0.9939362076277922,-9.24276906010276,-4.927000497298308
510,-0.9974897169664899,1.0722466113874825,0.8235111524338415,8.265991720134757,-5.653903059715752,3.6620051316272226
520,-0.9720020009471124,0.7927732952116359,0.8523100221825943,-4.456716127040222,-8.727293494262797,4.25907235802433
530,-0.9926296553969925,0.7395831697651858,0.8353786793739081,-11.213421639522846,-6.725716084304817,4.213013390857396
540,-0.9137963876038855,0.7782903912754884,0.9191665471797276,-9.106850921840131,-6.129729612993442,2.204653632200438
550,-0.6908997030122213,0.7556842988205628,1.1524034720544225,-8.810688934546242,-12.892052418271925,-3.8717130943340208
560,-1.0913227061614554,0.6215611334043006,0.7724618480430172,-14.535417969485913,-8.907461572165996,-2.227902283338315
570,-1.2798738384721482,0.5038419797447818,0.36320442912157896,-13.367740423424552,-13.742361931780968,-7.969985208933816
580,-1.05166765413121,0.7637246763380285,0.8476807252926551,-10.160123958309072,-18.037191090465427,-10.414947668684153
590,-0.6035939542123339,0.8024484096048338,0.9384867210841485,-10.21502722414799,-13.228661872114484,-11.321995457456866
600,-0.4949893862966179,0.6771706351171726,0.8849587676601699,-19.29381912106027,-12.337855827585614,-19.099417826200884
610,-0.7921526385032153,0.6841215750273374,0.8942621033226142,-25.594055263765874,-13.589615660680536,-25.120126588185776
620,-0.8502357899214982,1.066918282306937,0.6198472136561504,-16.268559490005824,-7.453846768368825,-17.71828318281898
630,-0.976495234082825,1.0670870038440734,0.5215738946590849,-4.950667726984972,-1.5893476354543639,-12.490730799632523
640,-0.910674923659709,0.8397917976919739,0.766538093525149,3.0438686503816603,-6.683453146689171,-15.036063988454282
650,-0.8524118555915958,0.9558095355824571,0.9903895625821141,1.0290308757821471,-6.2378720046165705,-17.514925445222275
660,-0.8887242827866929,1.2339464161129134,0.7500377996001674,8.27467844618744,-0.4614947959866862,-18.144291511581617
670,-1.0265419639340407,1.2397293203212545,0.3829161314813657,16.06029979177811,1.6943885900429692,-20.389021412911017
680,-1.051353156647477,0.9188448076942565,0.7408123731443524,5.67038000374192,0.08161655730391704,-18.788838599846695
690,-1.0762150299831803,1.315424984476628,0.5144379338666277,4.514757576887257,7.753688916140426,1.21123061020839
700,-1.2418117509431033,0.877700911675976,0.47471719560395137,29.668204434221337,6.669359344944279,5.995196274382236
710,-1.2060593576402003,0.8477794259752769,0.7404491305917132,28.55480368839107,9.509226413011087,0.992118464008672
720,-1.151176881953921,1.056977494154202,1.1095543990260064,14.147378134031001,5.061879159027963,-5.167472622754601
730,-1.093936148976997,1.2037664062577922,1.2391327973391415,3.6628486296538676,6.787485381713222,1.594177894814717
740,-1.0764726662299178,1.0217050971052402,0.7553686195404509,-6.0428097701639,17.659880376267235,13.927957565090551
750,-0.8733636127693664,1.0904053166064005,0.1343526916663899,-1.6698113647250565,27.501713593927377,24.304012984471562
760,-1.0368557603958701,1.010345732615231,0.7680835859853024,-2.8732121695677715,23.217372868895104,14.731211520269468
770,-0.9764280670661533,1.2083065424385415,0.8545673427048557,-0.5854595537498053,24.21177350119172,26.464456462414308
780,-0.8967017888812534,1.1705362890246862,0.6846897514374635,5.580575566031588,29.597238545476596,31.423994099104622
790,-0.9065541478751528,0.9659586452202575,0.5407117823682424,6.603087797049617,32.45228989414358,27.42466470168133
800,-0.9059734284317086,0.8623676479172665,0.8299103714762982,-2.204417265770625,30.704864300169632,20.60243239431253
810,-0.9819868269081765,0.4752864773474068,1.6752335181117748,-13.712426867951859,30.53164600119466,2.370563209138293
820,-0.7184417041961679,0.564473289184852,0.19222913437901382,6.649193972926458,30.293716815698424,29.631298538573382
830,-1.1965826904437773,1.0082823672566645,0.7232596891224602,-9.770356766830655,22.080809790384887,26.331201580017115
840,-1.2809869965108196,1.0715438504971548,0.7263792785364938,-19.99885568871556,16.520194601140936,15.666347257610813
850,-1.1943978863891838,1.0457067060858882,0.4018541382956562,-26.757755094681546,15.22859407574838,11.99820108645066
860,-1.1478222923367707,1.1196976977084736,0.3727872112580796,-22.877347305435247,26.998768874455305,26.737383958977492
870,-0.8568879204736414,0.8338125339799822,0.5880131045248568,-16.557049981129193,28.906688048913015,27.83404106889237
880,-0.731691966842011,-0.05744245365636038,1.8986719945872468,-45.233527160341566,4.777202646167427,12.873751784938868
890,-1.1449841149287083,0.7794446559107392,1.2075014954052539,-36.61873480577121,3.5641251197381507,6.14857582296275
900,-1.1448926743425105,0.9887943466900213,1.3887425167241447,-33.9449293054197,5.59742355170665,5.71100024858958
910,-1.0851377842116576,0.9537971823472376,1.3012675247854761,-32.542345516645426,4.103641629462318,3.569288718962377
920,-1.1053748587043608,1.0243213816297385,0.6702504765985637,-27.194711274212928,3.102090939251529,1.783136522464078
930,-0.9195918587936909,1.0176639369915248,0.6662149453615748,-19.061378612661798,9.616561221597966,8.829873124298532
940,-1.0433495205264678,0.46752696090866974,0.8539641293023537,1.830763698040084,1.2416884720744594,6.059876894699103
950,-1.0437105302819172,0.5815599007210679,0.9176849408069292,-19.33412265253085,-0.16608082949690406,-6.065347530345186
960,-1.0204202727338743,0.6218269544009238,0.7877097635841145,-13.293119437846126,0.6606312349480016,-3.9636574377947134
970,-0.9816653988343493,0.6845217117961939,0.7429499346799624,-2.294796681926666,-0.5393296353701165,-1.7683426744229753
980,-0.9950337361810485,0.7414069611774042,0.7506324806025984,2.3256028158520166,-2.4142212760418023,0.1676274713015733
990,-0.9968086713539936,0.801040543455395,0.7487179077153369,6.46348391147697,1.2807526114054095,11.682256370906407
1000,-1.0385125240802828,0.784330090485784,0.7118838653893624,5.056098610159762,2.8932844477070754,17.586736939354978
1010,-1.0103858050739332,0.7560412477823737,0.6898347407885019,7.292658461623665,9.357549072802072,15.865877285061519
1020,-0.9016078198416578,0.7341815383176966,0.6534815026421463,3.9968801193819607,10.85061940000448,-3.930423742832898
1030,-0.8404397925177971,0.5332267150199753,0.6550849729273769,4.389815531633888,10.04384774110946,-17.15227836813082
1040,-0.8141119000243159,0.45989810851805285,0.5488106722953542,12.144720644913136,10.799784788541595,-19.883155141616143
1050,-0.8186744531778407,0.691101998986544,0.4368353260327171,22.15368625291837,14.437111727854516,-17.942855082558523
1060,-1.1386345420598898,0.5238719312210596,0.9245278986342086,11.846020428219251,8.366784554914496,-20.958202578310672
1070,-1.1306664602477936,0.5731860551299114,0.8642731798782697,29.742087201415853,3.5592385772258366,-15.598213393835675
1080,-1.2373674516789648,0.7461867317990414,0.592496098273343,47.848492696374954,6.676019064682018,0.27377533975570323
1090,-0.8275348009916146,1.1281830999378026,0.7089480999256443,35.82479720885707,4.722760488728802,-0.5487629533369676
1100,-0.6725970997693423,1.4336624307543269,1.0109986874505195,28.158763550787288,-1.4668713774640423,-5.155875901889698
1110,-1.0277673712366362,1.256993547924521,1.0519138912011847,40.9966168631762,-4.143625180505227,-2.8845301025780663
1120,-0.83390223648748,0.4404886436625728,0.5266417744176173,39.27833572898959,8.127680975820063,-2.140420042628209
1130,-0.28705753778142756,1.290600330277956,-0.21607135050881998,13.05639300987005,0.8304367326813651,-20.041707522928522
1140,-0.3391900518947932,1.5357831365315124,0.46603039407358676,25.959313720115638,-3.6946606596774205,-16.604622418131367
1150,-0.7050113056747715,1.2114171595412002,0.6746024713004756,22.199156449064866,0.5544914326859314,-6.576715972398709
1160,-0.9076403432560451,0.8909100296922119,0.651659480117065,-2.8034407813096163,0.22983601219740646,-8.042284661116447
1170,-0.8994442983219528,0.8397644126770907,0.7800695079127273,-18.8993491792198,-2.2214019242289447,-13.061268324594748
1180,-1.019230713550112,0.9194337012274566,1.0165850725641092,-5.852291995974872,-5.676137839431483,-9.711395351784358
1190,-1.0315262568132737,1.3083432143273668,0.8011418435660868,4.446575977915117,-1.8182542803074282,13.41815006962123
1200,-0.9170624833158227,1.275767609893006,0.7883178703415777,14.257601879776388,1.3846912761436287,3.036575919657319
1210,-0.9444080052364473,1.1894076784778085,0.7322856595518337,8.968859592016814,2.7973346718437675,6.273308596216732
1220,-0.9841212715377506,1.0359209084719914,0.7168630127446516,2.759187948759577,3.5485711848959136,5.878656379420458
1230,-1.0052586842148379,0.8746136591155075,0.7246318530404048,-1.1875288006172875,1.5448592732579431,-3.2712972985532933
1240,-1.0209653039123139,0.8399956661440565,0.7158181548387568,-0.0962477066165387,2.261303055021011,-4.368377903111846
1250,-1.041532146515671,0.8203809497482543,0.6999906731021198,3.55021427196834,3.514446680560121,0.7828041081540901
1260,-1.008357493454705,0.8596886249290719,0.7345883773798294,3.3954233375959104,2.710808033112002,2.669361216533912
1270,-1.0544336283075941,0.818188139408091,0.6830621997470738,-0.4394965662471013,-2.0391839596710644,0.025383091139061342
1280,-1.00797323418085,0.8688417346250792,0.7263069811537772,4.316007524504274,1.352646301427482,5.030509492621336
1290,-1.0113228367376201,0.8687864962819273,0.7209159547750172,3.897736464304171,-0.49641251905968403,4.3357504815923
1300,-1.0390537499876065,0.842706430924725,0.6898267575461174,4.154565528464351,-0.3348206029831471,4.773964702019595
1310,-1.030045144759965,0.8527604426372188,0.7011597785860677,-2.5367547421345735,-3.057337385024401,0.24255836277013432
1320,-1.0075005490298448,0.8714114728087766,0.7359026067585486,-3.0840460344172387,-3.196928351721694,-0.3821477700460325
1330,-1.0152085158958006,0.8580287650865911,0.7228721533246957,-1.1682779430243655,-1.135790942746583,0.5848622038762499
1340,-1.005673357354782,0.8644427519863641,0.7275402337851362,-2.7628420381229253,-2.6865226665277397,-1.7149683268075782
1350,-0.9607036839533216,0.9064708025085488,0.7721826659467259,-4.645979633730895,-4.242923995544278,-3.996763811197421
1360,-1.0163579810230463,0.8502153725129572,0.72137059706229,-0.7953533483454593,-0.2519407071889175,-0.6947241979422734
1370,-1.015976930760569,0.8621215573963105,0.7326268349092467,0.2822610606813941,-0.6949500118107113,-0.7164654576119341
1380,-0.9934836719842153,0.8844565890433584,0.7404119422476344,2.4465878784398485,1.1325803090362334,2.0568446264110056
1390,-1.0073476708039941,0.865239793154142,0.7276341571625912,0.9194642002534509,0.7388064063497534,0.27404922502947926
1400,-1.0275746646617698,0.8508316088150566,0.7101163297390651,-0.9366814373767958,-0.21316464271646934,-1.6940257234140912
1410,-0.9915379419800439,0.889669975700962,0.7478390259416119,-2.7052055189570288,-1.5134272022483526,-3.4026572453804333
1420,-0.9951050215569761,0.8827738556982827,0.7465610876982391,0.559803353406477,1.907977185193769,0.055523381133695704
1430,-1.0067476273089013,0.8732409683934444,0.739582960624729,-2.5725857977227498,-1.390221256273708,-2.735343976053004
1440,-1.0222029192911555,0.8445585538596113,0.7227992115830943,-1.4214401739215594,-1.5468550905192842,-1.7995197842880974
1450,-1.0194553013599055,0.8543687595600575,0.7200629111768023,1.3920518128495145,0.6530345472833294,0.8523636452967129
1460,-1.0018628166884014,0.8754527481509216,0.7374421568914018,-0.08519684916820397,-0.03424067731648628,0.020442215392487473
1470,-0.991789365191208,0.8823830772518942,0.7499927118487252,0.36819646932883976,1.5004276713312465,1.3561677918677149
1480,-1.0017619742185877,0.8670125080634415,0.741067605070188,-3.5713914575599754,-2.04918063682415,-2.0850803602455983
1490,-1.0248900641016911,0.8422828459700771,0.7157640163883678,-1.7622868542043588,-0.6735189173911718,-0.3154170953694495
1500,-1.0212451640181384,0.8469545197255084,0.7195823845383739,-1.79411529416311,-0.3790960675262588,0.08473844414603054
1510,-1.010671460799171,0.8559423885808801,0.7254474779303397,-0.2871724852682965,-0.023511415171519223,0.9164117935706406
1520,-0.9590699869548052,0.9161056234295033,0.7833798105754228,-0.08731569992552637,-0.8734683524401479,-1.0636762328291085
1530,-0.9992630946042316,0.8768642179365679,0.7490140186061344,0.9399958153727299,-0.2457410242212169,-1.3311161556586744
1540,-1.0053849143962592,0.8667582063922074,0.7401108254416268,0.299879940165925,-0.42748762535826,-1.5074044966657407
1550,-1.0121114619886522,0.8605180614239799,0.7251380473199653,1.99306793523506,2.2579537274705017,1.6093193869423057
1560,-1.0177945881068582,0.8553749369475968,0.7261056699412958,-3.738172958031906,-3.0062961735813767,-3.903326525493486
1570,-1.0055562705521182,0.8700352302966199,0.7390282090582857,-2.7336923582095065,-1.8061916995184746,-2.1733661981439436
1580,-1.00557017291426,0.870461391865022,0.7362187285210935,-1.6548132308964678,-1.1028216568155442,-1.037730677367259
1590,-1.021373742889365,0.8563408706319772,0.7201061761962967,-3.2466024607592363,-2.6270904886191815,-2.6010027237122895
1600,-1.0141487747402658,0.8612044814474943,0.7278842481507863,0.4891707652799808,1.3511355982972233,1.1577275916079508
1610,-0.98857176106502,0.8808271462578243,0.7536335398648518,-0.013586487874387654,0.8773212474227404,0.7195256739023974
1620,-1.0232235602831605,0.8493858508996048,0.7223326849478793,-1.8114844080097998,-0.864444296358024,-0.5852882113467827
1630,-0.9942171398788968,0.8788069084692852,0.7529256949769891,-0.4444971654397334,0.7267421848511583,0.8861276206034743
1640,-1.009556124643247,0.8608652781620146,0.7358252986173921,0.5755182006978087,1.2113571128493783,1.1244722074212459
1650,-1.010295268790672,0.8596592534584045,0.7382413815070142,1.8455913112996631,1.428576032804572,1.3820759072956907
1660,-1.0436459484759395,0.8291941718465922,0.7025486068771225,-1.8153995637647782,-2.035330096064384,-2.1876694774250622
1670,-1.017834407939228,0.8597172592529139,0.723627471429995,-0.6824584273533888,0.4326280348419861,0.01352056819898291
1680,-1.029848345737324,0.8502388648432841,0.7210195680072187,-1.729672025720125,-0.28110053428912596,-0.6263772331186033
1690,-1.0205869350197312,0.8514090018583979,0.7241897203231527,-2.633506626942981,-0.47895559689739053,-1.229594767936454
1700,-1.0073757203396265,0.8616824651564499,0.7306549254698308,-3.054976477535499,-1.198686794353685,-0.956672110054188
1710,-0.9979393601211395,0.8714153959692273,0.7405347131134502,-1.7255352453896227,-0.8813747742548663,-0.04382261543310398
1720,-1.0249804019317585,0.8415808699268685,0.7129343069638285,0.3644126629822102,0.2470482984024165,1.6571438372157226
1730,-0.9751208038046383,0.891265757630908,0.7610360639300552,-0.736326502570138,-0.9402963310904899,0.18402445349268332
1740,-1.0110358930170973,0.8656778453024411,0.7279660391805574,-0.9970673430579471,-0.09680900316250363,-0.9921877755145063
1750,-1.0143477272200343,0.8602934459628302,0.7280146420657597,-2.481530897505006,-0.603189073591571,-1.722814236759861
1760,-1.024690081745253,0.8465745622837967,0.719327412792387,-1.868509990327551,0.09052305787447232,-0.9657105227837905
1770,-1.0030656596814804,0.871044640143334,0.742158422072617,-0.9504487052556154,0.6627250307856953,-0.19328202419298096
1780,-1.005769305165693,0.8654123438269731,0.7354128357525351,0.5473314060594876,1.4518185511235107,0.882621881708553
1790,-0.9877293164966198,0.8800590953080704,0.7508242728973548,2.238988893831268,2.4619171395367507,2.14973210201267
1800,-0.9900290743891692,0.8820179738315094,0.7539255901455433,3.126156284843067,3.0855944369674084,2.866765852853867
1810,-1.0012103453953594,0.8710706617287491,0.7461152368815736,-0.3194655776137535,-0.2893764102098586,-0.6554279874612337
