time_ms,ax,ay,az,gx,gy,gz
0,-0.733003246670353,0.09170973188218466,0.5500760661572976,-1.9203966041833163,0.2535085361906779,0.0391028873905675
10,-0.7084368859673147,0.11944258214975836,0.5786592494225472,-1.2768274735532983,0.17359253396500976,0.3615084735653179
20,-0.6967362898258739,0.14057726479938945,0.5915673312223411,1.2860826620572783,0.2324150645318466,0.9497472713665892
30,-0.6802331928817397,0.15455024791649277,0.6028871667578212,0.4393650737327788,0.3789453025805755,0.4310188289931336
40,-0.7057760331665027,0.12977885326171915,0.5798875385935836,1.1061778860266203,1.5963168141640267,1.0859912804939078
50,-0.7142447647646627,0.12067096134627159,0.5710988223079527,-1.4233885044299657,-0.6422735197255527,-1.0664967882125376
60,-0.6943958140692884,0.14047439618825497,0.5889052634994225,-1.6610084434246535,-0.27133158685538683,0.06210580252214663
70,-0.7011983339650523,0.12995394408808603,0.5845060995300904,-2.1590913260165343,-2.1806769635850487,-2.0036052451652546
80,-0.7033145829327513,0.12858741609075477,0.578611841937557,-2.999912552171219,-1.73245607527678,-1.7306643495612577
90,-0.6965509123782302,0.13758168218759884,0.5857390711100243,-1.2118987367759035,1.1560890097809222,0.8364133828772777
100,-0.7210832572384861,0.10060350962670686,0.5649597301537106,-1.971861831629707,-0.12041822020174944,-0.33879575415602525
110,-0.7225281420853846,0.11299553978779572,0.56697650512552,-1.2173676637174213,-0.09292387411616049,0.22468198526113792
120,-0.7312079224599467,0.1017931882633504,0.5576880010094828,0.5543980824692988,0.6367119902566156,0.8614581976318694
130,-0.6881691013458185,0.14616161091286928,0.6011988553328156,-0.825783320389654,0.0401206397371473,-0.9121819994814119
140,-0.6987517893414824,0.12374259631999286,0.5879483925231611,-0.13900702124053188,-1.1352040481527914,-1.4788229106412623
150,-0.6813655655754973,0.13925741060096772,0.598838834075739,4.702423316917333,2.010481529588938,2.4840671749097893
160,-0.702790343933647,0.13279301709197153,0.5969827373032457,6.364947830606878,1.2248099666681977,2.3658315933512846
170,-0.7065913042299278,0.14511572937607783,0.589014711412077,3.6483625372679582,-1.6429955527400355,-0.1615837338467313
180,-0.7458017305844461,0.1323166462631107,0.6403986150306508,-0.5480174885782322,-1.2017083940515607,-1.1683484763349217
190,-0.7345812519479712,0.11923236684635247,0.7754750347357119,9.741582693463952,-20.268055692374304,-3.7512966729681043
200,-0.764098921431372,0.06129525598989939,0.7234140844654187,0.4363874884669232,-37.16386926315177,-2.7898106245490504
210,-0.6634352237088492,0.26687802395512156,0.7451496538982865,14.47361244134521,-47.922641134786296,10.059820538095561
220,-0.6030922086305994,0.3098972885840987,0.5680074248838453,-6.985379283036545,-51.18440610319793,21.347442850483613
230,-0.5906164605708651,0.29492902239684177,0.5071336252403348,-33.61585979939389,-34.063135520406284,37.16447098881345
240,-0.5521994876675106,0.18356573430951062,0.4951866812848902,-59.623724668908544,-6.3767486156792375,26.504533485190098
250,-0.6393091240524263,0.25478266285112094,0.5451395708181351,-72.81966397303488,4.357306405969842,24.75594566354761
260,-0.7472010156363003,0.2138934901209049,0.5759290389279881,-78.64320863978153,7.495398684762214,27.278592034648675
270,-0.7450365031491148,0.1677697382549059,0.6346990042167017,-76.5508954088379,7.164008377348483,31.71784993761517
280,-0.6639103960142789,0.052573334523290764,0.6204668487739867,-76.84109027466906,7.378548636775285,32.599028435940106
290,-0.5423781252133693,-0.0896080342766114,0.6767829693062664,-30.349864098087096,-9.577768234610097,9.4061824476447
300,-0.7716160984274837,-0.09479373906254103,0.5399515038971543,-28.58199308017276,-19.77146016809971,-5.147738874220574
310,-0.6476945893145493,-0.5423093767177924,0.7362847212483441,-6.287964289847696,-25.999063383534438,-15.654713672804942
320,-0.7046732448783095,-0.1232616298406126,0.9477831210258307,39.48612701056978,-24.33289478764077,-27.759754172939033
330,-0.7696027496698764,0.14717566765002635,0.7078602585501739,58.196888098907294,-18.26799211595828,-25.215362177942747
340,-0.6803855508088219,0.2765448263069609,0.61583630329275,48.37596188938791,-1.3543731583205982,-35.3762632856944
350,-0.7779661380054457,0.6434650051614356,0.40543436096341817,30.411216280595276,25.541127311202608,-33.27968324951274
360,-0.6874137693658697,0.2349425541558281,0.3218365786125901,13.99971628543556,38.572935236645726,-36.819761005646626
370,-1.0791799353761542,0.07210457835197137,-0.5518947373247882,21.739313485767905,52.334139602103015,-20.891075410242202
380,-1.029979711609633,0.42485736269694846,-0.12389564813283872,46.5875729759973,65.77112547754814,14.65444553889304
390,-0.45991578804067135,0.2834899760130464,0.8607663444728985,41.92728903381431,81.46413282429963,46.83041606264669
400,-0.8708935573028925,0.009947090682745859,1.2758644175370775,-29.286850514252983,40.47554011658607,59.71679074022937
410,-0.5637406791653269,-0.20681129025914807,0.7518049429000084,1.5032093621386737,45.633112396481835,67.27716539265637
420,-0.8546142537955267,-0.17316786520646232,1.0989435280656261,-14.481302837445938,7.62258832536812,16.65835031502756
430,-0.6337400370784179,-0.2254792804116721,1.0471503755118843,-43.16081551449407,14.606616736764918,27.137687204320237
440,-0.7884177639205532,-0.18597728676067748,0.5647496800576952,-21.58649010633804,1.209967552426404,1.4948885570896557
450,-0.7478433165365153,0.00406504499738662,0.41899571365806004,45.22807369629665,6.187372957058746,16.712415347220812
460,-0.807475203581437,-0.3661158782528595,0.6870482609449966,80.0561068261257,8.48473159496591,9.846309259803489
470,-1.075945356121523,-0.28867255267766695,0.7886433573928066,72.91721549801582,-1.9610423777078054,-32.82592353910171
480,-0.9334112898238298,0.07920787689828244,1.2300977876870482,63.69607222896473,-12.838754060851908,-75.39932355059042
490,-0.7097627772648274,0.9592068713386458,0.9300169440826754,30.755363007414477,-4.769797260802899,-67.57519965948822
500,-0.5550415631206104,0.5246792472951237,1.0063639069369128,63.58627408044675,-4.3541658395159235,-36.92389355122386
510,-0.7024878139509002,0.5030256592169486,0.5474801834902434,9.88615887805568,0.16219831943635055,3.185188914181954
520,-0.7428416097742945,0.34904016960608536,0.49984554179623686,28.8583724587391,1.3273969505434806,-3.846954577229196
530,-0.7094603738839095,0.17832602687810692,0.5499889144274784,-25.553598216360363,-1.9153752051051918,-13.931470318074078
540,-0.7449459857982098,0.14822212664377807,0.5421698414341901,-14.00150144289324,0.45150603810941714,-13.179279438654874
550,-0.7253218687435142,0.1491231718824356,0.5519030103293368,-10.147590735419339,-0.07323681958931227,-10.26448941155352
560,-0.742453651635674,0.11822527951199888,0.5339136859377104,-0.17834239891341785,0.5759709080357946,1.243026212254081
570,-0.728370498480528,0.13586187487340406,0.540696585157152,4.863015235358077,-0.6117643520829916,7.239007379009705
580,-0.6935384351021996,0.18327670681289163,0.5791501426984479,5.440533332149409,1.250435090981018,7.8962462795754345
590,-0.6953287085539328,0.19281342039752508,0.5826899205863654,-0.23474134229060084,-1.3467461408770045,0.9801266736222258
600,-0.7209277573262843,0.18827121950348613,0.5582604408650702,-0.9619866778116233,2.100288976217487,0.2797469187879513
610,-0.7187834120226355,0.17681141926834865,0.5650719899543621,-7.575991902437375,0.9638454213366405,-3.3009518094201256
620,-0.7096481789918253,0.14669891803028554,0.5636477468829586,0.6606985265620935,2.3840283125560697,4.883069262205456
630,-0.7096853024399388,0.15627838042143277,0.5635941547316278,2.8064211360259654,-0.4906563012247652,4.199106193455828
640,-0.7083927764454814,0.16577893282552741,0.5693098784168777,6.369983985395393,1.508107704676023,6.238400998021126
650,-0.6905758881328683,0.18774879328899435,0.5875327612505155,3.878249149542789,-0.5845729444453173,2.9471906470598777
660,-0.7206681268721978,0.15916687887966743,0.5528391342362546,4.96675959697793,0.7828568164851282,2.8667655483182775
670,-0.7195840623688002,0.15519826653100832,0.556789169708267,2.6002356697059885,1.983079588224026,2.8684435492669635
680,-0.6897202009806095,0.17833669168142233,0.5849084006691568,-3.9275359086991153,-2.7555866806510334,-1.721261574633422
690,-0.6968018615826893,0.169042536980994,0.5788082806397963,2.4588661018941247,0.7919970176732516,2.4859170220492373
700,-0.7198465232327625,0.15503169243360723,0.5555496864220457,1.4968175442617853,0.2586275487390869,2.0165872227005384
710,-0.6973092863740348,0.19283197844728178,0.5733448890244484,-5.679182156970681,-2.852474399866037,-2.004001704777953
720,-0.703633173289665,0.17095128142369098,0.5715550867612467,-3.582467432548809,-0.39072805227156604,0.52243379872244
730,-0.7053047616264717,0.17520225777482792,0.5713907938439436,0.5338181247115278,-0.1869052012885133,1.5154183744570235
740,-0.7049875782310276,0.17252294425167397,0.5687905264958677,2.712425509425188,-1.0588794139314246,0.7819665420934374
750,-0.7066067075744411,0.16941791603273537,0.5707890144713926,4.492341435648953,1.992632319456924,3.7118935324184843
760,-0.7148411141541229,0.1630753208103019,0.5662303997042015,1.2375839475971646,1.074511580015074,2.747155180997791
770,-0.7356963738820295,0.14138167161891263,0.545235661859576,-0.4503233297042538,-1.1794806828838669,0.7423451149104019
780,-0.7150220777384177,0.16717713003134685,0.5682713475601785,0.8503658790766262,-0.8930776333018744,-0.4296223534085649
790,-0.6956652053277286,0.17932541946858313,0.5765138184123316,-1.8495540435362552,-1.5110508047085762,-1.9980437806028462
800,-0.7133152846472552,0.16295772314945323,0.562464751845834,-1.8341017196801093,0.07049928381393789,-0.6262694051033337
810,-0.7446554596089769,0.1278362867133772,0.5370035969847566,3.2778319931054307,2.749059374973875,1.8390754110649805
820,-0.724113457976482,0.15845547829221396,0.5534865672248324,0.645760717919835,-0.40798599423871845,-0.5173571799901633
830,-0.7127310437447287,0.1671696007175554,0.557987686245315,-2.3097372931216156,-2.9960010548596774,-2.4519125868768166
840,-0.7069171317631987,0.174412551332772,0.564113708511924,0.3956592041371967,-2.441639957574879,-1.8219733081634757
850,-0.7505070950360537,0.13133946646963154,0.5243052639901893,6.297062126127548,4.485438633093237,4.5089067559479
860,-0.713430407438581,0.17206279498539298,0.5623300473461409,1.255977433743559,0.43968925632797917,-0.12445671025644442
870,-0.7275485016745749,0.1562664183581575,0.5452330846382564,-1.6226657684097097,-0.5199603100250043,-1.2994768601443014
880,-0.694708958779539,0.1849641916932646,0.579023652239074,-1.8026086172060556,-0.20443879621291633,-0.7363457372080439
890,-0.7161638442675369,0.1618430713337736,0.560197537189726,1.0592168767267212,0.3349867773749907,0.806686670168641
900,-0.7016004334468463,0.17640144816587175,0.5694320512248341,-1.4052756690338861,-1.0363319713510635,-0.23026549456891243
910,-0.7182958154783378,0.15815624313502494,0.5508234866565418,-1.4686670906337067,-1.1013357902160448,-0.7735506132269154
920,-0.6947545213999851,0.1841785121759078,0.5771633622512212,-1.0309548245283744,-0.18761605282297805,-1.2402570388778855
930,-0.7034527425144396,0.17532885811959031,0.5728355647470366,2.5875992895214153,2.024509336175636,1.4812994920269176
940,-0.7151263690643501,0.16885216602761652,0.5651714877315573,3.6401922183326385,2.5424554583202594,2.4012693761631483
950,-0.7317100967096805,0.1522523133061835,0.5426558464492708,4.921937517290727,2.2555869071159487,2.0629417367209637
960,-0.7297116800389302,0.15142130302453802,0.5398983425791212,1.0254655233431034,-0.8156131669064464,-1.3277341128816433
970,-0.7095231323287281,0.17326934732798357,0.564288136204681,0.31890514131487135,-0.7419756613042228,-1.0043678424890885
980,-0.7301905478717738,0.152900708205619,0.5436746083323079,-1.4763997797010042,-1.5040267370242553,-1.3693649485364459
990,-0.7286651942536615,0.15676418270477036,0.545209060669432,-0.7137531027813466,0.04645453272888228,0.3769343800575428
1000,-0.6983911747180207,0.1770529638565711,0.5828398392344103,0.7611796933516182,2.7730677884640778,2.3805959607195044
1010,-0.7146975633570933,0.1596256012306062,0.5559560771065876,0.09187956076182502,1.360441525349235,1.0014085581951733
1020,-0.6954634042194151,0.19255494601523335,0.5817514666779808,-1.0348130136578724,-0.22104610467476038,-0.11194121634172877
1030,-0.7071878325658177,0.17653255538691923,0.5647957121490851,-1.9964364967056827,-2.2533097168238005,-2.0699262399075122
1040,-0.7066754273873705,0.1773335624297162,0.5666669625852399,3.7662750986341824,3.132923519886587,3.2376609322339034
1050,-0.7106628969996848,0.16990225421292976,0.5632600738652285,-0.293493234321191,0.7007138818100433,-0.2475622440213313
1060,-0.7068734374887812,0.16435338154457657,0.5685733472987675,-2.8292018762682156,-1.7906678865690266,-2.7595588221241685
1070,-0.704812674277735,0.16574202228199478,0.5677446661866595,-1.5791101558932994,-0.4541353844148914,-0.6810632264975968
1080,-0.6827027790239704,0.19195568498419668,0.5914896542918842,-2.930807589998027,-1.2690073118835101,-0.9784453304842673
1090,-0.7209064088516163,0.15705832048497445,0.5540799627113815,-0.5483119445188286,0.030739934349477582,0.5539718975074712
1100,-0.7146174339409699,0.16688385581505388,0.5627881179687181,0.016520720665796684,-1.1254282278129975,-1.0932342777662634
1110,-0.7121331985335078,0.16457466462709322,0.5589729130539781,-3.8179206620917436,-1.4729806018714764,-1.5931690992559142
