time_ms,ax,ay,az,gx,gy,gz
0,-0.7319722516564021,0.07717499563688049,0.29426068328528726,-0.05243154569917843,-0.49885998444801705,-0.7743880503859119
10,-0.7257324758387343,0.07863014774524277,0.2909036587090284,2.6525445534656003,1.21421453874724,1.7047078699359524
20,-0.737199292544783,0.07022828254421248,0.27851030344626815,4.308487075267713,2.6993321797913086,3.753952646473122
30,-0.7470188425287325,0.05991981395776651,0.2709170480548066,2.7150267566698805,1.987564190661359,3.2674050025604293
40,-0.7663514687673371,0.04081196948545056,0.25276365338508233,1.7156482112553852,1.852647527296881,2.4143402795490236
50,-0.7222258514626732,0.09055604940312417,0.2968875190307673,-1.85589467582992,-1.7661781760639326,-2.0640387759979406
60,-0.6896183246403892,0.1310140869940837,0.33018943769564907,2.4307260559996138,1.7186450780579885,1.2573644316828747
70,-0.7316454405064985,0.08981847532575085,0.28956751416226056,0.5976581365860812,-0.17704701009993423,-1.0775948554183894
80,-0.7235666325309229,0.09410087922383742,0.29539813177435786,-4.410150908854229,-1.8370587378633798,-5.102717547844934
90,-0.7145435817516088,0.09762002279605841,0.30264623757193426,-2.1107002198804437,0.2862228497951591,-3.7894480454442627
100,-0.7298025227798378,0.0775107182476469,0.28507520960708904,-0.24496157339153823,2.427290196337773,-0.9008835112394875
110,-0.7456433386601119,0.06281403314556333,0.27041486099964124,-1.03380343311597,0.15645924191401067,-0.2610057080442192
120,-0.7491880980235114,0.06208339984037041,0.2662316070266499,-4.530349071520577,-2.845252217595565,-2.353193546268523
130,-0.7313693973628386,0.07990565066232547,0.28268669986960815,-4.4680477732546935,-1.0023927807831308,-1.9679486164056939
140,-0.7385846940060827,0.07001957833833874,0.27736268686037746,-1.5186789962977854,1.805710862505026,-0.20863713119350558
150,-0.7434997632511693,0.06378990889151057,0.2735158023020021,-3.5159150898997003,-0.8831274969876113,-3.09803085346545
160,-0.7168306993451624,0.09249390935114844,0.2994428228119787,-0.8738045754786927,0.8319914856009419,-2.2116953322614687
170,-0.7415410280710186,0.06044962295598356,0.2732700661263425,-1.1030592543796964,0.5716145413000959,-2.76163637871481
180,-0.7633214747162603,0.040551643427880056,0.25960729167799895,2.610303696162175,1.9724086434208457,2.678716917231578
190,-0.7705190683369164,0.03846448751348346,0.25570687851146084,4.072749558299822,0.10989370485136628,4.412964081581982
200,-0.7311953917544872,0.07944969428601487,0.295730428307561,5.895162146860967,-1.4961635723897604,4.7193933082421875
210,-0.7478241987659519,0.06399459793237186,0.2819839568433164,10.599659867506467,0.8331180195875787,7.32923519595323
220,-0.7651331110027568,0.0551261349911975,0.27195580601524316,10.429869197595654,0.2208626136872071,5.627603171863949
230,-0.7666426770564998,0.06854590496362528,0.28337859394699105,8.896274616506316,-0.7573751168814569,2.6380008840744686
240,-0.7177778051722956,0.1332188148508296,0.3186753568568941,9.031753719429354,-2.736282779225786,-8.289713378384654
250,-0.7627707115472789,0.21249481479617816,0.3487211892937174,-43.98098408589689,-31.752603361457112,1.2123746243291997
260,-0.6889218833181503,0.21792065893797302,0.3896989559328901,-67.66138052226157,-38.10905063046432,3.3563562726597067
270,-0.6940812568752764,0.1376958851422442,0.3040593245520797,-87.97093575425828,-39.72700922907018,-4.22885247867703
280,-0.6978949999682054,0.19725711573760385,0.321148594702623,-102.31555561014609,-42.93784113611146,-0.3850105106325994
290,-0.6919756678905891,0.21233932224099375,0.34315937423584114,-109.4936685866755,-45.82898760501304,13.290378884577814
300,-0.5790555948609974,0.06730800330137457,0.27200049121377,-118.82474939822914,-42.89947546353703,14.490314972077073
310,-0.5497891461305898,0.04118221842713884,0.2180146603233727,-125.2966129873822,-28.811586969801223,5.885132967128964
320,-0.7177335354010653,0.04776081602313472,0.292995676434595,-102.4872505863235,-2.2017864665524023,14.564725732264643
330,-0.6887378119701351,0.012014700932937286,0.3160536935061203,-95.11046576949633,-0.24979690947918504,21.896329625071036
340,-0.6858162030236774,-0.05244471621938344,0.2809317886376885,-87.75192236540391,0.7952787682728173,26.223681052287734
350,-0.691125637481884,-0.009829938812950212,0.27610861403463993,-84.00895356341023,1.3773574051603112,31.543713490237778
360,-0.7086582498243035,0.043680818094990165,0.2908366333789417,-88.44505447653955,0.020471202571439084,37.73164377902615
370,-0.7115158352287073,0.00972116187537688,0.28636965551538063,-90.87490261867124,5.421842014975718,47.578811259891886
380,-0.6489275835788281,-0.044497463758549745,0.2802136871340999,-83.8026456445816,14.90340533067621,46.90549033326443
390,-0.6851019428388012,-0.08881097997618936,0.25789352225296824,-49.23031143187838,28.446524600179643,25.261665381941576
400,-0.6963532618247839,-0.05419516428510347,0.2695634007887318,-44.07694532694863,34.95263881136312,26.90702568480048
410,-0.6727466060812967,-0.012921423239912922,0.2599683231659711,-47.8554253972392,38.72795301630421,21.322816769714017
420,-0.656978939318999,-0.04749190533182178,0.2720089750629357,-40.6142725757727,51.107037614452175,21.99610820468304
430,-0.6633967767280557,-0.08959417710080851,0.28054765119439107,-42.173302234491175,55.38145098006686,12.912944393498098
440,-1.068057367967158,-0.1961026712904593,0.48986401697800813,-45.830996603973155,22.161875868967858,0.8312281676828723
450,-1.4261035523763133,-0.2695571366371824,0.7345638835854542,-42.1386493496235,-31.25655414764249,-11.27058545330509
460,-0.73559483740124,-0.06895025177538137,0.4749166043774346,-9.357845532218892,-13.468910412455594,-1.4395831036372688
470,-0.7415296630985488,0.09827299027599196,0.3066170064832905,-14.649575903048683,-21.678739507462634,0.6022610849936212
480,-0.6395651231835906,-0.11722763096706605,0.4758564668566,27.96773649861187,-28.24807573463979,4.848433404372129
490,-0.5654378979459025,-0.09474790072266114,0.5476804317699067,57.291621985878756,-38.98393331620326,9.182465209729362
500,-0.8130136166552618,0.08338202506963514,0.2598646018346499,41.87734951353143,-38.92528347284017,-1.7374019132643324
510,-0.9759897977352573,0.2091710526091225,0.011968217168254556,39.73797285553436,-46.014448194624855,-7.934659017364481
520,-0.9199394884426669,0.2045004305032112,-0.009594117582718744,49.753173450189486,-47.80196520554392,-13.260589276659077
530,-0.8112531559610157,0.2147783541466448,0.09546927653756772,56.42905573438385,-35.41633370573852,-18.85020727328254
540,-0.790900761781351,0.316211142618032,0.18103281072463429,88.13967733876443,-26.41232730399103,0.8207256021123439
550,-0.5403654457609308,-0.23958229877126402,0.444260174284068,52.90682214734936,-22.758686634329223,-27.984396981501465
560,-0.7320681977495366,-0.0954152574963595,0.1303784710039535,33.800999320765214,-34.26007178772431,-38.74626474269897
570,-0.7433916057729075,0.2797266202295436,0.13842395939278052,12.758429951450243,-11.40769808482315,-24.537274065542213
580,-0.7777436034253615,0.3720745076712266,0.20370512686094527,21.250946770080265,-6.777756662045693,-6.1536022740275556
590,-0.7678970341900501,0.2948728278395894,0.2964114244838662,58.889070992031364,-2.9328152539294727,8.858150977003648
600,-0.7395701112800154,0.17550873670227932,0.348655466383516,73.29657866569235,2.1244970695457956,5.477854453313206
610,-0.7167794769760355,0.11286536445584028,0.30655400236183245,32.022798936019484,9.070534587048,-10.837976116279272
620,-0.6044356546846321,0.23628486432733864,0.2542648397633737,-28.935583009633376,23.49057205125634,-21.194376062806043
630,-0.7154394706550459,0.12167896228271072,0.32915743955471366,4.0369529867428104,24.74685952031211,-17.082499885966936
640,-0.6673397671335587,0.1189713617004533,-0.05316445475812998,1.3142153550236486,36.83108039323444,-7.70925499275585
650,-0.7205877266052891,0.2243456212622325,-0.17646284555288566,-13.863718705091689,45.65284817532214,-0.4257887426155218
660,-0.6879385427927877,0.2395913419755934,0.07313702082979891,-0.6877628157544657,47.199914374743365,14.060182156516747
670,-0.6131067855504049,0.19741185156079633,0.30507501553724664,19.55826739284641,42.34539906821586,29.71788368232813
680,-0.5443880589943261,0.28186197456150136,0.18803464808298087,13.228551134564539,42.80667827952681,37.96111023541409
690,-0.6109543262374832,0.35288908107887834,-0.18910711309677314,-24.32406238819491,43.51915005729496,29.884953944797623
700,-0.7617634887103403,0.09211618452780093,-0.009815743482177152,-34.401543363001586,25.803172180591886,20.052372605730948
710,-0.7221021872674133,0.1888858579013745,0.24817725619503367,-12.60371590794431,19.00240328754937,23.897371123613915
720,-0.7785228232716398,0.21722954857438864,0.3001739505855276,-53.428077354459575,35.07679759223036,27.296075374682996
730,-0.6297791073245252,0.3364604924988725,0.10697471314405535,-22.554336016724754,35.815076918510776,30.888404121566747
740,-0.6056850037970177,0.3263838172103154,-0.009901915370732674,-0.14590677756534443,27.458370167574333,31.7341073233289
750,-0.710292956778448,0.062032805621365116,0.0863177279162664,-11.741870247530514,14.79216981262323,14.236061352363778
760,-0.7334741207457376,-0.14756902505033712,0.320674529283559,-30.265479839652908,8.757356767272205,-8.639326095089883
770,-0.7259126184992059,-0.11217540747350706,0.3577295456723387,-37.692350773707524,5.496066035601186,-20.25606728423911
780,-0.7560717886934735,-0.04683525881784704,0.26750433877232327,-32.784581494973025,6.705558570406343,-14.192149935777095
790,-0.7260386685367352,-0.0068499164645759135,0.30252406535994597,-21.987324387893455,2.4470029050987034,-10.036210663455591
800,-0.7224893611590505,0.0004715781829455947,0.2873471267531712,11.999794994407758,-4.449117376247236,6.039887966660497
810,-0.7646289154146212,-0.1277666040188487,0.21674986062767385,41.725289644983526,0.9097021289871622,7.388937857876875
820,-0.7275135054378525,-0.35123868892203025,0.20853043421518386,61.523749146143786,2.552257312067931,-14.065169704797729
830,-0.724816236402275,-0.3569794969075462,0.14945864412558504,84.65167775910447,3.9738613823748716,-37.50249932357577
840,-0.7992664914139349,-0.10442424280181233,0.10122878076792094,106.79783649829662,4.441025691159041,-48.17255158490043
850,-0.8713796534583479,0.02990308191395076,0.15791025296873593,109.17642556626569,-1.1305386885499433,-46.755731986107364
860,-0.6954478324893005,0.13297598355986132,0.1139085445620346,93.28948838018417,-1.9268026421699398,-34.42724378948099
870,-0.7032051918878482,0.01740533651583674,0.29610469593688216,46.95455871794939,-14.531835903424517,10.737184955538194
880,-0.7752954069461827,0.21379995915122474,0.2962686864519214,55.83159216783491,-9.225579437080494,20.61893449868205
890,-0.7667838662804187,0.16913478767368892,0.23033067588078635,24.917015767563267,-3.236818114280673,12.674736414698796
900,-0.781365686298919,0.29386617312619606,0.3825049845527274,63.89860407097485,-1.119808059088446,26.294850515932964
910,-0.7931323924945608,0.3177939332622253,0.40673912156070047,77.45010357989139,-8.299434215452075,22.290180159354367
920,-0.6884213533914376,0.20338620575375568,0.27630335986259164,36.0456982456579,-3.1602229964940802,9.94318003431269
930,-0.6991706360903001,0.18509826192836648,0.2574756505271233,23.29785415259565,-3.4800761371437896,10.465665803610339
940,-0.7347968200499758,0.0775447031675057,0.2769618860563964,-13.87410169364965,3.447566990368171,-14.126855995176731
950,-0.7188121424665227,0.08840159940347089,0.28515878603937145,-8.764364045007586,0.06321774359295093,-8.72080600753546
960,-0.7065818025594478,0.09222902311759756,0.29601801170088526,-2.3413493578932023,-0.585334545803796,0.39441718201856013
970,-0.7326623693008671,0.06525976827873302,0.26519326168938684,4.562809460656394,-1.2087089090154208,8.887513364471763
980,-0.7231045751361318,0.0886875258198265,0.2760007987317279,7.803876440091886,-2.5676295348504827,13.543094824823061
990,-0.7647231477017561,0.06111604613336033,0.2392585716029389,5.205202292657242,-4.806860403425047,12.670004910081646
1000,-0.7144307845726215,0.1174429224437916,0.29091019843383825,2.969728839934345,-2.7527510998772384,8.949170980823652
1010,-0.7434763594250893,0.09876534117535103,0.26058706555928746,2.5899609099572407,1.6536553012617725,-0.18092192877182334
1020,-0.7291218483984041,0.1128828212279131,0.27606659128217165,-0.7248655985847209,-0.5395749383994595,-8.205842337744192
1030,-0.7270027887667814,0.11345287086850812,0.28620247568280577,-3.024033094110229,-0.13940411404724382,-12.724527707973625
1040,-0.7258699493149737,0.09878632227441429,0.2822443315588354,-5.733315242321138,1.16931540819253,-14.189802768880035
1050,-0.7425408579487112,0.0734265999824118,0.26564482778786536,-6.371788585370789,1.1416963044673683,-13.543492255134346
1060,-0.7346104531519919,0.07937022713422563,0.2709419201899462,-8.153455446443688,-0.6309805957481928,-12.314340874071512
1070,-0.6998226749695227,0.11279179031651969,0.3047764649866697,-1.6856108028816172,-1.4507489594897087,-3.171900969420707
1080,-0.7490084451337031,0.06331445961692088,0.2585947926611936,11.930106854944436,-1.9878714866600946,9.791872644057475
1090,-0.709583847913303,0.11325309711578008,0.2898952574350552,14.305920263422056,-0.5113618972782237,10.110473970082944
1100,-0.7338621812670653,0.11408443872479884,0.2692033829508177,5.909300726229883,0.18805080081962144,3.3718807851170816
1110,-0.7272657491916396,0.10713947235389217,0.28562868746273873,-4.086054011732649,-0.867668857961521,-5.483063679277765
1120,-0.7694656212650504,0.0596068864734247,0.23697156866414215,-4.577217501960164,2.0648003906359134,-5.787255240288543
1130,-0.7049851796053809,0.11212143492086515,0.30349468406570507,-6.8594730551034555,1.7273976118241645,-6.597069589900718
1140,-0.7184407131859033,0.09698054115248667,0.2885416490624876,-4.211209712404923,-0.251517508886134,-3.30720845241232
1150,-0.7332846217571629,0.08870303796011497,0.26795265322164835,3.481525615064257,1.116370990632068,3.5845644754795245
1160,-0.7528047733559525,0.06944340070253066,0.25101323066852566,3.0798194684876194,0.16481185021733458,2.656378927028375
1170,-0.745635216763868,0.07549534438574627,0.268647080659037,1.5318447100022932,-1.9472780968685506,2.1680238740043674
1180,-0.7359356602153919,0.08159697033130271,0.2761195046556159,1.383350570351987,-1.48382419752039,3.3132559409414077
1190,-0.7335595388634664,0.08363137973636693,0.27660707805393164,3.112858449885675,0.7457566847203496,5.298588950810004
1200,-0.725455450956145,0.09642475275398601,0.2874160093187786,2.9044047099886527,-0.7242514536275597,4.489404866098724
1210,-0.7224453471466482,0.10368878777159751,0.28879734222447195,-1.5951060154731291,0.25519688273988056,-0.8234224123990452
1220,-0.7481185672679476,0.07145203420510306,0.26021094369885706,-4.035088084267089,1.0781323355213601,-3.7546097176301942
1230,-0.7355260162662799,0.07435940280940462,0.2712750786795882,-3.914047163636841,-0.3782895385315501,-3.1369078310313983
1240,-0.7073568668533987,0.10316262555569336,0.29972942782487,-2.5900498765118503,-0.644182605995814,-1.0387106118940053
1250,-0.7402025658898864,0.07079663116623651,0.27256890478663864,5.539607360291084,2.392997097999327,5.021079506830673
1260,-0.7219674970187383,0.09833285904657396,0.28726389250051376,8.670018741500918,3.2536185325362874,7.935151092833143
1270,-0.7264122257453965,0.11022101674810428,0.27890852588751697,4.261054049977504,0.6397662459130702,4.9122092363314405
1280,-0.7158870663261432,0.11050482694299443,0.29394482305743047,-1.6221354109662391,-1.5225383078289727,-1.1711383286336106
1290,-0.7225887117212358,0.09594145665226855,0.2868905146464006,-4.212739489754593,-2.265663475066437,-3.811800615502708
1300,-0.7438022847937465,0.07495533149648073,0.2644501863382537,-0.7703838625452366,1.1482226730128495,-0.20842759477329498
1310,-0.7127314036402781,0.11136280168712448,0.29661114201339916,0.987756289464823,1.820437870559322,1.3327747187736438
1320,-0.7031457130446147,0.12740628052363082,0.30596400135287116,2.2093636352412585,1.1997285041054875,1.933469885010623
1330,-0.7363532946797853,0.08752639438637748,0.27385206677918433,0.6996124723228518,-1.7080753268064264,-0.03915475564793258
1340,-0.7203376301673341,0.10240537863772307,0.28954977245513047,3.845202119371128,-0.5011308608423574,2.015555473803211
1350,-0.7363161831271774,0.08702032873336024,0.27375626955799265,0.8553772166620208,0.6426799314687447,1.5587034085252687
1360,-0.7228190434163694,0.0952737143910993,0.28545521148759906,-0.4872100524144547,-0.21168523608513193,0.22962280299714316
1370,-0.7190636293257481,0.10028491187445096,0.28884271131540923,0.11759340963232123,0.8223780201789999,1.1729474875933494
1380,-0.7385366710017659,0.08315034446664593,0.26929298524583173,-1.663777161783987,-0.31646589567814926,-0.2391315847822797
1390,-0.7241216357644847,0.09368142950753974,0.28267682567336866,-0.3369145744152452,0.8222308496396913,0.7324429690185909
1400,-0.7283666140079045,0.0840536405835616,0.27807162379423433,-3.6280952516215637,-3.3727222053602386,-2.922843897281523
1410,-0.7289840467877965,0.08699703885989403,0.2788189996798429,3.7105196563932483,1.725875963673284,3.11162280441358
1420,-0.7517658485379788,0.07255770597798084,0.257881359181389,4.815339672670228,0.8884637964322046,-1.0887964570651778
1430,-0.7238176450070675,0.10245674353903786,0.2868582149073142,0.05175900928507726,-3.245746066078673,-6.511128322777937
1440,-0.7275939967065868,0.09035187165087787,0.2838681362400362,2.3397548552321075,2.0324227050832486,-2.1450892213196275
1450,-0.7004997799836951,0.11492099898457277,0.3049290767528292,-0.11872301168160293,1.0664562986277857,-2.8812866548010927
1460,-0.7048247016074571,0.11360322218261364,0.29537844903895555,-1.0049127504802973,0.7118951273094072,-2.3420805363047954
1470,-0.7131069073953196,0.10764595700827201,0.28850109175575933,-4.7395655002499835,-2.3184664245212985,-4.5088074277620445
1480,-0.7234447294355156,0.09816019765189034,0.28038038957556144,-1.3264130837493877,0.6770017664346614,-0.23161299061451568
1490,-0.7351505379681165,0.07817113208103325,0.2751252845148458,-2.5695351295490374,-1.0489931440832951,0.6587646109604568
1500,-0.7240222178081729,0.0967790634563284,0.29018050088876357,1.4368501478843612,-1.0787867798061423,3.429101445097791
1510,-0.7356991116118561,0.08941414885528368,0.27342128140177546,-1.4165905221773196,-3.1615272549841995,1.4766742699219328
1520,-0.7483967583523041,0.07960651085426873,0.2591120603385849,1.362238175256389,1.6750512346452733,4.4773158389031735
1530,-0.7399111534788321,0.08435038129828622,0.27039163147856654,-4.730061621198821,-1.5786476619135361,-1.270414119734232
1540,-0.7589829542982771,0.06153950226281556,0.2539237361379675,-3.2764623916507545,1.6450587069414024,0.2345967130504205
1550,-0.7386067148089539,0.08267147900104918,0.273192748322363,-0.3096043982294271,1.6098019280772005,0.8946246998026623
1560,-0.7447103674175067,0.07438384797353746,0.2641338041576496,8.961019424242203,2.786120940003349,5.385441573322019
1570,-0.7179639776979824,0.1092875640827303,0.29174942080780614,1.2937220205471083,-0.19011133813778186,0.8333046333423344
1580,-0.7215113999177805,0.10448278313556933,0.2883288025534121,0.43143821342962635,0.6669450658351777,0.2477996147586542
1590,-0.7579536251098519,0.07244845296051235,0.2507905055135574,-3.298119087006304,0.013313803125071133,-1.7436665369549584
1600,-0.7235739351587134,0.09732604107151803,0.2849424387097579,-4.45079143710093,-0.5042383699320792,-2.55944089265771
1610,-0.7179952996646463,0.09649033264208952,0.2925553568136644,-0.6350599150187457,1.0234639288572818,0.27906645113690676
1620,-0.701705624402678,0.11731880804672132,0.31044763918333174,2.829310749294727,1.013575907423457,2.368296937186967
1630,-0.7290219128087572,0.09675625113741355,0.2811531655625497,1.8161545006708477,-1.9777358454537084,0.3180623928787467
1640,-0.7259765837690807,0.09946660831705811,0.2813124142650149,0.5935851608399496,-1.9043974861943664,-1.386796375480236
1650,-0.744906946336544,0.07760122040173072,0.27045507273642416,-1.482505143695091,-2.723825019308798,-4.6360372626357975
1660,-0.722004428952547,0.10197015543410229,0.2893724667190146,1.5614866694904828,0.20723472268903037,-2.1522341254147683
1670,-0.7470417433402826,0.07269935596004644,0.2667211027649323,0.7810829830929289,-1.1288712872392135,-3.1978469128379925
1680,-0.7297777198392166,0.08895958767810866,0.280696885083588,2.4858485851888643,0.2828467758226072,-1.2818448236020128
1690,-0.7358351646071692,0.08336192998400449,0.27313063073640476,2.6257359249443315,0.2854451832624389,1.2721320598627692
1700,-0.7490936785958179,0.070816529937112,0.2598367717488298,4.418228307766667,1.9889647972405315,5.570941629340984
1710,-0.7301551408092588,0.09415728207511374,0.2745467215871529,2.0063387619497135,-0.2362713439127666,2.773939308663307
1720,-0.7238171714942273,0.11068791942548248,0.2802345105204585,2.591667214019371,1.3115493974375854,2.5550248458029614
1730,-0.7218160494552984,0.10800198267862593,0.28503053691227925,0.1260696014050689,1.8074833995493766,-0.13047605708168397
1740,-0.744381705976824,0.0810990743447127,0.2563864862837129,1.6910554622328982,3.2893957590459446,0.3632871978249672
1750,-0.715718474512847,0.10377934722578344,0.2873426566494009,-2.347095892470753,-2.0089401602389003,-4.280702116023655
1760,-0.7318408245872728,0.09010212315715853,0.27914821941715573,0.917271796370234,2.17832427609215,0.0728921669736613
1770,-0.7340082287849681,0.09261265474972671,0.2754216819990568,-4.043994710732825,-0.748832131664007,-3.7724127675298416
1780,-0.7193655612322563,0.10592386679807295,0.2842991366043758,-3.617998331115011,0.1630663078166258,-3.341591682227688
1790,-0.7029704231050661,0.11536493991653929,0.30551210706841136,0.49038638169959814,2.3071945373507488,0.369621591090713
1800,-0.720545756841829,0.0944641727628497,0.2871345245114384,2.4761975307962385,2.320033463095931,2.5474033933212024
1810,-0.7319827800361735,0.09261689672916819,0.2783585369861255,5.46750162396767,4.4556985792942285,5.336217155841963
1820,-0.7329062921744045,0.09213697386613438,0.2691227991222333,1.2649202160985058,1.3125938477053847,2.2506886338582337
1830,-0.7466270703085361,0.07864970509448621,0.25974017978637,1.3785100547505746,1.884433243589818,-0.024777899540027182
1840,-0.7345672802186312,0.09245082608193733,0.27428558559967625,-1.7084586119158756,-0.3865893978133872,-3.730117615668874
1850,-0.7220090361193042,0.10282931718194609,0.28567187930767585,-0.0898323309127893,1.3624076581335371,-1.5018125077463398
1860,-0.7183189187458584,0.10251069567626422,0.287789635776099,1.0118606424727052,1.5599297402628782,-0.3822589474158451
1870,-0.7355281571145657,0.08745972678871948,0.2696210728718564,-2.686862618893942,-2.7783495050090163,-4.240299140693953
1880,-0.7215897921778687,0.10261666223141712,0.2862072159878475,0.7926104106125202,0.5743400098093694,-0.5980359630946606
1890,-0.7368944985107315,0.08203956993358719,0.2705659160670677,1.451283077107734,-0.46923973933292223,0.3450157507956487
1900,-0.7196572993098672,0.10821174151690606,0.29075948431852516,-1.4407425748142302,-0.39161539501801046,-1.1540582334520584
1910,-0.7259173473555095,0.10199568075340221,0.2840771142841759,-0.6706856827991559,1.7265752132957886,-0.18815345131125083
1920,-0.7636506761524309,0.05800917870704807,0.24568995236925403,-2.2167796674865676,0.14600669115172477,-1.8953668631515037
1930,-0.7282794976101363,0.08836873577048782,0.2796349026661515,-1.7463950927357104,-0.004190704008453783,-1.6802572140222676
1940,-0.7235147843660007,0.09296840874409973,0.282309986068878,-4.007989547224786,-3.6044711599631203,-4.349825030338977
1950,-0.7094863080803797,0.10945370337349176,0.29606183972336947,3.070502746966413,1.436624404693921,2.5727658780271425
1960,-0.7455917302595938,0.07563406323560877,0.2581361415626801,-0.6462864174666622,-1.8504547796102486,-0.25481288781128364
1970,-0.7475118055759219,0.0801413459779523,0.26538564867240244,-1.41386452059729,-0.2340979393840691,-1.2813668322175786
1980,-0.7448040463077726,0.07969387845476966,0.2640229513783949,-0.9319278220281031,1.0228578357365352,-0.035816228856821786
1990,-0.7424046863952408,0.08073172018477226,0.26489865707578275,-0.4243017345720267,1.1034405349770848,0.7868171352777942
2000,-0.7469719337929377,0.07394485369462289,0.258909040008259,0.6425446477978947,0.8006197435787415,1.463028397709548
2010,-0.7211406574699111,0.10069112797395735,0.2844684361701776,2.5609838001946903,1.6318756519576851,2.7658098984652915
2020,-0.7230314830287132,0.10359178708466871,0.28508370559205143,3.3888320405492953,2.6898266536339515,3.4148851595119054
2030,-0.7239021469656475,0.10249934302185282,0.2865839037517759,3.4143790777026464,4.123330109694928,4.014045174613065
2040,-0.7438763571885528,0.08110511245159627,0.26948398300774973,-5.0366610574353246,-2.035784758326181,-3.4502256829537985
