time_ms,ax,ay,az,gx,gy,gz
0,-0.5783612069194168,0.17007528542755596,0.499385835596458,-1.8096332853204422,-0.05267349629235518,0.30828256972096596
10,-0.5834542147835182,0.15987279826507747,0.4919366622709948,0.10121365677119232,1.0602285350319427,2.1727504030811184
20,-0.6061985155949605,0.1237101775743796,0.4741209178603725,-1.037665513851907,-1.210352611210055,-0.14930304206846245
30,-0.5911114089491554,0.14533904714560303,0.4876197153299131,3.3212660995582017,2.1592560175431736,2.722970142890904
40,-0.5890663530013016,0.15424280757781492,0.486174510278902,1.733156664311253,1.4804134260088104,1.0518595986847181
50,-0.6033073107504803,0.13814656311075862,0.47154605930973237,-0.6965375861113143,0.7129431040477925,-0.36741552006387446
60,-0.5873639203896386,0.1554482685057788,0.48868587901397104,0.928419776910142,1.757331660373502,1.3961030994283168
70,-0.585387028014815,0.15384432604306814,0.4900874401036889,0.3025837352902753,0.17886727135714173,0.27131877765345036
80,-0.6085870588087376,0.1274343194917265,0.4642724129214224,-1.0660698250088327,-1.6843998202470518,-1.6739850977125348
90,-0.6128162798109393,0.12408314234664342,0.46300644991605877,2.0446618034217643,1.0714914664588129,1.471180632859303
100,-0.6064595123609838,0.13544117061064104,0.47182418530137427,4.410504378082138,4.048749497790209,3.8907327663317877
110,-0.5923501126985197,0.14970397867709814,0.4863768479044942,-0.19451169086558218,1.4682183892700063,0.27716065492846187
120,-0.5895194310134989,0.14931775428549773,0.4891630926474947,-4.327722347480875,-1.1119522140483293,-2.5755560856301214
130,-0.6047777818983979,0.13615916142686804,0.47570376754262167,-1.2775075180045106,0.49495456560973927,0.37370998166718083
140,-0.5521750797352166,0.18030187337005005,0.5321313587067252,-1.8482019407227335,-1.3954814633471448,0.7429237006353069
150,-0.6088112031035043,0.13302323677796823,0.4739022344480506,3.674870462683897,1.2501736779062702,4.619332113447685
160,-0.6094142084643415,0.12444667668097795,0.4755259743713805,5.740660251756678,2.2169920595530437,6.993407982388218
170,-0.5769332588955965,0.17552807844128354,0.5203350589682746,2.723163946899562,-1.931202124787577,5.331138421248857
180,-0.6367187458727525,0.10357234081310177,0.49808792335854624,4.364703361448423,-9.164551340031409,4.778547168661483
190,-0.6323148501380268,0.06400499392327089,0.5115618096781677,7.384376223265403,-19.38586746974801,1.216638464916108
200,-0.5506321700011333,0.14555801863295423,0.5032710125973769,7.25382697797914,-23.68404742084795,-4.835638912877284
210,-0.5598049279817326,0.15667722359714972,0.4604305908468543,6.692368635153413,-22.004948614540254,-4.454107952360829
220,-0.5384232783747971,0.20508296503855952,0.47552336932010975,1.6349946558160462,-22.109733149032067,-3.2652822409060605
230,-0.5286185388200376,0.17302215649741168,0.4403726884560854,-5.761546481670225,-19.550422909333566,-1.2497759472704724
240,-0.5170248826222817,0.11463298780694235,0.41631630703637545,-4.438163412232553,-9.920494995027124,-0.7385658786622398
250,-0.546771042292918,0.12234495486845282,0.4217010345717505,-10.227450620235558,-0.9474764367471389,-3.639922950743851
260,-0.5572509142085432,0.19133762497124973,0.48727461881243117,-17.080056384163026,7.0564292882334705,-2.9545541453505013
270,-0.551614044779653,0.10693822728899906,0.5055982149918108,-17.090825760031453,4.1949206365438725,-7.429802257165089
280,-0.5579349182679011,0.11542208647013912,0.4763070039707718,-20.329415228140583,8.814686527878203,-5.787976902063451
290,-0.586788764156729,0.11426927474416369,0.5508114257943532,-15.20580173261055,4.534754942162706,-8.574818942983752
300,-0.7021759131375379,0.15992317153432323,0.6254430035299146,-17.465740083563286,0.6559413000664374,-4.991953723734559
310,-0.6927073546296512,0.170606999450505,0.5866448572714541,-17.275672999934777,-1.979912317494548,-3.8243871215351817
320,-0.6320100099936369,0.15166402389609251,0.4941290962939771,-11.358927294935022,-4.321859983065588,-5.1361800563418365
330,-0.6347786151835039,0.14023749799023993,0.42273412234049135,-1.211696752632571,-8.243717852569455,-9.573844503428829
340,-0.6901263798009285,0.13924256950195896,0.38393016572897654,9.858846845984127,-12.61764198335612,-17.331630253457856
350,-0.6036270263320102,0.10383769081429571,0.48074149138844435,12.924428483086768,-8.0176422108874,-9.733589391719645
360,-0.5952482561521557,-0.05672467226980614,0.49361931146859994,-6.609751009155572,-10.104541664003051,-20.65275869192145
370,-0.6411328994941147,0.13202891130380975,0.4287636287106675,6.206766199944815,-5.035548489440454,-18.799928084333327
380,-0.6181729423043915,0.1655932656717574,0.44153222092707584,13.046607282378728,0.16186275230666514,-14.495922104453102
390,-0.6468159200307281,0.2100330415227173,0.31682010405515115,17.280817612729535,12.827057082082323,-3.207356326380129
400,-0.8110172228435247,0.4212198500918134,-0.0022237375360303624,29.675794060412972,29.639917134071016,15.088914640520414
410,-0.8995544644513209,0.5404125440106431,-0.036001542855336195,40.46727615973841,32.705027377124374,27.983945791000288
420,-0.5012896482269645,-0.14091302312755905,1.022828271840595,18.93413925690241,37.055528445424116,34.52770984062347
430,-0.4665760198412627,-0.06888343853295545,0.7416934274397448,0.9448298147703769,30.107359545721273,26.095388256205805
440,-0.5728125610519392,0.08829492279561223,0.4324396807721125,-21.559879603887097,19.39225133948482,17.005787512373843
450,-0.5681978519642061,-0.0009631322595182465,0.6818686697809646,-29.615443494139935,21.895624656881225,15.286916539327105
460,-0.5369333884800804,-0.03503384568936794,0.8087689939889903,-16.184428388784085,14.29905499527986,5.305383733314259
470,-0.5975067948450425,0.09266356890563067,0.47979442210438106,10.488019610989637,-0.18402504612036594,-4.043483134384892
480,-0.5953144492682365,0.10981128713911145,0.47627429850605824,9.947249543107445,-1.7183233782265313,0.4534788124263407
490,-0.5910001010858077,0.1313267596423065,0.48685686778909365,15.253796614911487,1.447482278315995,6.828342777176606
500,-0.5950520697497574,0.11450391776768626,0.49374230227658206,24.84723977476038,0.2732938233090627,7.966930224143129
510,-0.6234170757036072,0.0978746639487302,0.46545459288294705,27.8102965798106,-0.41746014428940637,6.654186676856375
520,-0.6201205964736914,0.11731790080295365,0.4945628066316593,20.378723803068887,0.21497369949616196,7.9511614803830035
530,-0.6366225727165312,0.01664051929864127,0.5242761186677155,15.472194692492849,-1.3824238124497634,0.8415961252225508
540,-0.6142706070922188,0.003492308666231127,0.5837889472306862,24.843258972705076,-7.6545717656665335,-16.219908955473695
550,-0.7067437579385618,0.2608526547044105,0.4672304761931879,47.08813332295483,-8.210970583725896,-17.59768236206236
560,-0.6259178875648636,0.33226032665433675,0.2899874707804977,11.438063739788095,-7.288807990760835,-16.403419742333814
570,-0.577198074737896,0.17720944371022265,0.4149106039539829,1.246328736199625,-4.991729095559068,-11.496677701818914
580,-0.5898921891692642,0.2473937126149579,0.43750888946048716,9.95037380784297,-1.98533749166033,-4.0098142974928495
590,-0.5652558681649413,0.2786130887171615,0.4830141331833469,8.695974129585045,0.4570721544841606,-0.9909790016467872
600,-0.5904664179290149,0.1827923286239447,0.4740982712773675,2.1992149991156325,-0.2940582372920991,-2.0253077271477666
610,-0.6206510321697686,0.12740382178406093,0.4506006643290377,0.6222913244928918,-4.003101408749923,-3.8490148819954144
620,-0.6015776197664383,0.15652221326366245,0.4709872300358,6.564284623330261,2.3721655376914157,3.467827778620041
630,-0.5794051747009402,0.18717756046154244,0.48840376085941295,3.9239115792500017,1.5422451469204868,1.7775148925334907
640,-0.6085016527782129,0.1698212021292143,0.48280776676494314,-2.290854743980916,-1.2992645994067917,-3.9861421693234913
650,-0.5816044506950303,0.19119907135080452,0.5005267140296723,-11.755344798115516,-1.227119866346314,-4.898473032672191
660,-0.6132622388438568,0.13956672139383317,0.46398387831386473,-12.501499744287653,-0.16166619166409602,-3.186925830075208
670,-0.5878049388642093,0.15939840153234608,0.48875487786118527,-7.663283367441024,-1.1075240586300783,-2.034042601890434
680,-0.6048587331237514,0.1561436281287336,0.46771183720958137,0.2794690195752614,0.41531907031429427,1.5816900371145874
690,-0.5955046572975837,0.1602591867142701,0.481485382430628,0.8170449667294106,-1.7728757817775131,-1.2311974715829441
700,-0.5928171403932746,0.1577836186553336,0.4773368735465263,-1.372239076145311,-0.8799309732618283,-0.40344160133764273
710,-0.6014468490716339,0.15443508306960685,0.4722797148451132,-11.939885266021326,-4.858058343064778,-3.9024996315373164
720,-0.5916301652157627,0.1534920893943949,0.47756878539704783,-7.040780681272717,-1.5548288891052546,-0.23429730423145767
730,-0.6238488910282816,0.11508600403532838,0.4479365033658021,-5.098783755719787,-0.49783875595208527,1.0427398758558735
740,-0.6103743654854636,0.12903934195014238,0.46705282152557803,-0.5021939614687949,2.052070447686743,3.674600819281629
750,-0.5974573559266814,0.14572239815153912,0.4807948464568865,0.833544002104762,-1.7092386043752543,-0.2254313113739066
760,-0.5897140552757432,0.164582073229322,0.488587334139105,3.968077643326903,0.774384717826357,1.667460540325632
770,-0.6146333175728219,0.1361560504522731,0.45820686448987596,-0.7505545775626662,-1.115975556739234,-1.7752583721167705
780,-0.5953819172432545,0.15827683365020084,0.47932501125776816,-2.887691586994769,-1.4760100863619656,-3.0613101602491435
790,-0.59342960045655,0.15872313722710443,0.47641726149293534,-4.127545202077716,-1.6661799888323063,-3.2036861218239974
800,-0.6082489528512929,0.1362359063505566,0.4602839979105745,-2.461587100821121,-0.6627937038507985,-1.1593860277604469
810,-0.5980999984368159,0.14384694137908233,0.4724700014661748,-0.21989423842232703,0.5000324233651023,1.8021057301382686
820,-0.5670975671471391,0.18149901887100856,0.5050158751312006,-1.7465999741279403,-1.1807001137603492,1.5664522978939348
830,-0.6009380079571046,0.14815729302630198,0.47347869544390997,-0.7446852991189699,-0.00867707371970658,2.027793081996417
840,-0.5891758348139862,0.16249450517666467,0.4804716218839833,-2.162105084275533,0.08981525461565013,1.071688164400718
850,-0.5819042916426135,0.17053891356346895,0.49204113705318653,-2.307957752440646,-0.9043734765743813,-1.2437300040071106
860,-0.5880783399806339,0.16587819304394136,0.4910109974483554,-4.623941700882778,-2.232510365334347,-3.828570584614674
870,-0.6016095049273019,0.1467820168886106,0.47408921334283766,-0.6230729092026555,1.6601040324268768,-0.33166057997355747
880,-0.6407686523469911,0.10254845836130604,0.42795918762096813,1.5141817901919308,-0.01123337024815343,-0.6907197501089536
890,-0.5912871854886046,0.15423460423722202,0.47757668336070697,8.452431655460149,1.65652622484604,3.0782520080029037
900,-0.5959116955710793,0.1500183503742444,0.4829578951381266,7.466280521373765,1.4585063507297567,2.631445626413478
910,-0.5752991377955685,0.17763902099263768,0.5025630846297453,4.360055894469413,0.5956109111318861,1.500588382687027
920,-0.6226523973103952,0.1307123982046557,0.4538112555401646,2.558804149709604,1.7010309656512768,2.9178863513595243
930,-0.5856626883212414,0.1675461285032354,0.4905284118587161,-1.350686906381406,-0.4863905422772906,0.4181856140362882
940,-0.6034009307448179,0.14831461322261444,0.4717230789964908,-2.3592882803713637,-0.7404561987332958,-0.3447720084454414
950,-0.6075580083389007,0.1431005763297916,0.46625142118671653,-3.5924452894011742,-1.5509313738181598,-1.9104493504993676
960,-0.6199232547749619,0.13068772283189167,0.453742467998258,-2.584485141236951,-0.06181463951587929,-1.317519800430569
970,-0.6147867676884962,0.13290680845041655,0.46058214202882564,-3.8565040099939742,-1.0661872221132813,-2.479003217186939
980,-0.6279457269522761,0.12218179609485623,0.46176948846180776,-0.48607588180126515,1.2228689344744463,-1.0154806815925985
990,-0.5913354820523087,0.15770438451969587,0.47456679815429065,-4.870531388385222,-2.2308558784175285,-2.9364197675541144
1000,-0.5863554475071898,0.15811241840437937,0.4823035306174961,-4.106590604158354,-2.374508313989205,-2.0012244479613597
1010,-0.5848901353827752,0.15994350341146435,0.4873715274768112,-0.6068375441761276,1.6226637608858214,2.678566653376852
1020,-0.6037798402558402,0.14242495461003646,0.4669511386812279,0.8222492990582779,1.7471133335451041,3.901027639714339
1030,-0.6110287009118301,0.1341581578742429,0.4623003952329302,5.529043189905877,0.6164385670384582,4.146393002069617
1040,-0.5958636758031105,0.1567155182508315,0.481211127114398,7.907356931831826,-0.9904983520375523,2.225080201865179
1050,-0.5791553312605602,0.1678035996449594,0.4904451040016622,7.089282439726361,-3.590052590604852,-1.3639083873419948
1060,-0.5977246291346863,0.14803107496166498,0.4758621973704811,6.553523012384284,-1.9494829520365395,-2.03294885262168
1070,-0.5993745176631755,0.1555889960072469,0.47884332476072944,4.288335929808641,-1.1274189507829824,-2.8188641283822764
1080,-0.5914164955766688,0.16957342323148428,0.484506111567474,4.3807751757923885,0.7534606422150486,-1.5943228164189023
1090,-0.588366650299939,0.16825887605287812,0.4833997593816159,0.412924258008152,-1.7843185948062292,-2.6781471155751424
1100,-0.6130432948107724,0.13083071507625893,0.45980668875768244,1.4187054491631916,0.9487439569701173,3.465251101191412
1110,-0.580483756038429,0.15063163166649055,0.4939056699435868,0.5872171181228467,-1.149287034637917,2.9547537988325674
1120,-0.5702231780778633,0.17893987593079413,0.503360166756815,4.779398641098388,2.1324753696999608,6.162993371672568
1130,-0.6168960014106951,0.1407761195633771,0.4592130106094112,3.3627107453784832,1.4167932634135298,4.190939386616792
1140,-0.579825832243649,0.1767089831632537,0.4945215980504405,1.3768995312379788,1.3626432936804251,2.857287300696515
1150,-0.5910016138555715,0.16518750978171173,0.48069365324780733,-3.0518221077607484,-1.7563777555703863,-0.8456973089933633
1160,-0.5980831526727012,0.15655433835102633,0.47546196227874277,-2.0026939441278944,-0.16506370568244355,0.7381167776209991
1170,-0.5921195759739829,0.15636798489245507,0.48712071013353353,-0.49242671046134046,1.5883153806253272,2.595944546413104
1180,-0.6236705403593475,0.1263425835143331,0.45349249623332033,-3.9651426636252567,-2.8736114604494447,-1.669790759146574
1190,-0.600731713424325,0.14317511810231626,0.4680191918071167,0.6537085318363067,1.457357730610494,3.3085070995966666
1200,-0.604638306959895,0.14278718882667976,0.4664379945059962,2.8736307507940246,2.3099320991858168,5.786684206202897
1210,-0.5856886578192051,0.1705405959420524,0.4864009570781009,-0.4872148443616501,-1.194811852306166,3.1238665599509097
1220,-0.640370654874245,0.12352773671451363,0.4324850626086814,-0.9720757738905166,-1.0582504133945612,2.8167860579695794
1230,-0.604509321874496,0.15749357356095842,0.471182871353556,-3.546105569641189,-1.8752074919405461,0.363912067685884
1240,-0.606080957766681,0.1438020515121802,0.47198020424515236,-2.5092948326796765,1.216779250978102,1.9269526844812022
1250,-0.5834541998544196,0.16048218738834547,0.48747014562889573,-0.600287517155,0.6538239019718901,2.7847763769439275
1260,-0.6085181985532429,0.13434049907776094,0.4656721896363456,0.4360950836493811,-1.3246937177865037,2.2206296286930978
1270,-0.5937163381125281,0.15989481016917775,0.48393798935513865,3.78549536127753,-0.6548765829844889,3.4310834825390137
1280,-0.6056729666064549,0.15521402131999296,0.4699622361918171,-0.006557380183740413,-2.9125446837868596,0.9008732221590687
1290,-0.613587414211053,0.14788766651038115,0.46332820137670705,0.07908405355058723,-0.8676114484200514,1.3148216561383248
1300,-0.581438146714949,0.17854254529262883,0.4956435684148809,1.6904784247667692,0.9721649669284235,1.552337172060098
1310,-0.5874512714923905,0.17574791139969606,0.4834051698804781,3.762992429126976,2.735131393626744,3.1427507029160755
1320,-0.5992561026447782,0.17285276879943348,0.47712415282679926,1.4387070096140089,2.304937235042583,2.070606299813602
1330,-0.6035514127801687,0.15589421377504142,0.4702688812277252,-3.536132314312621,-0.1301698380013609,-1.3161884399549366
1340,-0.6070567545735527,0.1516845713834496,0.4691323770550925,-5.3773951073227915,-1.5259157164263453,-2.3065658231496333
1350,-0.6069470536668767,0.14635777205606076,0.4654871227067264,-1.041215713343246,1.0879712494554856,1.0196679861042544
1360,-0.5790682244264407,0.1708980053366815,0.4916900744095919,1.0271165779693678,0.2796012161636405,0.7071963966221413
1370,-0.5811779375290281,0.17175050560962352,0.4904978765476303,3.613292279301759,2.5245059077737824,2.542400287158158
1380,-0.6230979562858412,0.1344450279277486,0.4469998535725501,-1.6694412455180685,0.8620449480326993,-0.2662437708767341
1390,-0.6032311266987795,0.15111145781766178,0.46699336191593754,-0.40238651561420946,2.0958126040815785,1.4883086622297301
1400,-0.5846689495440293,0.17228313008791035,0.4931230236969498,-4.094138948197578,-1.35957055849553,-2.000631097217866
1410,-0.6045138194225813,0.15039050615167518,0.4689455203695311,-1.9880041117236833,1.7517381849141587,0.956489022398129
1420,-0.6284706034665553,0.12844854699169161,0.44775102059859256,-3.5910544497540102,0.16415408643343174,-0.8286789610278275
1430,-0.5876723059450216,0.16400699894376314,0.4889226338182646,-7.219344425629434,-4.7526691288291545,-5.853559048517176
1440,-0.5845606956949582,0.16620666354755068,0.49192243759930504,-4.680268281127351,-3.6636247030219256,-4.7830721878699425
1450,-0.5894272973940856,0.17636829229946321,0.4919824742548491,0.03765023999062826,0.7246659908639264,-0.6034872709754737
1460,-0.5820966768071774,0.17334523982622907,0.48855766075501617,-1.735773526600525,-0.848325532737486,-3.162944673167893
1470,-0.615023962733027,0.14143925978910918,0.4557067178720961,-5.18473636402061,-2.844624595428632,-5.63138062944936
1480,-0.5811509877287678,0.17441572687716775,0.4922773926836838,-6.265119305336569,-3.051579386904405,-6.133879795773915
1490,-0.6118322368120949,0.13814859074212787,0.4635805234251301,-2.7100649884319408,1.2070719888590653,-1.402152178084971
1500,-0.6116705455548088,0.13431608202681827,0.4623104616110185,-3.648074435315234,0.25025193186901923,-1.0422212700980125
1510,-0.585215373611761,0.16399079940255815,0.4874415349196194,-3.6424873597914327,-1.1923064976561562,-1.6304677464011488
1520,-0.599861236780327,0.15676627891815714,0.475667962659237,1.4111081362274378,1.73287252026253,0.551851484926628
1530,-0.600011695387837,0.1511168130549538,0.47497593917985775,-1.8578632415683014,-0.3367386583413228,-1.895737897099687
1540,-0.5858504425253009,0.16591003616842892,0.488407453937986,-2.3858735001916314,-0.2218897107990474,-2.6649434211636023
1550,-0.6010021010768296,0.14793908936682426,0.4722836759542197,-3.4683120001874514,-0.9702433776324814,-2.503550770994114
1560,-0.590605279693393,0.15477603425025682,0.4837749138478131,-1.2172996326729082,1.2015457375576353,0.944764370963944
1570,-0.592278573789316,0.15350321815902052,0.48512421034362846,0.03254528635764431,2.0131371900494988,3.1369818938853706
1580,-0.5930913432300018,0.15944030320237396,0.4853129255827899,-1.1747339780142512,-0.340128913591411,0.9751356081663228
1590,-0.6099246247399189,0.1514132053278529,0.4658206238499029,0.575737987691525,-0.009352727593448629,-0.6853634073652173
1600,-0.59345938861183,0.16416091402069588,0.48753255069975737,2.3406738031033263,3.516673429357527,1.64286136362774
1610,-0.6106387737968655,0.14109539827282525,0.4661131579118545,-1.3850998852291765,-0.27371965952238037,-2.2033416816973617
1620,-0.606238759855595,0.14304966005112485,0.4743336966371589,-0.033677065274464235,1.5207835266493495,-0.05984335903633142
1630,-0.6221482745724803,0.12392005397253243,0.4594938213417683,0.5276278570964841,0.8231585546799871,0.03458428635043875
1640,-0.6077520437759346,0.13799667566701818,0.47121353650596987,1.3337454150592158,0.04321111996518834,0.688432000196239
1650,-0.585420122867433,0.16491834832725003,0.4898523683878842,1.2084345168494837,-0.4002006404773939,0.8045020171807703
1660,-0.6026579439239373,0.15365893105995834,0.4710150622081769,0.17018040448449068,-0.21927182613096957,-0.8319974449886869
1670,-0.5925554838187457,0.16279821441371892,0.48342177361575905,-0.8970294033325982,0.26448362058670244,-1.3817481966943936
1680,-0.6184180637434925,0.13186070319940957,0.4520635058816505,-1.8830621807916161,0.04460791426974983,-1.2980326576520649
1690,-0.6030274471252309,0.14438949695097467,0.46920207732900443,-0.5615872583183567,0.9661676826348388,0.1987838516557633
1700,-0.6024423743041588,0.1466551466184335,0.4722064513923899,-1.4016945845197386,-0.7963863906667792,-1.3832234871434372
1710,-0.6068877238311816,0.14553667029489178,0.4688069681163007,2.2350008985996626,2.1773681888696252,1.8023355578482918
1720,-0.5921861111960895,0.15941619870082557,0.4831913748847249,0.17903792277334546,0.4417134538274849,0.2735993248791602
1730,-0.5657294393444374,0.17877418612176046,0.5088003540849669,-0.9147323669272935,0.38915268489211513,-0.000133043413127365
1740,-0.5953747841674113,0.1480467456479704,0.479170062456596,-1.6196006060007313,-1.4225759289081967,-1.6837422998107079
