time_ms,ax,ay,az,gx,gy,gz
0,-0.7985900181934859,1.0522616827383227,0.8652876992709779,2.582355838335234,1.7666472501280952,2.0974899796593265
10,-0.8390063638051967,1.0055549687398426,0.8310276592454583,0.9171535169083787,0.5627208615398884,0.38515092856272604
20,-0.8287713064936229,1.0113349143140196,0.8333695018181938,-0.3527390839737421,-0.9245420332147034,-1.0412541305806242
30,-0.826879403487359,1.0178361632081339,0.8321851937849042,0.4053933074008089,0.05161609617304792,-0.2229894150534908
40,-0.8140658245026321,1.0352070516878795,0.8471554113636922,2.286966153852707,2.333740519205563,1.8047018589689836
50,-0.8452177517595677,1.004006391308021,0.819010188268626,0.2155766368837635,0.5264762720248148,-0.14715074512821213
60,-0.8114669378890157,1.041534268577737,0.8556467159979935,-1.0543964295400752,-0.2417610527961156,-1.1166120393759398
70,-0.8222711402106134,1.0251399663313094,0.8421269220133111,-4.1271691306391665,-2.03087105273968,-3.1092510992425444
80,-0.8470115720947006,0.9952733165185713,0.8207491278170654,-1.127214071223035,-0.5018246825781219,-1.1134583146824073
90,-0.8342722469438335,1.0072376872448743,0.831659637362733,2.1105056831689453,1.1893111420409745,0.9609610756493695
100,-0.8241920846843207,1.0212459906873246,0.8412083509731205,2.5161247553030712,1.0846704530282962,0.9282849707445906
110,-0.8293368222126174,1.0186872648913896,0.8344041951890984,1.0131378852044022,0.13782677040449604,-0.009156795944235886
120,-0.8431519520948798,1.0009224853287315,0.8135508500342032,-1.6317854558204528,-1.6964678385770122,-1.631205277371976
130,-0.8579863077378836,0.9877976108045398,0.8076913902606517,-0.5723748247393091,-0.7754281474064498,-1.009078908784235
140,-0.8499142462404512,1.0003400083462923,0.8186392431658975,0.7779775729701045,0.8414059683907615,0.6009969454872826
150,-0.8415193209704366,1.0005002816910524,0.8188886952961651,2.4402323766878995,2.238457274566938,1.4847547388597748
160,-0.8378902023648075,0.9991263167042301,0.8234691144857343,2.777026871040878,1.7259726403477846,1.2111050447843337
170,-0.834052869630728,1.0064958305218685,0.8311308302525193,1.572810851006416,0.6794781568181838,0.44850157696565207
180,-0.8483027490662753,0.9988739591831154,0.8142657741691381,-2.1087266089651497,-1.1727133051360343,-1.93110657937194
190,-0.8397303877624761,1.0052789490654161,0.82078023194639,-0.43394863797020755,1.9204201237248442,0.4064583618284374
200,-0.8159171843922528,1.0244284046592325,0.8452224186978996,-0.551859679633894,0.742500407042846,-0.2708059901049106
210,-0.8327552901749008,1.0097439190724302,0.8312445415163503,0.751233457843911,0.8313069276777769,0.4073900517148861
220,-0.8602021889762741,0.9847009024923321,0.8020113187260469,-0.4662787189882833,-0.5783484691706726,-0.6528119309146796
230,-0.8436344939375376,1.0928485250384863,0.8496566161300882,-22.673541313623673,-4.2070138560940595,-12.023046117031534
240,-0.9433272011659132,1.1537070873096393,0.7577376898502453,-66.58888410022661,-8.13975473933385,-35.770039067454555
250,-0.9708330374954759,1.3407422185398832,0.7360674186647435,-98.12991430449499,5.8272103040245185,-45.318915933497976
260,-0.9577274424349973,2.1695579131999607,1.523885920537935,-78.58547759888796,60.11600084580235,18.948335730918473
270,-1.2855962890328296,1.8096687550470618,1.3656650417950404,-95.71887116664975,22.27501241091185,71.80390540785545
280,-1.0992564920437964,1.7944461757995656,1.10172376985124,-66.4038184165677,4.847417782600821,121.3010544396871
290,-0.8176168638375582,1.4066724765316645,0.7833489310684209,-50.248356493699795,1.6812946650770464,153.3774057821403
300,-0.4249500481271657,0.7582772000530699,0.5278443690732751,-67.89624605273679,27.21149174420936,126.33962128142025
310,-0.08186345856445867,0.1736866436326311,0.3765678489062443,-84.16436137710322,92.83305155154312,48.19673943044673
320,-0.3024100141344809,-0.11974311037843328,0.6811321306733215,-67.27461315265609,116.67371607816948,-5.275239836190561
330,-2.001626825610253,0.7009269265759089,2.2048323442395503,-16.459934050629865,-90.02545612635927,2.184460328026858
340,-1.713531373822458,0.3364914790964355,0.9078443284186345,66.40780198115942,-30.50911135887994,24.85485731010801
350,-1.0699822704357478,-0.15389033499724644,1.1582106242310528,70.310651918529,-5.296559054589268,20.820945709739977
360,-0.780706257607119,-0.19543498576885698,1.6469091875196125,32.396701126695646,-24.726388030400617,4.565180256300312
370,-0.8576639475903955,0.6198795330343365,1.099347000292656,15.994157065013063,-38.67655791130426,-27.385192598700996
380,-0.9210435969076312,2.1451510040132336,0.2142908648306065,35.11085537681459,-39.43469836197928,-107.00592127157034
390,-0.9185806873227282,1.6980734864746674,0.1225153696728623,31.716148203871402,-22.929527610037425,-133.97453118980752
400,-0.13719785952764002,2.1728645676389715,-0.34772468461623235,1.3072373416280823,-7.659029895837668,-127.15614972047732
410,-0.3901338357265211,2.224067997861321,-0.1217819215860573,19.232954127398056,7.904037387295493,-87.86886026105672
420,-0.446640423651806,2.29726022056115,0.9946861102710824,34.88850130553898,17.4181671833693,-46.515813969727695
430,-0.3782134222986762,2.078813795344624,1.6286145302036463,13.397290075130664,14.560971629466207,-30.57693976764552
440,-0.7581126043833791,1.4782907938094023,1.030775911251104,-21.368087875208303,28.444270725519587,-7.172008117863298
450,-1.0137975713737017,2.088333213247605,1.8561975995874591,-49.53132050004439,75.51617202147975,90.45403788310037
460,-0.6840158242330094,1.751811341099626,0.9850152083289031,-68.17273162125193,77.01213750062934,150.57679688746273
470,-0.4965698032589628,2.050078309036425,1.0650062315694537,-86.99816408921858,59.26603808534626,146.795673798913
480,-0.733064124160474,0.6750927229410182,0.9940229711638561,-91.41995495945541,23.294472438063448,67.05094774257046
490,-0.9555172958282094,0.12362118203166925,0.9508655488595006,-39.89869372532987,2.603631791363615,8.873147612342922
500,-0.9214173837685757,1.1778953986867466,1.0601265717222161,39.9474439923287,13.72969909910109,23.232679573874208
510,-0.851621944109087,0.8063750646572712,1.0184535625010922,20.67631691305091,3.6896452405340874,18.73366149840675
520,-1.0905480549949595,0.6859916138899346,1.3451333919628696,120.26430982520282,9.52753927304759,29.695141961325394
530,-1.1663094472192372,0.7603547359576837,0.8920667973117217,89.55955806283283,-12.593121839117641,-25.23273037587405
540,-0.7847973694049141,1.6558008264748805,-0.05332304513399214,99.35907015638996,-44.35670899202985,-81.8101971957188
550,-0.8714964542098697,0.9381111151845971,-0.04496622890661335,81.52187383051096,-65.13190010948256,-117.13597393218633
560,-1.18063489580025,0.20171338786914586,0.6242976555009259,62.13548967235664,-63.70603943304505,-119.17755436194642
570,-0.6553837275470218,2.3890059614019687,0.9144421567187883,89.99728298214238,-46.90179532352198,-89.41227723608209
580,-0.03588025226737999,3.0178532587599642,1.0653043640748392,20.150850348322038,-10.061412465386109,-15.1902995644528
590,-0.7201998718975249,1.4736390058430697,0.7896811899386134,5.52375160619949,-1.3337204577537847,-8.987025578369702
600,-0.845747321699974,1.147228655770542,0.7581907607087947,-2.162358275088619,1.9425538613830908,-19.118060797594023
610,-0.892552936034501,1.054130811079347,0.6998101065155232,-6.955370025695073,1.5885012458821248,-26.227430407212616
620,-0.8640717634622964,1.042532925954335,0.7182335773439397,-7.330956569284142,1.0887814139999303,-22.905693329416376
630,-0.887872798394039,1.0034530784077391,0.7033191950929829,-5.127375047465435,-1.028253033988648,-13.298412009131157
640,-0.8582872322215227,1.0367438876651576,0.7354203537776687,2.2049951959698806,-1.7204050788342986,1.8511056553870553
650,-0.8652128481982956,1.072348907037479,0.7369322612375021,11.07356362795958,1.8060250132647697,12.897086428819117
660,-0.8697790150767931,1.0717201539204826,0.7328576556686613,0.7379878331487891,0.037210320704490034,5.1502883373620305
670,-0.847565631620957,1.1004653344084974,0.7499484129709914,-2.827841225343066,0.35269626996728415,1.2911965246610053
680,-0.8187561002442895,1.1180841238141697,0.7629771711546703,-3.30734134783338,-0.29202308899097273,-1.9742822898209982
690,-0.8492028587796856,1.0752893906611227,0.722344439707209,-2.7998746100948155,-0.9650320377702648,-5.178029627675556
700,-0.9070238478454224,1.0399139757787752,0.6830928917888819,-4.799351828074846,-3.334583462280298,-9.701595647048665
710,-0.8872853784235694,1.0574606163742857,0.7234489978066299,-5.33069179220511,-0.6537081991759046,-8.470508903413903
720,-0.8810701300959374,1.0603250221085387,0.7260757276391321,-11.024766938600882,-4.725911772235233,-11.511460681113547
730,-0.8787692460668225,1.0477016156817445,0.7209704388393717,-11.811912438198917,-8.773900110650624,-12.298444943316126
740,-0.8736942753660661,1.0330626118477737,0.7234021852326222,-17.36679214136442,-14.700168234494035,-16.26744594044646
750,-0.8610552347870262,1.0397112465784815,0.7522237896704246,-20.06250829195356,-14.828986244040808,-14.748827647457539
760,-0.8994461003464971,1.0089238419866797,0.7489783402501641,-24.546634260785694,-17.7172041442287,-14.27818691085337
770,-0.8891561389107046,1.0001466012917772,0.7822138276497596,-20.217453940900775,-15.035824994413632,-7.370955325272295
780,-0.8612239998251422,1.0158998558447752,0.7713634852995783,-19.52258986040593,-14.468252914008188,-2.010366961639965
790,-0.8719216605150982,0.990343025323087,0.7526974547079192,-15.65687255307816,-17.24623671137784,-0.3471974437964569
800,-0.868095345995501,1.0029143293451377,0.7597177774143464,-6.077208671993995,-12.811185465270126,4.092342718494021
810,-0.8412381923720984,1.0414017416721062,0.7890210205951453,3.3993066038120583,-5.6518009965527645,8.42795683221836
820,-0.8326305418052701,1.0545911644124812,0.7970056051397081,2.7039794628864127,-6.8638999875318945,3.7386680425717667
830,-0.865762487935687,1.029111018005421,0.7645806627927144,3.764310691690767,-5.713250451886152,1.702179038051367
840,-0.8199283561685254,1.0674527998504246,0.8078262673935312,6.040684736483689,-1.6291838575881394,3.513425464992152
850,-0.8725779171039525,1.0144904953052405,0.7585984009495906,2.137939573639753,-4.360178029505596,0.8640636451085348
860,-0.8587374623128081,1.0249632479172865,0.7658128530024576,5.800978431910447,-2.021647846073907,4.983120770451598
870,-0.8665394637814938,1.0324875892735648,0.7592759708163849,9.82684215377636,0.3840917191709885,9.376304209810595
880,-0.8449475319410403,1.0701285231527802,0.7850731304143507,5.9384120225288495,-2.1018736584813014,6.103761329589911
890,-0.8273177957092899,1.080928800461479,0.7988077452505333,2.4192507857133108,-0.20893087924854958,3.388804729654707
900,-0.8794669703533448,1.0227481600949833,0.7468544423908666,-1.9839190491778123,-0.11771737016937411,-0.03848018489105298
910,-0.8808907574153332,1.0158940743950278,0.7465158822802476,-2.640994176286841,-0.3564928462316075,-1.329877819222127
920,-0.8588475782650309,1.0363692313920174,0.7749834772570846,-0.8528770271417001,-0.1751126764935449,-0.36528633072050787
930,-0.840511004647427,1.0512683055274585,0.7895449431888298,1.857113247888657,-0.7650442848478791,0.5193928566105626
940,-0.8400647522112199,1.0469737097876244,0.7855538000684178,2.692475305640758,-1.7714624758351127,0.9435320772831423
950,-0.8431235670472431,1.0428519613117266,0.7822643484106591,4.109212268410059,-0.2969741899833245,3.519508628373732
960,-0.8566669628813991,1.036469855207197,0.7643117763158379,3.629690612579272,-2.040424317202778,2.5327851025653683
970,-0.8526864705818499,1.0397971633716847,0.7755040414405161,3.8147056473064085,-1.2602628159415945,2.6861865309253012
980,-0.8580244259837971,1.0339833395170743,0.765807478755895,4.385443290623155,0.09552530838500728,2.8766862388116374
990,-0.820065764844679,1.0727372762193643,0.8024348041743664,5.4118926515530195,0.2312127587938524,3.10436757524373
1000,-0.8542210440969228,1.0366646204344463,0.7693980189654721,5.309773538545072,-0.7237451662446558,2.7447784138138296
1010,-0.8291428318990893,1.0632446861391738,0.7954745317308174,4.66449784413402,-0.7445986086591597,2.911331378007075
1020,-0.8427776980945176,1.0599412686968033,0.7808157431466153,4.985598143834785,1.4850355999440323,4.549765644152995
1030,-0.8289590865309466,1.0747762125708102,0.7914336653506462,5.791586708325706,2.596681833012452,4.9195982887099206
1040,-0.864280380426854,1.0387674806179352,0.7607760986059621,2.5794390594553605,1.498754860868282,2.5467078873239237
1050,-0.8364197364046393,1.0583731343421952,0.7844557856577152,0.8845861903167815,0.7856818777699297,1.4910461796322472
1060,-0.8416734341208731,1.0603772630516592,0.782787397393681,-0.15398149477361944,-0.5827438483176411,-0.1384570718321203
1070,-0.8426902772373646,1.0647070576497044,0.7853298414562208,-1.7689459014569633,-2.4070939421982622,-2.0048482250932844
1080,-0.8542179989661514,1.0467109282166331,0.7698674044557774,1.3170151569901392,0.789831755457136,1.539552934090135
1090,-0.8515186243150876,1.0541546807903657,0.7695096152802643,3.1881592806834367,1.0956542618880274,2.14799842116022
1100,-0.8442164439430769,1.0649820544824415,0.7806294354548197,0.2873334916540484,-1.382969208218821,-0.7020022617967091
1110,-0.8796965980254188,1.0312891153375348,0.7436751164289496,-3.6103594646132686,-2.22471459032564,-3.2486831331962667
1120,-0.8417949039039867,1.069925694772715,0.7854706017372993,-0.41650558846416297,1.4164994681290857,-0.4681987672861295
1130,-0.8783168674138011,1.0327227365813907,0.75229374665329,1.5433588798479276,2.4262104061811742,0.5560827665142216
1140,-0.862574143544122,1.0478009087840974,0.7694223098840904,0.5752435692345574,0.9068614863190394,-0.5497201799269507
1150,-0.8683507382841383,1.0419317100192806,0.7647721878908434,-3.071609088707908,-2.4724158294285097,-3.249922868242423
1160,-0.8867818882955608,1.0155730602218502,0.7362124644006632,0.7200774005357841,0.11778784510209961,1.6778846516356838
1170,-0.8513518708954434,1.056044584335085,0.7751496176920191,2.6836043323125205,1.7965722926057954,3.562082730905609
1180,-0.852707879718111,1.0554025637554552,0.775116887345711,2.775277864321925,3.3817206752528994,4.504919071573591
1190,-0.8380183153400402,1.0716644662999677,0.7888866157673377,1.3970653864376743,1.9081851034205162,2.877077732847942
1200,-0.8620505639015852,1.049551302566642,0.7624568291926991,1.9437649354684283,1.612347700993698,2.203554340606211
1210,-0.8558502191301256,1.0575800730046105,0.7692206054013643,0.5088554421310512,0.7146082477708933,-0.0035497767327243857
1220,-0.8394587054406298,1.0799620958132685,0.7971320633272304,-3.108727428660611,-0.9271287079823258,-2.6258016025831044
1230,-0.8669690848116647,1.045640256088609,0.7610730116248807,-0.7751519246679643,-0.32266309849835634,0.9566722129218019
1240,-0.8553389005031974,1.0546981253373773,0.7633040885551129,0.2877357160693623,0.13279384814980433,1.0397681041690674
1250,-0.8548041429587823,1.0547785660044255,0.7635889498211249,-0.0037929522389413828,-0.023847216198682852,-0.1395135893245981
1260,-0.854562338722245,1.0508217322671591,0.766252909959896,0.6734127087586224,0.48817805243916995,-0.2574375349221204
1270,-0.8612104167807799,1.0393774074845907,0.759924572832294,3.890495430938099,3.029272928197106,2.3173879484589555
1280,-0.8600759545650194,1.0448438400771367,0.7618340313037234,0.9968746646457556,-0.27695866873100616,-0.550653314081371
1290,-0.8418673531276483,1.070970721452122,0.7896065305132381,-0.21480802827796985,-1.0779478964455858,-1.2509402056225425
1300,-0.8486706643643944,1.0654837867217901,0.7773752920487085,0.9770093859907667,-0.3349902439285365,0.43176111710041104
1310,-0.8434128335631238,1.0676977884175958,0.7861105544845047,3.068013214285817,1.9296050881386306,2.670192299137219
1320,-0.8553343632343777,1.051625702024605,0.7700780461563186,0.25566987760167487,-0.33907768841890273,0.16502731183733665
1330,-0.8329802092412538,1.0724505311629602,0.7850565600854172,-1.3912710004860152,-1.5689111565904206,-1.1985704860741135
1340,-0.828089124245319,1.0809743679250357,0.7905392275327386,1.9010206547349289,1.579872195937092,1.869587676427954
1350,-0.8299911088663857,1.0870423608709026,0.7922702277201022,2.713192757254708,1.5649666590874598,1.8493739008121315
1360,-0.8576801308669216,1.048015501057218,0.7625255230557723,1.7212904935827378,0.5349222923416893,0.7963014115580411
1370,-0.8317496772076721,1.0706019268129212,0.782184498776545,-0.9545883065944075,-0.8766605744324819,-1.1162066055326618
1380,-0.8178457782254035,1.0844720668649637,0.7953325609971197,-0.9391804191891321,-0.1645107368382383,-0.3935156048256434
1390,-0.8293174439488482,1.075175368728993,0.7896358729771733,-1.921495044806775,-1.4968131205357136,-1.152432401744958
1400,-0.825428883398649,1.0827994293673835,0.7990346773460729,0.5640619493172582,-0.028329191865921532,1.1525488999519267
1410,-0.8553102330933352,1.0565835485275303,0.7657172726174089,-1.6860003323759607,-3.2559902223506754,-1.349627934502828
1420,-0.8505585824454951,1.0614496645863225,0.7722533954279585,2.47451724448758,-0.2734473505537106,1.6806556270645587
1430,-0.8224023791333773,1.0841683127503612,0.7975552243550126,5.5267508151122025,2.3178820802490483,3.6339305819370633
1440,-0.8443181954485658,1.0614275183241833,0.7743692837863589,1.9116937399522647,-0.36242175715798136,-0.1819055388154378
1450,-0.8411434017464431,1.0677971494835732,0.7781392144449111,2.492514352046439,0.988965305657881,0.6148351600782179
1460,-0.8568458580860183,1.0518148632095081,0.7627977705771601,3.9562970444149936,2.562774532870268,2.4902388926475503
1470,-0.8173447061644507,1.0853448959753798,0.8009130349732687,2.06386310486102,0.5699208380919512,1.1106235995469689
1480,-0.8578830716472419,1.0536099860838664,0.760147583451252,-3.0171505345421705,-4.4850561418083705,-3.9089661836198153
