time_ms,ax,ay,az,gx,gy,gz
0,-0.825752092587034,0.6385963936450328,0.49301446954653566,3.1556683765484017,3.1400541065910836,2.997974926673786
10,-0.8290044488993514,0.6380112110261834,0.4875972662153769,1.6926872538926374,1.7994045880545695,1.031542476064247
20,-0.8335854931466273,0.6314949583804353,0.48356943223846943,-1.2737766409008993,-1.494817734481476,-2.3691013063557764
30,-0.809328131247465,0.6576178307347282,0.5083777453789529,-1.9277128182295185,-1.9255074172515745,-2.3728505204827313
40,-0.8349217160482763,0.6327490803507471,0.4803581858391451,0.19354507785068695,0.36545113050669675,0.7414361511642231
50,-0.8157427207742638,0.6490073568977265,0.4993184516995886,1.9005552523844031,1.9997047672296766,2.572788532905962
60,-0.8227135898250357,0.6421388624234833,0.48500669413117803,1.3971396479259148,1.3930910859061,1.6635012096449895
70,-0.807061873714343,0.6623482011575433,0.5061059018717384,0.26332039905099086,-0.1811971686065983,-0.679138083316315
80,-0.8314686220236152,0.6341830049484442,0.4806987292460574,0.6573901460760443,0.6447409378068716,-0.6338331468634225
90,-0.8255589755217778,0.6413835900732524,0.4937042360070438,0.9873734529789226,1.993248940104753,2.025501905523858
100,-0.8181251177740375,0.6515287248307225,0.49567008474238594,-0.5623340324558321,0.6185901898782872,0.47392855135695033
110,-0.8358746481495375,0.6349616271465741,0.48154090851692677,-0.10038827445730863,0.6290352697268979,0.1619017231242801
120,-0.8238391035127731,0.6429348737068896,0.4906730819984578,-1.731634223792933,-0.8271375718755728,-1.1879014902280693
130,-0.7741632584877078,0.6934625320372632,0.5411646001707877,-0.24632809632302688,0.8679718644161978,1.1939770785774293
140,-0.8395720494966666,0.6492390162166043,0.49117050217476343,-2.5802353821232487,0.992956865868645,2.8408851472744314
150,-0.8343747312725128,0.660328593070921,0.4934542269699984,-7.762504818191924,-4.339556352663758,-0.11716823448382546
160,-0.8252299718936325,0.7042530613667233,0.5241431230164766,-15.350926210057386,-7.1062140035629495,5.43554832971469
170,-0.8518003733871002,0.6859735863286199,0.5173502833097221,-19.920219101545467,-10.235685903227598,3.838972540472785
180,-0.8879685967093198,0.6296350011483672,0.5075827259541458,-18.42166560379592,-15.758810580546497,6.13790500133179
190,-0.7820379128141364,0.6630298417776659,0.5335901443013581,-16.26821238436913,-18.872483025435184,3.984414246901522
200,-0.7629082899513884,0.6607731772202873,0.5308966216638878,-16.429668906336623,-17.803407379442483,0.27254556892619375
210,-0.8195476388070224,0.6941918580320474,0.547227699204603,-15.045533748034197,-14.375961164640836,3.607671230759501
220,-0.7974792035271699,0.6948648204966357,0.5674841364686375,-18.090400240854883,-16.4186587263721,4.4486443795995765
230,-0.8139863917603721,0.6877566073550018,0.5081558170701749,-9.331465510949252,-14.408939589523689,7.516269840111639
240,-0.7841187133995359,0.6720458210517948,0.5382989884073562,-16.093195899741783,-15.303556479242303,3.567483781556509
250,-0.8067972393125745,0.6155344811753384,0.5329023373712591,-13.24886817220955,-12.54045377935947,1.8969444302433325
260,-0.8010179365479785,0.5871101613515807,0.5135745004667424,-10.724537630571998,-9.34537895853565,0.20990022653866958
270,-0.7854368287142097,0.6042157238246296,0.5374051158635449,-4.761900976858436,-4.0042163759826375,1.4334524172725251
280,-0.7835983396855062,0.635648591971602,0.5584131211661549,-4.234016304959407,-4.954510789496452,-1.851550695976058
290,-0.8224355179848307,0.6278178152639861,0.520091178078843,-4.731524648813753,-4.389384982265939,-0.622721996503303
300,-0.8002930575954414,0.6471324554868287,0.5322717053779343,-6.692887466174297,-1.7218834215988321,-3.756757440578177
310,-0.8225804500303403,0.6221259325215645,0.5250834269757406,-1.5171546329364154,1.968143765328576,-1.2607906391790649
320,-0.8143692365718717,0.6242808639771025,0.5425682794223758,-2.7686312105652124,2.5631593690880776,-3.3931932560575455
330,-0.8250396181308988,0.6200544443906195,0.5575412909774323,-1.9334416166694846,1.2661357764008165,-3.846527479201154
340,-0.8161333811994887,0.6215225732272285,0.5525609048903423,-1.4802449618242675,-1.8554231076259056,-5.259028577726745
350,-0.845148546743998,0.6280745387194598,0.5185191778164675,1.7482244310112265,-1.1187598731232957,-4.450403091294806
360,-0.8073732442735976,0.6659052787814483,0.5091189452751257,1.1747930204124482,-0.44376460246460725,-2.9753532274120964
370,-0.8097425743139209,0.6829449422290471,0.6081691549074127,3.6500322426601945,0.3096482689902468,-1.2131295466157908
380,-0.8063005262056339,0.62516009604224,0.5346901292096679,2.810021330100192,0.2978717613629674,-2.2723241513252237
390,-0.8249535723762486,0.6337444229699999,0.5485967111972275,2.339299012445017,-2.098453941298656,-2.6561609237791544
400,-0.8186450429746136,0.6403783017725674,0.5268930786414603,3.1312306284916582,-1.629942374256422,3.026208782265718
410,-0.8251433689006116,0.6466688321426957,0.5059278277280753,-3.0081107390443345,-5.634030766306301,5.743666587169509
420,-0.7904497525257069,0.6707743411685552,0.5080383998400321,-0.7957731956012084,-5.147502513132571,7.603489761834447
430,-0.8238412421743166,0.6330738449691169,0.6126926118879968,-0.34715678787715687,-7.113601587556239,-2.2810335166874625
440,-0.8158607427245946,0.6678033009490815,0.5570345013098343,1.7482563431130798,-6.0030582902588066,8.614753307107256
450,-0.8043594543701631,0.5771262543414846,0.5636648288509386,-2.5659777478235837,-8.801423986361502,4.142765681260023
460,-0.7641928698927934,0.6554186284407997,0.5329981098848893,2.1503284618209557,-10.718413336719113,11.330932414379582
470,-0.7891958508931419,0.678514213542264,0.6278852159658668,-0.2535167434043373,-11.388876612081866,3.7658110779777463
480,-0.7721794638339359,0.5881340859686945,0.588515270963393,-2.758847654574363,-13.646298960166684,-2.131745974688029
490,-0.7876603158146688,0.5612661441604555,0.7688545621694682,1.2365278235893455,-15.55366577862012,-4.701781604201603
500,-0.8234542573995065,0.5863766414888151,0.4961764043708674,6.961913647713281,-15.352654572141432,-1.8997822255615375
510,-0.8261056840986168,0.5575348456842957,0.567924577812714,10.070175773057104,-9.74382543208235,-7.385413415828748
520,-0.8061107054396588,0.6787180827211392,0.5586742931391218,9.54101513641164,-10.48644656444532,-5.778590086046988
530,-0.7873210229505292,0.622379520044754,0.6516250677208214,8.711952155854712,-10.609166796316314,-15.066759786680352
540,-0.7993568181066452,0.6556320550870686,0.5689102066243561,4.590056859841475,-6.7406702783704695,-12.028962025933863
550,-0.8073572992883589,0.7022534615948974,0.6056141952041114,3.380511234491803,0.46322210998390734,-1.1528471358911752
560,-0.7748899170864487,0.6128261278917134,0.44776248753345854,-7.988128860895576,6.604412940286946,-14.03943520967217
570,-0.7717119962352822,0.7632229706062165,0.49092198073749743,-12.93099996092052,12.72744282053646,-8.700060521141378
580,-0.8079259328278301,0.7454650934977372,0.5440796920016531,-10.272503609569576,12.48581892230106,-2.915680385410327
590,-0.7762814592924911,0.7563706941234971,0.5183643342978248,-12.244292165431263,16.15802977598833,1.5553928994590949
600,-0.8235884806133357,0.5544737565235882,0.6485133473095991,-28.74963730898716,21.245531450244478,7.0297309757425825
610,-0.8024848982644528,0.6641165794779166,0.23192056507290287,-3.775361150787081,17.303054748574592,15.224352322093608
620,-0.7393135894661156,0.7827814104057114,0.24987298947361036,8.45783536426237,20.098415287575897,35.11983349496914
630,-0.6762283674306747,0.8330023616872526,0.4938830998924427,9.906132850790769,15.014402019790033,25.734706441786997
640,-0.8055513800538232,0.7046768957412904,0.3955754240210009,-1.1285164291364125,16.779580219845467,19.307600210464912
650,-0.7868037585504842,0.605309426162709,0.3744915800166432,-10.716793330270242,23.089352895181044,26.620486068713028
660,-0.773143712078866,0.7140338510993665,0.5982589789656795,-1.0769569616301513,4.60178661994516,8.184074152551455
670,-0.8516715701311434,0.3881638848585028,0.7500057320137038,-11.88141751853687,7.485033276741535,-5.093840424635111
680,-0.8038736443801292,0.5811334380345526,0.575341711036869,-6.543816984270134,-0.3087379344600627,-3.2020242487760004
690,-0.8068468002746269,0.6436598303751409,0.5447990334025657,-2.939634729929784,2.7310000350474404,1.9787138787600955
700,-0.801797861667631,0.6635401735959184,0.5495507229682722,-2.5147958973302877,-1.3449612901178236,-0.3677655884196074
710,-0.8094584542675576,0.6575251506942467,0.5422306509785559,-3.366991005631834,-1.8702342596836208,-1.6395281416321716
720,-0.7988936901601777,0.6612840330497586,0.5532302778487319,-4.387306828490373,-3.405898173079871,-3.7560343363758015
730,-0.7976555486181277,0.6552472771653615,0.553048316891204,0.6724735812943263,0.4432947020801004,1.3128967061204493
740,-0.8019584875143265,0.6419765344575044,0.546182054984339,6.409208359317749,4.248981293832579,7.163499252654261
750,-0.810503990409324,0.6192770588510645,0.5348758912256975,5.759025058321183,4.717695551028477,6.380056354740623
760,-0.8026006823299029,0.6448988711852444,0.5593083675008707,8.475190947353596,10.147894491729385,6.99195220398084
770,-0.8034062582615302,0.7217364636764266,0.6027603676726271,23.562289326993145,19.34591177801567,12.53740494640818
780,-0.9221956160833543,0.6998983276295948,0.6338986271269529,36.398756554609726,9.239971978167787,2.1287613883629692
790,-0.9901082521995828,0.6425974553563427,0.7065941647616054,41.60539311028808,8.809248224205842,6.434940575805169
800,-0.8612130651301972,0.6467322843309978,0.5378626842409995,29.238039060716364,11.430833932341951,-1.143797406374032
810,-0.8071699077468416,0.6011179694092407,0.37073898034790054,20.18768354141717,4.546185196225113,-6.290924987992331
820,-0.7182748928805678,0.8033637505860131,0.44911880083148437,21.775285161322937,-2.303619692882222,-8.836395350935852
830,-0.8249370234123119,0.6811552597985362,0.5189741759062007,-5.47072875863951,-4.483212494856144,-9.899350399510753
840,-0.8201188031781953,0.6501727493836489,0.523820253972112,-2.302743236237326,-2.040708751860132,-7.147380150072446
850,-0.8350233703094138,0.6213164028994074,0.5033385963433489,-1.812224167155923,-1.1017813707023685,-3.395376799795117
860,-0.8408258197730917,0.62293766568779,0.496435250342535,-1.2739675142321336,-0.15259230252604394,-0.31858168352185734
870,-0.8119820445443077,0.6588220134792885,0.5283808405787725,0.09157822017232731,1.228564937470411,1.030830403235206
880,-0.8074206690160581,0.6541042209172632,0.5265400218759169,-1.192808779168223,0.13271254567774401,-1.8417761866430724
890,-0.8028943947854547,0.6593046152948486,0.53253485181596,-3.391382676487475,-2.0657763854389772,-3.4865731412776713
900,-0.8032114615452178,0.6599424170584606,0.5346998968161992,-1.50629665238408,0.5391081173692814,-1.6926244264932357
910,-0.8284498313414035,0.6353036172287149,0.5098126001143637,-1.7277966537471954,0.5445424714907787,-1.709499010112132
920,-0.8219819095475818,0.6383974114412688,0.5097407493321865,-4.833901161179332,-2.3419211448751995,-4.322983544081966
930,-0.8400745961449293,0.6176699773136881,0.49226446296744075,-4.8409625571308865,-1.876800047717063,-3.25910044038166
940,-0.8228276966925243,0.6363936149893488,0.5180903019654037,-1.1685113567421603,1.621691758847785,-0.013118715537430381
950,-0.8283080917590844,0.6294501082081323,0.5100096432436066,-2.164099847636498,-0.13748237122679807,-2.2388886648130804
960,-0.8037736612691183,0.6556325611389543,0.5354938212711795,-0.218376899106711,1.6366368754516352,-0.908935673639196
970,-0.7881918834296077,0.669183095304336,0.5503636923757221,-4.8751113553747025,-1.9799625137375019,-5.0596447688834365
980,-0.8482695264521288,0.6071361387954498,0.48973975134984055,-1.3872766943726604,1.135363322743943,-1.4550109315173467
990,-0.7924826046990857,0.6625074635628314,0.5489503796196199,-3.0506287370097427,-2.750039526890926,-4.544644248424994
1000,-0.8406089635373051,0.6092971831603041,0.5000353977129505,-0.6187071911537818,0.11512793383040404,-1.6316110267094117
1010,-0.8430315944009946,0.6072224192051238,0.4969234453251736,-0.2715881254008548,0.7139882620808203,-0.9803548297503107
1020,-0.8092592400155424,0.6462804251268816,0.5324044958722359,-2.1760285673681694,-1.2166166102233997,-3.249634510589443
1030,-0.8154208555528277,0.6419341764668274,0.5205672907186584,-3.067317058764909,-1.464816518609649,-3.5874546737631015
1040,-0.7978910301292405,0.6512734013998008,0.5334265643755639,-1.6703369192378696,0.9039131035222276,-2.9083178553328413
1050,-0.7908685010639835,0.6594953684629564,0.5430276009476199,-0.06684359916191007,3.13312680665017,-0.5101726672064208
1060,-0.8111791992265913,0.63778722023564,0.5232442849281459,0.14458541898926702,3.6994622277118805,-0.5821347821451299
1070,-0.8060249810081113,0.6445885770053355,0.5320462489059099,-1.2787665556357228,2.513229228039018,-2.050961211967932
1080,-0.8013020347119304,0.6502135465252767,0.5321995977772906,2.8937897960269057,6.152168807033516,1.4574697347116774
1090,-0.8280005646975723,0.6190217999482908,0.5028235966915072,-0.1339944850850694,2.9162579864878477,-3.875803616384133
1100,-0.8112490921524351,0.6394732273193484,0.5192808427774902,5.5186930003385255,8.2502340128285,0.8342704962347315
1110,-0.8225512360191441,0.6387389509471588,0.5073935702332895,5.973546004058623,9.748385610331013,0.7944396460860841
1120,-0.844197956413167,0.6141177254902582,0.4851134822100298,9.80660176195693,15.633069528191186,3.6032799778937434
1130,-0.783350462815238,0.6674323767977554,0.5370950016707372,8.7849196658033,14.274193872073742,0.06522252007024298
1140,-0.8055909604605868,0.649878524760263,0.5147433474695814,9.743202686999323,17.039771360621906,-1.673511340323943
1150,-0.8088453881438405,0.6462644444924854,0.505181660453935,7.280612159338499,17.278829740730078,-6.152305753439311
1160,-0.8093515873480689,0.6470911161171881,0.5012292676608805,7.996421939323466,19.244450946316146,-3.5407811421079503
1170,-0.8222289593516237,0.6288294719265364,0.48700673624623925,3.5263750546521435,17.201397584810586,-4.720464931281967
1180,-0.8269033104599097,0.6179842748800555,0.47083343883195045,7.70866093486327,20.43003440097978,1.375614269599628
1190,-0.8208563924325465,0.6422292090606712,0.47756301017327435,7.681376603891853,18.739263443029017,2.3923073203363985
1200,-0.8328131150203085,0.6437555924446838,0.45866103735167585,5.188523152223862,12.801919180264639,-6.711492637707828
1210,-0.8373907163226209,0.6309652718601465,0.4445114455165793,7.0010849144376115,14.143598978118236,-8.580652052293736
1220,-0.8427474470008013,0.6191157521676824,0.437212551511628,10.341539172957248,17.143802207406715,-7.164715145893529
1230,-0.8434922411864563,0.6207203981613266,0.43595349626226215,7.949583391079303,14.789365794173916,-9.709493600168713
1240,-0.8264167526163507,0.6325774694897597,0.450037902443117,4.491662816456555,12.70940076606107,-11.13549350677646
1250,-0.8329948693112197,0.6112056302264606,0.42383822505679397,6.145230210200468,13.267247193334756,-1.714341717204893
1260,-0.8429481482611973,0.6038657451852688,0.4090497782356198,8.833630022890862,13.556562782749031,2.9366985304738114
1270,-0.8172646923788227,0.645731304814505,0.439873497574043,8.425174951950556,10.113768394124477,1.616616877116948
1280,-0.8560999358254034,0.6091042217513885,0.398510167605139,6.108034626507406,6.976257768372393,-1.3433167247467772
1290,-0.814719838447754,0.6471368502771129,0.436699728300677,4.222564486710462,3.449315154177442,-4.335182630783829
1300,-0.8153151742982926,0.6426787718976471,0.4369587458583089,2.881831200569706,-1.889311095705723,-1.436323015088837
1310,-0.8383718818420131,0.6341352162579647,0.43898862688902135,-2.3928344337247327,-12.912574436995541,-2.4575882979165042
1320,-0.8046704938052506,0.6345535460361169,0.4411247919748262,-0.5600864048872516,-15.476664726392578,-0.038165966900681525
1330,-0.8519785364683801,0.6129752020257692,0.41471342012467355,1.2457820572932206,-18.431370035477503,1.1165590857381682
1340,-0.8250429739752836,0.6427752633917132,0.4417107143956022,2.5006945513670993,-22.094937065563855,0.4101072571744248
1350,-0.8631896230180682,0.6061531952597508,0.4222451560160532,3.591549283219468,-22.526856348399384,-4.272855692977608
1360,-0.8340754896185819,0.6060527144944141,0.4579812237513364,0.9354607270735168,-20.95910885739418,-10.711845405086004
1370,-0.812490275601251,0.6328867792139875,0.4858955106843097,1.645696436673024,-16.301351765093752,-9.60517258436683
1380,-0.8340157807282866,0.6059612539916691,0.4625739450194401,0.4359943730186142,-15.216612182306541,-11.135676772825072
1390,-0.8043879672672536,0.6209632084039585,0.49327266468034175,1.7287363779921212,-14.021283369225058,-7.749736855158672
1400,-0.7827565724271722,0.6449732993210396,0.5186884784815676,6.194233473180966,-7.1221748706767665,1.4093195730071546
1410,-0.8338572756775807,0.5978293375972464,0.4710127594698242,-2.1484596672777876,-6.590635158908638,2.8163101489770126
1420,-0.8372079426771336,0.6015638662210442,0.4725636630038199,-1.7593832727683631,-8.102337262352272,0.7943370769849665
1430,-0.8313584252700045,0.6069475646100918,0.4748692648253593,3.9846356364387145,-2.4029336506370766,3.478309003242312
1440,-0.8137784875511639,0.6201065676808267,0.4924885473036779,0.48118595931465713,-4.674357563684772,-1.2365089143134491
1450,-0.8270539570041405,0.6027092102022418,0.4818709783310494,-3.066250900565204,-7.053143474226209,-4.169376538053173
1460,-0.8040800050717636,0.6238263252880323,0.5021181946210346,-0.2959784012639306,-5.785668439510619,-0.4307667510033325
1470,-0.7992827848503113,0.6390967182750729,0.509341092250947,1.1896495140197079,-5.391344555414784,0.9953496288859769
1480,-0.8203424709889674,0.6223054596945807,0.5033012626017955,-1.0783472014281763,-5.3313368905741365,-2.512776258930453
1490,-0.8003127841971392,0.6218161186503693,0.5115306148937175,1.890296351695277,-1.0062347415986155,0.7953433918190596
1500,-0.801179692865605,0.6254236359786408,0.5161970703347921,0.9188287088310767,-1.6238920297122148,1.1645704258819332
1510,-0.818937972812391,0.6116103826855115,0.4984131746039428,-2.613021620525869,-4.796549480090973,-1.497488681564259
1520,-0.8054873072889188,0.6283259807000761,0.5143540056137741,0.19143495044952855,-1.169684261549659,0.23957681909744635
1530,-0.819391248979328,0.6136047160529514,0.49823217679828685,-0.06353667045401179,-0.6442669198978653,-0.6184898229936163
1540,-0.8036127840804554,0.628872873555157,0.5126542060370979,-0.7737302419651665,-1.3816057115861442,-1.222102831491209
1550,-0.8190271711374099,0.6182593162970874,0.5105411160443515,-2.8721343626838918,-3.3357085962651807,-2.5840185422634216
1560,-0.812989387242357,0.614206778348333,0.5025565390783125,-2.145292293533361,-2.8064014088059452,-0.8986999899757093
1570,-0.8254608249499551,0.6079077399374185,0.49129843201859824,0.0578489241224609,-0.8883189974685439,-0.5411343546430201
1580,-0.818312157872224,0.613011798255631,0.49918115928051277,-1.9909765662532384,-2.4744906542386307,-2.879047523376542
1590,-0.797483400501785,0.6291781572298848,0.5210464605405375,-1.2378391646742979,-1.6658609983708121,-1.6466847818558534
1600,-0.8090541471969204,0.6210896169518282,0.509735209910512,-1.7130530853155106,-2.4703859410450555,-1.8126826825729694
1610,-0.8010684238968284,0.6307584308184421,0.5220283331248511,-1.727647250124205,-2.8365266842557157,-2.2547910153474136
1620,-0.8246936177648974,0.6100430471857446,0.4943359134233612,-0.17509001671874097,-0.8478084194998126,-1.2611232021180274
1630,-0.8320641500320379,0.595777577645093,0.4893751892597343,1.923074413592803,1.4054432593287243,1.556290687383203
1640,-0.8396391302574894,0.5893507134272015,0.48463279747960614,-2.4730758953418386,-2.852251656838245,-2.053777519215824
1650,-0.8059215444900518,0.6215614239926147,0.5133619570952527,-0.10610747752083241,-0.4237543121457389,0.15829866337829301
1660,-0.8218834495271083,0.6034496748806815,0.4978859304665403,0.010521857582383887,-0.6127604222861576,-0.6620652676778563
1670,-0.8092918259276802,0.6149587047390618,0.51342056639549,-2.5085185677457145,-2.999270713174214,-2.992627606204638
1680,-0.8262654708156819,0.5979996549943327,0.4967031251289856,0.5637707554185796,0.4149505672653407,1.012541397481943
1690,-0.7970233158113385,0.6295955824254784,0.52662573035558,0.4607172596340803,0.23497979725029686,1.333642963706402
1700,-0.8331816474823197,0.5964673935764162,0.4922448088120433,-1.0302382819914755,-0.8603606761477024,0.029611821191260268
1710,-0.7989394315576036,0.6336625801373212,0.5259439157108557,0.041482024969509756,-0.22704088150775054,0.1710329979985542
1720,-0.8338409733646877,0.6007586482029041,0.48889588437642345,-0.56928474147788,-0.8358887080816676,-0.6458349506427319
1730,-0.8196944927655478,0.60597468953265,0.4996526377024716,1.080588558256014,0.2386146941263268,1.1134508736173565
1740,-0.83522804626449,0.5921647074666052,0.48655481857306804,2.368025087366865,2.494908573022784,2.6961930392294606
1750,-0.8212876023039662,0.6088885321851922,0.5007571803601679,-3.6063915420496104,-2.988886095327757,-2.6725976633809747
1760,-0.7864695954341021,0.6430561979602193,0.5309718938249725,-1.9244261596019245,-1.1268691296953306,-0.46577318292494363
1770,-0.8246213566970011,0.60276089986313,0.5006825598305095,-2.2757650813339296,-1.877871807016006,-0.790381553830527
1780,-0.8097381276062893,0.6282386548139127,0.5197722255033196,-1.7038772361607464,-0.6751220725091028,-0.890208078970725
1790,-0.8466392907520307,0.5815678246907892,0.4769023072492494,1.1286220483067038,1.8295966838559763,1.5705073745613527
1800,-0.7714306869049368,0.6571731487667276,0.54518039503469,0.4225373219596238,0.8698375944614285,0.867942482547965
1810,-0.8286353048135969,0.60115915128305,0.4901696420817941,-1.0604653704740996,-0.8360681423217848,-0.8831745011289541
1820,-0.8120763953263932,0.6156646594979437,0.5083261382053639,-1.6711903641638117,-1.3255043933686583,-1.1045529927292859
1830,-0.7997374775406855,0.6315851021269081,0.5230323533315755,0.6374729456680093,0.8474578183873213,1.5442489196006193
1840,-0.8020144624125675,0.6307697422132322,0.5208700244749189,-1.4137225683622754,-0.6427064431614244,-0.37548394713205613
1850,-0.846882616020511,0.5845880462249727,0.47527547152001115,3.1273439461675516,3.7380726092130234,3.2413077788582743
