time_ms,ax,ay,az,gx,gy,gz
0,-0.8202392843207085,0.12062665923513345,0.49222124604745,1.5730823076235128,0.5724908576719122,-0.7185483481861628
10,-0.8171278644471228,0.11741413310465375,0.5028081384962235,-0.1933619127415429,1.0848006024981691,0.5232113504249865
20,-0.8191984146165312,0.11174950120910587,0.4889451913711757,0.11749245782030315,0.3454689140925161,1.2222158446338092
30,-0.8247133426254546,0.09963775457645949,0.48707344706088584,3.8799741220235244,0.6197797967594584,2.5050468019989456
40,-0.841318093394838,0.10026417973774507,0.4748935788136587,4.486815906064319,0.09066518794823814,2.4641190982989336
50,-0.823868829680574,0.10312275419736815,0.4648683553351747,1.1275017910190797,0.058802860904778195,1.3423407349219323
60,-0.8055383167322641,0.12496654540657762,0.512369903210059,-0.60137336375529,-0.5311560368870858,-0.8971650234754889
70,-0.8278500175148087,0.10744763548180385,0.4887277602466163,-2.680186834892142,-0.09366816094911584,-2.906465751122138
80,-0.8393146034953746,0.0958429063024385,0.47554738453362144,0.25809055021750216,1.6724426278608275,0.45968356447150627
90,-0.8185812677672418,0.11632486467888006,0.49101600444939525,-2.7313944527827783,-1.5421419963592295,-1.2503780413531425
100,-0.8128464517942511,0.12347547829815911,0.4953254637406047,-0.7199206355593907,-0.4691978448891829,1.0964312072933506
110,-0.8110984731859299,0.12182334416453272,0.5035998954530824,3.47987534146471,2.579264059560549,4.254550082890842
120,-0.8042501640653058,0.13232369907170005,0.512788542933965,1.7420126207837565,1.5813391034221544,2.291301335821112
130,-0.8071347043801281,0.12526229898166277,0.5095540523730994,0.7702151437761273,2.034688301658903,1.2060219242307841
140,-0.8248645978670388,0.10697130975839961,0.49199365794881106,-2.884856926088307,-3.1702514488854545,-3.2450482105464817
150,-0.8306990335937984,0.10582065548962144,0.4827465603440747,0.8893368984755781,0.6617592505530614,1.4344594599984661
160,-0.8351190181102944,0.10016165961212836,0.4844986607253002,1.7160398921547184,0.003617827819796901,2.3162820354981637
170,-0.8359776705479226,0.10293979488474361,0.5047331417008628,10.396665710152995,1.1904032781721032,4.69881708170614
180,-1.0443711876511417,0.16970051471909878,0.7244312297795571,19.949342486946204,-19.133210629474476,1.8966134984373297
190,-1.116874012820954,0.2318953164056807,0.8105333275993342,10.050354759462467,-53.62544072384125,5.37395567500104
200,-0.8487705341313808,0.12282201806127875,0.7759462268207106,-17.1822330646746,-75.97569078409869,10.097542435169585
210,-0.6153471163974649,0.12190507846945177,0.6491280149771305,-27.391748032999658,-84.10724080907569,-0.9363386937385461
220,-0.6108326109493302,0.19288042468583202,0.5643572416391259,-49.4725690172142,-81.69644900821747,-17.41874231793247
230,-0.5391074512944102,0.36375747802707425,0.45917237715966164,-63.471764517170705,-74.21658084576823,-20.072980281274635
240,-0.4788589700184186,0.26604547374971577,0.469920596915768,-86.64072263328613,-37.71120853802137,-9.813065877544958
250,-0.5482955374654449,0.2065284417301273,0.5157498385251704,-107.77759835595702,-16.269755144421147,-1.3549863922112733
260,-0.7451879058394125,0.05056243333728893,0.43571645976155127,-169.84641839399904,-5.034750789941773,-4.815013287665763
270,-0.7957122518097554,-0.07378598725306035,0.46823678741493513,-199.87296804915778,8.98829775584216,-13.299496810817748
280,-0.9367079605393069,-0.4142968812779323,0.6112025275447489,-183.9363713984797,15.692402299875575,-36.05721446347445
290,-1.005218648927457,-0.4351470291069089,0.638035609284451,-152.91974324126795,9.563978615831296,-50.73216523643803
300,-0.808608998405457,-0.4011468443085974,0.4114789916661797,22.319807847018446,-24.447301872757212,-29.6053683573481
310,-0.6213268394894598,-0.4278499402364761,0.2934864250735181,70.03500894981553,-32.66953553844945,-26.08514977796463
320,-0.7272211203155263,-0.3330648180239532,0.48712971722680765,43.04010732889569,-19.616572541207358,-25.808284569845494
330,-0.8037491713478595,-0.38477272949977626,0.37002888849066295,42.07486055054971,-5.448748796768816,-35.82193423662704
340,-1.1980606401339922,0.38383980680914126,0.6461473945166247,96.13157253449864,8.485036529005175,-22.35754298251469
350,-0.6868020421757691,0.13777300162927675,-0.14022803808872203,16.175307851277644,28.489258561013322,-50.358183298412364
360,-0.8640800806139012,0.23847810535957806,0.8411865311416166,119.57834623816413,55.459980353298306,-1.041153619289549
370,-1.1145393242820392,0.3198897847558392,1.648075791522548,50.23596082833916,72.21069933744693,-0.11770452016949817
380,-0.8346578262331102,0.34109503246765693,0.4661765588246768,29.665970689450596,102.02253418360117,59.70910324278395
390,-0.6182135994797376,0.12187319189535589,0.419276592261527,63.386330981244484,74.82445674620007,89.56881016027393
400,-0.4034383189913053,0.20661753366595895,0.7498403018435913,56.98972237696212,59.11695251296572,102.45143597937594
410,-0.7650266148332246,-0.24941838657580556,0.9490618927046014,-74.2066507365763,53.23437737760615,86.50597352736803
420,-1.0003451737928373,-0.47832597540994576,0.38188413867966253,-38.74560066577801,18.245027856576314,22.528545914543354
430,-0.8806818354158557,-0.4883620709187108,0.33856592001749136,-74.6460341454973,17.79768450098999,-12.556486857270192
440,-0.8744919630278101,-0.41439369384051805,0.31892232627221506,-19.563248791631604,20.183452572594664,-20.56496677042073
450,-0.8455702223029313,-0.377346497796498,0.1823656494378944,29.956661220361834,16.2808433209909,-15.676862968336644
460,-0.8704333687847126,-0.5863324935446963,0.17067280351118536,30.846960210895315,27.368731204937866,-11.59185610444003
470,-0.9167973355875035,-0.17242396579503724,0.7136046916638735,113.34204336746296,15.681473788204507,-4.855326044299259
480,-0.7719935315119562,0.23561438656871875,0.3922862201947236,79.92764852410741,12.71352631670631,-10.65158207516327
490,-0.6987748455719174,0.5363989908704011,0.455098603408129,67.76705901397702,4.267694544018991,-9.529444202716657
500,-0.8084318685117905,0.721656476422527,0.6376943805289568,89.07699903263311,-1.9858070155851015,17.3865789641284
510,-0.7474614646048857,0.6134674486101298,0.6287891898470408,48.9102581781036,1.29937671260946,38.48177968452098
520,-0.7947296196919901,0.3619029609075773,0.5238035469261116,6.478405846184935,3.5202791661737725,40.00642460024504
530,-0.8124251602280529,0.12047927512087156,0.5086431707431893,-28.853919979110294,0.07549218917245071,-1.3437373419691379
540,-0.8127660315863161,0.09191453588973612,0.502446762188252,-26.783826016525172,2.340360435056501,-15.445759690326224
550,-0.8251584353560001,0.06119533125843749,0.48559560650895456,-20.609543395775837,1.554959572314856,-10.203458671781423
560,-0.823628015613163,0.05380151687525218,0.48670645659456824,-9.126033291104424,-1.9482084098059653,-4.483520463334864
570,-0.8208557452704465,0.06933802348747894,0.48678345742711476,3.213402566493899,-0.5107521970820765,6.698308423698601
580,-0.806576104784062,0.07985275374140065,0.50536446355233,14.554441506749312,0.5386567936096185,15.865245221514918
590,-0.8306766205046959,0.09959703629169979,0.4905732518377426,17.98017409685617,-4.8315777392217445,16.336345217631347
600,-0.8088054009828768,0.1447764896690501,0.509868083875192,12.877501159615866,-1.3104087703623994,15.278826758998724
610,-0.7929796087418247,0.16025696682586976,0.5260291117217348,8.218347801407553,1.1609472965272614,10.992664770249243
620,-0.838860382274346,0.10722581717928623,0.47312184611028085,1.061743994462349,-0.9546535386681446,3.1353085551131037
630,-0.831733464064566,0.12061158867296387,0.4874352887179326,1.639093947220967,0.4184028005371184,1.4709616454301737
640,-0.8079900753358934,0.1342708879368136,0.5066817472377498,0.9212703179656272,1.0045556690870856,-0.8245070688625116
650,-0.8222252243270051,0.09884291544745015,0.4895499398049119,0.526102857871382,-0.8555913769318161,-2.8149036743545386
660,-0.8146484799549389,0.10487680657371107,0.49800318926602555,5.2811836637559555,2.3168658259875543,3.1366644356689024
670,-0.8108597253738139,0.12862263630179144,0.49271121561784864,3.2595467950436903,-0.6007682073505733,1.8418479098023095
680,-0.8216318364322118,0.11455628401286032,0.4875444932704831,2.0432956402511873,1.5285505705321483,4.274369175519053
690,-0.7802650686559774,0.14623705385551913,0.5292322298308941,0.2007473933472333,0.43427965952272146,3.40755063783584
700,-0.8227664578770132,0.11731347802087762,0.4969583809572233,-3.422784384669572,-3.422885550128266,0.49872276500956314
710,-0.8050008029150063,0.1403623299860821,0.5148007615855199,11.82138981496159,-0.3855684432440073,3.409358761107055
720,-0.8383383027740482,0.10750985338960764,0.47571640300845314,8.241946381775222,2.199090009777134,4.031570849579811
730,-0.8464846075923146,0.09859868656490416,0.4802808482925788,1.6412220880680133,-2.4306258251229425,-2.864399688178877
740,-0.8193747795304231,0.1323681520429743,0.4953316302882884,3.963662215094052,2.8783254126719378,0.4414063590959908
750,-0.8212382160906839,0.13366864488443167,0.49333292679027124,-4.5284899964604275,-0.022952167993652628,-3.595594385413468
760,-0.8224313562694133,0.11890294298028965,0.4905365413938622,-10.074014707041894,-3.431031852070525,-6.8275350871371785
770,-0.8129839777912665,0.1115959467761625,0.5042539413905316,-0.1139292286377398,0.13642992235310958,-0.17475159655927897
780,-0.8484039656485051,0.0815701248468354,0.4705030510630078,4.083576886663234,0.08928749229792166,1.6356563050222572
790,-0.8262511699097909,0.10272244399122994,0.49596622527799733,8.430201799903058,-0.5357466493575049,2.221823691321203
800,-0.8535988163817145,0.08702869487430376,0.4624583465338159,10.78808136754493,1.823762643209941,4.599851417565944
810,-0.7992816899618176,0.1465885344104686,0.5172731719197918,1.9847564717989332,-2.1563327975443873,-0.9284689929425685
820,-0.8168475175663251,0.12238469024010838,0.5028861621171372,-2.033583429208267,-1.3953140732262148,-2.0858276184827638
830,-0.8069909136334468,0.11672485195650087,0.508455327501442,1.3071670538693252,0.5213600467938855,-0.2736915067408845
840,-0.8531601319203642,0.07255623716287732,0.46100408990202607,4.4181397957252715,-1.2146985691670942,0.193451674525972
850,-0.8390437632849391,0.10349979286232804,0.4803019994502105,5.038408610753425,-1.2359979066178022,0.8861421815277226
860,-0.815859742711068,0.13582479811447537,0.4986637931582962,6.730387633112823,2.6165450835470154,3.90701837957318
870,-0.8405165688015324,0.10461891150567369,0.4730572507851042,1.095630678491194,-0.55765304252775,-0.20902610858890858
880,-0.8081251833988661,0.13360563625442523,0.5016516270829425,0.2717534146738698,-2.12560593044445,-1.3787198732722508
890,-0.8233565443461186,0.11846427066212746,0.48801472654357725,2.595421664113292,0.27322313262719655,0.5376212009344822
900,-0.8242781045747262,0.11498924278124528,0.4887602203053583,4.60843944217009,0.9628993590616317,0.01633605851082187
910,-0.8020258212315502,0.1361379511663402,0.515179403839952,2.5726290157113274,2.5572804784905183,0.9651929937256294
920,-0.8276521729050567,0.11011820569832333,0.49266285539810517,0.7878554475198076,0.9355985759874605,-0.2088538654251908
930,-0.8449539496669012,0.09386515074935789,0.4723892612059354,-0.7335828214076501,-0.5724873346320692,-0.11314114793419405
940,-0.8334683917000794,0.10669864438340988,0.4794465197356598,7.030156819771296,1.870108841224457,2.6785708537933615
950,-0.8301339230652538,0.10941275920144741,0.4841129674734636,2.3527795790012362,-2.5687676701717694,-1.6540261523532167
960,-0.8563577031282251,0.08115828272987438,0.45900873254509206,2.8721420604567482,1.5792309170498058,2.016173020264233
970,-0.8229042081490687,0.11903393071895856,0.49187428340454675,-0.21395304246410385,1.0047291241794816,0.7477875523086267
980,-0.7919566664208001,0.15090992968563255,0.513268690989334,-2.4012605327923398,0.44624131098343467,-0.3291546622346905
990,-0.8170066945897182,0.12338215619416841,0.497784976278644,-3.0203100028732637,-1.8282759532041126,-1.5480844662521098
1000,-0.8382528015328313,0.10489133665375487,0.47761273231691653,3.283889381044675,-1.4527967697023136,-1.4546199750887574
1010,-0.8241892014615028,0.11458777038348461,0.49186880519093296,4.225517026087536,0.658528825704549,-0.74526507063435
1020,-0.8183371878256982,0.12885287314731347,0.4954201501788803,1.6883863687957654,1.2465402479553174,-1.1569022598026988
1030,-0.8155147548773233,0.13109390651325534,0.4950078852818066,3.325009615778699,1.5238882552078177,-1.1207726475656712
1040,-0.81976510828395,0.12133746927193449,0.495431957685384,3.4797518965005496,2.027949386843527,-0.11876294510882213
1050,-0.8357957034336847,0.09996486856006168,0.4822779261680082,4.531321322397629,-0.06594436700209536,-0.7306536728096759
1060,-0.8470843003322275,0.09595769246873434,0.4678056199928667,-1.3181120457379165,-2.103550662985081,-3.937964574924446
1070,-0.8063262433378643,0.12858383411575885,0.5006151948267317,-2.1534652524832327,-0.586772005490007,-2.2145530329022014
1080,-0.8264345830157076,0.11187980032058523,0.4879122000993762,0.29318484661199273,0.48483880904208476,-0.3064046135391221
1090,-0.8435829587308002,0.1006768905843187,0.470299377403914,-0.6328803306311512,-1.2736627798927092,-1.2809804041058603
1100,-0.8177171721181271,0.12494664118903165,0.49188660791284067,-2.0291163701242714,-1.7179517827737285,-1.0512807582956971
1110,-0.8234718081218149,0.11987921175823375,0.4831407128553075,-0.6491487597856389,0.0956375919558965,1.426595832701139
1120,-0.8137514778534607,0.12206030356583766,0.49464010321058305,-2.416867301996836,-2.005458977647491,-1.694220500014833
1130,-0.834662226930029,0.09290006842361084,0.47676423408800217,3.1843778281151027,2.7291034527324807,2.319489663204992
1140,-0.8294026815142206,0.1111218616100959,0.48052151182747743,1.9461389962770694,-0.13293795530167507,0.1315852952991462
1150,-0.8282986541602247,0.11326475027246473,0.48389375682262437,1.2067351743410006,0.1079683800002044,0.5580942727485281
1160,-0.8342053573461151,0.10243781093823082,0.480342113603791,3.0472862199544077,3.1405329767760866,3.2677634220460448
1170,-0.8227597436199525,0.11262157322720616,0.49080309677148204,-1.804664837729168,-1.32419433776481,-1.2964432475830894
1180,-0.8202194320957596,0.11922379896933466,0.4934488711579409,0.44133069933135427,1.0715421476737848,1.4152163758948328
1190,-0.8331179791032157,0.10886829962136556,0.484579635326182,-1.5044667695304814,-0.7687079848131634,-0.08926045506187852
1200,-0.8263391870094223,0.11137951791178606,0.4901608394300805,0.33276247218110067,-1.5378393689853378,-0.023293055468633028
1210,-0.8230682773714818,0.12307313943764689,0.4926883550739942,4.525455075751566,0.8454645476929682,2.6802825486314474
1220,-0.8173011281454818,0.1317786290412145,0.5021790908236006,0.7931907896961006,-1.2218617422818137,-0.24528517965919971
1230,-0.8054052499990444,0.14355542430657486,0.5101955912447758,0.3378398242077836,-0.8747891542131223,-1.423819142359743
1240,-0.8346163622693563,0.11339430336538299,0.4802553896236546,3.5129766974803873,2.0326781325475154,1.0425063312634597
1250,-0.8336199401732837,0.11278298122279756,0.48595260255207595,2.5869316996590803,-0.006357563115686776,-0.17532243745670534
1260,-0.8149199275862816,0.12024237369294194,0.5040902563329752,5.416029561780443,2.7026437748397076,2.5608695925952603
1270,-0.8087291666599064,0.1281020027916976,0.5044873849606695,3.231361983773133,-0.33682699459336096,0.08039134579891782
1280,-0.8102300292754868,0.13820127815138722,0.5090745049811298,2.450032023930335,-0.531251474941243,0.1499223925970703
1290,-0.7966498304496638,0.15186866132807586,0.5240646080918444,-2.9138343424893303,-1.0109113130056353,-1.9817682342830754
1300,-0.8194715057740858,0.12412014820483087,0.49804889195676455,-4.741282368767574,-2.173775010057702,-3.2192335959166245
1310,-0.8144402832907186,0.12013412862479593,0.4976446710146864,-1.5551804127879105,-0.43159403838052807,-0.9525653970852881
1320,-0.8414168409819629,0.08581229727461231,0.4654527158009732,-0.05472621743849604,-0.5550506594292632,-0.9253519190476044
1330,-0.8075136877115884,0.13897380453218247,0.5073636932653293,3.724034892298355,1.190476177227389,2.199936144737914
1340,-0.8073366969947268,0.14205934530601813,0.5026745705327395,0.6418014297763582,1.0443978930902813,1.812602121858546
1350,-0.8340616627330963,0.10280387495440722,0.4816548184268876,-2.056428846652695,-0.5190512028811591,-0.41712543535875257
