time_ms,ax,ay,az,gx,gy,gz
0,-0.9112801299714193,0.9475875400150156,0.7619583561778405,-0.9580357506697631,-1.2162212396088012,-1.2274990023337204
10,-0.9594340013765085,0.907683696836013,0.7191460302431221,1.1500278843689542,0.8772029497381123,0.5226891311956982
20,-0.9446584494429758,0.9178440891164995,0.7345661238688823,0.20818842441622554,0.3731268823667368,-0.40210833099115006
30,-0.9378198851281822,0.923651504186311,0.742835863013145,-0.8705034999783208,-0.5615448902011417,-0.6784570211179266
40,-0.9514890501473007,0.9110544349963965,0.7242770701473439,-1.9501882123436414,-1.9570302131767656,-1.8757555463849434
50,-0.9517868028609955,0.9120529406042261,0.7245451106052453,-1.4896124464869571,-1.6471016243411878,-1.202462673955206
60,-0.9542515208818907,0.9109314317277077,0.7200146211834051,-1.6390181005397302,-1.2984174874500867,-1.0605557203528835
70,-0.9306416639355971,0.9312195364875793,0.7388094566261487,0.2347492123013828,0.8027626908886165,0.3805765306624279
80,-0.9511633669148177,0.9073307252565788,0.72050732317234,1.8304045017924477,2.0636510618393125,1.0950174085717777
90,-0.969860334443619,0.8928139459757473,0.7082357421186298,0.8576571744520305,0.9777258158199725,-0.30957126702694837
100,-0.9541056911049474,0.908476412048396,0.7241621370710263,0.8199054532867969,0.658706071181521,0.14769751616801038
110,-0.9345394610157658,0.9231687092467239,0.7400525538520335,-0.34819358668888006,-0.6931767462687929,0.002377727043723743
120,-0.9390248715053348,0.9162696502763251,0.7332223827618518,-2.201291799107236,-2.1693427724448306,-2.120743575887725
130,-0.9186249644753176,0.9452188422644634,0.7572876548881575,-0.9582153534441302,-0.8051362559859848,-1.3493323076214474
140,-0.9505889435879533,0.9103063920471565,0.716213396561893,-0.5638439918979317,-0.30989479704692935,-0.8380894631453876
150,-0.948637918420697,0.9101243048015704,0.7230809168229155,1.343793611659029,1.1926525565415755,0.9086422068300066
160,-0.9326882757628724,0.9315344855538873,0.7482437178764302,1.8188986177334037,1.6546725223365617,1.5526838090964905
170,-0.9547047698450406,0.9017955952301002,0.7236969518411793,-1.8384635739296198,-2.067173389027631,-1.7963635314702027
180,-0.9269686528631479,0.9385097140872629,0.7502071931177182,0.3403402177267635,0.561101191413916,0.4759954185326221
190,-0.9754902149392642,0.9090193896024241,0.7131671711874896,-2.213821684025353,0.17451328249784778,0.21262502217835644
200,-0.9801657608031792,0.9114396343164505,0.722784169848532,-6.912016977144393,-1.7554734133134624,-0.5886536353314866
210,-0.9862305582373313,0.9107232359664561,0.7308655264556655,-7.686662714578745,-1.1964347204841683,1.004182961493828
220,-0.9764290523751591,0.9370661290191382,0.7740052994266398,-8.775582272363405,-1.6813223493298777,1.7374213863165588
230,-1.004127429980984,0.9251197021205902,0.8099733970622819,-13.589844449252475,-6.518229120361239,1.8431341608287335
240,-0.9944389039627893,0.9208332971547992,0.9579021214628233,-31.493006292217427,-31.522200544105722,2.4411936891634913
250,-0.9160025859741583,0.9594053785205636,0.6922504256142287,-23.695879779140714,-44.75655316776303,-3.5845746461388863
260,-0.8364042622417306,0.9587188340124443,0.8052877898340715,-11.567003872107684,-42.88680148877021,-2.6298394177316586
270,-0.822010981939351,0.8574153352802242,0.7719875438532767,-10.195598394377441,-37.842028324252524,-0.6238686951954832
280,-0.8286900216087505,0.8601638909509738,0.8189741412128342,-5.994636658287129,-36.47331216097244,-7.6914513660369295
290,-0.8948301850929994,0.902511192130769,0.7884453199915776,-2.3920156500102046,-34.66024428592455,-10.015801061919953
300,-0.902987423941879,0.9240863166241118,0.7918680068918067,-0.1380542390936259,-34.915765140902245,-11.157818983276456
310,-0.8838618047072114,0.9053849493573756,0.7496862560430928,1.5699121624667556,-32.5467090137378,-12.924571556830553
320,-0.880012501754296,0.9189868774681879,0.7263762834593888,-0.9960360789955767,-18.07600351657785,-12.045259164329236
330,-0.9603895998170913,0.8929608653858928,0.7387977376122848,-10.224115155279856,-2.9542860680351057,-11.51596521833926
340,-0.985586941453054,0.8835841001713762,0.7783839419670759,-12.018087621842813,0.3135052790514046,-8.370705540714097
350,-0.9862226873252357,0.876553925571773,0.8271761928247446,-12.59162317503948,-2.8553929526256385,-8.810017121620055
360,-0.967350342768756,0.866515389711221,0.8592333003553395,-7.322680238473938,-2.0824761015494904,-7.783690015352331
370,-0.9477343097360729,0.8779781742824948,0.7790027608257021,-8.565372512561183,-6.077535812189636,-11.511690979600866
380,-0.9604129816340969,0.8664039692922877,0.7945656027161463,-6.248601219483855,0.6844633134046801,-7.285784985508534
390,-0.9374531771893431,0.8764336031338655,0.8170532984666448,-4.795712825805262,-0.22977848576690385,-4.247608596587791
400,-0.9288939414621838,0.865013414175076,0.8258353003715184,-8.199176062590148,-5.8143503083788035,-7.444125639190459
410,-0.9223140789247275,0.8784100147493862,0.8326315475103317,-9.97895537864044,-8.13153028623212,-9.535775661122898
420,-0.9273517339980288,0.9627464113371742,0.7593388361278781,-1.9111455539598305,-3.1998421383400273,3.461832960760087
430,-0.932692528655362,0.9241364337336142,0.7821802641322335,-0.9090477830813067,-0.7360064952178953,11.631924016386266
440,-0.8685784426379997,0.9093381144337694,0.9244016280768695,-4.414116119814772,0.8213149906876279,9.56764809631
450,-0.9205106278462657,0.9140255217636032,0.8384066594328713,-0.5413239971135334,-0.2079845151247881,7.5994299287935885
460,-0.8971525090613708,0.982402803364665,0.810858479111569,13.04916625610299,0.24244373910874395,15.852139215932183
470,-0.8519648006247085,0.9438227882903725,0.9186687622422318,7.629358553925944,-2.900601899626363,13.674134258736501
480,-0.9023880869971165,0.8808688647190558,0.8997239225237951,-1.8258596669341869,-3.973332001142004,12.995410367060678
490,-1.0106140783465847,0.7654172413206553,0.6648500485657076,-2.042289983675344,-6.987062997265558,13.16982301729878
500,-0.9436991869282495,0.8303476428564801,0.7847002917136944,0.06990697693910641,-7.354873025608549,12.516215557946698
510,-1.007207780145531,0.7270878782322356,0.7702137753196184,-11.350543150422734,-15.179795059946628,17.69948204374373
520,-0.7592635045126694,0.7160983834949255,1.1856590541765026,-4.036713669806703,-29.597947671186688,3.676700631351765
530,-0.9258577361837024,0.7685238341143129,1.0367619890339639,10.812921164526152,-18.874743127514712,-1.8454601139854023
540,-1.0443612350283853,0.8090328863737448,0.6667100620825865,11.652709453888152,-12.788717997543394,5.290671095384477
550,-0.9899507576099918,0.7405952208165353,0.5658046979812096,5.885957279156397,-15.052532810489199,6.06717942911977
560,-0.8794867930957359,0.8699644044002466,0.7591363498280568,1.4802944671074747,-15.067097800779168,2.705508405970335
570,-0.9111351082490236,0.9640649599841058,0.8662208891268803,4.921926251556056,-15.480946406167872,0.13501309522073524
580,-0.9648812403902367,0.8216078270069278,0.8697808791613133,13.484831992411197,-20.157755522286454,-8.324769393132776
590,-0.9410405736183162,0.8306860899650251,0.8518070361060386,15.17410882609626,-12.398299632737714,-8.965478421358256
600,-0.8441199922098792,0.7253420387078835,0.8462611163909299,4.43957613227646,-14.103013738168642,-16.787189985935854
610,-0.8718431637330868,0.6805843018969685,1.072921579418754,-10.718219869846829,-15.40785326668158,-20.468362515649147
620,-0.9044379201816483,0.9005953220958143,0.7928292038460194,2.1134293539944893,-9.914289938165151,-21.813667387062203
630,-0.8221934049081301,0.9604670698406923,0.796669361608186,4.546482188194872,-6.15027076133853,-20.797609788097184
640,-0.9374851530885269,1.1089610615859418,0.8193883090358688,16.569534081833456,-8.191055016293053,-20.505224735736004
650,-0.9321353312286264,0.9527329231816847,0.7512045282908548,-4.012273803024035,3.011589605335702,-15.736370112215694
660,-0.9503005957105168,0.938669653681414,0.7096679811908896,-10.30279061721467,12.412439603407174,-9.353927519937036
670,-0.9209770298185671,0.900552094827765,0.7328442469821387,-18.877624631000906,11.093538711588119,-10.73715844039922
680,-0.8921441949997344,0.9461027783518728,1.0220278767293727,-24.42758082256301,11.248121643700271,-11.834292095331458
690,-0.9038958608630722,0.9543652302994864,1.2816755586368762,-20.9163582818873,16.395179989923296,-5.634679328038519
700,-0.9155062363018999,0.7311416797063871,1.1771722990673352,-25.940293082121613,18.59921828858209,-5.700816478675577
710,-0.9548766836947852,0.7339798042526618,1.0157006720341608,-24.744197343257905,28.953740912705452,-5.341582369540465
720,-0.9231232031519745,1.0343448286595405,0.7644001402165727,-11.914389884581631,33.8724790513007,13.01472955257267
730,-0.8351050535517578,0.92005136141473,0.85888492790133,-12.603494230084697,37.492079113752645,4.061836700887591
740,-0.8802887849279647,1.1960364575426568,0.6573814207476599,-18.083778165996534,32.153420723663416,16.80928652568676
750,-0.8824925824595227,0.9141618840665425,0.4391190176342471,-23.154201501490768,51.821699458129785,24.90786628765137
760,-0.9434994097756196,0.9114892135160855,0.5276783337399119,-5.939187723812363,34.248988446350616,22.452878638529047
770,-0.896671336733953,1.0300942243239606,0.8209426321232929,7.999731184065774,28.926570401661245,22.425417794269823
780,-0.8492004807640491,0.8521348011302086,1.1998995632450693,-5.979728208556524,17.429661980699358,14.658857843782757
790,-0.9400722756287989,0.8005452714462601,0.7606400357510449,5.807244670536178,22.052993685743402,16.966970833290038
800,-0.9688090727298092,0.9120873319630045,0.3609348531294101,27.80713705586563,24.52645753697617,22.529316573579205
810,-0.8891398088625706,0.7526376720284297,0.7852841689900697,18.175324273819093,15.796553118675718,16.399990302070545
820,-0.8296826880329303,0.6112901979645853,1.3438846214855689,-7.022888110750679,14.1603309288926,8.894194810807793
830,-0.8687870337168686,0.8201299818703857,1.2422886037752123,-11.412177671302937,21.147766394669272,13.341206386251683
840,-0.8637281137057542,0.6339684978955448,1.0136086653934664,-13.057316405889543,18.203800295280068,8.517117013790944
850,-0.8810507287377503,1.1369144805366775,0.5096095689497889,11.716868099431863,8.446816511436731,18.023966268674965
860,-0.9665616126918611,0.8510964746349879,0.8786570059666637,-0.4520342462694214,2.3480809184097406,-1.1886055693593862
870,-0.9455813534012276,0.9060828204647515,0.6366382521191115,5.6038505896112705,21.82717377150611,13.332901040243726
880,-0.9050474756310734,0.6731569840208248,0.8001806832948275,11.760001783405945,7.037456543988931,8.072244317849533
890,-0.9186697580480062,0.9038678196839381,1.0673599994568614,-3.249025732118205,13.370545329202379,17.662185064025607
900,-0.9655660343524284,0.9136886484512449,0.8669093700750147,-6.736912556944644,5.830281411005917,5.327721775086433
910,-0.9483711197690553,0.9463753842051278,0.7384326232292,-2.4535222366382383,0.8267815286817295,-0.12710451890220043
920,-0.9324001544350585,1.0011843418179953,0.6140415934545063,-10.528945493777833,11.507005027617069,11.542740917805967
930,-0.9242902914723072,1.0306600244991904,0.6288160681238447,-12.817189922311279,17.37205238128246,18.875122267500377
940,-0.959964677509426,0.9492095548271667,0.7587718319578813,-4.902986688332825,6.365129172081802,7.829413493579153
950,-0.9334182870972701,0.8865667745371362,0.7897353488908399,-1.392063171234747,2.5657451834683833,-0.23109509219921562
960,-0.930913724615967,0.9301067480651696,0.7655067481380393,-1.342401268731577,-0.9662310368312632,-2.27729634918767
970,-0.9243589631502154,0.9541863129303622,0.7645904189051153,-3.335409551874812,-1.0228774830772283,-1.2491258665887914
980,-0.9489681731709253,0.9244436106136471,0.7347177558013971,1.7214998856438246,2.259951927026227,2.190615028498017
990,-0.9289214577383899,0.943302991641584,0.7575387794818922,-0.35606316128686033,1.1293906641796065,0.42026174370858504
1000,-0.9474862720202778,0.9076353555914599,0.7373019897224607,-1.0522604168782579,0.46017782150470765,0.46062485511878126
1010,-0.9516143497182612,0.9047205831412551,0.7357510025082779,4.197055383318142,3.99463171590443,4.9142124957411735
1020,-0.931938810021197,0.9302655090306523,0.7589951840707494,3.5424204569168176,2.613939992936918,2.574519165949094
1030,-0.9503960308968931,0.8956693208846961,0.7374918807927113,8.47226658777361,6.683996761878763,3.895937772208416
1040,-0.9356049578672553,0.8700491344137151,0.652209325894142,19.40089105156412,5.927920702988185,-6.818983926107122
1050,-0.965205771691873,0.8671501919701137,0.5732887671678571,25.72496353272169,6.374958436040979,-9.533570194180216
1060,-0.9485106537921549,0.8476296197154918,0.6680841440260122,20.85953569479419,8.817209854582815,-4.333501713582812
1070,-0.9485123976616413,0.8018411137715572,0.7511134176309381,21.452879392538353,4.701927866787966,-10.606556028172752
1080,-0.9840659902923634,1.0326920814037444,0.7666680835640843,43.777145671047876,4.953246536486461,-7.4445359184019
1090,-0.9325632755456732,1.0099126217563483,0.8004624250267977,36.47971513562418,0.4215872798385749,-16.915503755597683
1100,-0.9915132499756028,1.1622563385970741,0.7577832264421805,25.586147880266303,3.145734352421383,-3.2827449924755703
1110,-0.9681138457327493,0.6184230483041651,0.6399858035107145,-15.8171112995783,0.14835040253118126,-14.502757691268126
1120,-1.0443065078362568,0.9311351483310797,0.7945468834953,43.997153860773416,-2.3838263950863263,-14.951105789666551
1130,-0.9783565683367996,1.073370300300603,0.702990630591295,-3.3783064369443663,0.8800267095303573,-0.9073600029258987
1140,-0.9404992185478,1.1114074247393841,0.7301772044550026,6.032758956606901,1.324790571259224,-1.2766340902946054
1150,-0.920381428082817,1.0986980276920317,0.7155545207039951,23.436059507656275,-0.11931144531305193,-11.088149868763498
1160,-0.9468731920937197,0.9537565713368246,0.6730646938025194,12.539002036313239,-2.253836415665204,-10.297161439946423
1170,-0.9369925451503028,0.9394465590400183,0.7117754125128851,8.787779537321274,3.716147682197417,0.9058939964918157
1180,-0.950045561514641,0.9725988823086635,0.723224732878356,5.014686434641405,-0.006968959153318632,-1.0235416326966997
1190,-0.9536754561773553,0.9426089217501121,0.7236821948553813,5.751685534000753,3.2885442313115827,4.210870864868539
1200,-0.9865177350066254,0.900169229985257,0.6895229367796121,4.275170187463971,1.567121272808889,-0.4605242240606907
1210,-0.9794089957384574,0.8979078045733446,0.6922830798992944,3.7679761477091853,1.6277474400798415,-1.5211995874916469
1220,-0.9451823200885165,0.9244357131012754,0.7215091746146588,-1.8411806014190297,-2.060874408302219,-5.020598131168044
1230,-0.9591098066091309,0.9058319066595253,0.711418157068848,-1.0070279099438704,-0.6261873973238381,-2.6500587983657518
1240,-0.9485020535583949,0.8921234442418696,0.7263036637732103,-2.6418797560666247,-2.631838459010199,-5.7888059378868
1250,-0.9375732058246901,0.9052112701979662,0.7121164331448728,12.447262010871189,-2.3150851366321095,-10.468992561669342
1260,-0.954276736230758,0.9885646263693566,0.6817863010978891,6.634171536362338,-0.14022689112649367,-2.574783528211073
1270,-0.916658072255263,0.8846325769540188,0.7599658519774799,3.758238639824208,-0.14096722623307922,-4.8912629694409455
1280,-0.9555814214842548,0.8707701421238505,0.743315818243189,3.4773392085157084,-0.7467050412784358,-3.333836905129536
1290,-0.928743404873469,0.9569629128629498,0.7445864899437514,2.7869075212366763,-0.5010779330179584,-0.7543456625560383
1300,-0.9138691436678726,0.9477483826107911,0.7397197791968485,1.561678086238286,-0.30510740818250004,-1.4721591421010303
1310,-0.9172351441075557,0.94732510643316,0.7452611344915548,1.26948930265572,0.3753702197781188,-0.3101685836665751
1320,-0.9391150350407017,0.9357201048228392,0.7270183826826248,0.5447662563101624,0.16632703209400834,0.3771322280522892
1330,-0.9540092463186158,0.9255108874458329,0.7195881869960197,0.3895209878020521,0.8220905006815586,0.913715358005208
1340,-0.9425998525107432,0.9368376218921357,0.7325331240795336,-4.211699834054161,-3.1263587585430446,-3.1423670877890197
1350,-0.9720515998521918,0.9004340707523075,0.6989843263892789,-1.2679055069952487,-0.31463214936334927,0.37296089449755987
1360,-0.9550698796079234,0.913246517656292,0.7133060640424719,-0.46541578492309077,-0.1723955486123913,0.5752564702528294
1370,-0.9634985097825772,0.9036883850858911,0.7056144048533136,-0.45173508355533126,-0.7333401092598616,-0.4486485269358427
1380,-0.9281780600432541,0.9398795132907082,0.7457606630839244,1.2567391656920925,1.1625833062894955,1.9161064280293352
1390,-0.9633402685735722,0.9085423105309237,0.7057280349015281,3.252347155342988,2.9139563995920956,3.9596614573426936
1400,-0.9351224311471522,0.9364968014826548,0.7324174337084028,0.016041742952281446,-0.2561708302245359,0.45681473253998806
1410,-0.9496625627734411,0.9228281171528822,0.7205622543833186,-1.341761357970702,-1.396580685337184,-1.269684131883461
1420,-0.9620952052964553,0.9090602345497065,0.7096874595749618,3.739547006527993,3.87711378975161,3.2509923783199737
1430,-0.9547129797834184,0.9148033375268166,0.7199908125101714,-0.7032203660840873,-0.5851506834260971,-1.030056419092179
1440,-0.9538399146080161,0.9194921138314663,0.7237997046178192,1.984927957113628,1.8865742505986314,2.4896460885019867
1450,-0.9745089951000386,0.8985454037029925,0.6990913912240764,0.2427307807189888,0.5876766271808105,0.228698435799483
1460,-0.9367475318347696,0.9403568442543712,0.7440417386739355,-1.307754992142494,-0.21373609924643688,-1.503849435476645
1470,-0.9415766033007111,0.9309014667992658,0.7242482294501824,0.14986433071720384,0.8047326798887169,-0.550451975425208
1480,-0.9476960263551144,0.9178731309230694,0.7251305167852387,-0.17992892281674233,-0.2634307851082039,-0.6220353772770653
1490,-0.9318442392046078,0.9332557824030565,0.7352873541657428,-0.6159107845464361,0.24738887222171702,0.35244620102435664
1500,-0.949622014125565,0.9259017370122313,0.72564997740684,-1.2373286035866133,-1.3723426433624035,-1.5810292750597617
1510,-0.951573323562405,0.924508829911804,0.7261262961030805,-1.3430862061049085,-1.613055068652078,-1.945814782244506
1520,-0.9698798256728928,0.9029889537004281,0.7045265489099014,1.8318966848912668,1.7613640460638242,1.1731254588266258
1530,-0.9316219609717108,0.9326329649006602,0.7297098726689907,0.5059504697454317,0.9242458205292137,0.14875322269361413
1540,-0.9276061631156661,0.9355674677521273,0.7313559399465286,-2.215662615472479,-1.5234447309153132,-2.074269580398069
1550,-0.9605641568355862,0.9062642663861908,0.707922273208572,-0.9262451686957893,-0.3283493438635709,-0.32274805176890414
1560,-0.9372035072717775,0.9269479670404186,0.7349720898995344,-0.48667823038296776,-0.0809711882701259,0.058639663394022976
1570,-0.9589980065947349,0.9079544838441166,0.7160074295271806,0.1032322268320076,0.15468376748935728,-0.35260082867405707
1580,-0.9272646397022386,0.9441540300635585,0.7472963004010951,2.2152028680117377,2.319368395100629,1.8004419406131416
1590,-0.9246316310063084,0.9417631292105523,0.7389517307545119,-1.2806683631780937,-1.4654342331262897,-2.071220462736607
1600,-0.9672291574053681,0.9028837197234302,0.7071032350657551,-0.5440208356479653,-1.1842345910255234,-1.9385921642338344
1610,-0.9769801121366265,0.8994988551477624,0.7007570961560342,-0.095694753416984,0.36767653465853495,-0.91764031614833
1620,-0.9533766854421623,0.9138114487697729,0.7171362067795822,-0.9376884474518494,-0.38018098626481966,-1.09526286999793
1630,-0.9324674821717466,0.9416853649177434,0.7399067593087962,-1.1413887580693682,-0.8672022759350049,-1.0433391093832136
1640,-0.9767520161913548,0.8944452862952101,0.6942113940368917,-3.1079164991788226,-3.3266316593478105,-3.872705958174241
1650,-0.957951681305926,0.9065195593872549,0.7094598679633071,0.4919791947135857,-0.0893657388865286,-0.7893211173371821
1660,-0.9697944723253086,0.8932290945630624,0.699421391130277,-0.4084691311957323,-0.5041347907338691,-1.4584525837241515
1670,-0.9413905237731925,0.924905741079843,0.7315390984582134,-0.5143985040640362,0.06813988772048918,-1.024429165039734
1680,-0.9349958801582711,0.9337342263728031,0.7385298932422031,-0.6249549885493662,-0.047515131053742665,-0.7526548200047476
1690,-0.9682292048024395,0.9002515660263222,0.7050395991850675,3.180166508131685,3.5001968449507888,3.0044768337368972
1700,-0.9578755691214033,0.9131459609201341,0.7117833697823511,1.4398314780852217,1.4518868712415203,1.1911909422215659
1710,-0.9429931347378985,0.9215652222836102,0.7230365748296341,1.6949388184957805,1.7410988177761735,1.3065962092226564
1720,-0.9579847489374818,0.9031877431099872,0.6997340249351834,0.1191796315243685,0.5759530610625303,-0.3842828803493239
