time_ms,ax,ay,az,gx,gy,gz
0,-0.720904657008194,0.16971172391748365,0.2624890472313718,-1.5788918371950493,-2.324434832663588,-2.5824041739743753
10,-0.7622831278388317,0.12160295965753119,0.22050112529403748,1.4590042763531843,-0.29539618707069026,0.9026510325895656
20,-0.7287183941838855,0.16001914241336163,0.25404223407464005,0.537961191528945,0.04419822805286344,0.24949548401863852
30,-0.7326535642228482,0.16092578279168698,0.2509088152422925,0.36941689725193105,0.6962781618513795,-0.1599018997306058
40,-0.7247660281667961,0.1672940137842344,0.2569006300962318,0.49623299980123087,1.0931763050950176,-0.19840772323827638
50,-0.7227679194506774,0.16470488669288502,0.2555596114712698,-0.09594625161065751,0.41580920598379173,-0.8566635946841321
60,-0.7083104171333292,0.18045122755801243,0.2759372892254021,1.4568534212164195,2.5497045388589585,1.9236888020102292
70,-0.695248721456852,0.18848737540883365,0.28427223647815947,-0.7562429427619017,-1.6466850313535544,-0.9215880125005567
80,-0.6853109520235501,0.20225643804239166,0.2983554204514056,1.0549447736703628,0.6521160945726511,1.2103841703824494
90,-0.7086734010279111,0.18432978611249545,0.27165732579442886,0.6359913595804013,0.562436385875251,0.6066588226830028
100,-0.7443378792419154,0.14756144306048968,0.24184201247635437,-1.7350926776888393,-1.769573838764074,-2.318299792664575
110,-0.7296980177331089,0.15771711515937176,0.25288286173624014,-2.1464355063284137,-1.4636509725699254,-1.930184355212884
120,-0.738370622001834,0.14156791965944715,0.24387570639290662,2.189005502564787,1.2955674290601027,1.5897549265507604
130,-0.7364363493084612,0.1498215516817699,0.2512567804826978,1.3378611515975272,-1.0681316695311482,-0.3574227989242608
140,-0.7088516874561706,0.17653509709396817,0.27340212047382256,1.5298455129384791,-1.137765183618249,0.5273593553537499
150,-0.717725546359415,0.16430125587790403,0.26634552004725126,1.1311151004994127,-2.2551390020761755,1.8248030986162447
160,-0.7237696153019086,0.1684393835001266,0.2761168359866717,5.085933142067228,-0.23397945678094217,7.927543662814069
170,-0.7580360282129559,0.14190084526135163,0.2637497891483294,8.60288529902444,2.892719856641747,23.050823943370485
180,-0.7868354473984616,0.09858589278462458,0.42077870349679336,11.843073892471494,-9.33545433159017,27.717483673242327
190,-0.868183604291695,0.10106640810156504,0.4364443409743445,30.699990750189144,-28.75973332686877,32.393208715252555
200,-0.8401741696251003,0.1644642765655722,0.45472384616676126,30.91940094981602,-52.60090169029567,29.423747356954568
210,-0.7570435591327273,0.15355676153721823,0.39850626552236224,32.60301233876587,-65.73792927614491,28.233721385530142
220,-0.48477661435747305,0.26975889390981805,0.18980904049772826,-16.882900052148962,-50.05220544488401,6.386044036128878
230,-0.5179501255733944,0.27408796794462104,0.22889245534708713,-15.000155566483919,-33.22148220778416,9.210176138917348
240,-0.5924806742380524,0.3345931191313757,0.30936478594652683,-16.228085815029583,-21.089509509614995,12.651454548948486
250,-0.6722973094766683,0.33509479122966224,0.3293541008137875,-22.43472933704785,-19.16196011816475,9.101744622313646
260,-0.7024235098272357,0.3251745148112297,0.35314422595951633,-23.0413998505787,-18.220554373304257,7.011739527794222
270,-0.6987499425377448,0.23640085964358123,0.3228519066635744,-45.73331317623262,-20.76455942502272,-8.410926538262634
280,-0.6939268885598112,0.21295886753774426,0.3039080009961953,-43.380869899325326,-9.375973453429165,-5.857460597101124
290,-0.6931767516083471,0.16050230585147485,0.3712226900946913,-43.707127249957466,-6.198634736756483,-4.534231851122132
300,-0.6993135101261255,0.07892550575059375,0.35228871261360095,-32.57253014051179,-8.352098774644654,-7.2160390725146835
310,-0.69736418013178,0.02798184983753811,0.3869875491592069,-25.54665138199601,-5.622819047911852,-12.112755099078942
320,-0.6688023277138919,0.11746100335620396,0.40938598564148054,-21.757660418186145,-7.847335368751785,-12.980227058308945
330,-0.7002655143161552,0.15583271092350445,0.3248585195719751,-20.42740458472447,-6.499838748813685,-2.3703846122080403
340,-0.6591800338736157,0.172689814169699,0.37645623848671206,-18.94457400675549,-2.6245843990716566,1.5478094508727587
350,-0.6459908802690623,0.14791012430716224,0.43377159972080315,-21.803176506021263,-4.571360578772595,-2.9265597753082773
360,-0.6405305868545043,0.21122149514953042,0.42680459152671957,-24.0476140739187,-6.715336457146155,-5.607289556979435
370,-0.6873901171819379,0.21092945572184216,0.3399116417050641,-20.18724589904642,-1.3898956820650716,1.1807662656830105
380,-0.6718323605787498,0.166872085573772,0.36537244121639734,-24.415546498493768,-1.8243114848668593,6.799113807940823
390,-0.6601095109620103,0.1795692833367402,0.36420327557233595,-20.6962224947544,4.696782238174164,11.730240828055766
400,-0.713285964857507,0.04058675826248353,0.37610995364200434,-21.142975939367016,7.095544465937622,8.421690456657586
410,-0.7079779616985686,0.07078110439891458,0.41399725727908976,-16.322254844405204,5.630062418714988,4.868747003160143
420,-0.6704045062100832,0.23144792802962724,0.3959140221078653,-4.69908089888193,8.652508332782585,15.480358134443211
430,-0.6662388213800904,0.06980887850387354,0.3909291736017992,-21.362825528239778,-1.785807669862669,6.885606329293048
440,-0.6496314450105956,0.040584595384214106,0.4613951781031453,-4.087370749997479,-6.3698620423921275,1.4236659085429435
450,-0.6289880430234452,0.10641040403906649,0.5225377759633945,-5.790401298263706,-13.4516906964601,-3.6869637778319198
460,-0.6707846956241857,0.16428130442170907,0.4435852777357618,11.289436451779633,-5.882050675548747,2.0043360275466746
470,-0.6174065070456632,0.06895504747810041,0.4897964428241317,-7.282208523120204,-12.496482738223564,-6.441775141762102
480,-0.5321218681082572,-0.026385898860830245,0.5556178685094022,-2.5948272339301424,-22.606220630828968,-20.933399432993347
490,-0.6189063546489889,0.014505360727453218,0.4262412668190283,2.45500608002444,-26.251690841222683,-34.60445848558802
500,-0.6061149472696595,0.03027244649813226,0.29711744493558123,19.677747178884502,-17.640211561719,-41.65025397591928
510,-0.35952283606722646,-0.07792694496505868,0.3138300234308126,16.52882465435173,-16.90134817480097,-49.43054052147435
520,-0.6479423784664845,0.01116168090015514,0.37065337811875176,26.978603807416643,-10.167452790029385,-28.381600976331036
530,-0.6947185066594853,0.3829941938494271,0.3913773661433166,66.59197528555612,-4.270767300043882,-11.96161116949774
540,-0.6530928645499035,0.6966023042517379,0.41450969313292607,95.1797089837626,5.709388965344459,-1.1698886426035884
550,-0.6935718526584941,0.6324240774065326,0.47375948480221125,105.961393662605,7.066365085797296,3.6351898440307804
560,-0.7462591223708906,0.25546631017170524,0.40315902486430005,19.415319502910513,7.694231411844351,-7.999772706008112
570,-0.7305334578610118,0.13428738330935083,0.27455356377844253,41.714871656438135,17.937732860010513,1.4810829169298028
580,-0.7931503476173223,0.2256977309939374,0.19598141825786056,24.171346005030657,19.593413066338048,7.831155740414281
590,-0.6102342568112543,0.06683740590133051,0.5802118038525893,13.775270711746872,40.16987453049373,20.273776917023
600,-0.6319078064555843,0.09618402431864423,0.6446730924570745,23.189932649177788,43.65893329806399,27.579740644349677
610,-0.5858177372974288,0.3353594546362657,0.4333665527368937,11.767508726062392,40.13359783178471,24.69150355379343
620,-0.6168260064660768,0.29989823850422515,0.5263407012061383,6.608094318014978,28.367733505017945,16.178676979308484
630,-0.7141206667686886,0.23389881659244996,0.10463600729332558,10.130482338997776,33.968482217370216,16.96779555891764
640,-0.7663396446098322,0.1330994900986972,1.0574799502806593,-22.092700749994677,45.79705816883421,38.8438036405813
650,-0.826853082389799,0.17713477672076017,0.709980403121102,-41.43295656231313,51.58036355549712,35.455971048817396
660,-0.6474462003105942,0.29246847718655833,0.27628100054020654,-11.939744166231772,36.14303153296459,21.97169794398083
670,-0.7517773689781737,0.23791337944017837,0.2197626407252538,-26.40773740034129,23.893579397052445,15.321012544360862
680,-0.7623154998886524,0.275404290088651,0.36747984478781576,-29.127866542211265,34.41032816001713,25.226775127179213
690,-0.7725122470105711,0.17431151164647954,0.26845335281140703,2.5902872313388046,25.114128454107696,17.666339217340248
700,-0.7086372831047575,0.12764634015278065,0.3353969215726192,-15.736847047721978,22.73709274443154,12.859899329285764
710,-0.6457128347045218,0.1982790807247784,0.11893747756298825,12.24814618260386,21.679965189746454,16.39170970609225
720,-0.6357660619469195,0.4747194446426909,-0.020303297248357104,-29.72350465322656,39.46582275088728,24.419882727415203
730,-0.6856943956069929,0.2694001949446588,0.16480084164028264,0.20374292931295182,6.796928350837894,6.178317121691147
740,-0.702707817670635,0.09882137075465251,0.3446018524674536,0.5132663795286139,8.922868318491565,5.086477134865092
750,-0.7159491553637527,0.211539480702899,0.2541151458820155,-1.700124760506348,-0.238495808714153,0.5949854493101127
760,-0.704766890097266,0.21803002422035403,0.2702360373558951,-1.894481401762226,-1.1278156615597623,1.9448793436561693
770,-0.7032430397663857,0.22099744233602978,0.2772402697103739,4.563547378422923,2.0312601140064293,6.212840564550294
780,-0.725909050343871,0.19786999142272005,0.2538354845455149,8.497784970021103,3.3390162257519087,4.816932019857839
790,-0.7110456928703677,0.24125697506581079,0.26511879559124857,8.720533902084725,3.472680317068476,1.1276035257180994
800,-0.6091374053370086,-0.1238688742684353,0.48052839861912505,25.77560710185537,-1.6769268039954084,-27.241147853542657
810,-0.6338901760897487,-0.3691965888085102,0.6848763325054666,25.477345276815065,-8.95444390966459,-42.692252556996536
820,-0.7219972854349693,-0.09982917579391067,0.14304093956892663,47.787049791921966,-11.062125776420473,-41.15888525290556
830,-0.7076527208153196,-0.020456183753366476,0.020715546837743532,45.718971968385475,-14.21818474127759,-41.30860330389476
840,-0.7222353446589163,0.0033548328115478175,0.20666942802066188,54.589168912506125,-12.867343827999548,-34.00104303020559
850,-0.7953480587238989,0.4664862160025225,0.1371269192022433,30.961549130282037,-13.917707832237571,-18.874011290299705
860,-0.7358824426689714,0.508845344266728,0.25970967028900366,45.268830654804546,-4.8525496183299195,-5.204510495192792
870,-0.7221784909258618,0.02495084554875701,0.26178129563861097,3.8836836744305163,-3.2647925458745917,-4.564260249064072
880,-0.6103894136085657,0.3372572416420239,0.32300565116636193,15.657519647942967,-0.8253280931810814,-5.79675454070651
890,-0.6144556811253777,0.42944502799364637,0.2372857317751589,27.598670247590164,1.536459740219969,5.378066596045358
900,-0.6894666125563846,0.37752762150980584,0.231814165934845,12.679998095729825,0.6503844671837453,2.258989823547815
910,-0.7233332699708199,0.21288945864718184,0.24286004359722088,-5.646500120709878,1.190524414912284,-5.493542863406979
920,-0.7145930120650258,0.2206978125387169,0.2549535407493806,-4.840584582286011,1.2309196579821546,-5.189751085183653
930,-0.7405373484390354,0.2030484146855604,0.23327081453145782,-9.415585943966096,-2.111096623236784,-8.541221559081173
940,-0.7125676039144047,0.20433489871346205,0.25822530970653956,-7.881472788483021,-3.797777536273,-6.695221860444038
950,-0.70028270458449,0.21934752280786415,0.27626247738431664,1.4998241767332678,1.8275426743031264,3.0832080222004437
960,-0.6937248209771985,0.23907021903561393,0.27530940173794116,-1.6791591520501097,1.6741864420891988,3.93653976956721
970,-0.6904384843320344,0.24312611916512494,0.2788319241945538,-3.5996768774736756,0.4318410716844766,1.3928870341730384
980,-0.7194351441628768,0.20891843133270305,0.2544508167042386,-2.1341331631294933,-2.204962098723715,0.19997973575975525
990,-0.6927942408091146,0.24151760952425208,0.2771649082825187,2.8545873666115233,-0.6594451020478185,2.8664820624829406
1000,-0.7136176255816998,0.2267361267451952,0.25336175636677033,1.2780856337395636,-1.19921962934832,1.0321529135397935
1010,-0.7224583244383538,0.21577006259290268,0.24167221866083852,1.3708437656366117,-4.086468849005094,-4.46783719850444
1020,-0.7324485688390445,0.20646448830635467,0.23855408501054448,0.8357744192342407,0.24385227220514172,-1.7602567111467877
1030,-0.7363842823470647,0.20135357094043363,0.22903311045474856,-2.551599910285476,1.4749310203179538,-1.9702689255283095
1040,-0.69591645541928,0.23471942234011392,0.27243842887470493,-2.6375553046983695,1.3939697978751195,-2.178827017369416
1050,-0.7105013083063273,0.21757315468373792,0.25365503590307775,-3.263282691110709,-1.3637118987283703,-4.279492073898887
1060,-0.709606758768262,0.21556369052233154,0.25612890011862977,0.8089303866696577,0.684077023628578,0.17204688924282407
1070,-0.6742916852537424,0.2565924120328491,0.2902444881511306,0.07756776308579122,0.6345836632074322,0.7614825877994422
1080,-0.7022433524830294,0.2360817441314024,0.2625992373545192,-1.6950221301798627,1.7677897188978609,0.010484104504385305
1090,-0.7144934719562226,0.21366929434554596,0.25430792847972017,-3.0433337382802756,-0.6331741728485112,-2.8129364641816856
1100,-0.7170776125760301,0.2049153983544882,0.24916288390779429,-1.9111044994834772,-2.030421384453171,-3.485299915582284
1110,-0.7008230704593613,0.21924143646574631,0.2643780412626408,2.500695046542746,0.8954474663549866,0.3754054191537578
1120,-0.6910021092231946,0.2465190221153899,0.275248258755556,0.37111513509767713,-1.7166004483051034,-1.8554349312050218
1130,-0.7095759232350812,0.22467218903929526,0.2624489098009284,-2.4883320701648763,-2.1051792605207553,-4.067240594011885
1140,-0.7195910398997728,0.20797343521096529,0.25527901595803526,-3.8904062486084245,-0.46253959370343967,-3.2109423351617687
1150,-0.7038641414507891,0.2210126459842205,0.2685078645762018,-4.485164260552607,0.08818199067882193,-2.2803979210508
1160,-0.699725098760218,0.2151699027744432,0.26619698285782945,-0.9647967742508863,0.11755576498516163,-0.3793086961398042
1170,-0.6995630763602616,0.23643786625651866,0.271544736818196,-1.2192692050577043,-1.25430618852836,-2.150107546361807
1180,-0.7240640797066156,0.2076781577627656,0.2412629928173107,-7.140179440997082,-4.927163073308867,-7.294447857527521
1190,-0.71174531060004,0.21066972519880225,0.25830776098237374,-4.034905487372929,-1.0483478544595934,-4.2782915590063
1200,-0.7255410628974762,0.1972078044224262,0.24510737878933864,-2.65837482777682,-0.469255507028859,-3.0752673426663444
1210,-0.6819672527360765,0.24419355273291185,0.28448700309100367,-0.15579940548429277,-0.6630798034717904,-1.7399966976713523
1220,-0.7204278869665551,0.20743490599974798,0.25149649548617464,2.472329224709342,1.2618092345305816,0.009544315052243624
1230,-0.7215829769687574,0.21089022958623888,0.2517268711978688,-1.423509783772281,-2.134956463634792,-3.4092790398594914
1240,-0.7165243756175829,0.20474159836021127,0.25279177332836045,-3.826725132531509,-0.3574407495920071,-2.5760129410524852
1250,-0.7311362814923895,0.20026981845470973,0.24275234994408335,-5.1582235378351475,-0.6784488226204223,-2.6752670160328975
1260,-0.7149804907469653,0.20532820053146839,0.25693763804352837,-4.12649450945548,-0.05305105314756842,-0.9011882269040845
1270,-0.6923595578039501,0.2307881268109296,0.2784360744298485,-0.8141736427281059,-0.3089998772080814,0.9952093674023044
1280,-0.7052547326826615,0.21090645142844588,0.26669651415801293,2.364053083910054,1.3678729290042102,1.617717920044195
1290,-0.6810730438888642,0.2529614926061272,0.28690006163305903,0.3519273316658501,1.576492358797667,-0.5682629973353288
1300,-0.7158049236069826,0.2079714769920071,0.2626496095518016,-3.5079547359611265,-1.7354773701648893,-5.202250855174661
1310,-0.7284291843032598,0.18946963453689072,0.23693807561432345,-4.137094938415603,-1.0518766596768876,-4.978926305987452
1320,-0.7124406465928308,0.19971718587234577,0.2570149285621142,-3.412744172987018,-2.983805759441079,-4.414222178832855
1330,-0.7172583059684917,0.20350791717687228,0.2598186013367312,-1.2267404412035048,-1.8577660305775034,-0.7708478381500017
1340,-0.7093476266326734,0.21680287666811213,0.27040769149774546,-0.47909697537419405,0.18858715236052104,0.21846686302066942
1350,-0.6911762548936371,0.2319661397530082,0.28007738665225734,-0.20593268808924348,0.5312010543919611,0.38417049402703257
1360,-0.7313757164131809,0.19265442701820013,0.24414783214220115,-0.01476308292245232,0.2417954182618393,0.5471044948488488
1370,-0.7070013655943546,0.21949735165844364,0.27304001794711075,0.9998500483371713,0.6285176145966522,0.013433402708143638
1380,-0.691760927482082,0.2316312949085073,0.287682773685091,-2.990129990325811,-1.8710236842867582,-3.4007870394898414
1390,-0.6879335042729389,0.23154586038125816,0.2849706055778591,-1.1171848145416752,-0.08220653955130869,-1.039955273472223
1400,-0.6909271410616967,0.22662006500144827,0.2854322961982544,-2.0822529187052714,-0.8117082658319312,-1.2586852578115721
1410,-0.709483295117,0.205646001262625,0.26843723641749456,2.4228463137244,3.193708707069657,3.323255919226515
1420,-0.706413785922852,0.215042129350462,0.26849679115652764,0.7644092210841088,0.5156074107271593,0.6347850544161701
1430,-0.6799343749170914,0.24517422140422257,0.2970670075055648,3.7500267004051264,2.700846031499867,1.9829047336638865
1440,-0.7002583108057955,0.22617617967789128,0.27463894952501194,0.022658785960685573,-0.754670504190849,-2.4072806037039363
1450,-0.7417222797995837,0.17580314781433024,0.23157943816615273,1.6326700756312804,2.1818393363859996,0.09563821091712699
1460,-0.7318974717826325,0.18516371135685084,0.24703804557016015,1.124931856460866,2.1663593810124144,0.8380633453706656
1470,-0.7214112539376063,0.1973559857280807,0.25745882168812806,1.9793316794324973,1.2627244688199966,0.9960315364086598
1480,-0.7073487193953764,0.21279887754456278,0.2706637462562665,3.2237642232932835,1.8649334702462457,2.056837289802711
1490,-0.71148143891376,0.2097141698183983,0.2627767350225402,0.7304940315128994,1.0913258451118377,1.1904727834843096
1500,-0.702008266736835,0.22050854528302802,0.2729765019690461,-2.7647326893639095,-1.1074198393528656,-1.3929795871479094
1510,-0.719175498399603,0.20000417195598844,0.25796748534191544,-0.8989914918996859,-0.3847787133549442,-0.8479858495248941
1520,-0.6928620749566549,0.22392541151412707,0.2810051796370772,0.3584414921299648,1.4162073841859706,0.3510891706193394
1530,-0.7185629365175598,0.19831957428190589,0.2542292726664828,0.6403158946157853,1.455273138170944,0.873903305175889
1540,-0.6892034111544382,0.23007535638085008,0.2842300068001545,-0.3322180466856217,-0.298707121289112,-0.06411559188707772
1550,-0.7056804958224868,0.21699447296621482,0.26976552204569393,-1.853409732227308,0.07909371280188515,-0.5873042892309879
1560,-0.7076755377164221,0.2099095194005202,0.2689163291200511,0.8465538272224549,3.100331768572933,1.8372387269023545
1570,-0.7119122858457196,0.2046241300465041,0.2647782267209111,-0.7630528519973658,0.43390584841735363,-0.6768857775327035
1580,-0.6880109907511096,0.22962468784739198,0.28334795986205846,1.4174499372917335,0.6327522231625706,0.5540846146057293
1590,-0.6867802390457259,0.23375529271265866,0.28693154867214854,-0.13744790955422115,0.4030694322004801,0.17468465322847593
1600,-0.7110992860469438,0.21077239435691503,0.26925963796060914,-2.0091227722091283,-0.9026771091611272,-1.8422473949769191
1610,-0.6858592449275279,0.234434143946343,0.28886110462537695,-1.354320103890443,0.19427507987347342,-0.504838170119233
1620,-0.7021578490671987,0.21302017300971274,0.27191288206307407,-1.517851648606546,-0.15069865710588842,-0.7715801364565853
1630,-0.7174095253141454,0.20301328872100627,0.26142001984355945,1.0811197446679304,1.8977803256978922,1.2339351414543183
1640,-0.7119451418312992,0.20871520618459097,0.26377847184718123,2.7281439253303703,1.9557679345701828,2.1239960536284923
1650,-0.6782247990835721,0.24099410448109773,0.2959728077924644,0.5031354296599506,0.3009819264530737,0.9343573888488865
1660,-0.7213303265235709,0.19988188050260172,0.2559782627460486,-0.787510579946457,0.1261326165356243,0.5891948879793945
