time_ms,ax,ay,az,gx,gy,gz
0,-0.7140602669983722,0.12370157525535008,0.4304987853051993,-1.5243880372710497,-1.468583653589887,-2.335343673631762
10,-0.699926817854102,0.13568277418368133,0.44421312120698014,0.10247243565586162,0.2533108825522693,-0.690207830951542
20,-0.6976088481007582,0.1352498375478569,0.44631207976742426,-0.06496480351711215,-0.1383447798227483,0.8052748513964362
30,-0.6687152033399952,0.15806584937867138,0.47410607922631515,0.3023222695870107,-0.8853365421507081,0.4830787681506321
40,-0.6924956811835625,0.13456515273058145,0.4529262057796287,0.5213979359006236,-2.198700102201162,-0.9689816329879277
50,-0.7051664134936645,0.12820953220824158,0.4375368356401619,3.9530099622066537,1.5067044597305328,1.9543303964824967
60,-0.6802624425816771,0.15715388323432544,0.4610216764918005,3.3072365316721877,2.302061703067271,2.154453873648332
70,-0.6831582768683979,0.15655678474887316,0.4624826114908681,0.8820885801891749,1.0200992433365992,0.27229322068298933
80,-0.6964056126379227,0.13818915552534455,0.4467260429324832,-1.7650738034816207,0.7041704377053647,0.15187226366634632
90,-0.6918049538101901,0.13898386061867843,0.45280389393198944,-3.0296864402284562,-0.3809957922506001,-0.15819264137157224
100,-0.7219209996649624,0.10849224108222455,0.42423342848000123,-2.4721910954181143,-1.146931502257209,-0.44428833077817054
110,-0.6914237529380939,0.1385740835710544,0.45184934666222304,-2.6232711516562297,-1.8779057852381864,-0.7132997887907775
120,-0.6863112946066093,0.14153890697164945,0.4622895677766532,0.18943948283741396,-0.24292757159002076,1.2828888428658431
130,-0.7208247422615457,0.10780193485487495,0.4311849693636965,2.0588880748016916,0.5485695284360643,1.2856000283661129
140,-0.6620259728954501,0.16785771263720448,0.48275389768783733,0.30231122716609,-0.06393013164003944,-1.096451702361135
150,-0.7062974739184292,0.12107508733361177,0.4381400978916624,-3.504378276193576,-2.5821340001809285,-4.387981832664606
160,-0.7060596274235272,0.12150859099912126,0.44033336802996065,-4.325251214043806,-3.742531381576009,-4.398347012499019
170,-0.6963617347016791,0.1229656208164589,0.45234207595007475,0.20660138859399246,0.03602417498561583,0.43120902036462894
180,-0.6844795255526285,0.14106933110443004,0.4576774642714292,-0.48319044563315494,-0.8327723531944795,-0.20116302152919774
190,-0.6805079272424058,0.14883624706871343,0.4637607464769687,2.615324827044673,1.392789794214799,3.0031125960351712
200,-0.7195192412136956,0.11487845514119858,0.42663711860208836,1.5875337748585117,0.22366734026969048,1.4257023000733673
210,-0.6740437343781138,0.1604289457427115,0.47019065532443943,-2.0199040900810705,-0.5224340796469189,-2.4589820302935137
220,-0.6998547293147027,0.12270757639322388,0.4467928458154164,-2.640377538488612,-0.4746774852827444,-2.5995265514676213
230,-0.6760271943063308,0.14746471189805155,0.46753869143443866,-3.837692474711252,-3.1004324068751545,-3.5476700929020097
240,-0.7106328602576975,0.10459018738037651,0.43404713541735335,-2.1081252334323937,-2.851656284333191,-2.94650197792453
250,-0.6803490402452401,0.1428535531938505,0.4611812552528386,1.2548400582355073,-1.4324559515771305,0.41475020981011523
260,-0.6809707958962089,0.14845860393346474,0.4667990485700619,1.3413688260799341,-1.6075976918983572,0.6601121740769831
270,-0.7022141216250949,0.13054771924225533,0.4478477901552478,0.9415005850988987,1.3669112431970745,0.7677833668578327
280,-0.7016569854394863,0.1328486233195011,0.4503738919171598,-1.1792121172126304,-1.0860537585085217,-1.9966320544779395
290,-0.6889129505800535,0.14391806138363045,0.4682933045207156,0.7227874520121522,-1.8308811089568375,-1.579674116141955
300,-0.7330765716720026,0.10050982768959288,0.4321677756325315,3.3825104194882485,-2.7071875269091885,-1.7996638640342117
310,-0.7481316409635433,0.10733965158190657,0.42479921300732737,14.053295720051299,-3.458255594171273,-0.31792812965511763
320,-0.7685349818051816,0.16241187981819033,0.5346137834206032,11.66410040468877,-2.172013158654759,5.126453448845963
330,-0.7988145175296242,0.1779077510131118,0.5690601725901123,7.792068539513118,-23.361377502317495,12.652702997644454
340,-0.711258480273698,0.23670140952797045,0.5494648767777788,-2.322410108273339,-53.47586987663149,11.089820509030286
350,-0.5679746358719455,0.31662492725027064,0.5555111777640088,-15.025080981572595,-60.21819668915506,11.702102381865316
360,-0.5021468139306391,0.31866920550367345,0.5218048652200825,-23.412908115982376,-59.53303026813501,19.929737087289375
370,-0.4156546780204979,0.31711903628513594,0.5372522083968947,-35.3722804521108,-60.01167731431172,23.959659783614036
380,-0.42165791801458247,0.17965324033422148,0.4546993057300662,-42.0588650327984,-60.53962400558589,16.853149202137764
390,-0.3927310176979939,0.19423239948595783,0.42952076444802895,-48.203979393260376,-40.78732987296053,14.608714014261768
400,-0.47521190226299886,0.23066235668946733,0.43470297682726716,-71.76062773023399,-2.794721237597934,16.082475192865218
410,-0.5697082457460638,0.22639131753483868,0.5430298603789776,-75.35492894571055,1.8246952665436114,20.915911524030392
420,-0.7230333011576625,0.11538487512487607,0.5990825075683898,-90.5918873803476,-2.6272629719698966,17.41292613108329
430,-0.8460115462731721,-0.04128348649593065,0.6362210503639962,-99.25440944895112,-11.050345673450307,7.193973269583623
440,-0.7925051997362169,-0.03612858310215619,0.6266303430267745,-90.84141040926754,-19.983343366001563,-2.6135248267070494
450,-0.693446625757242,-0.02232111396284806,0.5213654590488732,-74.52776331702273,-21.185816099970626,-6.016213691434035
460,-0.5192465271686971,-0.07172685305363842,0.5056956808219681,-46.868664227284675,-2.7632194496739864,-10.869793220152932
470,-0.6619767242454766,-0.08592831138514448,0.6617295096812537,-60.345687961826,-8.391611234368664,-15.48254254050757
480,-0.8502772656249158,-0.20127105927208794,0.4022833841873167,-19.082366120564195,-41.011465840712354,-20.61146296839823
490,-0.5953197817146202,-0.2800245959448194,0.474501095113282,9.355637024455238,-35.51900415454948,-24.372900570948236
500,-0.6522772547115396,-0.03461758243352666,0.48725644598576606,2.878182348242996,-35.217431360362745,-27.438560540170204
510,-0.5679664747422942,-0.22962655307054824,0.6013002690889697,-44.06106644129792,-23.452908142210045,-20.214573690132042
520,-0.6005795571596849,-0.6372373334670812,0.32580868521523226,-10.832154327799897,-9.172504949691763,-44.52743575106435
530,-0.6990724937861547,-0.44368214921016463,0.6101057449464384,72.64850137376078,-6.606643863225157,-62.11328492870413
540,-0.7162274359206128,0.09819753343196577,1.0030966470201403,100.38214365160766,-0.1115824779920116,-59.52011430512912
550,-0.6705686801861251,0.16465055400922027,0.8535436394140964,102.07517582507343,8.73387435489939,-49.337938246082274
560,-0.6227262213617374,0.1691563696559118,0.7050350734581646,105.8760495966837,21.383276129643214,-31.520633179888637
570,-0.5662596905633719,0.27626286878779927,0.5453801822454248,89.73575054826927,30.857115467932214,-20.10247009712359
580,-0.5668317287765884,0.33410775542273996,0.5428593464748717,53.10846545327507,36.77811954468052,-2.0397413740996715
590,-0.6883699843557037,0.42836811828367855,0.755818815884332,0.4098986061479306,51.589216313614514,30.44990185745648
600,-0.6578913663138383,0.28717173802201923,0.6540346204434873,-31.09629556154025,64.8378879172366,44.960557755228756
610,-0.6572497535873476,0.22102593177429763,0.7287208001824043,-14.761762681744655,65.59543223889838,51.14053189540898
620,-0.6566971679538764,0.3887029198173009,-0.010802064196067317,5.098421665878593,82.11070397640529,62.07201884526047
630,-0.6379934801915166,0.4175443107111429,0.3282815938566953,-40.227882453803694,75.47505340434212,69.4745865722283
640,-0.5948358755038983,0.32222081960883675,0.3211999551456684,-45.66009896362459,62.6473321720821,65.80820601100191
650,-0.37768036353113577,0.2519569649018511,-0.10526243010456238,-22.000225625211236,55.13858064843223,49.48561444438455
660,-0.4798220932934567,0.38427214219739797,0.2714221243962169,-73.34284924387119,59.17216751822407,55.91275912316634
670,-0.8006632223629387,-0.015035259333718248,0.7004047894348309,-36.04208000984663,35.425875902246474,42.57467103575781
680,-0.6184967659030183,-0.03165987144766025,0.9701121094643953,-45.631413735940455,28.15317168230405,39.08236518190822
690,-0.6923706529615374,0.27573666842528904,0.2643229433004031,-79.06032596497614,38.722897742462635,31.187612363002025
700,-0.6374053370351798,0.3990068875180007,0.08185674878921761,-81.88949866601271,18.895118205288806,14.850318968091337
710,-0.6880398324972316,0.15034544259549162,0.3703440481773754,-19.144599433261376,-0.31857350232818027,-8.149150276391598
720,-0.7154194446871812,0.02824014259895894,0.4248095264773472,9.22113584629641,-1.6652163223311975,-4.238067653690912
730,-0.7132942355132323,0.006430801818198694,0.4411172385495082,32.18798973016887,11.959521100579776,9.497025623489678
740,-0.7524042806705942,-0.1730604526849753,0.45267255925625416,31.763535366247773,11.755157804595834,3.956411080662438
750,-0.7265775287382898,-0.4582871325683893,0.3005837616082551,37.718294217749715,17.9407583307473,-17.375133021613372
760,-0.7051194232169333,-0.7540649411879885,0.08773428800268014,62.23185579396097,22.054902738549938,-48.580999123357
770,-0.6089650406301477,-0.5394645209949134,0.07912035520545666,79.38643842972867,8.412975859557543,-68.1023001984014
780,-0.5393134107506471,-0.06411837595225457,0.20705696279865837,70.43501781233384,1.011278448377971,-43.10645908910012
790,-0.6348776593662566,0.2948091057779797,0.38606687560489894,84.72550777518718,7.288030117176172,-1.777689521855533
800,-0.7136307870910261,0.5603168143049411,0.6432550804301492,129.84534321608243,8.281252119118696,17.30598519722559
810,-0.6110121972703209,0.6822201917253407,0.7462475928939454,115.35499205499548,-3.8771014940276904,14.53251359410933
820,-0.6058612894032975,0.6159157349236499,0.5108804670102086,57.074942257677804,0.1599754416627026,18.743436502510402
830,-0.6974045032103607,0.44332684679411183,0.4345643688408219,5.798875271796841,0.1123348925227613,7.767009727908259
840,-0.6859463547466975,0.1875983692462102,0.4577604837197977,-22.146423744957545,-0.7181550331416946,-20.895353242578057
850,-0.6824784005795452,0.164402385035121,0.45607011002855335,-24.500114240658775,-8.10069534854342,-29.54063076741881
860,-0.7167347560635104,0.1100123743248823,0.4173098847827632,-20.42338546780961,-6.683991452552874,-26.729030235286068
870,-0.7033592577031054,0.11304263282474995,0.4397390887773225,-15.958146969570867,-5.043090945185313,-21.950334369344283
880,-0.6880041103478902,0.1337335867342895,0.4511345877888484,-12.887966099579618,-4.6766085869151475,-17.065276554402374
890,-0.7266018035483213,0.0973670368432516,0.40734056439868954,-7.826042416390822,-1.7176602342705494,-8.125667419585874
900,-0.6802566049222349,0.13508522500745349,0.46181012377536,4.706589782725169,-2.0677279537362887,7.205207547279407
910,-0.698690787984913,0.12462386638572953,0.447395371889983,8.990983696772828,0.17853451925403874,9.646269162122612
920,-0.7007075729975715,0.13494111960913283,0.4375041831012799,11.361295307583033,2.103681125784539,10.616252872959853
930,-0.6948356186046288,0.15026329355204152,0.44498871421513825,7.36085250215388,1.417939281325928,8.12341478301991
940,-0.6974499547533556,0.1431517231338611,0.44972863249615636,0.310870145861593,-3.3762748553710384,0.44439546805521557
950,-0.7138978672084091,0.12492768565687404,0.4310075398210757,-1.511154193163931,-1.445264165880541,-0.17477313242039175
960,-0.6917116747140432,0.14139947317612117,0.4500579985427069,0.21159808099872568,0.4401949980908131,1.0373541589290662
970,-0.7073349127667918,0.13063426852635682,0.4346724602557322,1.039619124609248,0.13185473512597495,0.4803459137029493
980,-0.7253979441909328,0.10841188287044703,0.41771562011503116,1.7753808768152968,-1.6445636312350707,-0.7650726572099243
990,-0.7105747507689312,0.1179722568969622,0.4353923280965029,0.9227841337328737,-3.3047860737655492,-2.371379479199815
1000,-0.7214677471575888,0.10979634086135744,0.42147959546838576,4.366619613897667,2.6987195392112833,3.5974125289389827
1010,-0.6779698613287264,0.1553364359089846,0.4619434622151326,1.0375538370826802,2.5195491017837788,3.8430619292890307
1020,-0.7069463758741557,0.12292611547425254,0.43602825264985484,-1.350017818496063,1.2150800535120503,3.248092105466008
1030,-0.6950815016170808,0.13569062906199697,0.4485629202777917,-2.765603288469828,-1.0392164399909491,1.184045876252835
1040,-0.7285295240243536,0.11151516115555254,0.41485388293774494,0.7743737513567917,1.8740114521817914,2.465768667453937
1050,-0.6964904201534834,0.14367643495157686,0.447344943371579,1.0892803132362332,2.567296238288476,1.0650445767465275
1060,-0.6895474222222662,0.14517215327381905,0.44895806257272375,-2.9584771724868792,-1.395672894666299,-4.189408666184251
1070,-0.713759574218248,0.12158101487839798,0.4234653086150069,-2.1698711347008426,-0.2674403983515705,-2.9892913118055766
1080,-0.6864477348476001,0.14764907080431677,0.4538062142693386,-0.8464552177152518,1.371607305720239,-0.8086158832775103
1090,-0.6928109800689278,0.137090951632728,0.4471729661263212,-3.4818161097706697,-1.299669713980555,-1.946457943267493
1100,-0.7062366135232561,0.12716429538368318,0.4355241500060324,-1.0226144033243283,0.18063552266275285,-0.24790434547617046
1110,-0.6858635211841604,0.154380239525511,0.4584753014942505,0.26197030570944657,-0.5923209187078631,-1.2206206539372952
1120,-0.6749664974950674,0.14884697256747434,0.4695867971712451,2.2346675955917177,0.9375556494686388,-0.010388651384947156
1130,-0.6780495332119526,0.14782218078011874,0.4730806582659886,4.989693691475486,1.165435187045501,0.6575217584542158
1140,-0.70712942535389,0.12438210292623798,0.4370766654688263,8.15221069692198,2.9247991717179915,3.3427132983139862
1150,-0.6720173770008084,0.16226876384891245,0.4718373863229304,-4.532188450697667,-1.0880316385844468,-0.4149479301456118
1160,-0.6918673889056307,0.14135413986056705,0.4527428395471218,-4.266398022711816,0.30092438804438465,0.3652416456542556
1170,-0.6939044443019947,0.13627103631797638,0.4537586941570765,-2.9803322206760194,0.36362505549418156,0.4418568537840675
1180,-0.7294541565827419,0.10515337354527005,0.41092613195054956,-4.9601042359559555,-1.3492881312700689,-1.4766484942138018
1190,-0.7086415641847182,0.1220518515105283,0.432015030657765,-3.558329631424413,-1.0829640337598965,-2.036315600619241
1200,-0.6823356623772033,0.14417814706819443,0.46066931745130957,-6.129843482108781,-2.3161972390948398,-3.023055886410236
1210,-0.7185788453189065,0.1184016063253033,0.42274527609759976,-4.7995288502781355,1.1003004002024486,-0.16700673426683282
1220,-0.6981919287949202,0.14273814906025942,0.44189753454076514,-1.1287634152935937,3.2023989013663883,1.2592668612360727
1230,-0.719315925903037,0.11299917678346992,0.4216725352847326,-1.6168389062770245,-0.649883626115922,-2.157723439418617
1240,-0.6980240212197653,0.1263399868687213,0.44150380267136513,-2.6020923931625966,-2.8751458251205206,-3.7010829472479916
1250,-0.6906506695495963,0.13097010288792932,0.4499229172811024,2.652554154440769,2.4362955381914144,2.010314926843858
1260,-0.6905096676463196,0.13541767983488268,0.45335496486170385,1.9656036500677325,1.5304863844327516,1.3866762108874238
1270,-0.7031231485890295,0.12680340169464963,0.4367737665123064,-1.0185448952119505,-1.0001811786819488,-1.2775287819485603
1280,-0.7085144996417313,0.11891395523446678,0.43389255837111756,-0.905660597339458,-1.3104849676125834,-2.3788023467386856
1290,-0.6919801321325036,0.1326560294456828,0.4496815604213261,2.081411964297594,0.608477221370897,0.36478680766672045
1300,-0.6841651029056427,0.1339783119962922,0.45926984753309336,-0.3129395539777117,-1.4945425823372855,-0.793958465239261
1310,-0.6923619260438411,0.13445248970243234,0.4492263547353252,0.7689266328028916,0.6531668358379629,1.4396484509271037
1320,-0.707900764552591,0.11567399701351791,0.4353748747607909,1.0951867619047007,0.18239632278675366,0.7455648442697032
1330,-0.7026053638602523,0.125632986041959,0.4357222174854744,0.8748562652234391,-0.291933245660851,-0.055782210004827526
1340,-0.7095105662177126,0.10691769968113074,0.4376407171771899,-0.9245522102237516,-3.480763844641128,-4.682305102132038
1350,-0.7060034046221773,0.12061404710285906,0.4399539095808323,-0.5465909692172493,-0.9665666044291673,-1.412165904593038
1360,-0.6784246019518327,0.15454042123870043,0.4630399433209604,-0.32960568730928863,-0.4952184550410238,-0.7478067579247771
1370,-0.7189555141383479,0.11319064474840433,0.42275754080245537,-0.11698398104558935,0.32672887687823665,0.20870215760220873
1380,-0.6879867522625558,0.1406657027965129,0.45388636491679357,-3.5747039351382783,-1.796541644786051,-2.586481502267786
1390,-0.6889243788789635,0.1428431838541663,0.45908017855811356,-1.586775984542162,0.791686267555076,-0.9909601658812472
1400,-0.6904455246277733,0.136344345652947,0.4575666941580241,1.6519546634004005,2.6530845809400394,1.7794658483899983
1410,-0.6952092151202142,0.1267207729753105,0.4506522876435086,0.6764696841630091,0.21970625820757578,0.5055468149459772
1420,-0.712873980637047,0.11462017331773042,0.4296321343432947,-0.6821859971412851,-2.314840761481867,-1.0246578907007404
1430,-0.7106113044836173,0.11942554563511998,0.433564064257964,2.4834617673358603,0.35950168067074395,1.9241049437593545
1440,-0.7021678275508125,0.12871432781329425,0.44405323414601144,1.650310855828358,0.5535234047127708,1.4499576465793056
1450,-0.6971859614319359,0.13357945235587543,0.45001133199697907,-0.15535150397025618,0.026816446744751282,-0.3053995990150006
1460,-0.7225614409411634,0.10436668780245947,0.42619347847621447,-0.47232527381377665,-0.4142553187245775,-1.215148890735379
1470,-0.7048225376372876,0.11877377611763007,0.4429251281723516,3.4128664639781676,2.5180744085071587,2.413660470601966
1480,-0.6845961647448603,0.1393258778610313,0.45771472009223174,2.720068612062522,0.7247228743205919,1.5601832969693792
1490,-0.6876801253443547,0.13856927368802455,0.45183845977841053,5.287717524880227,2.1176978473232406,3.779016209466679
1500,-0.7081029244292847,0.11521472813894491,0.4379947181430117,3.679934830905629,0.3387209349631542,2.0714972106448215
1510,-0.6993657793190031,0.12195650067905688,0.4442697778892281,2.989853350894157,0.21423944820131677,1.5737892970322436
1520,-0.7089902673696876,0.1243805512853308,0.4311563950136492,1.0288068754795943,0.21276171209100347,0.781698189359206
1530,-0.6985339326589004,0.12920798086969118,0.44205355196732204,2.132920959614476,2.5191143010369275,0.9902925745778812
1540,-0.705100291381164,0.12462485609403152,0.43348816946107127,-3.6750309164431223,-4.459321104899589,-5.0618001152047665
1550,-0.7093354419456758,0.10811882436016085,0.4430089493595352,-3.1612407586455498,-3.6170661187502766,-3.7175730473084716
1560,-0.7289799705466464,0.0959905961572173,0.4214018003311279,-1.9636650468922299,-4.924547977371875,-4.8308434266466875
