time_ms,ax,ay,az,gx,gy,gz
0,-0.8016918147497782,0.16687490744340644,0.5935307994093577,-1.0673101291489064,-0.2973413515702977,-0.6641178467327309
10,-0.7952720579984154,0.16955829374177903,0.5959642745374516,2.726631146761534,0.5549121780441905,1.3513076482775073
20,-0.8075431050961522,0.1613944974519042,0.5817413484385626,3.193575310930388,0.45666722357013023,2.0310216318832426
30,-0.8233267604631989,0.15278263822280067,0.5652528869528836,-1.3793697905069302,-3.938684274445658,-1.9178266935354047
40,-0.8059045214918714,0.16527894343919775,0.5869559618593521,3.0719483528202747,1.1552370444432851,2.8034978459935904
50,-0.8356713824781482,0.12907541979464887,0.553327521972658,3.758092690685806,2.904071413455738,3.9483361157196257
60,-0.8137358223594507,0.16233959081659025,0.5602342922272779,2.1358621537404616,1.8455515596936052,2.7584533027958837
70,-0.8005644314892154,0.1889061075384163,0.5924492731716589,1.7943701362779372,-0.2182219103511659,-0.13305578109555782
80,-0.8005578672452334,0.18321107470590606,0.5892965505793685,-0.8810610929478202,1.2302861734902089,0.9287605674258564
90,-0.8040106503673231,0.17746960082985522,0.5823319983490262,-2.9273140691354036,-0.9015185001122604,-1.3338758605802248
100,-0.7988537651968675,0.1737168842869088,0.5908916507386686,0.4367031356475466,0.05310089785806282,-0.6771181913171446
110,-0.8398886858185951,0.1341572030339545,0.5486619891980236,-0.7794027850210092,-1.2348128133714775,-1.7794302803856556
120,-0.8170341858983323,0.1606286900374847,0.5682111996445656,0.5454217703662415,0.8473564442359607,0.5205683950062424
130,-0.8046702249840024,0.16790605175473078,0.5803028375043332,0.8377165969137998,0.46835982147621114,-0.19919539940573228
140,-0.7885448633571971,0.1814821476961453,0.5948824928395433,0.7160666982591462,0.37655992220954354,-0.671164364840287
150,-0.8116485838439977,0.1615344715844722,0.5781280153316771,1.2058267597818677,-0.12498675954015925,-0.2595327709893143
160,-0.7860081188331632,0.1864890171629911,0.6015894216982292,2.2520167454060145,1.0474579931872028,0.9610640425570873
170,-0.833801575832583,0.14135773059285392,0.5557380590342923,-1.270812284738717,-2.6614898751887104,-2.162535611946734
180,-0.8243427719053308,0.1508902681300264,0.5615673771447796,-3.532563742224219,-2.946596321977525,-2.2701124958112704
190,-0.7883078130273695,0.1833798949354843,0.596830783364267,0.9916987084419362,2.845506220644233,3.3429281711030594
200,-0.8008432867940531,0.16798491744643765,0.5875201908318126,-0.68960676806768,-0.06935839840640462,0.21412835196179658
210,-0.8132534172587734,0.1581580532706288,0.5732257066335342,0.7027275622511766,-0.7432101351646907,-0.5361872376443304
220,-0.8369492011789162,0.13875437792648376,0.5540266816694345,3.2876826864157715,-0.33543128999249505,0.3280923212705573
230,-0.8506699179313338,0.13138710013149768,0.5439381775243147,4.904389526608652,1.6925333489272947,2.322129144453752
240,-0.8327902769678398,0.14487950905322322,0.5642305421370232,1.8565131755763948,-1.3223021136119941,-1.2929392095617294
250,-0.8606083469856274,0.1681751515682839,0.5462640379763185,17.072649949731883,-7.530285820197968,4.901771114138031
260,-0.9098977168720478,0.21163900211515016,0.6432881966589159,25.292420606011802,-12.038210135698565,15.664475557690578
270,-0.9975325665052712,0.13728299291982124,0.6719088306685009,23.20530722865603,-16.234656346061907,22.123721342435548
280,-0.9145495627929338,0.09550340165436978,0.6288705194644064,27.36307780017777,-20.34137762534068,23.97180310068243
290,-0.780034174051013,0.15373152233414472,0.6065497621119784,24.254976821312308,-25.513113650684357,20.13884911402305
300,-0.7204735765348645,0.16075356068144822,0.5459430462302369,16.898201666928983,-23.447242360943022,14.824804486659186
310,-0.7023558616937203,0.18209479458590708,0.5497635321238327,11.539996920074321,-20.52506322200282,10.915163627453653
320,-0.7078626222518801,0.22466141410862012,0.5977566868258538,15.906520812318726,-16.16869894140726,-1.1797109668101484
330,-0.7428622344769494,0.2223572370702581,0.578537756248647,12.6069460522778,-16.50903364497173,-10.886007126266405
340,-0.7259227558469834,0.28330736140549145,0.5559226554095041,-3.365402083262038,-12.751185030796677,-11.034663920257076
350,-0.7272424669366493,0.33536387051560845,0.525688026365944,-18.700118001694726,-0.8509304205892234,-3.906007027816463
360,-0.748894547388771,0.2933810217316534,0.5632804222881364,-16.307446088397175,4.583293086253883,0.08710957835908573
370,-0.8182349396822647,0.22169140323696465,0.5912712057891423,-12.423545864459628,4.64153101812374,2.8653502747451176
380,-0.7925165925372828,0.17482229793123907,0.6462425378724992,-12.992089143191336,3.3247134128016063,4.996106555005824
390,-0.8013124668661407,0.2701280919975571,0.5696953961806446,-12.538320814632055,9.285048664594616,4.256903383431798
400,-0.7950083547757243,0.2881515137814336,0.5711499155655249,-14.59299123824671,11.518449798911325,5.448790146275283
410,-0.7738219023094233,0.1951068686032057,0.6255928915766055,-15.203727558478436,11.825607333437835,7.4321480869651
420,-0.7440559563623018,0.1147041702276799,0.6455756342415765,-14.594319196561589,11.612616583479811,5.034900088422975
430,-0.7825192628889834,0.09867526893024164,0.5536193401300396,-14.711166664367855,10.52655815464166,-1.6338275504945694
440,-0.8073824466941736,0.16781226894081414,0.5929848237877005,-9.870560585941684,11.473392188623606,-1.6327297848884565
450,-0.8396833492038354,0.1538578295641919,0.5977558306292786,-7.791925890439605,7.981016474891566,-1.9331470956233798
460,-0.7511197629840345,0.14678996419406343,0.611886566780645,-13.59012595458444,19.26431638630838,-2.225798792411434
470,-0.8812933069839872,0.07606691539883187,0.6648199944006578,-1.6289055175036562,-0.8043089703564392,-3.07934439954223
480,-0.8973121131071597,0.015270477665772738,0.6582471800248564,12.833726191705429,-7.869851689903218,-1.5835064857913204
490,-0.7921717545945779,0.018293950111250987,0.6123044010932545,11.65069188627238,-6.634342013131591,-2.5760901653843478
500,-0.7632207791687755,0.06333230695442904,0.6513944085725563,1.9583312485479878,-18.221164646743368,-7.391701184125505
510,-0.7936594248325166,0.004456952570101004,0.7658310628162941,17.40156557159152,-9.983799042557678,-8.218707480614938
520,-0.7805655941605665,0.015436602436401334,0.7088451589317073,41.03311988612561,-30.342471771912155,-34.5050594912772
530,-0.7645691209914804,0.47070387537193825,0.569711962071815,26.036406967784295,-2.472978940188325,-11.149589350278141
540,-0.7777605625557336,0.3284189446531401,0.6255739448798474,3.065096026795584,13.540752016619358,-8.940424239453314
550,-0.8713970220953828,0.28656601379406127,0.4714787366778211,-31.168267672489012,26.204286029184647,-11.82044711567847
560,-0.9291641224877247,0.2751886060676958,0.6346148020929151,-51.67199068085325,42.40596128098829,4.3152104251998225
570,-0.7515535762589177,0.08317745829240464,1.4600439568368146,-49.00730610645065,58.388470650009985,39.84479526769101
580,-0.38504105519193454,-0.0009946429680053846,2.069830567817218,-58.97813761677478,53.76148843611358,53.397384627950835
590,-0.8854792112483075,0.3497919252734937,0.4192208215770997,-55.70360979868674,39.999278790660206,24.473751085270585
600,-0.7710454919368243,0.0595075867895067,0.6330066856193012,-21.481629130966688,7.5821467051814455,-4.802005303419515
610,-0.7947758399798929,0.06021532330784519,0.6046349547367778,-0.6463085400109245,1.1964480197967189,-7.025988153533256
620,-0.8683569091276344,-0.04384739389767732,0.541769094915626,12.84824886923881,3.0784600051435627,-4.494095224004361
630,-0.7883228155746584,-0.2383669693471985,0.6473512462638782,12.417072438898929,-0.1258862761963111,-19.806510450710586
640,-0.7257108833994577,-0.34482906894053567,0.6959007899948729,-2.7265464762155798,0.14517132580918868,-35.05087244110981
650,-0.8806457227197808,-0.17621212629474353,0.4983515337915027,-7.373649944292464,9.024499368942898,-23.036691669840923
660,-0.8999083657004765,0.07980364432644749,0.5593506722885722,82.04716319035157,7.665147133165735,-0.804320534478002
670,-0.7650726503897066,-0.07347119563931194,0.49067008374873883,-4.057744417111421,-3.0710204968510966,-17.681724736449734
680,-0.7040728750198216,0.35022283807136684,0.5999004973791539,6.696098848385028,-1.5411933168186192,4.739088822847851
690,-0.8204706797304292,0.28006212311226614,0.5707926278102246,2.95354438716441,2.5535356878363142,11.568409609927215
700,-0.8470529397490696,0.1924290981312795,0.5552437899365159,-12.435877326723096,-0.028973663684555895,2.6034002267140672
710,-0.8265689155606747,0.19231899072198783,0.5474950052406967,-14.746430434249595,1.8260775939123068,0.22417758968615953
720,-0.8389484906616455,0.1638990895403631,0.5392986913300066,-13.322496736593338,1.7098610685395337,0.34673490870004914
730,-0.8319791969587579,0.17030525783798858,0.552536917839929,-14.632689326090095,-3.794205493426504,-2.616579788416764
740,-0.8438431726613025,0.16310624604066318,0.5353292218138185,9.947873247373515,-1.5967846196894997,3.988166235109024
750,-0.8203415763907805,0.19549014014136348,0.562311198568275,7.50908312070589,-2.1513713775919996,1.476167237234295
760,-0.8157012021464215,0.1998835059596032,0.5586675501029235,8.272848585635685,1.4163872804843993,3.7125451122268194
770,-0.832340403147536,0.19030808260049062,0.5462099259538088,4.218883424506877,0.6263859071084903,1.5388624188287423
780,-0.824371858041407,0.20161154016118252,0.5598320642203573,-1.3761137390960585,-0.8423207880654169,-1.5118394306913148
790,-0.8433675985181948,0.17006661668707945,0.5387046468617297,-4.5577911999279,-0.4770385161644257,-2.2671743071791126
800,-0.8205189158564888,0.17606305418289894,0.56186509563905,-3.7564391412762106,0.5085142825352339,-1.0953192711624613
810,-0.800949939281242,0.2106579308752672,0.5676410424026638,3.29707101665857,2.5980878191835615,3.077266370431558
820,-0.8378557627083353,0.1689745645573883,0.547084854474307,3.1717109347509442,2.411134263793812,2.331521824946485
830,-0.8025584081088583,0.20414931756373186,0.5712100517045299,-0.6554254464979569,-0.6785707958247833,-0.5329611630602242
840,-0.7959035550957231,0.2112158765354198,0.572671010230727,2.15498416146129,1.192559193889977,1.4420703695666615
850,-0.8357981461622528,0.17085765550945964,0.5407780615345048,0.858530000025088,-0.950531306038182,0.07768537226142125
860,-0.8215471920859128,0.18418432320035338,0.5588751098521499,2.7847541294681646,-0.23480330047857548,2.361820520921535
870,-0.8282211586222691,0.17956153735913455,0.5409181557622535,3.5354292365153914,-0.9080140096403497,2.525502073693345
880,-0.8247683839381243,0.19424720707972845,0.5519511043490257,-5.542440532634745,-3.852121529093411,-2.6175079530043046
890,-0.8355457850428496,0.16311720088834664,0.5399033755071468,3.1265337387086602,-1.0883149565786976,-0.8375561151056722
900,-0.8250855118033072,0.1841411439064085,0.5567072499548291,0.5875229265766748,-2.737324388379604,-2.7454824122682817
910,-0.8188336220634237,0.20058745005232287,0.5634407131678643,-1.003815863506882,0.09566476066736462,-0.24077624511279738
920,-0.8040817579859175,0.21055570495228593,0.5764499496120256,-4.513643082569337,-1.3821140011184785,-2.523896700297856
930,-0.8413215978334384,0.16559277978271036,0.5360192782503254,-0.8092073515327982,1.882964201794007,-0.3807386975509015
940,-0.8596461159329434,0.1498240456684247,0.5137396297505293,-2.3828293489419115,1.7495046124738443,-0.2640027460300416
950,-0.8299839629286665,0.18207153259755646,0.5440815335882433,-10.713383223584895,-0.6052294854226982,1.3262990473761938
960,-0.8195828262844473,0.18559086757914334,0.5560323567260443,-13.06892166397486,-2.9324593604007467,0.592789686183544
970,-0.8565298843156285,0.1271003714858876,0.5272984739485816,-5.213266999335688,0.2874202495715582,2.339810845991896
980,-0.8156509791238852,0.17630661236094095,0.5652337673697712,2.356824879695774,0.42179586414362513,3.07988831627117
990,-0.8335740708601417,0.17543397447406076,0.5470624252937153,5.461445111421511,0.8144932106556024,2.7531787120264015
1000,-0.8168414938028207,0.20133238181529906,0.564619989309798,5.986766214597891,2.9976191415220423,3.100790846252501
1010,-0.7949844307762718,0.22270682710897374,0.5848397884996192,1.9405937304175,2.4852172927479863,1.1332552798295954
1020,-0.807512707518672,0.20477294810222726,0.571808003363313,-5.2257939569608105,-0.8769544264879277,-2.8072902773598996
1030,-0.8387731264802232,0.14845169127149757,0.5439922034360094,-5.374845990708672,-2.221809997065405,-4.127914711163808
1040,-0.8239521354679072,0.18088769808309288,0.5559576139551748,1.2660903815591562,1.287663268523488,-0.07658666256780244
1050,-0.8148733293680968,0.19755394689804642,0.5592226633274501,0.5370289899728404,-1.9449170686510655,-2.2493279332020437
1060,-0.8429848911076826,0.1640832013743013,0.5301828304025383,1.0731092533893118,-1.5351625768041144,-0.8774207715042199
1070,-0.8005720852897358,0.20652745462318634,0.5728417571850324,2.7286703651028823,0.12089722353316701,1.300369763522362
1080,-0.797862061304458,0.2091538146525603,0.576317622332279,1.9479217144706935,-1.1439711795182546,-0.11392937349786092
1090,-0.8444778907698015,0.14991652762431068,0.5341677616808317,4.334089059195279,1.3087957471079101,2.0119106670806377
1100,-0.807363496173218,0.18764779021419195,0.5780212751393603,2.267334317191813,-0.8417664966550993,1.1690241595712876
1110,-0.8215349735569968,0.17732900472482094,0.5583916321614052,4.824600315985264,-0.41972842016321993,3.8152201056886406
1120,-0.8202759337874505,0.18115762566952992,0.5579260711151303,7.488771672262967,-0.8288192168887901,4.435877545602488
1130,-0.8293944532631766,0.17959851607972843,0.5421006526607902,11.370272531962376,-0.44521518418193146,4.573406297640578
1140,-0.7963632418586609,0.22407900466372027,0.5764747416214212,9.483998301941826,-2.854713485384105,0.7331371258622665
1150,-0.8285927280006862,0.19545531699342686,0.5489617929093329,8.569843196516432,1.396487055764256,2.6479467909416887
1160,-0.8086896820382908,0.21062455911504185,0.5697349074603592,-1.4874788015165588,-2.092012551583534,-2.603977760867422
1170,-0.8578555718713112,0.16695308751561092,0.5236214968143591,3.7230951554026768,1.0989090330010214,1.6224180781585575
1180,-0.8398830274588998,0.1815051459101753,0.5381217396069069,-1.0653274522436074,-3.2873724431551015,-1.803060658652369
1190,-0.8256403542562047,0.1896525843574113,0.5505949653935132,2.621448232127521,-1.1362267732885583,0.3982671933594245
1200,-0.7995090111581146,0.22552138863348115,0.5759392090368243,0.9973183032471094,0.11028359121414474,1.0681947780698304
1210,-0.8359717024964642,0.18730134762850462,0.5388960595055319,-1.4982861481434917,-0.19489757403938512,-0.13430334062558447
1220,-0.8349887846903064,0.17896682641433492,0.5382059825009368,0.14458174578115074,0.6108944515022848,0.9514682121236973
1230,-0.8179280477330876,0.19154918411273394,0.5544819261842747,1.6587203184168624,-0.5833632562292956,0.8480996422842886
1240,-0.8510142191774125,0.16175924038138711,0.5249127694366996,4.931724840316974,0.7489209163752307,2.093844311030178
1250,-0.8209086224206384,0.19683211412818125,0.5588114178099625,7.213950859943338,2.1175481529521165,3.1988071197370815
1260,-0.8383419906882564,0.183759436546576,0.5375656415672132,1.9849714928622137,-0.7054585758821642,-0.34188676049629163
1270,-0.8315454877543886,0.19103207996367508,0.5392435229470511,-2.738784369871773,-2.4765611078178136,-2.5117787633328037
1280,-0.8113036390444582,0.21398214718770872,0.5600461467993503,-1.7021103482414475,0.4616040497238763,-0.18029192704273952
1290,-0.8159497279406358,0.20905479728690163,0.5608877931944216,0.6189251385731852,0.541717749516265,0.3950348397414875
1300,-0.8367607598074491,0.1896918444648976,0.5426963105151507,2.4359092400771862,-0.748637820306506,-0.6501601744141742
1310,-0.8474934566436614,0.1858844071471264,0.5290458911799611,2.5423721117652796,0.44469724110814224,-1.180792993990462
1320,-0.8238298463753323,0.20540744759680776,0.556910709648536,-2.652656551326582,-1.7450627468136524,-4.650027856400317
1330,-0.8110116882969468,0.21343603044234072,0.5598569604552743,-4.368044039359485,-0.6820680899292011,-4.244769644655598
1340,-0.8447984697712237,0.17076422476498143,0.5314298793981265,-3.9290546781327067,0.5604760974481156,-1.9075304356845169
1350,-0.8134632472784223,0.19813621121916344,0.5672011390966818,-3.6307141935307037,-0.7256640774430764,-1.500995441290436
1360,-0.794975141580996,0.22588695592466831,0.5906781122748433,0.6816821805033105,1.1050141704277296,1.6111190019944055
1370,-0.8431074393662437,0.1823736892405269,0.5397121963085565,0.5119247119339523,0.5385768371705737,0.8427984208015881
1380,-0.8331912241830935,0.18471340231327266,0.5404311648073282,-1.0097093648421074,1.4654479350168628,0.46266752464580196
1390,-0.8278427140229064,0.19188604776361895,0.5488354725499821,-5.640747773032991,-1.0181060971506177,-2.6751399207785687
1400,-0.8078512528678913,0.2122471387591946,0.5708925104372362,-5.08405374434108,-0.771397580997366,-4.207743095987208
1410,-0.829475525827132,0.18541218235084017,0.5584700673520497,-5.9378601514462375,-1.9437246051779735,-4.848971937445564
1420,-0.8201392253246012,0.18808243177702288,0.5568543499223787,-1.4599882468325802,-0.447399069911026,-1.3926582839927275
1430,-0.8099441040435692,0.20084380727092777,0.5651125407530437,-1.6725480177842982,-2.429329202613933,-2.04104547529573
1440,-0.8263712942596172,0.19298607792384828,0.5487526152794544,0.28474942799215186,-0.535120373796471,-0.19231183967241683
1450,-0.8106433795191393,0.21492141213113658,0.5616610362458799,-0.39819768854113496,0.25828086783339693,-0.21683432701644265
1460,-0.8208977879471967,0.2019761573322676,0.5534944942679779,-5.270245035247888,-2.1680567717158876,-2.997263118175246
1470,-0.8124927312561695,0.19699830839030863,0.5628467082058121,-4.734342599440405,-2.015445826145883,-2.1840548407190927
1480,-0.8137446512846009,0.19822397979267609,0.5634448460151623,1.146135566303949,0.5450805485489616,0.5278296208663183
1490,-0.8280572325862926,0.18333360812570643,0.5440631355598793,1.891776184044146,1.0692594776080748,0.8779358080758413
1500,-0.8179178967730788,0.19850518835172226,0.5560136020996805,0.9541816081999615,1.161132644404598,1.3493890607032721
1510,-0.7972445066367597,0.21866382502621187,0.5757296641027888,-2.2925917964715516,-1.701244992490428,-1.0777754339502876
1520,-0.8577240705996686,0.15210404079067857,0.5141589695471765,-2.368845850734516,-2.481168492194441,-1.415729219348761
1530,-0.8103564444200191,0.19701816719885532,0.5667278325667642,1.0597121896655741,-0.27505673508874884,1.190886589087008
1540,-0.8241860964355207,0.1870185174058331,0.5543352978559304,1.99656503272883,-0.5775983310301662,0.30250872648517874
1550,-0.797281225311417,0.21308259268455712,0.5812467334355206,1.767824709351326,-0.2824890982389642,-0.3160382186537971
1560,-0.8139344366984171,0.1983605725917374,0.5615959352448536,-3.2283405483624668,-0.9947899035461901,-2.183221831757606
1570,-0.826518921932456,0.18097459408058714,0.5437752088666459,-2.7356057268070924,0.7467291241275659,1.2055218344861636
1580,-0.8134928629960606,0.183785669606399,0.5565754002686221,-1.1255167695014734,0.19942445879434434,2.3791235023997483
1590,-0.8254625518384898,0.17655171582435145,0.5500421038458986,1.1763699894217239,-1.5147627318617376,1.1488887743777467
1600,-0.7992618041892159,0.22110550026729822,0.5800605503558675,4.617278874126922,-0.15201297974059985,1.621155262229614
1610,-0.8394970193409464,0.1814337206864036,0.5344060272320955,1.9915300168543097,0.6759468287857993,0.3694926032259179
1620,-0.8183114133540772,0.2023263944333358,0.5545053213201485,-0.3115266480475601,1.0450157341128368,-1.3094056196306583
1630,-0.8407586645701266,0.174756780871039,0.5368495926681238,-1.2171432857827873,-0.27190137591514263,-3.0161488720520815
1640,-0.8348199699327207,0.17736374669424107,0.5456060674528153,1.0685849763535986,0.30566255093441885,0.6636729933481551
1650,-0.7872462080413324,0.22636538276687027,0.5884065509582451,-0.2426789985479661,-0.7009042989349163,0.9073987782916642
1660,-0.8015270340999227,0.2132389903307991,0.5688438956627127,1.5461129803625946,2.2300339132452103,3.343376985377424
1670,-0.8193882988880663,0.19384644899424702,0.553388752240769,-0.07258315593913478,0.8604093291812385,1.317083110141585
1680,-0.8588512056055976,0.1524435648017491,0.522455411940684,0.9255648500131795,1.2041025989929692,1.472146120357632
1690,-0.7884870095355443,0.22114492260486757,0.5905242762739266,0.35260361108710736,0.6694602937235012,0.7781622322940462
1700,-0.8117534166905107,0.19489927941136417,0.5654097215164303,1.4388614620912965,0.1519699903347809,0.3666304185599769
1710,-0.812736485386686,0.20571449834671854,0.5661599510244225,2.2111574742433384,0.4466936054927466,1.309125006609561
1720,-0.8087284589682525,0.2081582487722809,0.5709965968013717,-1.3142995786850518,-2.6825050488282094,-2.280108414594148
1730,-0.8123645147588306,0.2006427543164763,0.5678237117615724,-1.2348636324651723,-1.4529414032433745,-1.8068376578475434
1740,-0.8310544900654483,0.18074420348706355,0.5498800729134955,-3.1347556652797817,-2.7822361917458682,-3.363121119792589
1750,-0.8430217141444307,0.16878889239376582,0.5392678701240867,-0.14391575789610256,-0.2510772381011884,-0.5044771649627182
1760,-0.8266568651081644,0.18850980935453282,0.5576325865882239,1.9801418470457925,2.4537816618537955,2.420840362067045
1770,-0.8111054098309375,0.1932158830350199,0.5692396482242924,0.3096295840507682,0.5552359072126019,0.7007910137558655
1780,-0.8380693686173805,0.1778574483710655,0.5370625844489514,1.1370846891070796,0.4341394376196467,1.4528994736182288
1790,-0.84498696767857,0.17320328820289974,0.5317285382728133,1.2931885589436685,0.12641260529386117,1.305681418427054
1800,-0.8282136854714272,0.18728333583336232,0.5469897986763844,-0.527986117138414,-1.2797488693307806,-0.32643886884229933
1810,-0.8119082588324592,0.20038039244662117,0.5625717078057976,-2.7006943172886366,-2.243390247257064,-1.779891088373214
1820,-0.8336827957622794,0.17711319279643858,0.5446074498314866,-1.7185962903134993,-0.10108072015490206,-0.18263307337760723
1830,-0.8014845180206521,0.20979126458128688,0.5792108938805239,-4.195627851545591,-2.5898394281723807,-2.9238154478007643
1840,-0.8173750988977013,0.1920614392684129,0.5585136010486959,0.0004419346830121518,0.851942113026481,0.17735307611133175
1850,-0.8243183041539877,0.18871146431045133,0.5564050207366013,-2.1619516955680975,-1.063682973631467,-1.6472763815056894
1860,-0.8117974835509738,0.1953196821241509,0.564281440707523,-3.0775650412077367,-3.5938372898368147,-3.8233112704983676
1870,-0.8328954462195166,0.17923284878752152,0.5451549343156183,-0.5941503565318648,-1.6183041384768182,-0.700351301708029
1880,-0.8067299922746208,0.21338894457566987,0.5756361074274775,0.9223590705101709,0.5434427296083165,1.9558807162387
1890,-0.8318977066237471,0.18758238760222673,0.5503686782854162,-0.5676443897346336,-0.16990126319891113,0.7040759698994862
1900,-0.8256802863428029,0.18724639268271834,0.5514470311236057,-2.5593969325148445,-1.9455343827577039,-1.5571382356460393
1910,-0.8317231837391627,0.1897911248675226,0.5400252511487307,-1.3909365391119466,-0.9323704905923978,-0.23560493992132817
1920,-0.8043750667658007,0.20668613610749306,0.5702725040968145,0.13909838055658685,-1.5222626990981911,-1.1884302537878368
1930,-0.8163737645366803,0.19063087762078232,0.5594804407703675,1.1614816934255647,-0.8327755852371788,0.33802459947094265
1940,-0.8088190681266125,0.20479767943103927,0.5684455261293447,-2.393677957815077,-3.2329772541011534,-2.7245253223669446
1950,-0.8259003536615015,0.18998527780009175,0.5560066224888394,-1.902066485988105,-1.3774484644787952,-1.1587453882010916
1960,-0.8512784299344113,0.15952572823394245,0.5285348154176581,1.1968417200346144,2.64940122106645,3.0411996007731794
1970,-0.8322307644812716,0.17055400548552077,0.5374284388418856,-1.278475992769805,0.028321333490641698,0.43230749010885117
1980,-0.7865331186435912,0.2083852392074878,0.586178800199729,-0.9027417948943253,-1.5158724009209832,-0.7617439867590285
1990,-0.811113586157342,0.20198101524600137,0.5639593838063919,-0.984608979234286,-0.6683426501583287,-2.1005021566369892
2000,-0.8246512487135826,0.1900043084065344,0.550042116456224,-0.05371866999590902,0.6680970325211943,-0.5999100825976214
2010,-0.8360854542936323,0.17142632283432957,0.535983090961538,0.03475471208294051,0.18646976320347777,-0.2717414527791694
2020,-0.8250638062019436,0.17976693654433779,0.5502923552017374,-0.08761041370543671,-0.371514529770178,0.510856225758251
2030,-0.8080680497068967,0.19945550010499158,0.5699275464727319,0.2642144641811731,-0.3001510519966839,1.466886499271944
2040,-0.8467302161714138,0.16539561487082988,0.5300807734530218,2.3956812540670436,1.4453559941041745,3.341597967584477
2050,-0.8100474270363932,0.20673609134698356,0.5673464438830962,2.305773609223039,1.4280561076493357,2.80676648979098
2060,-0.8171188162567353,0.20205347513144326,0.5566381878352219,-2.400412019443007,-0.4992221211294569,-3.2687464593815574
