time_ms,ax,ay,az,gx,gy,gz
0,-0.842140551896711,0.25083614997039405,0.3867204374713451,-0.46313334579927445,-0.95364674510529,-0.6940578248629596
10,-0.8530094407570978,0.24711260396563933,0.3763997540369885,1.7785816734601991,1.310565894583573,2.509032722489959
20,-0.8439169099868021,0.2515018140090056,0.37969937583133206,3.1320938204044353,1.5806105078930535,2.5601289334117086
30,-0.8372947686084333,0.2571988942390191,0.39558343324313044,1.9962010978205003,-0.07561698799581201,0.6029003886419495
40,-0.8171296002838039,0.2804595930370038,0.4086507779626119,-0.5803977896248054,0.9512995798207491,-0.37465868394616364
50,-0.8317494570146531,0.2656820937884079,0.39639337581790085,-3.812312880057573,-0.9669818040920133,-2.4273184118930855
60,-0.8346104439741797,0.2570440541508449,0.39888523467630005,-3.2967772668369117,-2.3848067867396705,-2.60381509258842
70,-0.8268939747589625,0.2607602712419207,0.4060765580365925,4.558767498947012,0.44415435563012634,2.10431143492111
80,-0.8434326104918184,0.24969610741385143,0.376385200288806,3.3842447013768684,0.5926881717296948,2.0754471470878966
90,-0.8348856884146256,0.2670740962776096,0.39583920011860757,1.9428767750366251,-0.375014743815669,-0.3350523551862104
100,-0.8191351590169659,0.272443194687428,0.40830544409009134,-3.6467618530768764,-0.8513408993365534,-3.326946911594931
110,-0.8389820122006364,0.2539795562784224,0.3890256243030439,-1.8953379322164474,-0.3815939222776884,-1.718438877115032
120,-0.8403962893736739,0.24645227269742243,0.3840702596180438,2.6839055384530677,1.6743695447560254,2.283381447419802
130,-0.8590574455362446,0.22658920627053944,0.3721292283454587,4.069862171149386,-0.08222733083905279,2.298974823497375
140,-0.8463350264235003,0.254591184755173,0.37611886401435574,3.704825210493825,0.08162930974947019,2.167956279209056
150,-0.84130633354185,0.2558938786148809,0.38933310068386706,2.537550977920564,1.0726741146609373,1.681559741842159
160,-0.8558519903449873,0.2492128177332359,0.37257072395180574,-2.3020920323292,0.7126196572336413,-1.06172694440856
170,-0.8383154846984506,0.2473849358732266,0.38641840684551143,-1.9025935853458225,-1.200936312909556,-2.1584306185981905
180,-0.8638851683804167,0.2347212332108128,0.3652304300340169,3.4072593103424937,2.407021303187972,2.427693148633424
190,-0.8377497525805592,0.2556359237628465,0.3867093032146114,-0.13577357929155048,-0.6951066828431848,-0.5061272187830553
200,-0.8333109038103266,0.2692636845614234,0.3932061653494871,-0.3761418618921396,0.3405460377079887,-0.7600316185875425
210,-0.8144599539909991,0.28476922893499906,0.41477853925605424,-2.623683018046615,-1.4743466319964242,-2.855434370857436
220,-0.8335484181120321,0.25941852725993986,0.3926789555337647,-4.610358096452707,-3.0198144309711816,-4.474435621958793
230,-0.8314548574485982,0.2602509820481554,0.39784198813262894,0.3415299647375126,0.4197979697841935,-0.24972351158134765
240,-0.8469313195371336,0.2466272578875638,0.3812529780232539,-0.007391999503847946,0.03751693854524274,-0.45692288926978164
250,-0.8402134668304725,0.2542051258576362,0.3944796750341352,-0.3811669796128878,0.5668704865178118,0.07529202867129703
260,-0.8490519328965158,0.23992243162936286,0.3806683932465589,-1.7344511812429428,-1.0840041127659656,-0.8084200203766698
270,-0.8308112343651892,0.2677822547576634,0.3954661432564687,0.37033849611698566,0.08953682509162965,1.2795295786756817
280,-0.8482322326520995,0.24309987755986642,0.3822312269682133,2.121786083664885,-0.5864380110168721,2.5469243954345475
290,-0.842261762088513,0.2562943152650982,0.39146663520442,3.2368761625173317,-0.8540544194312263,2.6407837106230345
300,-0.8361539079257307,0.27011669798761895,0.4042542868663528,8.114271487677799,-1.4985605649193694,4.08321938950828
310,-0.8633650046677667,0.24903656468717647,0.395660519613055,11.960429880897971,-2.4305576817302383,5.668692383523798
320,-0.8852574472470476,0.23484463311976853,0.3828428619322518,1.9397540357177556,-2.017925313948793,10.673246558289927
330,-0.8844367592628131,0.2356993320199747,0.4505099537530525,-2.39503369750477,-11.523854785498626,13.59748968924007
340,-0.9201874494984841,0.17809640251383202,0.5404877933001586,27.96816682591253,-48.626070722551184,15.017130829649254
350,-0.8605563044246407,0.2117801865520453,0.5068516697322261,20.28545925991235,-60.46194281370248,2.8814368532621013
360,-0.8013671792802289,0.338707079546677,0.49486090508660124,6.393095044014316,-69.83994207064207,-8.705604100158082
370,-0.7098123130481154,0.5318828448034036,0.422516075025108,-6.278427091799409,-68.97253168755485,-3.7176699630785373
380,-0.6313037533808082,0.5152950778679201,0.36530798482860233,-20.59468347725088,-62.251931807229994,4.613697826401851
390,-0.5741961524902944,0.4425685414628298,0.31601934023715417,-38.4004468370649,-38.81920320550594,11.171019463862944
400,-0.6823869571420883,0.3508919107771307,0.4127585289828162,-59.683017637072005,-10.22454264689054,10.267799965398297
410,-0.8027072677952222,0.28976377809657355,0.4436628209360444,-70.6993757435621,-9.433910791700983,7.32315951373602
420,-0.8364706127706107,0.2622474644987369,0.5085145329491576,-73.75998304924983,-6.119881181660567,7.3388076486254175
430,-0.8847094453323388,0.21105013104744377,0.4441808646441617,-66.21840188739786,-7.998231663465207,1.2222294448235436
440,-0.870783921214338,0.11679837809422813,0.474927850389224,-58.45589049947861,-8.307123900535613,-2.0274868850887033
450,-0.7748799023583726,0.1376514502864836,0.5083494075152208,-59.80629095645474,-9.7945497459249,-5.165538264185836
460,-0.6813055250863248,0.19087530325269522,0.48558818851005625,-57.396508167019064,-7.366606574846752,-6.16293703444593
470,-0.7140731578051511,0.15953055889870557,0.4897742140833761,-69.03718977445301,-8.22924432324626,-10.417348518508204
480,-0.7591179681999839,0.11019659047446266,0.5382161719154346,-55.69260748341199,-4.257101931195512,-10.51500016213424
490,-0.9066840171117708,-0.01790129674255939,0.5554526501491777,-30.320972227369793,-4.893279987470871,-15.306972205413794
500,-1.1036901928852596,0.0015659482004897066,0.678968163184704,-29.930707175092678,-26.465051628777733,-21.13505584337919
510,-1.2101067675606698,0.19366467076479144,0.6392948673003109,-25.520964673534113,-44.261791378056046,-14.512049638150671
520,-1.0101436274631796,0.15732869178005987,0.3344070616073412,9.841354970031922,-20.694752252094663,-10.771677562236162
530,-0.8916005340634492,-0.063091182598709,0.5066072580709843,47.19982832450783,-22.054124123860504,-31.225094440070983
540,-0.8606661142764296,0.06156697414458464,0.3763054764363216,53.203676151498364,-13.886635470724082,-43.38219689130416
550,-0.7699723293670521,0.0031116247808544474,0.6463017691279861,51.08729904431064,-4.757980194590655,-54.85815339317624
560,-0.6814834556855026,0.29308880702587053,0.9885342709892447,54.39812514024542,-7.5819227166999585,-53.93956240826605
570,-0.7886206208720032,0.310959821659871,1.0024477939325807,79.14842190438105,8.783580065091396,-24.587364318343546
580,-0.9430229407870353,0.27991858813208254,0.7399508773177516,79.08579129037783,34.714012995909684,13.838062771542527
590,-1.0646996222755565,0.43050505714877096,0.08251896093767516,35.85615783325517,50.662583524594886,16.316882394263573
600,-0.9163914377410728,0.5519188168919288,-0.13850917352774725,40.514359154938276,72.30911111085105,30.499772309034753
610,-0.5932848300492058,0.6220703915737807,0.5858774504783798,13.548184990580655,86.46618605189964,44.3281016175218
620,-0.6660822620990702,0.5940808062950244,1.08534741039711,-8.113478109679265,80.26320044246378,71.463913737202
630,-0.7012001546215467,0.4635731590740157,1.1038565420594404,-20.822602714680816,65.46051815779488,79.99273058052785
640,-0.6187508598667449,0.11405182641798146,0.6845625408013034,-5.219873513130464,38.34359005818462,46.631156973238376
650,-0.5233202111862859,-0.036610260700217466,0.20496066610046615,2.6740174526120937,37.35394119588947,35.68540349717628
660,-0.6645815044183027,-0.08672360946505354,0.3462793890548529,-9.111911918601262,23.84467340525892,14.224730002975392
670,-0.8551877835759254,-0.2734766630227704,0.5160504708081056,-29.979017241834967,20.20950078576846,-0.023305363896589243
680,-0.8310459583674132,-0.14413105004190746,0.648327574671745,-37.85861189819657,14.801824877476388,-20.63180107415592
690,-0.8449752245272465,-0.0061793236738028785,0.43604036602812735,-0.20140764007303447,-4.851448899754222,-19.884508389652478
700,-0.870884177656325,0.07344916293806697,0.3969894258778587,41.1054211431761,6.159659495678618,17.93398130881721
710,-0.9095335448454326,0.1630390716251965,0.42767320086627225,69.22645795322342,6.651063841881719,21.89920996064882
720,-1.09179154315272,0.10016291803904205,0.501024119061305,111.28903662444193,0.871033710479608,1.203333170471063
730,-1.0253680396080445,-0.015229536326832487,0.3912684811593852,100.26560609605237,-1.7154177571216107,-45.0542010959858
740,-0.7497398920954408,-0.08510381496503983,0.22112452351195247,62.447904310394165,-4.643054446877509,-67.5309675309496
750,-0.677684014974961,-0.1332278716679769,0.06578184260865444,32.373498375106664,-15.749763495200849,-38.30587290233559
760,-0.7080483145971566,0.19804967759730813,-0.014969697972689334,38.139978755823385,-22.28523519348104,-10.323009941803978
770,-0.7439522192313928,0.4809343246582337,0.22805771322028537,59.23962379330301,-14.169136323657993,6.821714416397844
780,-0.7110611417866884,0.4164873913337964,0.5255613743693293,58.826657366030325,-6.108450967027724,19.310348213299715
790,-0.7235199676044747,0.2931869723814755,0.5705489057445822,40.828604759140624,-6.484337987214669,12.092493682944353
800,-0.8222171301190442,0.3486287233281704,0.4011429240731264,15.655238460983615,-5.15151447115906,-0.034595879255949535
810,-0.8247770592152266,0.36951869667526005,0.38692496856474445,-3.336250930685682,-1.993635514298996,-17.988054950311145
820,-0.8836172339252809,0.21301607879700535,0.3473612555802988,-22.761151061185416,-6.82744642067833,-32.944922702661366
830,-0.8214814017669658,0.24763757782744056,0.4111599406634636,-20.76505347482795,-4.660492907578209,-24.578050368721524
840,-0.8394157700441632,0.2015334141517124,0.3916933423672199,-12.392918066470855,-2.8995645551868656,-11.086569028041795
850,-0.8459783937472608,0.1866715362260916,0.38583776905895395,4.21937820474129,0.33211590891712106,6.156115777567566
860,-0.8398959335084626,0.21806568360555387,0.3909396414464835,14.259586358474454,0.11270385391584248,15.617298503992807
870,-0.8339656075590214,0.2810842811577881,0.4000579878291396,7.595134571418944,2.5290631711513525,10.394595171036837
880,-0.835790419803099,0.2982713630103763,0.40364035114227154,-6.01509419172293,1.9066980021482571,-2.033499715642717
890,-0.8236757868656394,0.27661942032155695,0.40842268706649454,-9.707821386871013,0.07854348061995686,-7.839236099447416
900,-0.8258286711195845,0.2490148076395579,0.39968911701472554,-6.36423103804036,-3.8074095360431053,-8.43471508251137
910,-0.8372304446055783,0.23438531011485386,0.39414571040519647,0.37921785315637235,-5.760970637157689,-4.52748855555638
920,-0.8539017648137831,0.22467388025360735,0.37377495093920526,7.197284323164194,-0.22039060487134354,3.7458509260389907
930,-0.8482241673746863,0.24085982481361903,0.3815002940345789,0.37268519544985446,-1.308483240787901,0.2783850447105112
940,-0.8384333786401197,0.2531344970161398,0.39661241579565415,0.3764644298754151,0.39082390439502646,1.3625437753645164
950,-0.8279455787057908,0.26361583806271427,0.4062253282950037,-0.9662144256210161,-2.580683198444937,-0.2743372335208134
960,-0.8514529166362852,0.23680401824864844,0.3788985901210428,1.484152372038869,-3.4183760004784314,-0.08147548275044958
970,-0.8461787183501159,0.24743109799422555,0.38146399800024894,6.215832717459977,0.28220148153623914,3.901521585956075
980,-0.8261013580407124,0.27227719711917636,0.4064730399213342,5.960811144457676,1.8643300184375455,5.597172900917872
990,-0.8268826497683192,0.2726302815014661,0.40482240907251527,3.9337996026056894,2.577062723701912,5.640921690941065
1000,-0.8344940618437431,0.267112705701749,0.3980614297915019,-1.1372529798635904,-2.3135454950267693,0.4893167654270636
1010,-0.8412214929089581,0.2625706307028579,0.39171763114280894,2.326458137861975,2.081580529399529,4.23753477776345
1020,-0.8429290548870784,0.2621127511039205,0.387839317253144,-1.8509559721763886,-1.021612570713827,0.4788187665940733
1030,-0.8524230337461501,0.2502499794973256,0.377303345785416,-3.4475544127131235,-1.8333701046466253,-0.6114141891853995
1040,-0.8242879103179122,0.27177537266752566,0.4026982029445645,-1.3810630555539167,-1.7850321493398909,-0.14562671820225326
1050,-0.8481660162530635,0.24893299503932825,0.37633341312068025,3.2041706710452096,1.438857525449145,2.5561422178396356
1060,-0.8349929892010414,0.2709595756070091,0.39345855955097786,6.819469529073864,3.7203266705533755,4.726234460236478
1070,-0.851182267931791,0.24642746844043698,0.37560335037372083,4.433213824197716,-0.1003212737779271,1.241589600304579
1080,-0.8367221799862588,0.27261925539847365,0.3902155327406666,6.423857654837337,2.6767421345579154,3.2395005495883087
1090,-0.8588207475666416,0.2416021578585399,0.372232470001785,2.6070124582714516,0.8995689081838807,-0.022081742834565876
1100,-0.8326486402678767,0.27944590239465555,0.39180527795425174,-1.5773667046610842,-0.0928024005634207,-1.6091814279381116
1110,-0.8440008956146955,0.2537071258917812,0.38139940273942663,0.7011050771355724,0.5433062705903445,0.006140189861695566
1120,-0.8449414787288693,0.24938230458697727,0.38787307190093484,1.7652359227204653,-0.06610985182588733,0.6589752382465361
1130,-0.8582088944410673,0.2440831785838764,0.3711543319555525,2.2385791500965837,1.689422732913372,2.6635343231465853
1140,-0.8472751004839048,0.26128952408604333,0.38232556991743993,-3.0382462638795205,-1.85992723665745,-1.831850792787776
1150,-0.8444726541696891,0.25776724028112674,0.38645876407521124,0.6268659268909663,1.390646591360275,1.4511993753997061
1160,-0.8568195420089182,0.2540546045370468,0.37392963760772424,-3.3041020529284166,-2.2084605813956015,-2.4155596079861157
1170,-0.8424748367824593,0.24990026492960088,0.38403703817217366,-2.3440364055978726,-1.9261777007301284,-3.0759272390910954
1180,-0.8181695116937441,0.2788442309968035,0.41154557659551577,-0.5485438791986421,-3.0519597928653766,-2.5461881741696644
1190,-0.8443362898908139,0.24901416930159959,0.38293522884469483,2.0671549352969727,-0.27814292279637665,0.5943178952895316
1200,-0.8368891508915112,0.2677455063076368,0.3941659342725452,1.206802103817393,-0.7784397248323395,-0.47085662491989944
1210,-0.8205936817183868,0.280570969830495,0.40883095147774234,-0.7492529344404821,-0.17024919638172611,-0.9632234491932089
1220,-0.8231778374722792,0.28405036635072567,0.4088234988781914,-3.589854784670826,-2.5638596620602825,-4.8781650467513895
1230,-0.8645944526916836,0.23279253997909605,0.36384882625872494,0.1595936411238586,0.08281697689519835,-0.7414393153649964
1240,-0.8486076706173786,0.25108878510782007,0.3785835919413456,-0.2414109651151809,-1.2458135660859686,-1.1514294940540426
1250,-0.8443579742738879,0.25290561263789385,0.38375782996782326,-0.9914435557163233,-1.5494956339907062,-1.9229806751585627
1260,-0.8272095521073942,0.2715581791317767,0.397248597640152,-3.466721547365658,-2.8315366506825503,-3.2158560678464316
1270,-0.8070347152242151,0.29398252732874036,0.4193832157911811,-1.7742224687468267,-0.013616532883311308,-0.7222935622459521
1280,-0.844192823456921,0.2435260388984374,0.37652577398052295,0.9089480441257293,1.6497929042719035,1.420045811840527
1290,-0.8508634488307898,0.2480469323036319,0.3754448004834508,0.3995278586751465,-1.424335528313461,-0.15016915902993033
1300,-0.8390249676661857,0.25924077474174645,0.3950367863574753,0.40900560196001035,-2.5083804322401493,-1.6888642649640742
1310,-0.8375684448483656,0.2678096955159881,0.39304607515232104,-0.8590368533698922,0.2064701789608434,-0.34566696034246686
1320,-0.8653013107358598,0.23579619255422354,0.3668053811389615,-1.2040723009780407,-0.051725907468757826,-0.97093207544967
1330,-0.8415575580862771,0.2610090087609407,0.38075726360048306,-2.783362253005519,-1.534734580839078,-1.3078436849601371
1340,-0.8300841156010057,0.2717665868349418,0.39757073310086816,-0.8097110010914035,0.18814123718563036,0.611676916831151
1350,-0.8497021205286323,0.25473670366295986,0.3851892554377171,-1.2485175982241492,-0.8710160602063398,-1.922198641595279
1360,-0.8470327725334731,0.25095516027530695,0.3810645229799628,-2.4163094425856064,0.005598068102924764,-2.3043961205778443
1370,-0.8617614963441543,0.23962016656246862,0.36829556463893487,-0.605642538116081,2.6844702435489816,0.20160176275302
1380,-0.8328725301022256,0.26410095467869177,0.39571074253538124,-2.0854199166523912,1.0939359797736596,-1.6853181757611857
1390,-0.8343560913389484,0.2601510001339919,0.39583773922427656,-2.922907059403936,-2.2470070618966065,-4.821913756989677
1400,-0.8114357575984237,0.2902994814919551,0.42302075863172806,-1.2016961255096557,-1.6858853883672764,-3.361795373535585
1410,-0.8533930946334619,0.23514883605926074,0.3770762337288889,-4.859843553417569,-4.027552992882691,-5.675501598750757
1420,-0.815321988502877,0.2667930371872623,0.40892692296596367,-3.644425658191122,-1.73212362688622,-2.982185112063882
1430,-0.8308227617806009,0.2637290810876398,0.3976490721893987,1.0456484791862848,2.290450226907259,1.3641886124419575
1440,-0.8160947861037481,0.2863339553550888,0.41657266638337714,1.9167812595372538,2.381290867088591,2.5396432968234306
1450,-0.8533211717111638,0.24642657786707597,0.3788518406218544,0.5799406014881244,0.5301996362828119,0.4800083876924338
1460,-0.867361715390471,0.23025158831811499,0.35612579439977804,1.2762313760820116,0.35393615112419424,0.38178471966324734
1470,-0.8692545551131275,0.21555155732297573,0.3622281211606101,1.1305398241810969,-0.008999361481561774,0.5453637107535522
