time_ms,ax,ay,az,gx,gy,gz
0,-0.690752120720223,0.06779010615425152,0.44062544364917555,0.5140641890512994,0.0055392090993534315,1.709818645356274
10,-0.6636142525671345,0.08657186000556957,0.4598374965614858,-0.6824286013994091,-0.23610846761407595,0.13698084487505768
20,-0.6827563812355766,0.07176385015873925,0.4437304538584233,2.9924855952775657,3.2498159826135025,2.943779703240795
30,-0.6748816608914161,0.08395891133736727,0.4520749021796614,1.0780353899258748,0.5710410028788498,0.6244331030523731
40,-0.6966160369304467,0.06224660952124733,0.4310287304677993,-0.1506611018010707,-0.05108799630248434,0.1921732887677602
50,-0.6759166524058773,0.07857006030794943,0.45112310886079415,3.7022628642143394,4.962239640268381,5.110913711998706
60,-0.6539114657442509,0.09537244651924641,0.4639776854594412,2.245807462247009,2.0160437444708506,3.035454439605233
70,-0.6889382835628046,0.06989449578791612,0.4325853735189611,0.895629854606697,-0.4385689097533554,1.0430875212394828
80,-0.6485743889339,0.10534007984231528,0.4765831004603491,-1.16262037660666,-1.9931492582416859,-0.4908932474571359
90,-0.6412738740102312,0.11568057277391235,0.4807098858670336,2.539511032449713,1.9433139058806292,2.423168017115032
100,-0.6863755522380739,0.07100835303163863,0.43681458562192543,0.6855632218266792,1.009499953023172,0.9031778580551899
110,-0.685342499432858,0.06947254684367171,0.442688865431656,-1.699328722909505,-0.6308634673009246,-0.785677025102017
120,-0.6376176448037469,0.11766988693086897,0.4921361592311919,-4.022106761092231,-3.366343957079148,-3.4401544162356563
130,-0.6792000433725809,0.08273804314900533,0.44612913687752986,-0.9246083784600645,-1.1910526913920192,-1.0769861286608853
140,-0.7008010812904816,0.05296510190202718,0.4295089695003521,0.5623038884783099,0.8001502022575804,0.10658334916926371
150,-0.6835826070198666,0.06934230071810515,0.4464506975784257,-0.5952362947104477,-0.8036269548014168,-1.3091226828517846
160,-0.6565906890278027,0.09685984871760436,0.4738391750011316,2.341028221142792,0.15578033987706869,0.6735728234526086
170,-0.6574857773591618,0.10026100180744221,0.47820378542368025,2.4123615294496803,-1.712985189578473,-0.34202901368665306
180,-0.7086676018042364,0.07265809143571997,0.43332774379597844,5.496253754636982,-2.3039674625782975,-2.5649382961315514
190,-0.6974784028139115,0.14199791124476122,0.4660842253573357,2.055425055322808,-10.332358655303088,-12.08522193244114
200,-0.757713389987143,0.16531143053929354,0.5032240113310288,-9.982355689075753,-16.009625558566636,-4.688039648338995
210,-0.7486763050942686,0.1111835767128567,0.5242595836603783,-13.99941769152681,-18.15630014481787,1.0145813269866206
220,-0.717828640387133,0.1315558544507455,0.47373134607402645,-14.718546571446565,-20.19900719665133,6.689441284219534
230,-0.6728676467630135,0.21552486593050005,0.5129888161450654,-17.557312715178867,-24.386981205788242,11.981160435284597
240,-0.6411493157912236,0.29023840331444156,0.515437815975038,-20.226438101350723,-24.09166305814973,26.89103127253682
250,-0.61878154057317,0.26218304161392975,0.46014335443998194,-30.98831897819243,-20.81511209899139,42.82506122850999
260,-0.5763379664235171,0.12314748478742876,0.46748443063397466,-53.914248018488095,-18.79554325348195,43.110897266286486
270,-0.5914315805766573,0.10259588072137821,0.42847148174288757,-55.7082747188398,-16.45006019965521,35.521935903167346
280,-0.5506867314157043,0.16897020579511549,0.5147470392990819,-66.47219504389622,-15.829672980702576,34.359745916324705
290,-0.5680793979835567,0.11301868250576745,0.477166348031408,-77.92705054972551,-21.264439232068074,27.46768377358017
300,-0.5248282795471085,0.08103513437507001,0.49405152145365644,-80.14588545327872,-16.63030021384351,27.06519858683628
310,-0.5231965818647489,0.05157485252682574,0.5008087808792008,-83.29408496669153,-14.517199259665968,24.69641506816684
320,-0.5629462625304051,0.03392122245029744,0.4921339806656386,-81.68600682860125,-15.754387476095975,21.734619027625527
330,-0.6063102723215301,-0.01969956790156679,0.4651413211252002,-68.32588524579606,-15.66728162085229,19.41031999804182
340,-0.5730424764332114,0.08573939090349411,0.4938688028642584,-66.59675593914393,-13.507337070909845,26.428522965913153
350,-0.642355971352236,-0.008021488473115707,0.45255730500524594,-58.83852708285353,-7.423624104774156,32.23471163486791
360,-0.6189864292848228,-0.049204375504108375,0.5042875417377819,-56.35287948078482,-8.780572594162807,24.445113327952342
370,-0.7111105591238053,-0.08710345771784082,0.5166106509981533,-50.603936478472264,-10.793434199145553,16.847072053602833
380,-0.7710261982579326,-0.09877609509236185,0.57882878695656,-31.437385033479178,-25.690645054774095,7.257430163143219
390,-0.7236555132231309,-0.15336457446710225,0.6253453215514834,6.278385138724827,-45.56241805382075,-2.9983158809728523
400,-0.5412724660426079,-0.041472751280077116,0.5844069572867179,34.81745559128473,-30.244624493566015,-7.335426573131183
410,-0.6264417052631422,0.24465604176440522,0.25831693554185975,9.619823180056617,-32.11795705237128,2.0417122890019406
420,-0.5606483165090125,0.04565531698231339,0.5734810087111587,24.09315390384563,-25.691674476850526,-3.700643447647911
430,-0.5707328135685192,-0.09588091640929183,0.5815536771178903,36.426530603199204,-25.018378456864326,-16.505116774712107
440,-0.6232355161323826,-0.07378569865595212,0.45491853642421093,33.093935621982716,-22.73313172357269,-24.721357909319266
450,-0.6385862594891821,-0.002927073865033136,0.40378578681410005,25.63348344403284,-21.983139917309135,-29.355299242264795
460,-0.5660348953829825,0.026583002941488187,0.4902232112657819,36.41659161230521,-21.153554271315656,-29.441665340442288
470,-0.6630241898207746,0.04658091797023408,0.5971671375012757,29.907379182915577,-12.030320445219553,-28.313222290049413
480,-0.6471371830875292,-0.1429164027579418,0.3518187541610724,31.691350030269472,-10.21994900523558,-41.69301386091916
490,-0.5851108427290083,-0.09834728766288278,0.4004767872013065,47.37405590154148,-13.467290303241183,-46.322028491501705
500,-0.5462038715212318,-0.08557409594420562,0.4985061930710148,37.322303621780506,-7.600707530328211,-42.28205912118823
510,-0.6166620480894889,-0.2560653691321694,0.453313623273432,7.812391393404021,-2.3753397532188547,-41.02408431892069
520,-0.5982526489062358,-0.21625815702443069,0.5189955058685068,10.913653823046477,2.634910236334297,-39.35368060888543
530,-0.6667692015585267,0.07386086165096464,0.6164674865575074,67.46526405533558,5.157767004100216,-36.55493006990832
540,-0.5488486686332801,0.06547167215448624,0.567172356994397,25.151020582565497,15.272531736619403,-16.953127318840394
550,-0.45650266477366025,-0.20650021357136117,0.7204176246580021,38.31419863164138,14.962057802493216,-25.744128160132092
560,-0.5744910773299646,0.04208819813065093,0.37961003011481337,26.999212210979493,25.19934779536338,-20.275201543693733
570,-0.6646191330195833,0.09537658971490859,0.37925102329078736,29.6907794794999,27.72772978787778,-15.72696770709654
580,-0.6950797506583581,-0.009214854352956204,0.4775608422109853,38.44378663725475,21.959126022514262,-20.5922800914072
590,-0.7014894348258648,0.03492586923700472,0.3151472287063327,33.69576555464755,23.649443863943556,-22.914221453344233
600,-0.6400741386745818,0.1879809161318225,0.3085671012275554,14.063527013094081,41.08134922373508,-3.2611523969334897
610,-0.6440904749497034,-0.07069751201254802,0.5139258139189984,-7.092372480814053,38.0897095419004,17.41763184072797
620,-0.6324043417924392,0.01558488963618957,0.6714697849671154,-18.339244901247298,46.288856873737025,27.01983011724019
630,-0.5046618677310114,0.18002575765039952,0.5819461413228887,-55.05402264296833,51.9212996665235,38.06819256203226
640,-0.4736380610034966,0.4391370380356039,0.24077595952213962,-19.212538903819034,62.50497718410948,45.62400465762225
650,-0.5497823975109921,0.6418978603707076,0.01747068754349643,4.945014976173543,61.976530409112705,45.040732204169274
660,-0.6581369305072637,0.4716285361513111,0.2111316995449454,-70.46361152220342,47.0375869672413,46.00339635728482
670,-0.5152559292196007,0.0678939165239298,0.8247232330112282,-50.1272526356275,46.672052581341845,46.26379264658174
680,-0.6227578511746796,0.16733948361467157,0.43060050363058583,24.414626009756894,17.034667223018232,24.946559615003164
690,-0.7469128097974728,0.15188309470663905,0.06532818044291676,-23.87560062603575,30.66545882445225,37.086073967418024
700,-0.7250383614249972,0.04322901158179008,0.3819257248433142,-25.37971910304244,35.93115981254668,40.33061306239008
710,-0.6259669213778084,-0.12117083288264818,0.816357323995427,-40.79888949058107,28.118700027019838,34.315155605912786
720,-0.6586735286947083,-0.33991726922913135,0.8636385023294416,-78.79083812398059,15.174794974824906,22.677739048599918
730,-0.7137598310214986,-0.3098655924017954,0.7472020779122774,-61.766981861255175,9.633608133198464,11.802229000587598
740,-0.7410655497123286,0.0660696276188758,0.3505089611687017,-49.03350211557707,13.196787669912805,16.300895453264015
750,-0.6858883373061035,0.298665809104242,0.34763565182116335,6.5459091175862385,4.6661416060789085,10.743489737538411
760,-0.6917373068276567,0.040224173732419,0.5079443959185166,3.7237709851504404,1.9644887436385403,11.4498461037685
770,-0.742373870254098,-0.2386441690789373,0.6211306814384109,-18.125519096744068,7.58540395255148,15.366317159589894
780,-0.6995470087646222,-0.19741139116866432,0.6532028932592375,-35.18127051640171,15.00989732104833,21.027101310189924
790,-0.7098602342078493,-0.03852956895698179,0.4686471635077356,-41.756405722630795,12.050635525470723,19.841772317679094
800,-0.6687657773538251,0.13396460810891156,0.3711422601878643,-29.03207750653932,5.137245920830081,13.647872721963198
810,-0.6644631580196494,0.1803996820218508,0.35521370432531874,-15.732344577833025,7.5083431137432814,12.211836444590528
820,-0.6487532366131478,0.19026626605981592,0.4250395148165155,-2.6046253017034875,3.5923581377415745,7.092534078075619
830,-0.6639862767634048,0.1353692056742231,0.44961660445429247,-2.1769460753058945,2.2804903619073773,3.5104306064037436
840,-0.6817675094427635,0.09198887106062134,0.451095425440131,-6.229638948618412,-1.0837447929028787,-3.809388638573443
850,-0.6860972984158594,0.07960198978692025,0.4480726838918789,-6.025245198243843,-2.687990339919041,-8.923979423596633
860,-0.6764361232145465,0.08256156688912714,0.449136022391708,-2.164196391687274,-0.5258795835040444,-7.721120677044476
870,-0.6714639932320993,0.08710607445616307,0.45072627570148155,0.506406531109364,2.9116975568872894,-3.5094537500571152
880,-0.6790103159235132,0.08724185835294078,0.4240105039017049,-1.9427500093226953,1.7377338183451736,-2.84826616930459
890,-0.6731237400963976,0.0839111612949055,0.4496441655125857,5.842602181997293,2.2303038612420125,1.5396761935941297
900,-0.6848901989056781,0.050946466925319026,0.43722880188853175,9.461139717803606,3.127815886681465,2.074964420459132
910,-0.6642039778832967,0.0749074835634749,0.4554136402729304,13.490854616153866,4.6324442510125285,1.215632838105364
920,-0.6640114659045531,0.04227617058602445,0.4602059605849181,20.365369937701004,0.7698028329787023,-8.76824287430651
930,-0.7258987687774752,-0.09311784862644182,0.3939843819659126,35.70962162046325,0.3563122001895418,-20.12639952956771
940,-0.6982741973208851,0.21159173572015255,0.38642583789232193,23.63296546313416,2.627411378137735,-19.047002321260173
950,-0.6687506106888924,0.22029055221664398,0.555689180996803,62.29085756437792,0.008073155944317179,-8.549703153225881
960,-0.6765855144709334,-0.08441380138806055,0.564105565569393,76.75765493525647,-17.519048768263794,-42.71000115056221
970,-0.7090209118502425,-0.016346200837238735,0.25230139028940307,69.97084421252598,-20.766546676827005,-63.31090084324611
980,-0.7525576726802671,0.034535890629117987,0.1404797290842503,85.11040154762554,-6.138100479761238,-71.58717995848754
990,-0.6914775429736469,-0.0645389581155284,0.4896227169155711,114.33165921140936,2.5877691406390952,-78.83348496201847
1000,-0.7083958256162864,-0.15585140272096992,0.6134750303156464,109.36411197565913,-13.504255899891326,-78.38754893272694
1010,-0.6306179182205736,0.06415298477325083,0.4102412520993595,135.77618560176342,-5.59550216292514,-94.15927761003186
1020,-0.8497107748008496,0.2459276546325138,0.1806209604131962,124.13797573771927,-9.592002977214522,-58.37791279263635
1030,-0.8415482224400229,0.3974026717816399,0.3032934022557241,106.14135363938365,-9.47290987954214,-30.01375250671141
1040,-0.7435655280471994,0.39365754410360193,0.3826486218364476,76.41984150587557,-6.862643808252203,-14.963591548665407
1050,-0.6816907343033042,0.4561970517592732,0.41836802530267403,54.04726820704928,-3.1888109310008383,-3.22895416485008
1060,-0.6871502688236205,0.5257110640436421,0.5095112231461455,48.980377833133424,0.8314497920077303,7.293908217078461
1070,-0.6327906053564536,0.06416102646034068,0.6070136466006074,34.98886104916572,1.277310209024832,-2.6946694202641615
1080,-0.6763323392143793,0.1437002774480843,0.5450513506067752,26.541827255253033,-0.17009664543519776,-1.6651854943821665
1090,-0.7066625996919753,0.13421838041434345,0.4653266426162875,21.795400784250887,1.2234831772136474,0.08490199724671488
1100,-0.698466694833156,0.1639217087999252,0.42536741953715357,11.923450011205276,2.6134680676187925,1.5921137577519344
1110,-0.690976530979106,0.1434564584154125,0.41999296442943673,7.758683367467146,4.707019753049009,4.041805775171342
1120,-0.682117684487447,0.055072728004597185,0.4695203431695308,6.500024707963298,1.195325393980873,-1.5845679636178516
1130,-0.6824166904844793,-0.020747075908474653,0.5234233039021896,9.505919380768534,-1.9745963728318032,-10.464237669245325
1140,-0.6516255845181101,0.1859707521421421,0.4902835166158865,6.6215055609734765,-7.863254859950501,-18.45176041059521
1150,-0.6659423611510452,0.24261640290881994,0.4827012878638901,11.765653874622235,2.369223564043456,-2.196675341390015
1160,-0.6738403634487333,0.1606345822221764,0.450699334578549,1.7291217768748293,1.0892313398015792,4.2399069421253675
1170,-0.6833958424276444,0.12506889256554157,0.42683457137717745,-1.0700720557265189,-0.631310055016989,3.834048349101333
1180,-0.6514734663865246,0.15697496241706768,0.4613360125780288,-0.5443850528447198,-0.2848180111032974,1.448972710880364
1190,-0.679253480467386,0.12345121491834812,0.43664410644093915,-2.649727864449988,0.020470321113619572,-1.822895139391735
1200,-0.6697673721930046,0.13445848455097598,0.43430320099750513,-3.811188624935557,0.6093260159465392,-4.429532089667582
1210,-0.6775872034811028,0.12519986881107964,0.43656756189822643,-6.347174590126231,-2.0260455039458733,-7.795611512177398
1220,-0.6882698436929185,0.10974007655479068,0.4338784831429125,-3.8228340375939185,1.0212845421682881,-3.4218906398291233
1230,-0.7008991358294961,0.09515851096795698,0.41607668938571823,-3.112950536158371,-0.07880599086732387,-2.0321421117167677
1240,-0.6673824240984706,0.13220555293252073,0.4461669818565004,-4.6537255688868635,-3.296092124986053,-2.4955648305957987
1250,-0.6577718308923185,0.142431733288809,0.45699621488081726,-0.9367858846286221,0.05140212331119576,1.6481247119356226
1260,-0.6687815455311741,0.13045529548165558,0.44943578377481924,-3.8388516819379297,-2.2338109186118316,-2.182318175514191
1270,-0.66284300615892,0.14811438322642662,0.4584791927496398,-4.515803277507626,-2.4060675430384233,-3.7299005822323017
1280,-0.667258236124433,0.13988477871892996,0.4484277067915944,-4.442574339683355,-0.8748907093478999,-3.024125176044296
1290,-0.6806071065981326,0.11173388677570469,0.43469666812995583,-5.9885681650513956,-1.9373651401228154,-4.236769264204399
1300,-0.6947751311207941,0.09684795636096734,0.4242757880079828,-5.905772884227481,-2.1728268603738865,-3.467253250537076
1310,-0.6685682223499916,0.12584154771685158,0.45424888877208097,-2.217000343137483,-1.1433152160539783,-1.799333709737829
1320,-0.6974196834443812,0.09647835705003513,0.4243853893310604,1.1575484551079354,0.2157437496369703,-0.5959914473242371
1330,-0.6666918904607008,0.12377483072338719,0.4493767714883068,-0.49443485211180377,-0.04515968901151621,-0.9483574061284987
1340,-0.650740220654995,0.1376440476808685,0.46413258648447425,-1.0392437746595238,1.130166225012012,1.6556118379354703
1350,-0.6681668864038269,0.1189397115861936,0.46008767312866755,-1.2857377803542422,1.4892658801342629,3.375521846262062
1360,-0.6598218672357758,0.124469010600722,0.4615149019563207,-0.3009748368017183,0.7918397146591513,4.7037778325764545
1370,-0.6752021317686844,0.11435204104888619,0.4467725359047316,1.5017212826325617,0.04339717549580069,4.2854387462479435
1380,-0.7207804130861141,0.0741755471585758,0.39905785285391243,-0.6367305876680803,-0.24621890025204607,0.12438354508845761
1390,-0.6666150317273116,0.12812111252065425,0.44842266178471424,-4.639860729137141,-0.042699350116943424,-4.152054782010383
1400,-0.6945749451342874,0.09632958128903865,0.42320505444902473,-2.3580230848433366,2.6388548226603894,-0.9406284522368957
1410,-0.6859332537222592,0.1062544932818241,0.4360022843312354,-6.932667151988542,-3.43208276294029,-4.739228975539213
1420,-0.685365747557646,0.10146186603175446,0.43090383587147396,-1.9592446836755446,0.504827540731345,0.9577104612151743
1430,-0.6461601256627718,0.14836529104966403,0.4672161017172964,-3.150278896017364,-2.472023933394431,-0.8565283746718714
1440,-0.6585286363229584,0.13842743110978578,0.45603464062812177,-3.539621949486898,-2.0060025873173655,-0.6344672122540378
1450,-0.6771415281522214,0.11811085908177064,0.43932480135122437,-5.425669696641037,-2.169763994236568,-2.0823678265182908
1460,-0.6934448094078494,0.09792101674301815,0.4261958867266325,-0.8902335431832857,2.2198281453406272,1.268335872101406
1470,-0.6701937349212018,0.11327221258381304,0.4567971871344928,-0.8942093944959398,-0.564137087452898,-1.0847461260639277
1480,-0.6677977671452464,0.11881826546931432,0.4539881265980874,5.191063108632658,3.246116180421362,3.102013586193027
1490,-0.6816601343311179,0.10631766888770003,0.436852734028665,-0.33776315911270305,-1.716354250927199,-2.155266233478124
1500,-0.6747911478781924,0.11492685407705529,0.4475976707620858,0.16033947448129238,-0.660003472940912,-1.5885940252524777
1510,-0.6877537975043132,0.10248910508341187,0.4303396377891504,0.9612544897870099,1.0758241238719677,0.3674831537383654
1520,-0.6760893739481794,0.11101090490448703,0.4393734266900848,-0.2729305336068537,0.3756566409632036,0.5498635286318464
1530,-0.6983585443569148,0.0811484342304756,0.4224063090350177,-0.5096212076593987,-0.29088264776346295,0.7669391763253651
1540,-0.6940047989564616,0.07794856225264232,0.42187235398908884,-0.3392255977761538,-0.7294753559696813,0.5294436061971735
1550,-0.6728464893573103,0.11826179289826622,0.44327332725580404,3.7879624746838663,2.076319604401065,2.9951741593570587
1560,-0.6687763436242243,0.12414636209627042,0.4479782709535379,-0.879372729804042,-0.9472552835237846,-1.3156924596110167
1570,-0.691138648149606,0.0984758122360484,0.42775577458437153,-3.9019525437226568,-3.4047987611597024,-4.419150810976122
1580,-0.6856604130238731,0.0992595575321373,0.43102765008757826,-0.4234733098880765,0.29112236425916505,-0.3985581395457213
1590,-0.6481755386494322,0.13609552247850085,0.4683841224784824,-1.3843526534004842,-0.8036891370642687,-0.3716573246961815
1600,-0.6881469088682421,0.10214605354296753,0.43673111205471554,0.4323838119846606,0.4842808029488964,1.9214377315934459
1610,-0.6622209928029625,0.13269922354475963,0.4639771497469883,-1.9557575781563683,-0.7308284986270592,-0.3141051987320745
1620,-0.6602023855002865,0.1331704334354112,0.4594302237751439,-0.7226777142610914,-1.4008440530097577,-1.8084836740668795
1630,-0.6547185474489827,0.1352454211800657,0.46161085465079765,3.3668620372440095,2.7071348887394873,1.4678463630380267
1640,-0.6916329053115535,0.09301174568920545,0.4269902911213024,-2.6556462603553994,-2.252502791861215,-3.5569026738899665
1650,-0.6612549612932926,0.12383469763807184,0.4606405738062933,-2.8720439060328036,-1.3179227120370678,-2.4007768041956274
1660,-0.6611640981935174,0.1273602156757827,0.460574877185961,-2.851047585625687,-0.9263987071644287,-1.632586748788726
1670,-0.6497947985608364,0.13607143529358307,0.4679617097848871,-1.251200936993593,-0.08398167466312301,-0.3012082610574453
1680,-0.675754813105883,0.11454820344617395,0.43975728145781773,-1.2193819642202288,-0.9760109686312284,-2.8708462701666604
1690,-0.6808269890014317,0.10455748780875458,0.43405732835931166,2.1734172466711503,2.0336199112206277,-0.3073543588795622
1700,-0.6639020646556388,0.1159428441668677,0.45191360443140355,0.9833986225323945,0.6364856587761549,-1.6061362689799275
1710,-0.6451412671318546,0.12812973077266682,0.47233490655551524,0.9730707122558253,0.8681209953529383,-0.6657595183121399
1720,-0.666425197075635,0.1094121782234902,0.45515900284586724,0.5358459455419886,0.8784887745532697,-0.05024541675806227
1730,-0.6701686476641812,0.11398801997380668,0.4529889963821498,0.7827195518608345,0.6832756363066279,0.25913011675016695
1740,-0.6823177137148594,0.09544593320718385,0.4297842072090598,0.7376574461789283,-1.655122554497839,-0.756240966652057
1750,-0.6720527993087401,0.11181396100007479,0.4403623752823435,0.5160450991746615,-0.8668519929469556,-0.2868851235846095
1760,-0.6616598153568447,0.12318336045245046,0.4642924765979591,-0.3461692552200073,-0.23054015290201732,-0.3954252444829788
1770,-0.6848941064775197,0.09376323873619886,0.4345472736128517,2.3516219716991253,2.230260044059679,2.852138674691402
1780,-0.6734786836775531,0.10758083198819479,0.4444801113614788,-0.6665154076780417,-0.6416069878523343,0.49110901209809166
1790,-0.690706603654514,0.09847124727890182,0.4271445672934756,3.860815508916633,5.432859662090745,5.991802271634948
1800,-0.694975397434866,0.0968086509963815,0.41669285013167273,0.44916170458984706,3.7045167525093436,3.2125562853527776
1810,-0.6797291201777418,0.10763079869183699,0.4432290781717092,-0.9691120912200382,0.9344165746025042,0.3203442919325976
1820,-0.6828828567925231,0.10205200163625722,0.4402608465079905,0.954378315172965,1.702736892627718,1.2660236321219345
1830,-0.6810835747725407,0.1059392001652164,0.4395317583871026,1.6776341569841908,0.6919768822536181,1.19141188733863
1840,-0.6595748908354693,0.12514675157830174,0.458887068228502,1.2721802115004914,0.25040186480859494,0.7545205197896835
1850,-0.6588890001137951,0.12234997209733471,0.46008941545708554,-1.8896893954287295,-1.8871306249743642,-1.7108308682783315
1860,-0.6930410046242138,0.08600536304998369,0.4288033236357523,-2.5850472906286153,-1.5863970957863578,-1.6884333935981657
1870,-0.6238836228302337,0.1560413933440737,0.500299465758789,-2.033286601482594,-0.6718454920514879,-1.0710783294436257
1880,-0.6650100208765718,0.12670724464219468,0.4570162202951823,-1.7589162370109566,-0.41756066603177266,-0.7398137398666484
