time_ms,ax,ay,az,gx,gy,gz
0,-0.8735394951039472,0.10425590134606803,0.13132031106341455,0.7453998209825013,0.15437107704691544,-1.401033043483717
10,-0.852851685353952,0.1256066531192117,0.15378083035217044,-2.254425940484815,-1.0740243734232418,-1.6331766718882483
20,-0.8629789725958539,0.11282990423143148,0.1511477910731386,0.8301799411997366,0.5845544352826575,1.9612996001857799
30,-0.8929912092724848,0.08674165389652726,0.11181155073088324,2.5757819283048438,1.8422609282483902,3.0071308661503786
40,-0.878278019717496,0.10770780221452256,0.13782431278745608,0.27541704029551006,0.22709858933772548,0.9764734168029359
50,-0.8821229252285089,0.09772640526924854,0.12826326663398993,-0.5377663208139695,-1.1670798720235456,-0.617077681091827
60,-0.8800628942801673,0.08432867890202936,0.12887005356891537,4.6601798263155905,1.5841436845510564,1.5834406482039514
70,-0.8567766481994376,0.11746300531328732,0.16086598512022096,-0.7235347648392404,-0.278869679648053,-0.3851727128344129
80,-0.8661538862258917,0.10628783548789739,0.1457959109255146,-2.1115111631459755,-1.7263879196742722,-0.5176015113699934
90,-0.8736504783665915,0.10464566950172477,0.14235281205441885,1.434684100184273,0.8065268290995274,2.6906169381899856
100,-0.8646604987091724,0.11830035171338668,0.14635639434366948,0.3788416177040035,0.14064563930034008,1.0966387416273053
110,-0.8373591799445839,0.143806033250911,0.1744805631219325,-2.89936616272895,-2.3861896055815133,-2.464248613959925
120,-0.8604622796039111,0.12183091437939046,0.15162131519815739,0.28133581835318755,1.6687858917473881,0.26981267635792006
130,-0.8751845042088504,0.10661297453906779,0.13322080975472222,-0.7282221918553213,0.15022179704069274,0.4306125909956052
140,-0.861425107437377,0.12046973605267057,0.15084554706220005,-0.7605408794458263,0.6961557242646652,1.4337564311357747
150,-0.8512693586405523,0.12320104608048146,0.1593963870687111,0.6118433730786038,1.808983722720176,2.9572563323705223
160,-0.8592517357879194,0.1183492893139945,0.15003224599339848,2.5194435582220716,3.546228666679527,4.695860368506762
170,-0.8735600728801608,0.1087917235537615,0.1368998574401569,0.12546490356204212,0.4377618458243321,0.698144520448398
180,-0.876990738903545,0.10788167827210217,0.13399312536212993,3.986948053579529,2.928834073725665,2.133299786747516
190,-0.879975157544304,0.11272177261858118,0.14156924081835964,3.8114249774164484,0.4042708501848441,2.5833018164890573
200,-0.9042307771753253,0.10601965513596054,0.13210426986691487,6.234235497368506,-1.560509666107997,4.965856900909866
210,-0.9222945907943004,0.1515579978092219,0.1712339142892187,5.365057514991175,-9.546472016884508,2.156782657504368
220,-0.9821627155367512,0.1710215664180259,0.1473611686514563,3.6022011788491604,-13.748198239421146,5.80226157900308
230,-0.9828162382540301,0.15316260019736527,0.13241798701484478,-2.8669690068146743,-19.823681193110268,7.437995370287857
240,-0.9077844139728939,0.17175861989936578,0.15767259589131177,-4.252391686397258,-19.89945761365912,11.489163913226676
250,-0.8098077675005427,0.24326470638577882,0.19699407298309463,-24.005997612533164,-21.679783480931494,9.877052059481443
260,-0.7771754474740257,0.18792982514376516,0.18308317616232622,-41.85182048579288,-18.676879770773834,8.336001273276704
270,-0.7412512834641316,0.15652147491702828,0.19934313523806216,-40.614516679560055,-13.03960277111422,4.89577575382468
280,-0.8300338342673921,0.15728416781161203,0.19229073549822787,-45.011575656520264,-13.549768414384182,-2.5513145016632475
290,-0.8579959029939102,0.23559662993690805,0.23281832995047194,-53.067216410076625,-16.082640253881536,-4.806577496778186
300,-0.8530302973024741,0.19148504221061233,0.2190359755028271,-61.07002751919723,-19.533891086182425,-5.181551976587413
310,-0.8359959458296743,0.05898003798596184,0.17768497919514425,-51.32260318308887,-9.588000830748983,-2.8624868294053303
320,-0.7875542302062131,0.03398104410279278,0.15294032093686724,-40.98449331456344,1.6010990748701477,-8.297956749169883
330,-0.7964775055983349,-0.0006172753608184797,0.19285104978666054,-38.70295130769767,3.579270705830461,-8.275293952322624
340,-0.8577497796121529,-0.00393830938427322,0.20194199237810898,-33.7469560882844,4.735211946303025,-8.635153905913281
350,-0.9301053171086802,0.001189066946083733,0.21145065058688678,-27.141679469183266,6.808884591373516,-5.421517959211495
360,-0.958326145205881,0.003677750451426964,0.1734683670655012,-22.031530368933137,5.913346672501833,-5.8917467436631
370,-0.8674339678755567,0.04669577908214094,0.2020129687385728,-16.792647434777134,6.360095328687123,-4.36860298527683
380,-0.8609462780385387,0.07154087816430885,0.19214797784893817,-8.242162934520374,16.95097742247833,7.542452893191866
390,-0.9860374178753856,0.07356490143191716,0.28326150467805256,-7.366832794440615,10.490888831833155,5.4220043838262155
400,-0.8994887660487301,0.08544538655001498,0.1916961809698089,-2.317278823677671,2.7220595208311833,5.1549850054149235
410,-0.8196625589669634,0.12381971041373892,0.2220528742919747,-5.433383180490072,-0.9237844289002356,-0.9832738927720479
420,-0.8874616064046152,0.08420780145827136,0.16612880260844487,-9.792845184396755,2.472194261367954,0.8008710449086736
430,-0.909078841119085,0.1057239629896798,0.18323046413429794,-8.256621974337872,1.3829636120646103,0.4919446861233521
440,-0.8589320035718678,0.0818085698925881,0.22282569660594861,-6.5637886074421194,-3.7818377401317047,-2.591140448934683
450,-0.8620931091136167,0.2226415438875522,0.25248008313206965,-0.39899892285260496,-6.953623618639613,4.341871329144537
460,-0.8643293346761617,0.0497065908173278,0.1603708798399175,-19.30528125524948,-1.3799123207612785,0.9236162936742316
470,-0.8720001724396726,0.10276740700577823,0.3018776679735597,-6.1062468324637145,-8.628149510209195,-2.4567864678311557
480,-0.8212746390795383,0.07649170196318542,0.1372283486583941,-38.615930473177464,-6.768462642627549,-2.3788625468044917
490,-0.8645595043102928,-0.03312031122824597,0.027868357221405356,-42.509237874910646,-10.114934767340943,-6.831808199076859
500,-0.7644368965193804,0.16423198090953972,0.2135888663170546,-8.8691925908516,-17.420390902820138,0.8350903059046424
510,-0.8449825738172664,0.13810033792631804,-0.03682861573360333,-12.432164584783536,-11.507666364467642,-1.194131579168551
520,-0.8512628114740514,0.0840860069812065,-0.13470064322468783,-22.03816420451533,-10.221486128661212,-6.845130936624778
530,-0.8755000464483584,-0.043932821347612734,0.4386754004927518,11.677039118903178,-21.07723021628702,-4.518200776431939
540,-0.9149940966842387,0.04185529271978156,0.16398052790801348,12.798839582192846,-8.694719985553313,4.316033368195184
550,-0.8599526136570141,-0.004392975036919491,0.1047608262797543,7.520882135292769,-17.484902159021967,-10.241388431042424
560,-0.8530250020149842,0.10440044158362266,0.08726020346623611,22.419311594279,-10.301083008935738,-0.1714032011167217
570,-0.8400183685955614,0.021616763998743634,0.20345613772593382,21.20753902911127,-10.658335379895023,-0.792345652402085
580,-0.8957068977159844,0.05455926967603546,0.26932245747370887,13.533576489467421,-6.864050671300149,-0.6901973827678434
590,-0.9002901752424136,0.2140026931013257,0.12299648052292199,10.064539386599286,-4.031867544125311,-1.6427436868645475
600,-0.856268119588278,0.05197091129273538,0.31314209540281124,15.549071562841629,-6.458797020754475,-1.1425096498318854
610,-0.8600427198630229,-0.11145558161300799,0.3926573261682092,18.89897037943138,-8.45163054598929,-3.269906098978102
620,-0.8889346848759432,0.20800246782106083,0.30181268719857507,19.342818515841746,-4.163275307741706,-2.823288741656194
630,-0.8866323224703592,0.2209548121266705,0.1612024807382885,24.16147559316724,-0.7518944873663207,1.4389238835499716
640,-0.8510338908270738,-0.0005336959996515038,0.26258850183209753,12.523320596705384,-4.974417545619714,-6.889502540720786
650,-0.8155499596788924,-0.07764151795590037,0.2207827933887419,33.741960302858374,-5.558967487736527,-7.96519445828151
660,-0.7881863637656633,-0.06598380466663482,0.19959282693251532,40.00184809279989,-5.859508490647391,-5.084642316491383
670,-0.7978583300526864,0.018886884517310135,0.3080577649700925,26.55633735321361,-5.253022211646251,-5.562871454103714
680,-0.8568151302943352,0.0030338970475730772,0.31729673472755415,13.633534938982855,-5.7801023416410295,-10.754166585173664
690,-0.9137133997514943,0.009041960775956107,0.19992241276640713,23.803913082032228,-1.0151130435768891,-6.607543367581783
700,-0.8723206943605731,0.12055333666539471,0.2196159155312318,26.403294485997343,-3.110144440087484,-7.54057633727488
710,-0.8644399030369653,0.09532755058181512,0.34237187108556655,8.558094077940387,-0.9675720443112925,-9.01818355270786
720,-0.8939575809548249,0.11067899358470892,0.3569016028252412,26.408641420630982,4.913289894584695,-1.7704746798840492
730,-0.9089661212402178,0.18729651534079717,0.3043218100603809,33.631944940222084,3.877170830062761,-2.4966622727143277
740,-0.8835173855460432,0.1617567979618374,0.26942441006999124,8.391934568013518,4.9296106837410525,-8.133777504465645
750,-0.8791455298197928,-0.004807949070495133,0.16369153023493466,12.319598976582572,5.128136779938494,-7.6580468559810235
760,-0.8435059228947158,0.04859771852111133,0.12640652948212067,9.033455208575344,0.14045668658642319,-13.001063179556311
770,-0.8638788886717401,0.06235307544468462,0.17614724724871816,13.77338664583894,0.648187869318998,-8.128002780706703
780,-0.8984096553891292,0.2255376195505527,0.12339242787743891,2.9953194008211903,0.7243773435061667,-4.176983739230422
790,-0.8638548549638245,0.08792476033645627,0.164955315360313,11.424046457483978,4.756422108399499,0.6434489979311712
800,-0.8827225493924797,-0.015961154462132157,0.15430086054395017,3.5965081056606607,9.011077069746317,-0.75257838580656
810,-0.8645017900002714,0.1970721182235009,0.19611977588405966,3.2807630777073413,7.105042536086171,4.05137270351484
820,-0.8377320441722829,0.17035232665181801,0.24463305873159416,1.7897246607438162,7.302602038578464,2.797597114526675
830,-0.8602745446733395,0.01335816212299385,0.25070729722833673,6.14928910837984,12.08665675955618,3.769763759934623
840,-0.8554104690348118,-0.030593252887489528,0.11558073100063047,4.971333720341979,14.609048770560292,0.4734954760768546
850,-0.8542135138043048,0.06912550872168981,0.24804531184044287,15.082452154098005,12.94357500560737,1.7958880852880645
860,-0.8509613031209702,0.11846285473236295,0.2843257679088689,-3.5467931528623806,8.781851978546857,-6.416388159286634
870,-0.8532871454085736,0.08157286131411157,0.2592853297774764,-0.26264354980941906,16.379129537689163,-1.1885302651494913
880,-0.8524446540222917,0.07078441288469631,0.37358084098160305,1.1163702103821451,16.508512816825565,3.5431352595489063
890,-0.8601451242342285,0.10908896146586775,0.32025558366183116,-1.7969882037355047,16.01609632932524,5.621529117747434
900,-0.8511020357883611,0.1885910850225154,-0.06462171687837473,-9.372278225669552,13.607224218939866,5.790048243242715
910,-0.8386123960130434,0.013316355007868692,0.411969657638175,-9.62657821811923,22.910898074041846,1.7957634928088786
920,-0.8454715669490197,0.1933895367989658,0.19265600372410363,3.5700286299333746,8.842206359892284,2.4833054353663346
930,-0.8683240909732893,0.16866618335068514,0.4024515942415657,-7.276225024256414,22.508226715932544,10.081945181384594
940,-0.8745216346376152,0.025615814979637507,-0.00580128934915165,-14.468316491645993,10.710928744389438,0.09267282383663744
950,-0.845961614769625,0.09811583425508844,0.16567895451877104,-4.2377795475346645,7.261604048206648,-2.766233351171324
960,-0.8463580603406032,0.206444543671303,-0.0023908786848827685,-8.080408967538043,11.587517425938623,-1.998986780567002
970,-0.8713959375570208,0.13050206486432908,0.1973663750193931,-6.941930416911239,11.856885212675365,-5.309548620962228
980,-0.8670718698008025,0.13253397262727817,0.29677476860810875,-12.430681550865632,21.9700003173654,0.9208374745252563
990,-0.9687387376769823,-0.10577580137316764,0.4072932588116409,-10.622765518711898,9.435660686754645,8.995919520441035
1000,-0.8545877747051916,0.33003948384056864,0.06151343053165777,-0.0848832638362984,7.803306276025096,11.16698575099894
1010,-0.8664301031584594,0.032950283875099545,0.2149932912413675,-18.87947209260702,14.24337603317238,6.425096384424848
1020,-0.9159314501787569,-0.03322228539919542,0.4077500993656065,-12.015195809092026,23.19253282102114,20.096387528599344
1030,-0.8971704627830902,-0.025694623286962676,0.3382533509617989,-21.134595639381736,22.042713658151328,11.952173765205467
1040,-0.9311251000856474,-0.01831670995791898,0.37886899100532057,-21.416804699721837,12.982973526605361,-0.0054616273321485
1050,-0.9451787080223941,-0.16172564526336264,0.4007797995668621,-6.358820460846566,12.921371339928516,13.277808469566075
1060,-0.9885669070216228,-0.33750302005773786,0.3679642621802038,-26.605044094856492,14.930773829177783,8.221030001706394
1070,-0.9139370770097449,-0.2552965986463325,0.19915301623517756,-25.048129850232662,6.38682497670336,0.1422928715393056
1080,-0.842147337217607,0.09889385848348821,0.14029253753617615,-16.64732213675325,5.027471123327748,3.823639649808084
1090,-0.6857180782424838,0.5365273358490543,-0.028048754106488227,-16.69420470135509,11.839943274534608,16.30522960751889
1100,-0.5318795731657784,0.8223694215099067,-0.26687803977781926,-28.07962120602271,22.839257092850126,27.328746775181376
1110,-0.7227699820009503,0.41952301655700713,-0.1059524502201513,-26.82434875578737,11.335506766611081,7.328882712915503
1120,-0.8347622695633112,0.17323337457317023,0.105949692429948,-22.97858316640188,4.819692254198094,-3.2862985928797523
1130,-0.7759939134517476,0.38361407751417975,-0.09393710706613595,-21.103086244652374,12.098317125272104,8.48419040237688
1140,-0.8468494143981339,0.14170248115687648,-0.014201004095557555,-9.652791614278598,11.515747737294552,5.3185149852192595
1150,-0.9079430020070653,0.003765277596424043,0.15707959171514194,-6.049538088030136,4.725073734583262,-2.8720503176834677
1160,-0.8694157285769293,0.10997988329672946,0.1164382298248161,-9.632467571497108,-0.7277630136384956,-2.748327751334347
1170,-0.8808189090258521,-0.05434052297409457,0.17328677677784024,-8.489948465909922,-1.9689381219747593,-3.7626592634847515
1180,-0.876020578763554,0.018356913349021342,0.16922501133701892,-2.0995994213375324,1.6798847026272234,0.8188552386957237
1190,-0.8785501393629206,0.08863475082831672,0.12503525944736685,2.5233137848762284,2.8535949460941863,5.703850843615192
1200,-0.850898329471607,0.11943900155742165,0.13272813148920615,3.3839671066525954,-0.36179274943339335,5.363768592378407
1210,-0.8759679516110294,0.08916590544645353,0.12696108568013964,5.704851881100236,-1.4112727544209345,4.031911762923576
1220,-0.8816058167544094,0.04923421563152071,0.12863026351927312,11.733337912797356,1.960950971661238,5.349715493701458
1230,-0.8978380460137974,0.1578118663991152,0.16247055729026444,21.05183975243548,1.7899714841988035,3.6883562273172137
1240,-0.9063396096739302,0.43165948678511856,0.22959704430988354,41.526565898313024,4.863953251923494,7.047863801628596
1250,-0.8870149678618467,0.10744882985148536,0.14107293603392795,38.69949667932716,6.139369824512913,0.890718618203058
1260,-0.9368872414379609,0.161228648571261,0.09694461354191378,35.29559579462617,1.3871951652064196,-6.466733496747324
1270,-0.9294406239645573,0.11708910652659768,0.023353987430557874,57.12202688381975,2.4942049127754844,-1.251364614126644
1280,-0.8763367247299303,0.5231997566611304,-0.0486677644477386,54.65515416436893,-1.0178700302509842,4.064644312464289
1290,-0.8661100762099957,-0.0335003604810849,0.020737425555713715,33.14250287579181,-1.0855733202126938,-9.024671227833451
1300,-1.0257825842368593,-0.06657655440091727,0.21115365800971808,64.66815451070848,-3.3370573939035717,0.45941157185833736
1310,-0.9692773455983564,0.40706050130577953,0.1620673032794234,33.70030156214129,-8.155654845731705,-4.851828996777902
1320,-0.8853454255497931,0.33059621541092576,0.13441215313860258,18.981088394801546,-7.400776317636073,-3.2920460267549227
1330,-0.891250613014393,0.5515163262995064,0.1501259577706412,47.48773755816331,-3.3361466222675054,8.82896001476214
1340,-0.8173292463906991,-0.20451469260783797,0.1773433885859969,57.3550755288334,-6.758382505242233,1.2346671712879058
1350,-0.9517469656562105,-0.4107468548706778,0.13020498659749513,26.982247583025696,-0.04983035776654643,-8.704937073088782
1360,-0.8860984589369194,0.19693633463349192,0.02009537357386563,28.098642600586707,4.467600638094731,-5.085490187680532
1370,-0.9547190339214272,0.2910644646890106,0.22260309934552708,18.859778251766095,0.9982965549404814,13.24416022403634
1380,-0.913535268202507,0.0952672281161739,0.13784884682556517,7.159694831512574,0.74706449526112,3.0646353225018728
1390,-0.8777586810862907,0.31179240091146576,0.13221023812337956,10.834159189796324,5.449020880575192,9.427174435692702
1400,-0.8362757159406943,0.26274502719168447,0.11799813318360895,-1.5574780841723626,1.5750814674148348,11.45358227618846
1410,-0.8860651761478797,0.1035716575033896,0.13160009786619828,-0.8439333647445313,3.8203109396302395,8.525007048374826
1420,-0.8754655714234084,0.10802252921280289,0.13555529741192604,-5.148444922087964,-5.3391839008178525,-12.239912274084062
1430,-0.867713572872861,0.11563214283278075,0.1343795383000023,-5.18514083449357,-3.709677886184068,-13.520095639151824
1440,-0.8706794395809834,0.09632185190673224,0.13220980753724287,-8.63101356787695,-2.6697044261978986,-13.039906480129932
1450,-0.8608148701240074,0.10075057969743838,0.14854332501402934,-9.733709349773811,-0.8459124186970628,-8.009322942297727
1460,-0.8898653684776673,0.07113008600950461,0.12326303415508802,-8.481838802517329,-0.15378092927045503,-1.714263690135996
1470,-0.8758595754694413,0.07824924780029421,0.12543252315760095,-1.480708920049166,3.1456900118835,7.5807708284838
1480,-0.884827580986043,0.08774964343804051,0.1172818829822226,-4.355651841617041,-2.0043830264747697,-1.1049220172538905
1490,-0.8442545324763443,0.13969336746657807,0.15764914874691452,-2.797010391891225,-0.5273179848769677,-4.044999238117284
1500,-0.8809999571004052,0.08583970230024308,0.12358018093322433,-1.6673761339964392,-1.585293221286842,-5.611309187846976
1510,-0.8480863536395828,0.11440528519887284,0.15491659360322907,1.135746910560672,-2.9063805315921987,-4.653727498963727
1520,-0.890970245731983,0.07556540820084226,0.12175566800578627,2.1584982320107633,-2.3481918909912634,-3.856341123546603
1530,-0.871841401962813,0.10184655074513994,0.13690876927831844,0.03316535867437487,-3.118468907899392,-5.793274602400615
1540,-0.8450663530328084,0.11359333071082768,0.16195658647051445,1.8260993591411758,1.325923332648699,-1.1600649424514073
1550,-0.864968047380791,0.08225779395061154,0.13907655023308071,-1.2169110699905679,-0.6328335288791624,-0.8521003932248612
1560,-0.8695364592297112,0.07787727031027461,0.1349155762696888,-0.33486535222356806,0.4385536517337441,2.13079042055834
1570,-0.8565942553347718,0.09551600610499833,0.14782348774971601,-1.2455685467389872,-1.1137067458205876,1.1570062879818144
1580,-0.8701210910082663,0.09441913342253375,0.13340131787932874,0.8425865520227065,0.7371942187795558,2.018175922969921
1590,-0.866754102794057,0.10400696323667274,0.1406559882704635,1.320174098323557,2.536841398374334,1.2040042842864906
1600,-0.8830717000655928,0.07520778446153603,0.1261516013623184,0.4675474312018131,2.224471959241279,0.45591718595537145
1610,-0.8852564799663112,0.06146549911196199,0.12348619974236968,-2.4186470901790473,-1.4478517240269553,-0.882408312260555
1620,-0.8664109805914019,0.08296368776569245,0.1423416416426843,2.9720173953795253,3.1675934302886355,5.343648946372027
1630,-0.8607227139550047,0.09625456025955102,0.146035965609854,0.8745258318627835,0.18946093509278206,2.94893848154991
1640,-0.8551454003266912,0.10082029707065719,0.14678542536955808,3.8414973819616796,1.410319011617696,4.883709718352366
1650,-0.867734074616741,0.09051744373624819,0.131920931495889,3.619591121818237,0.49592715075605953,3.801338608673194
1660,-0.8486166194747384,0.11562476359331317,0.15414005918855586,-0.4280021802812209,-0.3325141919606065,0.11469474208542196
1670,-0.8529112989512905,0.08845953053277943,0.15198127948334042,-2.651851667190659,-0.14884607387869575,-0.8090268967872261
1680,-0.857454595212002,0.09356693217166973,0.1500264699635726,-0.5282616688844186,0.09291113066835943,2.6152113235772534
1690,-0.8794771094658991,0.0902315823293612,0.12641829584603526,-1.2420150562045356,0.01906310309773862,2.763804947760418
1700,-0.8770421211431145,0.09559584947732364,0.12937805315186543,-0.9236095945314122,1.2256103911997331,1.744217482271653
1710,-0.8816965148186977,0.08358238013133812,0.12429671210516788,-0.8323118712822852,2.1359762460615017,0.5499467475343098
1720,-0.8906404790265334,0.07138132518435239,0.11353786092241105,-4.988949666789623,-1.7691137235176342,-3.514023250209452
1730,-0.8728427816475723,0.0846634775109315,0.13582167579883186,0.30130012884632906,2.084312746610742,2.2123650121935663
1740,-0.8993465340526642,0.053322109946253776,0.11102083599471332,-1.3497097135760239,-0.7318655405148876,-0.11134267255988961
1750,-0.8694520987334717,0.08332875123747083,0.1367646518742853,0.5432030597327523,0.5729480369407637,1.5422434756654195
1760,-0.8878492196543833,0.07070218263616228,0.11913470906197862,1.9411803397108787,2.7323529572047898,2.7210377071363308
1770,-0.8638052433170423,0.10841852652509065,0.1394690633230187,0.5072187140782507,0.9626157047950341,-0.17978166600995238
1780,-0.8790794414335711,0.0889575035667976,0.12565010909117175,-0.4842717089062497,0.3781181561118139,-1.6164968504722963
1790,-0.8487667757662223,0.106876002708326,0.16156170094455316,0.8472193959317241,1.9134376427289324,1.87302432458072
1800,-0.8798828206772001,0.0818050525234072,0.1218954663073973,1.957829349565692,2.427254782296034,2.239061878787247
1810,-0.8813253392259215,0.08635555331323833,0.10821620482062014,-2.310061366334809,-2.371348800712167,-3.405543536375683
1820,-0.8754516704847165,0.08475032924048559,0.14514053855597156,1.2294113901159722,1.0901349353091099,-0.6584398573464605
1830,-0.8776092676808724,0.08085499877777493,0.12874567679542037,-1.9050057853243723,-1.888661577564073,-2.6968227392711803
1840,-0.878269563704155,0.0701889361554681,0.13063651785812486,-1.2144148061512885,-1.873251131356393,-0.3722588328879872
1850,-0.8962638006501075,0.07762304386986973,0.11555491809730908,-1.133234631487641,-2.03493561102405,-2.7594601684634146
1860,-0.8761976592419417,0.08608951236269954,0.1420057333039054,-2.167772143420241,-1.1875693807918344,-4.55529184270694
1870,-0.868601530560136,0.0853025751735771,0.14599469145772642,-1.051379879676705,0.5384877138417918,-2.6320759241881984
1880,-0.8448957324061452,0.09493373565603902,0.16668102325320738,3.7804331792970762,3.0067710024046557,3.031847791683929
1890,-0.8844706843355581,0.06761929799494858,0.11845425255419001,0.9573767854911828,-1.5539379351944107,0.9921039268560969
1900,-0.8671267998757938,0.09454425252456077,0.13575087527669244,1.1668198342297842,-0.06666715966781175,1.0597018593018168
1910,-0.8842326591020009,0.07276870139738116,0.12449433775127755,-1.7149370380000741,-1.100097749972987,-0.6827701433119784
1920,-0.8604994122307877,0.09115338968525463,0.14475461892541588,1.040949628098569,1.4971022677196029,2.3690368717473684
1930,-0.8301035763591504,0.12109931985243565,0.17187247796655836,1.6425336582351266,1.8752978966740401,3.2668511150786497
1940,-0.8834064821890248,0.07060877671261098,0.11810412220396398,1.9835618513820852,0.72111517497048,2.961813175073607
1950,-0.8810459637096187,0.07981647270821479,0.11654629629203002,1.180906345911449,-0.7930327996529798,1.059842684320532
1960,-0.877474569280504,0.08083372099706493,0.12923316905419693,-0.1869430775263783,-0.7851853045725704,-0.47015119538723077
1970,-0.8731268438112079,0.0846822010295912,0.1432910765585299,-0.0424148086056394,0.5501085439648877,0.12132582358158855
1980,-0.8730579221240412,0.08644083811640395,0.1393495497843087,-3.6796387356274742,-2.9596526473781806,-3.043350794379825
1990,-0.8504474514361555,0.10673339499841913,0.15201884003882882,-2.405687770132448,-2.9714712771993637,-2.355707034164884
2000,-0.860540645804852,0.09551973790776037,0.1466188042527601,3.331888513364623,1.4496672644551603,2.807974205127289
2010,-0.8272715892721735,0.13312261896593525,0.18752244467093995,-0.5391287482352457,-1.5487875496779906,-1.0439462361870198
2020,-0.8547250598869232,0.10340831260886862,0.15486186049335665,-0.43970123310671044,0.0005697619331561654,-0.16461226984165467
2030,-0.8683613923945254,0.09135294908391225,0.1361568755162589,-0.7670752385690284,-1.0388009893214565,0.009295754817585378
2040,-0.8553017091836128,0.10824747773678399,0.14928884604438655,2.709585740483137,1.2360977638123316,2.9297020219177936
2050,-0.872095958659365,0.08821122314551491,0.13168832577355874,-0.21853214111249497,-2.244253414242795,-1.3610913336355246
2060,-0.8570351235831765,0.1010463023886623,0.14660794853504172,1.8041891294164254,-0.019567583738444083,0.10877197921785492
2070,-0.8639964640030315,0.09380853970455981,0.1404288596288955,-1.2251664021234925,-1.901566017743427,-2.2225883224790817
2080,-0.8602617275733755,0.09802527401720348,0.1458616829494243,-4.070811820221727,-4.161400119636356,-4.422869096539838
2090,-0.867348414606073,0.0939786061860662,0.13728962390457225,0.19852331680169572,-0.026145820254581967,0.6669977675124099
2100,-0.8674790564927934,0.0962658620605211,0.13616476675587283,-0.6653007903916744,-0.845427811295463,0.29962952215898997
2110,-0.8572281317422484,0.10825385914061558,0.15263028626602212,1.1317163433998436,1.1462459732423522,1.3098419454987236
2120,-0.874324894156353,0.09101378267231792,0.13356216726029946,-1.3580813354019654,-1.388342014103248,-2.0816040930390796
2130,-0.8686611410199182,0.09194390079033567,0.13951314227433143,-0.10919169313514188,-0.8966950654126304,-1.5395862810907728
2140,-0.8616703222631588,0.09519649104965079,0.14960673906072688,3.3995315840114966,1.9650034816954962,1.6248201443930022
2150,-0.8445877540595157,0.11173617577361686,0.15576407975846626,3.065413340961243,2.02608346606619,2.2835783187500867
2160,-0.8734007754469221,0.0819756133735171,0.13207576179708433,3.145299850051339,3.581385167231951,3.769803008759372
2170,-0.8824416363152694,0.07604571671921571,0.1289496323429154,0.3140020456644875,0.6293216299394916,1.4951615634662034
2180,-0.8591863709620754,0.10473515033179227,0.15578790401955084,4.404221869563738,4.679137466074841,5.47035852362708
2190,-0.8669016872035181,0.10059755388015762,0.14699885062267795,2.8053383474897142,1.819750847197086,3.1446924001177665
2200,-0.8882225236348364,0.08197120507047805,0.12349344101854852,3.9989477741243897,3.616997000067186,4.496009225524046
2210,-0.8762840240095169,0.08943159610267004,0.1305377297980375,0.8669819019069631,1.3431476266994773,0.7835439851418717
2220,-0.8898274632536327,0.0759295340816441,0.12204070857753915,-2.4516545833432737,-1.3530045594048086,-1.9836438703624015
2230,-0.865618402522946,0.09419530287946247,0.1406084929967302,2.1277571543457983,2.514321617473392,3.092685774313821
2240,-0.8740015642667521,0.08081514381661689,0.1344647817718772,-0.8336491441401728,-1.6595346592857725,-0.2685422894050815
2250,-0.8947226226789411,0.06826481062978693,0.1138765643402791,1.509149050560998,1.298698570245588,1.711103371810565
2260,-0.8444659817411513,0.12061951332922656,0.16294637832397632,2.432941111638529,2.194521794975791,1.860277604304192
2270,-0.8745388304705712,0.08967075391990051,0.13072023884445375,0.8049087049122172,1.1859888795356952,0.8700998241207036
2280,-0.8823646567472362,0.08244376177727382,0.1296426855538469,1.0502652082010344,1.094573866647905,1.3580165246120977
