time_ms,ax,ay,az,gx,gy,gz
9,-0.8098,0.1098,0.3904,-0.662,0.0715,0.1459
22,-0.8057,0.114,0.3811,0.4831,-0.4933,-0.1137
35,-0.8037,0.1006,0.3887,0.193,-0.2185,-0.1747
48,-0.8135,0.1069,0.3885,1.5518,0.3769,0.8787
88,-0.8105,0.1194,0.3877,-1.2421,-0.1727,0.955
101,-0.8091,0.1135,0.3914,-2.5246,-0.0506,0.1611
114,-0.8013,0.1123,0.3885,-2.0971,0.1021,-0.3427
127,-0.8066,0.1147,0.3909,-3.2727,0.1326,-1.5641
140,-0.8086,0.1091,0.3858,-1.578,-0.4323,-1.106
154,-0.7986,0.103,0.387,-1.1963,-0.2185,-0.9228
193,-0.8074,0.1113,0.3894,1.6281,0.2853,1.0466
206,-0.8022,0.1145,0.387,0.6663,0.1479,-0.0068
219,-0.8066,0.1064,0.3894,-0.9063,-0.0201,-0.7091
233,-0.8071,0.1064,0.3846,-0.4635,-0.4323,-1.4572
246,-0.8054,0.1059,0.3877,-0.6925,-0.5697,-1.3656
258,-0.8042,0.1057,0.3904,-1.6391,-0.0659,-0.9534
298,-0.8083,0.1072,0.3897,-0.6009,-0.1575,0.8787
311,-0.8198,0.1069,0.396,1.338,-0.0353,3.0314
324,-0.8406,0.1069,0.4036,2.1472,-0.3559,4.6802
338,-0.8269,0.126,0.3982,4.8495,-4.2338,3.581
350,-0.7766,0.0525,0.3894,1.5823,-6.8445,-1.8694
363,-0.8186,0.0918,0.4224,5.8418,-7.3025,-1.9152
403,-0.8408,0.0454,0.5003,-5.578,-58.6765,-2.1747
417,-0.7593,0.0085,0.5469,-11.0284,-67.0735,-13.3045
430,-0.7124,-0.0193,0.5677,-11.7002,-76.9972,-19.1671
442,-0.6321,0.0837,0.459,-47.1353,-79.5926,-25.8694
455,-0.5967,0.0271,0.4353,-91.3795,-72.6613,-30.8465
468,-0.5161,-0.0474,0.5103,-4.4788,-64.9819,-19.274
508,-0.6709,0.2634,0.3221,-120.937,-37.1498,-38.877
521,-0.729,0.1863,0.3516,-91.1505,-21.104,-17.4267
535,-0.7312,0.3432,0.3453,-41.3795,4.2089,23.1993
547,-0.729,0.1611,0.5623,-23.4101,11.1555,39.184
560,-0.7715,0.0632,0.5791,-36.265,8.3922,35.0161
574,-0.9495,-0.1729,0.6277,-50.5857,-0.875,14.2833
615,-0.6785,0.1745,0.4971,-37.7002,-6.4017,-1.8083
628,-0.6389,0.032,0.524,-40.9063,-10.3865,1.6878
641,-0.7288,-0.074,0.5249,-56.5093,-20.9666,-2.9686
653,-0.8643,-0.3362,0.5352,-67.7459,-17.7453,-13.4114
667,-0.7707,-0.261,0.406,-79.2269,-14.814,-10.5717
680,-0.6992,-0.2566,0.5616,-66.9826,-24.2643,-23.6099
721,-0.8411,-0.4981,0.375,4.9716,-18.6307,-11.1366
734,-0.8074,-0.2422,0.6521,-9.8986,-18.5849,-22.877
747,-0.6182,-0.5759,0.5887,60.8342,-13.3636,-31.4267
760,-0.6973,0.4929,0.3655,-46.5398,-0.9056,-27.2435
773,-0.8455,0.1037,0.5249,-4.2803,-4.646,-33.4419
785,-0.3728,-0.9417,0.5699,6.88,-2.1422,-57.4419
826,-0.7253,0.0852,0.5806,46.5136,9.6746,-19.4572
840,-0.8721,0.1575,0.3592,53.9945,19.3693,-3.8694
852,-0.7466,-0.3831,0.3623,36.7121,30.9418,-9.4114
865,-0.8213,-0.0073,0.2466,21.5976,36.4532,-6.2205
879,-0.7864,-0.114,0.2164,13.6434,38.9723,-0.9992
892,-0.8069,0.1592,0.0979,25.3838,38.8502,22.1764
933,-0.741,0.1208,0.3709,52.3914,39.3693,60.1306
945,-0.6892,0.2593,0.4527,26.0403,26.1021,42.1611
959,-0.6772,-0.0342,0.8426,-50.5551,11.6288,22.9092
971,-0.5876,0.0967,0.1209,14.6357,22.4532,44.2222
985,-0.8711,-0.1399,0.4854,-29.9444,7.812,23.642
998,-0.6079,-0.0828,0.6023,-38.4635,15.125,29.642
1039,-0.6897,-0.2129,0.5552,-1.1047,-6.3865,-13.6251
1051,-0.7261,-0.1536,0.5723,4.4678,-14.4017,0.268
1064,-0.7717,-0.0147,0.2815,15.6128,-13.6842,7.642
1077,-0.8308,-0.2427,0.4927,33.567,-10.5544,4.0085
1090,-0.7883,-0.3941,0.502,35.964,-8.7682,-10.6022
1103,-0.5852,-0.478,0.7608,55.3075,-9.272,-33.961
1144,-0.9995,0.3733,0.4524,40.7426,7.6746,-1.3198
1157,-0.7441,0.1938,0.6639,18.7273,14.1173,-7.1671
1170,-0.9302,-0.1448,0.282,58.651,27.4761,-10.816
1183,-0.8132,-0.1377,0.3982,45.6892,40.1326,-24.3732
1197,-0.8821,0.6753,0.0472,52.025,66.1479,19.5962
1209,-0.8496,0.4082,0.1089,-2.5398,56.7738,41.9779
1250,-0.5354,-0.4251,0.7337,-7.7765,28.8044,50.6191
1263,-0.8408,-0.0196,0.6106,-40.6162,9.0028,38.1153
1277,-0.657,-0.3313,1.2642,-74.5551,11.2471,32.9398
1290,-0.7192,0.0349,0.7271,-58.1429,7.2013,34.8634
1303,-0.9709,-0.1531,0.4573,-97.4711,-1.3941,27.352
1316,-0.7795,-0.1614,0.2735,-33.1505,-10.8903,29.5352
1355,-0.9319,-0.2483,0.3294,-8.6773,-2.3559,-6.0373
1368,-0.7949,-0.0093,0.4261,-1.4253,1.7967,0.0695
1381,-0.7576,0.0371,0.4471,5.2617,-0.4323,7.4588
1394,-0.7727,0.0312,0.4449,7.2311,-2.3712,12.5733
1408,-0.7988,0.0652,0.4593,4.2693,-1.6842,13.413
1420,-0.7913,0.0554,0.4537,0.1624,-1.0582,8.497
1460,-0.7825,0.0405,0.46,-4.204,0.2853,-6.4801
1473,-0.7751,0.0134,0.4478,2.6968,0.6364,-5.6862
1487,-0.7754,0.04,0.4388,5.3533,0.1021,-2.4343
1500,-0.7966,0.031,0.4461,10.025,-0.7529,-0.9534
1513,-0.7747,0.0224,0.4715,14.4067,-2.1269,-1.045
1525,-0.7769,0.0429,0.4671,11.1395,-1.6384,-0.5564
1566,-0.7869,0.0444,0.4573,12.4067,-0.1422,3.2451
1578,-0.7642,0.0571,0.449,8.1624,0.438,0.5275
1591,-0.7852,0.0425,0.4632,3.5823,1.2013,-0.1442
1604,-0.7822,0.0488,0.4573,0.7273,1.2471,-0.648
1617,-0.769,0.0578,0.4427,-0.9368,0.4685,-1.7473
1630,-0.7788,0.0459,0.4512,-4.7994,-0.0506,-2.4343
1670,-0.7742,0.0276,0.4495,4.4678,0.2089,2.6497
1683,-0.7812,0.0405,0.4512,9.9182,-0.2949,3.4588
1696,-0.782,0.061,0.459,12.3762,-0.2643,3.0008
1710,-0.7759,0.0652,0.4585,5.6434,-0.1422,-0.816
1722,-0.7839,0.0549,0.4544,-0.7078,0.3616,-4.3732
1735,-0.7744,0.0539,0.4529,-8.2956,0.667,-6.0221
1775,-0.7808,0.0307,0.4541,5.5212,0.438,0.1153
1788,-0.7773,0.0532,0.4512,4.6205,-1.1498,-0.1137
1801,-0.7864,0.0432,0.4527,7.9334,-1.0888,-0.0068
1815,-0.7754,0.0561,0.4495,7.5823,-0.3407,-0.5564
1827,-0.7766,0.0442,0.4561,6.3304,0.667,-0.9839
1841,-0.7842,0.0408,0.4595,2.6968,1.2318,-0.9839
1880,-0.779,0.0478,0.4493,3.3838,0.3464,-2.4648
1893,-0.7766,0.0525,0.4556,-0.9521,-0.6765,-2.9381
1906,-0.78,0.0454,0.4529,-1.6391,-0.4933,-1.8541
1920,-0.7759,0.0364,0.4551,-0.4635,-0.4475,-0.6938
1932,-0.7786,0.0359,0.4576,1.1548,0.0868,0.5886
1945,-0.7747,0.0459,0.4534,2.2388,0.3464,0.9245
1985,-0.7766,0.0596,0.4512,1.735,0.5754,0.894
1998,-0.7781,0.0596,0.4483,-2.6773,-0.2643,-0.877
2011,-0.7817,0.0486,0.4549,-5.6086,0.3922,-1.503
2024,-0.7849,0.0303,0.4507,-1.4101,0.1021,-0.8312
2037,-0.7776,0.0298,0.4507,5.0785,0.1173,0.6039
2050,-0.7756,0.0478,0.4573,6.4067,0.1326,1.4894
2090,-0.78,0.07,0.4519,1.4602,0.3616,0.2527
2103,-0.7817,0.0547,0.4585,-2.9521,0.1479,-2.6022
2116,-0.7778,0.052,0.4534,-5.3337,0.1784,-3.3809
2129,-0.77,0.0488,0.45,-7.4101,0.2242,-3.5488
2142,-0.782,0.0427,0.4544,-6.9673,0.3005,-3.1213
2155,-0.78,0.0368,0.4512,-2.2192,0.4532,-1.1824
2196,-0.7788,0.0427,0.4634,1.3838,-0.7987,1.3978
2208,-0.7749,0.0398,0.4493,2.1166,-0.2491,1.6726
2221,-0.7773,0.0437,0.4524,0.6663,0.8044,3.2451
2234,-0.7834,0.0498,0.4585,0.0556,0.5754,3.7489
2247,-0.7766,0.0429,0.4566,0.5899,0.896,3.9932
2260,-0.7744,0.05,0.4537,2.8953,1.1708,3.3214
2300,-0.7773,0.0498,0.4573,0.1472,0.8196,0.0085
2313,-0.7786,0.0415,0.4468,-0.3719,1.4151,0.1001
2326,-0.7842,0.0456,0.4519,0.651,0.7738,-0.877
2339,-0.7876,0.0373,0.4524,6.3609,-0.9514,-0.9992
2352,-0.7891,0.0439,0.4463,16.1472,-0.8292,-1.0908
2365,-0.7749,0.052,0.4524,23.6739,0.1173,-0.0831
2405,-0.7783,0.0671,0.4512,7.2617,1.0639,1.184
2419,-0.7812,0.0681,0.4549,2.8037,0.9112,-0.8007
2432,-0.7822,0.0696,0.4598,-2.6162,1.7051,-3.4267
2445,-0.7793,0.0591,0.4529,-4.4024,1.9799,-3.9915
2458,-0.7793,0.039,0.4588,-2.1429,1.3845,-2.2053
2470,-0.7705,0.0451,0.4471,1.0174,1.2471,0.726
2510,-0.7795,0.0581,0.4524,9.5365,0.5601,4.6344
2523,-0.7817,0.0696,0.4522,7.8571,0.8654,4.8024
2536,-0.782,0.0718,0.4539,4.1472,0.6975,2.9398
2549,-0.78,0.0725,0.4507,-2.4482,0.3158,0.4207
2562,-0.7856,0.06,0.4463,-2.5856,0.5754,-0.8618
2575,-0.7769,0.0676,0.4422,-3.3032,0.1479,-1.7167
2615,-0.781,0.0537,0.4478,5.964,0.8502,1.413
2629,-0.7817,0.0622,0.4502,7.0937,0.8349,1.9016
2642,-0.7812,0.0659,0.4534,3.3685,1.0334,0.2069
2655,-0.7837,0.072,0.4578,0.5747,0.7128,-1.6557
2668,-0.7815,0.0664,0.4539,-2.5704,-0.0506,-3.8999
2681,-0.7812,0.0627,0.4532,-3.2879,-0.417,-5.7015
2720,-0.7808,0.0576,0.4527,-7.2269,0.6364,-6.7091
2733,-0.7803,0.0512,0.4497,-4.2803,0.6059,-4.9381
2746,-0.7842,0.0332,0.4402,0.1777,0.0563,-0.9381
2759,-0.7725,0.0417,0.4429,5.5976,-0.3254,4.7107
2772,-0.7737,0.0508,0.4483,5.2769,0.1173,8.5275
2785,-0.7891,0.0534,0.4534,5.4602,0.6059,10.6344
2825,-0.7861,0.0686,0.4407,6.2693,0.0257,9.2756
2838,-0.7761,0.0818,0.4439,4.1014,-1.2262,5.7642
2851,-0.7849,0.0766,0.4512,4.9563,-1.5162,2.4512
2864,-0.7837,0.0832,0.4493,2.1319,-0.9819,0.9703
2877,-0.7766,0.0718,0.4436,-1.2269,-0.1727,-0.9534
2891,-0.7822,0.0703,0.451,-3.4253,1.0944,-1.8389
2930,-0.7803,0.0683,0.4454,-6.5398,1.2929,-2.2816
2943,-0.7871,0.0625,0.4507,-2.6467,0.438,-0.6328
2956,-0.7798,0.0639,0.451,0.4831,0.6059,1.1535
2969,-0.7849,0.06,0.4495,1.506,0.5296,3.0314
2982,-0.7795,0.0632,0.4505,4.1624,0.4227,3.6268
2995,-0.7786,0.0818,0.4454,-0.2192,0.3769,2.2375
3035,-0.7673,0.0627,0.4707,0.8495,-1.2109,-2.8007
3048,-0.7666,0.0666,0.471,-1.12,-0.3254,-2.9686
3061,-0.779,0.0549,0.4595,-0.4635,1.4456,-2.1137
3074,-0.7808,0.0547,0.458,0.0708,2.5601,-0.7549
3087,-0.7817,0.0566,0.448,3.4602,2.1021,2.6497
3100,-0.7764,0.0635,0.4466,5.5518,2.1784,5.2451
3140,-0.7871,0.0803,0.4368,-0.3719,0.8196,0.3291
3154,-0.7883,0.084,0.4363,-3.2574,0.9418,-2.0526
3166,-0.7832,0.0845,0.4366,-3.5017,-0.1117,-3.7778
3179,-0.7817,0.0657,0.4363,-3.0589,-0.417,-4.358
3192,-0.78,0.0647,0.4449,-1.2421,-1.043,-3.4877
3206,-0.7739,0.0544,0.4468,1.0479,-0.814,-2.3274
3245,-0.7793,0.0718,0.4539,-3.7918,-0.0201,-2.2664
3258,-0.78,0.0652,0.451,-4.9521,-0.1117,-1.5946
3272,-0.7761,0.0674,0.4441,-5.3032,-0.3712,-2.5412
3285,-0.7847,0.0617,0.4488,-1.5933,-0.6307,-2.5564
3297,-0.7864,0.0576,0.4478,2.0861,-0.1117,-1.5183
3310,-0.7764,0.0635,0.4539,4.2388,-0.1269,-0.3885
3350,-0.7786,0.0598,0.4456,-4.3261,-0.1422,-2.5259
3363,-0.7815,0.0603,0.4466,-3.6696,0.2395,-1.7778
3376,-0.7817,0.0571,0.449,-2.4024,0.4532,-0.587
3389,-0.7808,0.0617,0.4461,-0.9826,0.2547,0.497
3402,-0.78,0.0593,0.4441,0.4983,-0.0811,0.6955
3415,-0.7842,0.0686,0.4466,0.5899,0.4532,0.1764
3455,-0.78,0.0593,0.4519,-3.6849,0.3922,-2.2816
3468,-0.7698,0.0578,0.4473,-3.4711,-0.2185,-1.106
3481,-0.7808,0.0517,0.4483,-1.3032,-0.1269,-0.2969
3494,-0.7854,0.051,0.448,-0.1734,-0.0353,1.1077
3507,-0.7795,0.0554,0.4427,3.2159,-0.1727,1.8253
3520,-0.7776,0.0576,0.4454,3.5365,-0.0353,1.4741
3560,-0.7803,0.0627,0.4434,1.9487,0.1631,0.6344
3574,-0.7793,0.0608,0.4432,1.0937,-0.3712,0.2833
3586,-0.7869,0.0657,0.4544,-1.6086,-0.1117,0.0085
3599,-0.7837,0.0583,0.4446,-2.0971,0.2395,0.039
3612,-0.7737,0.0649,0.4444,-1.9902,0.041,-0.6022
3625,-0.7832,0.0625,0.4441,-1.7765,-0.1575,-1.0602
3665,-0.7825,0.0583,0.4585,-0.3108,1.1402,0.2222
3678,-0.7856,0.0537,0.45,2.1319,1.0028,0.7871
3691,-0.7817,0.0588,0.4463,1.1243,0.6212,1.1077
3705,-0.7795,0.0605,0.45,0.6052,0.1479,0.5886
3717,-0.7852,0.0598,0.4419,0.6052,-0.1575,0.6955
3731,-0.78,0.0635,0.4446,-0.0666,-0.2643,-0.1747
3770,-0.7734,0.0569,0.4505,-0.662,0.3005,-0.5717
3783,-0.782,0.06,0.4493,-0.7536,0.2853,-0.648
3796,-0.7876,0.0534,0.4529,1.8266,-0.5697,-0.6328
3809,-0.779,0.0652,0.449,-1.2879,-0.1269,-1.2587
3822,-0.7812,0.0556,0.4471,-1.3948,-0.1117,-0.8465
3835,-0.779,0.0603,0.4466,-0.3261,-0.1575,-1.106
3875,-0.7827,0.0561,0.4512,0.3762,-0.1117,-0.7549
3889,-0.7812,0.0542,0.4515,-0.4482,0.041,-0.9381
3902,-0.78,0.0539,0.45,1.2159,0.2242,0.1306
3915,-0.7764,0.06,0.4446,1.3075,0.1021,0.0848
3927,-0.7849,0.0574,0.4522,1.0174,0.1937,0.3749
3940,-0.7795,0.0661,0.451,0.3456,-0.1422,0.2069
3981,-0.78,0.0547,0.4454,-0.8299,0.4074,-1.0755
3993,-0.7815,0.0525,0.4466,-0.0208,-0.0506,-1.2893
4006,-0.781,0.052,0.4454,1.2769,0.2395,-0.5259
4019,-0.7822,0.0512,0.4495,1.8113,0.499,0.7413
4032,-0.7822,0.0559,0.4454,1.567,0.5601,1.4588
4045,-0.7839,0.0598,0.4517,0.2235,0.1784,1.581
4086,-0.7837,0.0544,0.4512,-1.7612,0.041,-1.4572
