time_ms,ax,ay,az,gx,gy,gz
12,-0.8059,0.0764,0.3875,2.1319,0.3464,1.81
25,-0.8103,0.0725,0.3836,2.254,0.896,1.8711
65,-0.8044,0.0813,0.3858,0.7273,0.5296,0.9245
78,-0.813,0.0805,0.3831,-0.7994,1.1555,2.4054
91,-0.8137,0.0783,0.3811,0.1624,1.2776,2.1917
104,-0.8127,0.0908,0.3777,1.2159,1.0334,1.6115
117,-0.8123,0.0825,0.3768,1.0021,0.4227,0.3596
131,-0.8113,0.081,0.3855,1.0021,-0.188,-0.19
170,-0.8061,0.0683,0.3863,-0.0208,-0.8445,0.8176
183,-0.8123,0.0749,0.378,1.2769,-0.1575,2.5581
196,-0.8113,0.0893,0.3814,1.735,-0.8292,2.2833
209,-0.8101,0.0823,0.3809,-1.807,-0.0659,-0.6175
222,-0.813,0.0896,0.3833,-4.891,0.438,-2.587
235,-0.8101,0.0791,0.3797,-4.9826,-0.6307,-3.1671
275,-0.8049,0.0722,0.3855,1.1395,0.3158,2.6802
288,-0.8103,0.0783,0.386,-0.0055,0.3005,3.6115
301,-0.8147,0.0722,0.3816,2.3914,0.5906,6.1001
314,-0.8227,0.0625,0.3821,7.6434,0.8196,11.3672
328,-0.8262,0.0442,0.3885,20.1319,-1.2109,16.8329
341,-0.8486,0.0417,0.3411,25.506,-2.5849,14.8024
381,-0.8135,0.084,0.4292,-31.7765,-10.7071,9.81
393,-0.8879,0.0586,0.5098,-45.7612,-18.1727,-1.4572
406,-0.9104,0.0605,0.4754,-65.7918,-33.2414,-18.8923
419,-0.8325,0.147,0.4375,-83.8376,-36.3712,-14.3427
432,-0.7207,0.0893,0.3782,-90.3261,-34.6155,-7.7931
445,-0.6907,0.0251,0.4087,-94.1734,-32.0659,-8.2816
485,-0.7305,0.0434,0.3792,-48.7841,-19.6842,-11.6862
498,-0.7686,0.0993,0.3728,-6.8757,-13.4857,5.2756
511,-0.7903,-0.0208,0.4283,15.8266,-10.1575,7.0619
524,-0.7895,0.0356,0.4456,35.0937,-8.5849,5.642
537,-0.75,0.0744,0.5108,24.9258,-10.2491,-2.419
551,-0.7737,0.1142,0.4727,-13.1963,-12.2491,-16.2969
591,-0.3967,0.0488,0.3521,-37.578,-4.5697,0.1611
604,-1.0327,-0.4448,0.3614,91.0937,3.7967,11.8405
617,-0.6758,0.0271,0.439,16.2082,-12.0353,-19.9763
630,-0.7134,0.238,0.3968,26.88,-9.0582,-8.3122
643,-0.7019,0.1531,0.4295,-7.6238,-6.7834,12.1001
655,-0.6426,0.0747,0.4666,9.2159,-1.6231,27.0314
696,-0.7893,0.0593,0.4502,-23.0284,1.4303,-10.5717
708,-0.7883,0.0439,0.4505,3.0174,6.8654,1.6268
722,-0.7478,-0.0203,0.4764,23.1701,9.7967,11.2451
735,-0.4148,-0.1463,0.4615,66.7273,7.0334,14.9092
748,-0.8208,-0.1909,0.4226,66.2388,-3.6689,-3.9305
760,-1.0979,0.2761,0.5513,51.8113,-21.8827,-13.0602
801,-0.7021,-0.0852,0.7674,4.8189,-28.5391,-24.816
815,-0.6099,-0.0308,0.3152,-27.4559,-28.9208,-29.6557
828,-0.7046,-0.1255,0.4588,-28.036,-22.4781,-30.8312
841,-0.6616,-0.2715,0.4939,2.6205,-17.562,-19.8694
854,-0.7937,-0.2927,0.1282,-4.4024,-15.5773,-28.1289
867,-0.6348,0.0095,0.2552,11.1395,-12.0201,-35.9457
907,-0.6462,-0.1604,0.3421,2.2998,2.0105,-27.5488
920,-0.8123,-0.1612,0.4117,6.3762,8.9265,-12.6633
932,-0.823,-0.0086,0.5567,49.9182,12.8044,0.3138
945,-0.8345,0.5356,0.552,64.4525,17.0028,-1.6862
959,-0.843,0.0788,0.5035,56.7884,19.4914,5.5504
971,-0.7302,0.2632,0.554,71.6586,31.9799,28.0848
1012,-0.7153,0.2146,0.6023,10.4525,23.7051,39.8253
1024,-0.6704,-0.0293,0.6455,6.3456,19.0486,34.4665
1038,-0.78,-0.2251,0.6485,-22.8605,21.8883,29.9016
1051,-0.7698,-0.0164,0.7693,-54.9521,11.4761,16.7413
1063,-0.7417,-0.3035,0.3692,-46.433,-0.7376,4.6039
1076,-0.7029,0.1548,0.6477,-35.1353,-4.9972,8.9245
1117,-0.7537,-0.0193,0.4839,9.9029,-4.7224,-5.732
1129,-0.7852,-0.0369,0.451,10.0098,-4.9819,-1.5793
1143,-0.7915,-0.0098,0.4583,23.9487,-4.9666,3.184
1155,-0.7519,-0.0332,0.5091,34.7121,-8.4628,4.4207
1169,-0.8628,0.3489,0.2056,43.0632,-6.875,5.3062
1181,-0.7602,-0.1485,0.4476,11.6586,-10.4017,-9.0144
1221,-0.7944,-0.2188,0.4217,15.2464,12.957,-44.1137
1235,-0.8083,0.6609,0.4112,-1.4406,19.5525,-17.5641
1247,-0.8506,0.3623,0.2693,15.7502,32.6212,0.894
1260,-0.9602,0.3799,0.2569,90.2235,47.5067,34.9856
1273,-0.9009,0.4294,0.3499,113.994,58.2853,53.3367
1287,-0.584,0.1504,0.4974,75.1701,75.9494,50.2833
1326,-0.7473,0.0647,0.5252,-4.3414,16.5601,10.4359
1340,-0.8708,0.0207,0.9002,-35.7918,12.2242,22.4207
1353,-0.7163,0.0281,0.5108,-32.7383,-0.1269,14.8787
1365,-0.7869,0.0444,0.5708,-59.2574,4.5448,11.9169
1378,-0.896,-0.0196,0.431,-53.8681,5.3387,3.2604
1392,-0.8005,0.0644,0.5042,-8.8299,-7.6842,-8.1137
1432,-0.8069,0.0473,0.3572,17.4449,-4.9056,-0.4801
1444,-0.7961,0.1067,0.3924,16.5441,-4.5544,3.2298
1458,-0.79,0.102,0.4173,22.8342,-6.0201,8.2527
1470,-0.8101,0.167,0.3833,22.0556,-4.9972,7.9169
1483,-0.8218,0.1958,0.4007,8.5441,-5.7147,-1.2435
1497,-0.7895,0.1941,0.4082,-18.3872,-5.9437,-10.5259
1536,-0.7991,0.1006,0.3916,-28.1887,-12.188,-9.7778
1549,-0.8052,0.1145,0.3919,-17.7154,-13.3788,-5.5335
1563,-0.7993,0.1665,0.4131,-38.433,-14.2033,-13.3351
1576,-0.8076,0.1045,0.4241,-47.2574,-13.7911,-19.9915
1589,-0.7866,0.0398,0.4122,-32.9368,-11.959,-16.4954
1601,-0.7917,0.0464,0.4165,-5.5322,-8.3712,-0.1289
1642,-0.7873,0.1291,0.4441,11.506,-7.2109,5.4894
1655,-0.7759,0.114,0.4488,3.5976,-3.2872,-3.4419
1667,-0.7795,0.0986,0.4463,2.0708,0.438,-8.8007
1680,-0.781,0.0776,0.4385,10.8647,1.6593,-6.1747
1693,-0.782,0.0974,0.4273,14.6205,0.9265,-1.3656
1706,-0.7859,0.0957,0.4292,19.796,0.0868,3.1688
1747,-0.7854,0.0974,0.428,21.4907,-0.0506,12.1459
1760,-0.7861,0.0825,0.4261,19.0632,2.3006,17.8711
1773,-0.7878,0.1538,0.4285,20.8037,3.4151,18.5886
1786,-0.7881,0.1445,0.431,7.9487,2.7433,12.1001
1799,-0.7869,0.1521,0.4263,0.9716,2.3158,6.5275
1812,-0.7939,0.1379,0.4266,-1.4559,1.0486,2.0085
1852,-0.7876,0.1245,0.4178,-13.4864,-2.417,-8.5717
1865,-0.7908,0.1382,0.4195,-22.4024,-3.1346,-9.5641
1878,-0.79,0.1155,0.4165,-25.7154,-2.9972,-10.1442
1890,-0.792,0.0984,0.4197,-20.8299,-2.2796,-8.6633
1903,-0.7815,0.1098,0.4312,-12.6162,-0.3712,-5.8389
1916,-0.7795,0.1042,0.439,-6.3872,1.125,-5.0908
1956,-0.78,0.1069,0.4356,13.8571,5.4456,2.2833
1969,-0.7878,0.1054,0.428,15.1243,4.3311,5.581
1982,-0.792,0.1172,0.4258,10.8495,2.0563,6.1611
1996,-0.7954,0.1374,0.4329,12.0556,-1.2414,3.7489
2008,-0.7825,0.1091,0.4361,5.2769,-0.188,3.9321
2022,-0.7866,0.1213,0.4261,-3.8528,0.1326,4.2985
2062,-0.791,0.126,0.4197,-6.3108,0.6822,-0.6175
2074,-0.7922,0.1291,0.4197,-12.7994,1.5219,-5.5488
2088,-0.7871,0.1147,0.4153,-9.4253,1.1708,-5.6251
2101,-0.7925,0.1045,0.419,-4.3872,1.4609,-3.4419
2114,-0.7922,0.1186,0.4192,-4.5856,0.3311,-2.5717
2127,-0.793,0.1257,0.4241,-8.1429,-1.1193,-3.0908
2166,-0.79,0.093,0.4236,-2.891,0.3616,-3.6709
2179,-0.7878,0.0823,0.4295,1.5976,1.6135,-1.3351
2192,-0.7856,0.1028,0.4266,6.4373,1.9952,0.9092
2205,-0.7859,0.1069,0.4219,4.5747,2.4838,1.0161
2218,-0.7864,0.1111,0.4302,7.8724,2.957,1.4741
2231,-0.7783,0.1023,0.4236,5.2311,3.4456,1.2146
2271,-0.7959,0.1294,0.428,-4.7994,4.7128,5.1535
2284,-0.783,0.0989,0.4253,-16.6315,6.7738,0.9703
2298,-0.7913,0.0974,0.43,-18.5246,8.9876,1.2298
2310,-0.7888,0.0881,0.4183,3.8418,12.7586,7.1688
2323,-0.7932,0.1284,0.4195,8.6815,16.0257,8.3291
2336,-0.7974,0.1167,0.4202,7.3227,18.8044,7.3062
2377,-0.8022,0.115,0.388,-6.7994,21.8731,-0.0526
2389,-0.8035,0.0945,0.3875,-8.6467,18.8044,4.6039
2402,-0.8079,0.1091,0.377,-11.3032,12.9112,7.1993
2415,-0.8132,0.1045,0.3672,-8.3566,7.3082,9.1993
2428,-0.8108,0.1155,0.3746,-6.8605,0.5296,10.8787
2441,-0.8088,0.1213,0.3802,-0.7536,-4.7682,13.2146
2482,-0.8015,0.1133,0.3887,-4.1734,-13.9132,8.2375
2494,-0.7942,0.1155,0.3985,2.1166,-12.6613,9.3978
2507,-0.7971,0.1396,0.407,4.3456,-9.8827,6.7565
2520,-0.803,0.1404,0.4082,-0.6925,-5.5926,1.123
2534,-0.7959,0.1272,0.4117,-0.4482,-2.0506,-0.9839
2547,-0.7888,0.1118,0.4107,-2.662,-1.9743,-0.7244
2586,-0.7969,0.1328,0.4017,0.5899,-5.1498,7.0619
2599,-0.793,0.1313,0.4124,-1.0437,-4.2949,6.6191
2612,-0.7888,0.1413,0.4146,-1.7002,-2.4933,5.184
2625,-0.7944,0.1445,0.4129,-4.0818,-1.2414,2.2833
2638,-0.7959,0.1394,0.4078,-5.0589,-1.4094,0.4665
2651,-0.7942,0.1372,0.4019,-6.433,-2.2491,-0.6328
2692,-0.79,0.1325,0.4126,-4.7689,-3.7911,1.5352
2704,-0.7939,0.1296,0.4136,-6.7383,-3.3941,1.3214
2717,-0.7878,0.1316,0.4141,-7.9292,-2.2949,1.6726
2730,-0.7949,0.1284,0.4112,-2.4482,-1.272,2.4817
2743,-0.7886,0.1408,0.4131,-2.433,-0.7529,1.0008
2756,-0.7905,0.1374,0.4134,-4.2192,-0.6918,-1.7931
2796,-0.7935,0.1101,0.4122,-2.3261,-1.3483,-1.1213
2809,-0.792,0.126,0.4158,0.3609,-1.3636,1.2756
2822,-0.79,0.1191,0.4173,6.0098,0.3158,3.8711
2835,-0.7917,0.1262,0.4141,6.2082,0.9265,4.3749
2848,-0.7905,0.1384,0.4151,5.4754,0.7891,2.8634
2861,-0.7925,0.1408,0.4141,-3.5322,-0.7682,0.0848
2902,-0.7883,0.1308,0.4146,5.3075,-0.1117,3.0772
2914,-0.7981,0.1264,0.4104,6.6205,0.4227,5.0008
2927,-0.7927,0.1404,0.4158,5.6586,0.8502,6.5275
2940,-0.7861,0.146,0.4136,-0.494,0.2853,4.268
2953,-0.7925,0.1384,0.4085,0.5441,0.8044,3.7184
2966,-0.7917,0.1472,0.4134,-0.204,1.3845,2.2833
3006,-0.7935,0.146,0.4112,-1.7765,-0.3559,0.0848
3019,-0.7898,0.1399,0.4075,-2.7994,0.041,-0.2969
3033,-0.7903,0.1335,0.4134,-2.6009,-0.2796,-0.2816
3046,-0.7893,0.147,0.4124,-5.8834,-0.8903,-1.2587
3059,-0.7905,0.1421,0.4156,-8.1124,-1.0888,-2.648
3071,-0.791,0.1308,0.4122,-5.6849,-1.3025,-1.8389
3111,-0.7905,0.1352,0.4122,-2.0971,-0.2033,1.3062
3125,-0.792,0.1306,0.4107,0.7121,0.4685,3.0314
3137,-0.7922,0.1465,0.4212,0.254,0.8654,2.894
3150,-0.7895,0.1443,0.4156,1.7808,1.1555,2.2222
3163,-0.7898,0.1362,0.4153,1.9487,0.3464,2.4207
3176,-0.793,0.157,0.4063,2.0403,-0.2338,2.5275
3217,-0.7905,0.1406,0.4192,-1.4559,-0.3712,0.8482
3229,-0.7935,0.1448,0.4158,-1.0895,0.5754,0.8634
3242,-0.7878,0.1406,0.4161,-1.1047,0.6517,-0.1289
3255,-0.7878,0.1352,0.4161,1.8113,0.2089,0.4359
3268,-0.7895,0.1482,0.408,-0.5398,-0.3712,0.6191
3282,-0.7881,0.1399,0.4119,-1.9292,-0.3865,0.497
3321,-0.7878,0.1401,0.4185,-3.3795,-0.2796,-2.587
3335,-0.7888,0.1294,0.4209,-1.2421,-0.0353,-2.0984
3347,-0.7913,0.1345,0.4131,1.3075,-0.188,-0.7549
3360,-0.7876,0.133,0.4131,1.2006,0.041,0.268
3373,-0.7861,0.1318,0.4192,-0.6467,0.7433,0.8787
3387,-0.7886,0.1396,0.4151,1.5823,1.3387,2.3901
3426,-0.7913,0.1335,0.4153,1.2617,0.728,0.9245
3439,-0.7925,0.1379,0.4205,5.3227,0.7891,2.3749
3452,-0.7888,0.1362,0.4148,7.6434,1.2318,3.7489
3466,-0.7886,0.1474,0.4153,5.8876,1.2776,3.3825
3479,-0.7932,0.1548,0.4141,1.3685,0.7433,1.1688
3492,-0.7891,0.1435,0.4087,-2.3719,0.2853,-0.2053
3531,-0.7891,0.1426,0.4065,-0.9063,-0.3101,-1.1366
3545,-0.7883,0.1394,0.4119,-0.1429,-0.2033,-0.9839
3558,-0.7903,0.1423,0.4146,-4.0055,-0.1575,-1.6251
3570,-0.7873,0.1255,0.4153,-2.7689,0.2547,-0.6328
3583,-0.7856,0.1391,0.4163,3.3075,0.5143,1.5657
3596,-0.7927,0.1435,0.4112,2.8189,0.1479,2.039
3637,-0.7903,0.1399,0.4178,-1.9292,-0.4628,-1.1213
3649,-0.7903,0.1433,0.4219,-1.5933,-0.1117,-1.3198
3662,-0.7891,0.1291,0.419,0.0861,0.5143,-0.2816
3675,-0.7937,0.1411,0.4134,-0.9063,0.499,-0.3427
3689,-0.7927,0.1426,0.4131,-2.5398,-0.0506,-0.8465
3702,-0.7886,0.1457,0.4131,-3.2269,-0.7071,-0.9228
3741,-0.7915,0.1421,0.4153,1.1243,0.6212,1.7795
3754,-0.7942,0.1347,0.4158,0.8189,1.0181,1.581
3767,-0.7937,0.1389,0.4114,0.025,0.9418,0.6955
3780,-0.793,0.1445,0.4119,-2.2345,0.1173,-0.4648
3793,-0.7908,0.1374,0.4178,-0.7994,0.0715,-0.8312
3806,-0.7915,0.1345,0.4156,1.2159,0.2547,-0.6786
3846,-0.7881,0.1333,0.4131,1.2922,0.4227,0.268
3859,-0.7881,0.1384,0.4124,-0.3108,0.5448,0.497
3872,-0.7898,0.1394,0.4117,1.7197,0.8196,0.5428
3885,-0.7922,0.1438,0.4168,0.7731,0.4685,0.2375
3898,-0.7903,0.1379,0.4136,-0.7231,0.0257,-0.0679
3911,-0.7903,0.1379,0.4114,-0.4635,-0.2185,-0.1289
3951,-0.7898,0.125,0.4112,-1.4864,-0.8903,-2.3885
3964,-0.7927,0.1333,0.4183,0.422,-0.6002,-0.6786
3977,-0.7905,0.1347,0.4163,-0.1124,-0.2338,0.4359
3990,-0.7905,0.1374,0.4163,1.1853,0.0105,1.4741
4003,-0.792,0.1435,0.4239,1.8571,0.4532,1.8863
4016,-0.7873,0.1367,0.4156,1.6128,0.438,1.1382
4056,-0.7944,0.1416,0.4173,-1.0742,0.1937,-1.2129
4070,-0.7873,0.1384,0.4087,-2.0818,-0.6155,-2.0068
4083,-0.7893,0.1299,0.4141,-0.3261,0.27,-1.045
4096,-0.7886,0.1333,0.417,0.8953,0.5296,-0.0984
4108,-0.7925,0.1369,0.4131,0.9258,0.2242,0.4817
4121,-0.7905,0.1343,0.4119,0.7121,0.1784,0.1764
4162,-0.7869,0.1235,0.4126,-0.9215,-0.0201,-0.587
4174,-0.7939,0.1282,0.4148,-0.1124,0.6212,-0.0526
