time_ms,ax,ay,az,gx,gy,gz
11,-0.7573,0.0559,0.4927,-0.8605,0.2089,-0.5564
24,-0.7583,0.053,0.4988,-0.6009,0.3311,-0.5564
37,-0.7578,0.0586,0.4888,0.4525,0.6517,0.1917
50,-0.7578,0.0566,0.4891,0.4067,0.728,0.4207
91,-0.7632,0.0845,0.4966,-5.2116,-0.0048,-0.9076
104,-0.759,0.0586,0.4905,-3.2574,-0.2338,-0.9076
117,-0.7612,0.0508,0.4908,-0.7994,0.5448,-0.1137
130,-0.7571,0.0517,0.4952,1.338,0.3464,0.3596
143,-0.759,0.0539,0.4876,1.8418,0.5754,0.8787
156,-0.7563,0.0657,0.4895,0.1014,-0.0048,-0.0373
195,-0.7615,0.052,0.4895,0.5441,0.3616,0.7107
209,-0.7598,0.05,0.4898,0.8189,0.3769,1.1688
222,-0.7559,0.0705,0.4876,-1.6696,-0.7682,-0.0068
235,-0.761,0.0627,0.4898,-4.1582,-0.7529,-1.4114
248,-0.7622,0.053,0.493,-4.891,-0.6613,-1.5641
261,-0.7576,0.053,0.4886,-0.5856,0.27,-0.2969
300,-0.7622,0.0539,0.4886,4.0556,0.5143,5.4588
314,-0.7786,0.0588,0.4905,6.5136,-0.8598,6.7107
326,-0.791,0.074,0.5047,1.1548,-2.3559,6.9856
340,-0.7861,0.0539,0.5057,-3.0895,-2.6155,7.0924
353,-0.7996,0.0305,0.4905,-4.8605,-0.5697,13.1077
366,-0.8691,-0.0611,0.6905,4.8495,-13.6994,7.5352
406,-0.7251,0.0256,0.5967,7.6892,-39.2567,-11.6709
419,-0.6567,0.1013,0.5423,6.5899,-39.0888,-12.3732
432,-0.5547,0.0429,0.5208,-9.12,-34.814,-16.2664
445,-0.4966,0.0725,0.3821,-18.265,-24.3712,-21.1976
458,-0.5193,0.1177,0.4146,-54.4635,-11.043,-26.0221
471,-0.6238,0.0591,0.534,-67.975,-2.9666,-29.4877
511,-0.833,0.0046,0.5403,-59.349,-13.9895,-34.8007
525,-0.7659,0.0534,0.4749,-34.8757,-10.2033,-27.1671
537,-0.6973,0.0456,0.4781,-21.0742,-3.5468,-15.9915
550,-0.6658,0.0666,0.4632,-14.0818,2.6517,-6.9076
563,-0.6931,0.0871,0.4246,-5.5322,10.6975,5.8711
576,-0.7092,0.0066,0.5113,4.0708,15.1097,14.1153
616,-0.7393,-0.0525,0.5899,4.9563,-1.3025,6.9856
629,-0.7576,0.0002,0.6062,4.6052,-5.3941,-1.503
642,-0.7297,-0.1226,0.5928,-0.8299,-12.5086,-6.4038
655,-0.7295,-0.0418,0.5164,-19.2879,-14.5849,-9.1824
668,-0.7266,-0.1375,0.4097,-17.6238,-19.9285,-13.7778
681,-0.7146,0.0471,0.5789,-11.0437,-22.3712,-12.3274
721,-0.9055,-0.1814,0.543,-36.1887,-23.3025,-27.1976
734,-0.7832,-0.0564,0.5044,-39.2727,-27.0735,-37.6557
747,-0.5713,-0.48,0.7215,-31.6849,-23.6536,-32.2511
760,-0.7595,0.2051,0.7076,-12.8147,-14.4475,-15.9457
773,-0.6621,-0.3467,0.6626,-20.5093,-11.1956,-30.3122
786,-0.7078,0.1269,0.4297,-6.2192,-6.4628,-34.5259
826,-0.718,-0.022,0.5196,26.8037,7.2929,-18.7854
839,-0.779,0.0857,0.5479,54.7579,9.0028,-12.6633
852,-0.6948,-0.0545,0.5882,25.0785,9.2013,-14.7244
865,-0.6931,-0.0283,0.6707,11.5823,11.2624,-12.1595
878,-0.7195,-0.0134,0.5542,16.5441,14.1326,-6.7854
890,-0.8025,-0.1543,0.355,-8.2803,17.6593,-4.7091
931,-0.7507,-0.0823,0.5611,6.2846,17.0334,20.0543
944,-0.8257,-0.0593,0.2413,10.5899,15.9036,17.413
956,-0.5791,-0.1721,0.9024,4.2082,15.7967,15.7642
970,-0.6811,0.0149,0.7347,-3.2879,24.9265,23.7184
983,-0.6902,0.019,0.2859,5.6434,14.0868,18.726
996,-0.7974,-0.18,0.5101,-33.6696,22.4532,21.0008
1036,-0.7373,0.1689,0.3777,3.4296,19.8273,23.0008
1049,-0.6626,-0.3184,0.7361,-22.2803,11.3845,4.0695
1061,-0.8022,-0.0066,0.4571,17.2617,7.4914,7.5962
1074,-0.6838,-0.2425,0.6795,4.4525,9.2318,8.0237
1088,-0.72,-0.1094,0.5328,7.6281,8.5143,10.2069
1101,-0.7209,-0.1768,0.5828,-6.5246,2.1479,0.1306
1141,-0.6924,-0.1052,0.5664,27.3685,-0.8445,12.6039
1154,-0.7095,-0.1455,0.5721,41.4449,-3.2414,13.7642
1166,-0.7141,-0.0796,0.6402,52.2693,-9.043,8.2527
1180,-0.4758,-0.4168,0.7789,77.2922,-22.8903,-12.0373
1193,-0.8059,0.0591,0.6844,51.6739,-17.4399,-14.8618
1206,-0.677,-0.2246,0.6087,9.9792,-18.5849,-30.358
1246,-0.7104,-0.3606,0.375,1.3685,-10.3712,-34.2358
1259,-0.9023,-0.0967,0.5005,17.8266,-6.9819,-28.587
1272,-0.6284,-0.0003,0.6414,11.567,-6.4933,-34.7854
1284,-0.772,0.2978,0.502,21.7655,1.5677,-19.4572
1298,-0.77,0.0547,0.638,0.193,3.3235,-21.9152
1311,-0.7627,0.0798,0.3992,8.2235,6.8654,-10.7396
1350,-0.7905,-0.0279,0.4522,20.8037,18.8196,2.9703
1364,-0.7402,0.032,0.5794,46.7426,20.499,3.7336
1377,-0.689,0.1457,0.7051,19.0785,26.8807,15.9627
1389,-0.7244,0.0261,0.6375,46.7121,30.4532,25.6573
1403,-0.7041,0.0483,0.4666,66.6663,38.5906,50.1001
1416,-0.7517,0.4116,-0.0451,66.2082,37.4303,49.2756
1456,-0.7078,0.0137,0.8472,-0.8757,30.7738,32.6649
1468,-0.7026,0.0762,0.4803,-2.9979,17.8273,15.9016
1482,-0.5376,0.2832,0.4556,12.7273,21.6593,39.7642
1495,-0.6626,0.1106,0.2464,-10.1887,17.2929,32.4817
1508,-0.6499,0.2397,0.4956,-26.0208,10.957,28.497
1521,-0.6865,0.3918,0.4366,-21.4101,3.354,22.0085
1560,-0.7593,-0.0296,0.4034,4.254,-1.8369,9.0008
1573,-0.7722,0.0857,0.5279,-1.8834,-7.272,3.1077
1586,-0.7686,0.031,0.4434,-7.1658,-0.7682,-0.3732
1599,-0.7803,0.0163,0.4888,-1.9597,-1.0277,2.4817
1612,-0.7617,0.0649,0.4873,2.4373,-0.8292,4.8482
1625,-0.7624,0.0725,0.5047,2.254,-0.0659,5.5962
1665,-0.7563,0.082,0.4996,-4.4177,-0.7834,-5.3503
1679,-0.7519,0.0683,0.4959,-3.1811,-0.8445,-5.6862
1692,-0.7549,0.0666,0.4981,-0.0666,-1.0277,-4.9992
1705,-0.7566,0.0637,0.4976,-0.265,-1.3788,-3.2893
1718,-0.7476,0.0644,0.5018,-1.3337,-0.8903,-0.8465
1731,-0.7498,0.0549,0.5015,-0.4024,-0.4323,1.2451
1770,-0.7585,0.0718,0.5052,2.6052,0.4838,4.7565
1783,-0.7522,0.084,0.4935,1.6128,-0.1422,2.2375
1797,-0.7544,0.0813,0.4939,-0.0818,-0.9056,-0.1289
1810,-0.748,0.0825,0.4998,-3.7002,-1.104,-2.9381
1823,-0.7588,0.0661,0.5103,-2.9215,-0.5544,-3.1518
1836,-0.7498,0.0647,0.5018,-0.9673,-0.5544,-2.19
1876,-0.7483,0.0686,0.492,1.5212,0.438,-0.8923
1889,-0.7517,0.0805,0.493,0.0098,0.499,-1.0602
1902,-0.7488,0.0791,0.5018,-4.3719,-0.2796,-3.2893
1915,-0.7615,0.0596,0.5074,-6.5246,-0.6918,-4.5717
1928,-0.749,0.0583,0.5035,-3.7307,-0.4475,-3.4725
1941,-0.7529,0.0588,0.5022,-3.1505,-0.5086,-1.7931
1980,-0.75,0.0693,0.4966,3.3685,0.8044,3.1535
1993,-0.7593,0.0679,0.4976,1.506,0.7128,3.123
2006,-0.7583,0.0664,0.5,5.1701,0.7586,3.9779
2020,-0.7522,0.0649,0.4969,6.8647,0.2242,3.7184
2033,-0.7605,0.0657,0.5064,6.3456,0.6822,3.3978
2045,-0.7554,0.0783,0.5088,4.9411,1.2929,2.4817
2086,-0.7527,0.083,0.4971,-5.3185,-0.2949,-6.4648
2098,-0.7593,0.0674,0.5049,-8.5856,0.1784,-7.2587
2112,-0.7529,0.0596,0.4971,-10.7841,-0.0964,-6.5106
2124,-0.7563,0.0525,0.4983,-5.8834,0.499,-4.0068
2137,-0.7566,0.0493,0.5027,2.6357,0.5143,-0.8618
2150,-0.7532,0.0639,0.4959,4.7731,-0.5391,-0.2664
2190,-0.7485,0.0622,0.5042,-5.3337,-0.417,-2.7396
2204,-0.7512,0.0539,0.5047,-1.9292,-0.4933,-0.4801
2217,-0.7468,0.0637,0.5013,-3.5933,-0.4017,1.3062
2230,-0.7507,0.0456,0.5069,-1.5627,-0.6155,1.8863
2243,-0.7549,0.0566,0.4991,2.7426,-2.1575,1.3367
2256,-0.759,0.0647,0.4966,2.5136,-1.0582,2.2527
2296,-0.7519,0.0693,0.501,-4.5398,0.041,-0.19
2308,-0.7554,0.0564,0.4986,-6.2192,0.2089,-0.9381
2322,-0.7517,0.0556,0.4978,-3.3337,-0.1269,-0.8465
2335,-0.7549,0.0593,0.501,0.3304,-0.4475,-0.19
2348,-0.7541,0.0591,0.5008,1.3533,-0.7376,-0.0831
2360,-0.7488,0.0622,0.5008,2.0708,-0.5849,-0.7854
2401,-0.7515,0.0503,0.5039,-2.6009,0.3616,-0.8312
2414,-0.7656,0.0532,0.5096,1.3533,0.5143,0.5886
2427,-0.7522,0.0664,0.5008,3.1243,-0.1269,0.8176
2440,-0.7539,0.0642,0.5049,-0.8605,-1.1346,-0.8465
2453,-0.7527,0.07,0.5042,-3.0589,-1.104,-2.0984
2466,-0.7561,0.0608,0.4998,-6.4482,-0.2033,-2.7396
2505,-0.7495,0.0564,0.5076,-0.5398,0.1021,0.5581
2518,-0.7546,0.0596,0.5061,-0.9979,-0.2185,0.7871
2532,-0.7485,0.0566,0.5027,-1.2574,-0.2185,-0.4038
2545,-0.7534,0.0564,0.4993,-3.2421,-0.2643,-0.8618
2558,-0.7485,0.0554,0.4993,-2.9979,0.1784,-0.816
2570,-0.7559,0.0478,0.5035,-4.0971,-0.0201,-0.5717
2611,-0.7537,0.0444,0.5032,-3.6696,-0.0201,-1.3045
2623,-0.7541,0.0534,0.5069,-2.1582,0.1784,-0.3122
2636,-0.7529,0.0517,0.5044,-0.6925,0.3005,0.4359
2649,-0.7502,0.0552,0.5083,-2.3414,0.1631,0.497
2663,-0.7598,0.052,0.503,-2.7078,0.1479,0.1153
2676,-0.749,0.05,0.5003,-2.0055,-0.0201,0.0848
2715,-0.7488,0.0561,0.5013,-3.12,-0.188,-2.1137
2729,-0.7519,0.0581,0.4954,-5.3185,-0.5697,-3.5793
2742,-0.7537,0.0461,0.5032,-4.5704,-0.2643,-3.7625
2755,-0.7568,0.0454,0.5015,-1.6238,0.1326,-1.5946
2768,-0.7522,0.0415,0.5054,0.8647,0.0105,0.497
2780,-0.7532,0.0473,0.5088,3.2006,-0.4933,1.5962
2821,-0.7507,0.0481,0.5096,3.0479,-0.7071,-1.9763
2834,-0.7498,0.05,0.5096,-0.0971,-0.2491,-3.045
2847,-0.751,0.0481,0.5086,-2.7231,0.7433,-4.1442
2860,-0.7515,0.0517,0.5079,-0.9673,0.5754,-3.6099
2873,-0.7522,0.061,0.513,-2.6773,-0.2338,-3.0602
2885,-0.7495,0.0344,0.5044,3.3838,0.5143,-1.3351
2926,-0.7505,0.0429,0.5027,-1.8223,-0.3712,-1.9915
2939,-0.751,0.0417,0.5039,-2.3414,-0.2033,-1.0602
2951,-0.7578,0.0483,0.5037,-2.6009,0.2547,-0.2358
2964,-0.7539,0.0342,0.502,-0.9215,-0.2643,0.039
2977,-0.7532,0.0393,0.5071,0.7579,-0.3407,0.6649
2991,-0.7527,0.0408,0.5064,2.0098,-0.1117,0.2985
3030,-0.7527,0.0349,0.5049,1.7808,0.1631,-0.3427
3044,-0.7517,0.0471,0.5015,1.2311,-0.3865,-0.4038
3057,-0.7524,0.0439,0.5074,0.8953,-0.4628,-0.9381
3070,-0.7554,0.0481,0.5042,1.2769,0.1784,-0.8465
3082,-0.749,0.0461,0.511,-0.2345,0.1784,-0.3274
3095,-0.7529,0.0429,0.5093,-1.12,0.3922,0.1001
3135,-0.7527,0.0476,0.5027,-4.1582,-0.3101,-1.4419
3148,-0.7529,0.0417,0.5022,-4.662,-0.4017,-1.3809
3162,-0.749,0.0405,0.5027,-1.7612,-0.1422,-0.2816
3175,-0.749,0.0376,0.5083,1.506,-0.3254,0.894
3188,-0.7541,0.041,0.5101,3.6434,0.1631,1.5199
3200,-0.7537,0.0432,0.5039,1.7044,0.3158,1.2451
3241,-0.7537,0.051,0.5047,5.2769,-0.1422,0.9703
3254,-0.7468,0.0549,0.5076,0.4831,-0.2033,-0.5412
3266,-0.7529,0.0466,0.5074,-2.3719,0.27,-1.7015
3279,-0.7539,0.0493,0.5044,-3.5933,0.1021,-2.19
3293,-0.7519,0.0481,0.5101,-2.4177,0.041,-1.7015
3306,-0.75,0.041,0.5025,-1.349,-0.5086,-1.1366
3345,-0.7512,0.0376,0.5037,0.3304,0.499,1.2451
3358,-0.7493,0.0429,0.5083,0.5441,0.7738,1.6115
3372,-0.7478,0.0481,0.5052,2.2082,0.957,1.3367
3385,-0.7461,0.0442,0.4966,4.2388,-0.0811,0.7871
3397,-0.7549,0.051,0.5069,-0.2345,-0.0048,-0.9839
3410,-0.7488,0.0508,0.5052,-2.9215,0.4227,-2.0984
3450,-0.7473,0.0381,0.5079,0.2082,0.0563,-0.5412
3463,-0.7466,0.0386,0.5022,2.2388,0.4074,-0.2053
3476,-0.7541,0.0505,0.5066,2.3456,-0.3101,-0.0984
3490,-0.751,0.0454,0.5059,-0.6162,-0.2796,-0.2816
3503,-0.7517,0.0437,0.5039,-1.2727,-0.814,-1.0755
3516,-0.7529,0.042,0.5096,-1.7918,-0.417,-1.2282
3556,-0.7544,0.0405,0.5047,0.9563,1.5525,0.5581
3569,-0.7534,0.04,0.5069,-1.7612,0.8654,-0.5259
3581,-0.7502,0.0459,0.4978,-2.5398,0.1784,-0.8007
3594,-0.7539,0.04,0.5047,-2.4788,-0.3407,-0.5412
3607,-0.7576,0.0388,0.5105,-0.5246,-0.3559,0.268
3621,-0.7517,0.0473,0.5037,0.2388,-0.4628,0.4817
3660,-0.749,0.0417,0.5005,-0.7231,0.1021,-0.4801
3674,-0.7493,0.0398,0.5008,-1.5933,0.3005,-0.6938
3687,-0.7529,0.0366,0.502,-2.3108,-0.1269,-0.8007
3699,-0.7488,0.0366,0.503,-1.6238,-0.1269,0.1001
3712,-0.751,0.0366,0.5015,1.1853,0.3005,0.5275
3725,-0.7527,0.0381,0.5022,3.3685,0.3922,1.7795
3765,-0.7515,0.0388,0.5074,-2.1582,-0.4628,-1.4419
3778,-0.7507,0.0378,0.5108,-1.5169,-0.1117,-0.4038
3792,-0.7519,0.042,0.5115,-0.4788,-0.0964,0.0085
3804,-0.749,0.0393,0.5069,-0.265,0.3769,0.4665
3817,-0.7529,0.0403,0.5049,0.3762,0.7128,0.5275
3831,-0.7546,0.0437,0.5054,-0.7231,0.7433,-0.2358
3871,-0.7561,0.0434,0.5057,0.7121,0.2242,-0.3122
3884,-0.748,0.0351,0.5101,1.5823,0.5143,0.3443
3897,-0.7563,0.0437,0.5032,0.4831,-0.1269,0.5581
3910,-0.7502,0.0442,0.5054,2.1014,0.4074,0.5886
3922,-0.7517,0.0415,0.4986,0.422,0.4074,-0.1747
3935,-0.7549,0.0442,0.5032,-1.2421,0.2547,-1.2893
3976,-0.7507,0.0398,0.5047,-1.0742,-0.2185,-0.9381
