time_ms,ax,ay,az,gx,gy,gz
13,-0.7213,0.3631,0.5975,-0.2146,-0.3595,-0.3455
26,-0.7191,0.3688,0.5997,-0.749,0.0833,-1.5821
38,-0.7233,0.3673,0.6043,-0.3826,0.1596,-1.4142
51,-0.7201,0.3658,0.6029,-1.0085,0.0833,-1.1699
92,-0.7218,0.3651,0.6021,0.2129,0.0375,0.3721
105,-0.7225,0.3609,0.6021,0.1823,0.297,-0.2692
119,-0.7225,0.3658,0.5958,0.6403,0.3123,-0.3455
130,-0.7201,0.3671,0.597,1.2816,0.297,-0.8798
143,-0.7169,0.3607,0.5985,-0.352,-0.2984,-0.6508
156,-0.7208,0.3656,0.6026,-0.3368,-0.2373,-0.6203
197,-0.7208,0.3592,0.6041,1.251,-0.4969,1.2728
211,-0.7196,0.3697,0.5975,0.8846,-0.39,1.1049
223,-0.7215,0.3619,0.5992,1.1136,0.3734,1.0286
236,-0.7218,0.3636,0.6026,1.8464,0.3734,2.3415
249,-0.7267,0.3551,0.6031,3.1136,0.4039,5.1507
262,-0.7367,0.34,0.5909,7.8312,0.7398,10.8911
303,-0.8443,0.4933,0.4915,3.0373,6.1291,-2.0707
317,-1.0157,0.3815,0.7367,11.6632,8.1596,4.0209
330,-0.9671,0.4923,0.6754,9.1289,-24.5885,15.3644
343,-0.8602,0.4964,0.6844,16.9915,-32.2068,34.1431
355,-0.6774,0.4925,0.5716,14.6251,-38.4053,45.3186
368,-0.569,0.4237,0.4908,3.6632,-26.5579,42.311
410,-0.589,0.421,0.6004,-22.5658,14.236,15.456
423,-0.6427,0.3863,0.6458,-20.6879,20.3886,15.6087
435,-0.6996,0.4486,0.6427,-27.207,22.8009,13.1354
448,-0.7274,0.4567,0.6375,-21.1001,21.7932,19.0591
461,-0.6991,0.4073,0.5777,-19.8635,23.0909,20.4331
474,-0.6639,0.3356,0.5379,-22.7948,27.2741,11.7156
515,-0.7494,0.4288,0.557,-6.6879,32.0986,-4.5592
528,-0.6512,0.3922,0.3848,5.2205,-8.0694,-14.1928
541,-0.7308,0.3905,0.5684,-0.7184,7.6864,-8.0707
554,-0.7489,0.3927,0.5728,0.6709,-3.5045,0.6621
567,-0.7464,0.3949,0.5672,2.0449,-2.4969,5.0133
580,-0.7318,0.378,0.5841,5.6174,-3.6266,4.1125
621,-0.5814,0.2174,0.6856,-15.8329,1.3199,-21.7501
634,-0.5826,0.2059,0.7567,27.0525,-3.8251,-24.1165
648,-0.6954,0.6876,0.9107,27.8312,13.6558,-24.0554
661,-1.2652,0.5797,0.6046,81.0831,24.6635,-28.0402
673,-0.5072,0.578,0.4075,45.877,10.8161,-24.4982
686,-0.7972,0.8487,0.422,29.9838,18.3734,-18.9256
728,-0.8485,0.5797,0.3067,1.2205,22.3581,-20.7272
741,-0.7054,0.4276,1.4239,-40.8253,32.4955,2.3568
753,-0.7757,0.5331,0.6724,0.7472,18.9688,13.1507
766,-0.7879,0.2689,0.4935,-26.5963,5.8238,12.0973
779,-0.7411,0.6014,0.5028,3.0525,2.8314,11.7919
792,-0.7079,0.265,0.5587,-1.5429,-0.5579,2.6469
834,-0.7369,0.3563,0.5631,2.4724,-0.8327,6.7385
847,-0.714,0.3287,0.5929,2.0144,-1.932,5.2423
859,-0.7635,0.3705,0.5477,-0.5963,-5.703,-3.0325
872,-0.9508,0.546,0.4903,21.1136,-0.1762,-12.5134
885,-0.692,0.493,0.72,27.5869,15.5031,-17.2463
898,-0.62,0.3817,0.1209,12.7319,19.6863,-21.3073
939,-0.7879,0.4462,0.4322,1.6632,13.5795,-10.7272
952,-0.8024,0.4742,0.3468,0.1213,21.1367,-15.2615
965,-0.7662,0.5301,0.4539,-1.3902,23.61,-8.1165
979,-0.7342,0.4376,0.5418,-6.7795,5.4879,-21.9027
991,-0.7926,0.3675,0.5877,-19.8482,13.3963,-4.9714
1005,-0.787,0.5348,0.5201,-23.7413,10.1444,14.2499
1046,-0.7489,0.8976,0.6344,4.9457,-10.8175,38.0209
1058,-0.6822,0.234,0.6561,11.251,-5.8862,6.8606
1071,-0.7464,0.3212,0.5262,6.2892,-2.0694,7.8224
1084,-0.7723,0.4149,0.512,2.9457,-8.5885,20.8148
1097,-0.7584,0.3734,0.4967,0.793,-0.1152,4.8148
1110,-0.7572,0.413,0.5343,2.564,0.526,2.0209
1151,-0.7557,0.4022,0.5345,8.2739,-0.6495,5.8224
1164,-0.7567,0.4115,0.5316,8.9762,-0.39,7.0133
1177,-0.7565,0.4369,0.5355,2.8541,-0.8022,2.54
1190,-0.7579,0.4281,0.5279,-2.2757,0.7703,-3.0478
1203,-0.7582,0.4205,0.5377,-1.6803,1.4268,-3.9333
1217,-0.7569,0.4112,0.5264,-1.1612,1.4268,-3.5669
1257,-0.7555,0.4213,0.5308,-0.0314,0.2512,-2.4829
1271,-0.7569,0.4159,0.5325,-0.8864,-0.2984,-2.2844
1283,-0.7577,0.4132,0.533,-1.2986,-0.39,-2.0707
1296,-0.7565,0.4042,0.5352,1.1442,0.0222,-0.5592
1309,-0.7596,0.41,0.5347,2.4113,0.297,0.5247
1322,-0.7591,0.4193,0.5323,-2.9322,0.526,-1.7195
1363,-0.7713,0.5521,0.5484,-6.9169,-15.0617,12.311
1376,-0.7608,0.4254,0.5445,-9.6803,0.0986,-1.0631
1389,-0.745,0.097,0.4964,-21.7108,-7.3213,12.0973
1402,-0.7743,0.3487,0.5272,3.8464,1.2131,-0.1623
1415,-0.7567,0.4354,0.5316,-0.1841,-0.3289,1.853
1429,-0.7621,0.4164,0.543,-3.9551,-1.703,-0.7577
1469,-0.7547,0.3978,0.534,-0.5047,-0.7411,0.6316
1482,-0.7545,0.4117,0.5347,2.3045,-0.6801,1.9293
1495,-0.7574,0.4166,0.5338,0.7777,-0.3442,1.3492
1508,-0.7655,0.4325,0.5567,2.793,-0.2068,1.0133
1521,-0.7574,0.4147,0.5389,0.9304,-0.1915,0.1431
1535,-0.7555,0.4186,0.5406,-0.749,0.007,-1.2921
1575,-0.7562,0.4193,0.5367,1.5716,0.068,1.2881
1588,-0.7574,0.4083,0.5372,-0.4131,0.3428,0.3721
1601,-0.7562,0.4164,0.5389,0.1823,0.4192,-0.4676
1613,-0.7555,0.4142,0.5355,-0.0925,0.3886,-1.2921
1626,-0.754,0.4105,0.5377,-0.352,0.7856,-0.6356
1639,-0.7501,0.4151,0.534,-2.5352,-0.2068,-1.6585
1680,-0.7574,0.4076,0.536,0.0296,0.1291,0.9064
1693,-0.7547,0.4137,0.5338,0.7319,-0.222,1.1812
1706,-0.7562,0.4068,0.5409,0.5793,0.068,0.7537
1719,-0.7557,0.4137,0.543,1.938,0.4039,1.1202
1732,-0.7574,0.4169,0.5345,1.8159,0.6176,0.4637
1745,-0.7569,0.4127,0.5338,0.9151,0.5108,-0.2539
1786,-0.7562,0.4144,0.5406,-0.1078,-0.1152,1.2881
1799,-0.7584,0.411,0.5426,2.6709,-0.222,1.2881
1812,-0.7565,0.411,0.5369,1.7548,0.6482,-0.0707
1825,-0.7565,0.4112,0.5399,0.1976,0.0833,-1.2921
1838,-0.7569,0.4137,0.536,0.1518,-0.2526,-0.4829
1851,-0.7579,0.4037,0.5379,3.0067,-0.1152,1.395
1893,-0.7552,0.4164,0.5389,-0.9322,0.5566,-1.002
1905,-0.7562,0.409,0.5391,-0.4131,-0.2373,-1.4295
1918,-0.7569,0.4086,0.5389,-0.1688,0.1444,-1.1547
1931,-0.7525,0.4086,0.5338,-0.81,0.0375,-1.231
1944,-0.755,0.4142,0.5396,-0.52,-0.4969,-0.3913
1958,-0.7567,0.4144,0.5389,-2.1078,-0.5732,-1.46
1999,-0.7611,0.4017,0.5391,4.2587,-1.1839,6.2957
2011,-0.7604,0.412,0.5391,6.3961,-1.3976,9.2118
2024,-0.755,0.3995,0.5379,7.7396,-1.5198,9.2576
2037,-0.7618,0.409,0.5462,14.6709,-1.1075,12.6621
2051,-0.7604,0.4042,0.5308,18.7472,-1.1381,15.7766
2064,-0.7533,0.3976,0.4854,18.6098,2.7856,13.7156
2104,-0.7887,0.2867,0.5355,39.7243,-27.8098,-12.2997
2117,-0.7313,0.443,0.4793,42.4724,-29.1075,-8.4829
2130,-0.6786,0.5223,0.5443,34.3045,-27.9472,-7.5516
2143,-0.6066,0.5328,0.5135,19.2052,-19.8709,-14.2386
2156,-0.6317,0.4296,0.5509,12.2739,-9.474,-23.46
2169,-0.6395,0.5248,0.5814,12.7319,0.1596,-28.9867
2210,-0.742,0.371,0.588,9.0067,17.7169,-24.086
2223,-0.8334,0.4598,0.6029,4.1518,13.0146,-23.7653
2237,-0.8363,0.516,0.5714,-3.7566,8.7856,-16.4066
2250,-0.776,0.4691,0.5472,-2.9169,7.4726,-7.8722
2262,-0.746,0.4567,0.5274,-2.3826,8.3886,-3.5669
2275,-0.745,0.4261,0.5345,-0.9169,10.7093,-1.8264
2317,-0.7787,0.3954,0.5816,-3.6803,6.1138,-5.6737
2330,-0.8116,0.3363,0.5836,2.8541,-5.1075,-7.2768
2343,-0.7452,0.3758,0.5282,1.3732,-1.6572,-1.1699
2355,-0.7718,0.4327,0.515,-5.9246,-3.4282,-1.5669
2369,-0.7469,0.3929,0.5511,-0.1536,0.3428,1.1507
2382,-0.7347,0.3878,0.5618,-0.0314,-0.1457,-2.0249
2423,-0.7538,0.4222,0.5611,-0.978,-2.3136,-1.0325
2435,-0.7401,0.3949,0.5562,-1.3902,-1.4282,-1.5516
2448,-0.7403,0.4032,0.5606,-2.2299,-2.9396,-3.2005
2461,-0.7567,0.4188,0.5413,-3.3902,-1.6114,-3.3837
2475,-0.7447,0.388,0.5462,-1.9093,-0.8633,-2.6661
2488,-0.7469,0.3976,0.555,-4.8711,-1.3976,-3.5058
2528,-0.7447,0.3729,0.5577,-2.291,-0.0999,-1.2768
2541,-0.743,0.3817,0.5579,-0.3978,0.1596,0.9522
2553,-0.7496,0.3739,0.555,2.0907,-0.2526,4.2652
2566,-0.7455,0.3649,0.5484,3.48,-0.0388,6.2805
2580,-0.7381,0.3456,0.5596,7.3884,0.1291,10.6469
2592,-0.7447,0.3422,0.5445,14.3961,-0.0388,12.8606
2633,-1.1876,0.5104,0.7662,69.2205,11.6405,-30.5898
2646,-0.8858,0.2584,0.4166,47.19,2.8772,-39.1394
2660,-0.5443,0.42,0.5189,40.6251,20.6787,-22.9409
2673,-0.8629,0.9247,0.4244,21.877,-3.4129,-4.8646
2685,-0.7438,0.5006,0.5719,-6.0925,9.0146,-9.7653
2698,-0.7464,0.4347,0.5643,-11.3139,2.4192,-15.7195
2739,-0.8036,0.4706,0.4173,2.1213,12.7703,7.853
2753,-0.7545,0.3314,0.4971,17.0373,7.0757,11.7766
2765,-0.8421,0.495,0.5841,1.7243,6.7245,20.3873
2778,-0.7447,0.5021,0.3846,3.3579,18.9993,21.9904
2791,-0.7711,0.4064,0.4513,26.5793,7.3963,7.395
2804,-0.7525,0.5511,0.7498,-18.1383,5.9459,13.624
2845,-0.8395,0.4752,0.399,13.2205,2.7551,6.0973
2858,-0.6295,0.1371,0.7935,-27.5887,10.9535,8.2347
2872,-0.7203,0.3514,0.5435,-11.8177,-1.3671,20.998
2885,-0.7213,0.2108,0.5584,5.0984,-3.0312,1.0744
2897,-0.7391,0.4281,0.5343,13.19,-0.0083,9.2728
2910,-0.7467,0.3944,0.535,10.6403,1.4726,12.9675
2952,-0.8089,0.3566,0.5767,28.5335,-6.1152,20.8301
2964,-0.4701,-0.0477,0.2269,-8.123,12.694,-38.544
2977,-0.8724,0.4493,0.3753,106.869,20.8161,-30.0402
2990,-1.2147,0.4559,1.025,46.6098,23.4573,-38.6661
3004,-0.8768,0.5712,0.6158,28.7777,25.2894,-25.2615
3017,-0.7359,0.5575,0.7535,-8.1994,4.5566,-1.3989
3057,-0.8085,0.4296,0.3995,-9.7108,20.5413,-15.7043
3070,-0.858,0.4947,0.078,3.8006,35.6558,-0.8035
3083,-0.7242,0.3878,0.7367,-6.9475,22.526,6.1583
3097,-0.7401,0.4042,0.5435,7.0525,11.3505,-1.7348
3110,-0.7464,0.3766,0.6771,-14.8864,15.4115,-1.2463
3122,-0.7447,0.2526,0.5223,6.3503,9.2436,-0.834
3163,-0.8268,0.5321,0.4915,-2.291,-3.1075,8.7995
3177,-0.673,0.2425,0.5296,29.19,-4.5885,16.6011
3189,-0.7557,0.4723,0.5374,-4.581,-25.703,30.6621
3202,-0.7997,0.5851,0.7064,0.3045,-16.4969,15.2118
3216,-0.7186,0.1026,0.4503,-34.3062,-9.3366,2.998
3228,-0.7733,0.287,0.4644,-0.9933,-0.5579,-6.5745
3269,-0.7652,0.4276,0.4942,5.4495,-0.1457,7.5782
3283,-0.7657,0.4269,0.5006,2.3655,1.6558,-0.4829
3295,-0.7711,0.4191,0.4962,0.4877,2.1138,-6.2081
3308,-0.7694,0.3954,0.4893,0.3503,0.7551,-6.5134
3321,-0.7704,0.399,0.4945,3.8159,-0.39,-1.0936
3334,-0.7682,0.4047,0.5003,4.9151,-0.161,1.1965
3375,-0.7657,0.4181,0.5018,-1.4055,-1.1381,-3.6737
3388,-0.7696,0.4073,0.4981,2.4571,-1.1533,-1.7348
3401,-0.7667,0.4256,0.5135,-2.2604,-1.9167,-2.834
3414,-0.7621,0.452,0.5645,-5.4665,-9.4129,1.624
3427,-0.776,0.3917,0.4066,-8.4894,-10.0236,1.4713
3440,-0.7643,0.3761,0.4759,-6.2299,-3.6419,0.1278
3481,-0.7618,0.409,0.5145,-0.9016,-2.4205,3.4713
3495,-0.7711,0.4242,0.4852,-4.8711,-1.3976,-2.6814
3507,-0.7699,0.4166,0.5098,-4.0162,-1.4129,-4.6203
3520,-0.7704,0.4491,0.5362,-3.1459,-5.0312,0.3415
3533,-0.7433,0.4442,0.502,-15.7413,-21.1075,20.5705
3546,-0.7775,0.2201,0.4825,0.5335,1.4421,0.1736
3588,-0.7638,0.4081,0.4957,1.1136,-0.5427,2.2805
3600,-0.7633,0.4208,0.5023,3.0831,-1.3671,3.7308
3613,-0.7687,0.4388,0.5242,5.2052,-0.0694,1.3644
3626,-0.7643,0.4205,0.5147,3.4495,0.5566,-0.1318
3639,-0.7618,0.4291,0.5147,-0.1841,0.2054,-2.2692
3653,-0.7628,0.4215,0.5116,-3.4207,-0.5579,-1.7653
3693,-0.7601,0.4078,0.5072,-4.5658,-0.39,-2.4066
3707,-0.7604,0.4103,0.5152,-1.6192,-0.1457,-0.4676
3720,-0.7638,0.4169,0.5098,-2.0772,0.2054,-0.7272
3732,-0.7623,0.4203,0.5096,-2.6116,-0.39,-1.3226
3745,-0.7648,0.4081,0.515,-3.3902,-0.4816,-2.1165
3758,-0.7645,0.4037,0.5108,-0.6268,-1.077,-0.2234
3799,-0.7608,0.4191,0.5145,2.2129,-0.2984,-1.689
3812,-0.7638,0.41,0.5123,-2.4131,0.3123,-2.147
3825,-0.767,0.4078,0.5133,-0.749,-0.2678,-0.2997
3839,-0.7662,0.4093,0.515,-0.5963,-0.4663,-0.1165
3850,-0.7608,0.4156,0.5074,1.0067,-0.6495,-0.1318
3863,-0.765,0.4137,0.513,-1.0696,-0.5427,-0.8493
3904,-0.7633,0.409,0.5094,4.1518,-0.0999,2.2957
3917,-0.763,0.4191,0.5157,0.3655,-0.3136,0.311
3930,-0.766,0.4166,0.5157,-2.1841,0.0986,-2.3913
3943,-0.7628,0.4108,0.5103,-0.0772,-0.0083,-1.918
3956,-0.7606,0.4159,0.5108,1.022,-0.4053,-1.5669
3970,-0.7616,0.4066,0.512,-0.5047,0.5108,-1.5516
4010,-0.7616,0.41,0.5111,0.4724,-0.2526,-0.6356
4023,-0.765,0.4054,0.5133,0.7472,-0.161,0.4179
4037,-0.7699,0.4173,0.5091,-4.4284,-0.8175,0.1736
4049,-0.7626,0.4095,0.5142,-2.1078,-0.7411,-1.6737
4062,-0.7601,0.4086,0.512,-0.1383,-0.0388,-0.8798
4075,-0.7645,0.3995,0.505,0.6861,-0.1762,0.2805
4116,-0.7633,0.4025,0.5123,-2.8558,0.068,-2.5745
4129,-0.7623,0.4103,0.5113,-2.123,-0.3136,-2.315
4142,-0.7616,0.4027,0.5128,-0.8711,-0.3595,-1.4295
4155,-0.7599,0.4083,0.5167,1.3732,-1.0617,1.1049
4169,-0.7635,0.41,0.5125,-1.7566,-0.161,-0.3608
4181,-0.7604,0.4083,0.5159,-2.0925,-0.161,-1.1089
4222,-0.7613,0.4068,0.5133,-0.062,0.4192,-1.231
4235,-0.7616,0.4007,0.5181,1.3732,0.236,0.082
4248,-0.7645,0.4083,0.5106,0.4877,0.3428,0.5705
4261,-0.7626,0.4034,0.5135,0.793,-0.2984,1.0438
4274,-0.7613,0.4081,0.513,0.6556,-0.9549,0.7232
4287,-0.7601,0.4076,0.5142,-0.749,-0.2831,-1.1699
4328,-0.7616,0.3998,0.514,1.5106,0.0528,-1.3989
4341,-0.7601,0.412,0.5159,0.3197,-0.1915,-1.231
4355,-0.763,0.4086,0.5074,-1.4818,-0.39,-2.1012
4368,-0.764,0.4044,0.5152,-1.2375,-0.3442,-2.0554
4380,-0.7608,0.4066,0.514,-1.5429,0.1291,-1.6737
4393,-0.7628,0.4027,0.5172,-1.0696,0.4802,-2.147
4435,-0.7601,0.3993,0.5159,1.9228,-0.848,2.4789
