time_ms,ax,ay,az,gx,gy,gz
13,-0.7864,0.0928,0.4336,-0.7231,-0.3407,0.1764
25,-0.7935,0.0918,0.4273,-0.0055,-0.4475,0.6649
38,-0.7944,0.0964,0.4383,0.5136,-0.5239,1.0008
51,-0.7832,0.0947,0.4263,0.5441,0.1479,0.6802
92,-0.7861,0.0935,0.4292,-1.9139,-0.1575,-1.8083
104,-0.7869,0.0945,0.4307,-4.0055,-0.2185,-2.1595
117,-0.7886,0.0896,0.4349,-3.578,-0.2338,-1.3656
130,-0.7842,0.0891,0.4317,-2.4177,0.041,-0.3122
143,-0.7876,0.0852,0.4297,-0.8147,0.1021,0.9245
156,-0.7886,0.0862,0.4329,0.254,0.0105,1.5352
196,-0.79,0.0898,0.4327,0.2998,0.1784,-1.1976
209,-0.7866,0.0891,0.43,-0.1429,0.3922,-0.7702
222,-0.792,0.0893,0.4307,0.2082,0.4074,-1.045
236,-0.7866,0.0932,0.43,-1.1963,-0.1575,-1.5335
248,-0.7893,0.092,0.428,-0.9215,-0.7682,-1.503
261,-0.7932,0.0854,0.431,1.3227,-0.9208,-1.8236
301,-0.8052,0.0659,0.4346,13.4754,-0.1422,9.8558
315,-0.7969,0.0903,0.4341,28.4373,-3.9285,12.1917
328,-0.7959,0.1179,0.4419,20.2082,-4.0048,11.0772
340,-0.8022,0.0984,0.4414,17.2922,-5.3788,9.1535
353,-0.8171,0.0879,0.4925,22.6663,-6.0811,13.81
366,-0.8206,0.0176,0.5909,27.1243,-22.6765,9.6878
406,-0.7295,0.1382,0.5254,-4.9673,-50.0353,-11.7167
419,-0.6887,0.1784,0.3721,-17.4406,-44.9666,-5.5183
432,-0.6858,0.1062,0.3528,-6.9368,-31.104,1.8711
446,-0.6921,-0.0017,0.4446,-10.5704,-23.4094,-3.1366
459,-0.7231,0.0371,0.5074,-15.9139,-22.2491,-15.3656
471,-0.7168,0.0527,0.5833,1.3533,-25.5926,-24.358
512,-0.6707,0.1513,0.4832,-48.0818,-28.2491,-38.1747
525,-0.7278,0.198,0.4539,-75.7612,-19.9437,-32.4496
538,-0.7378,0.187,0.4854,-47.12,-16.6765,-21.6557
551,-0.7385,0.0884,0.4917,-41.1963,-13.2872,-15.4877
564,-0.75,0.0422,0.5271,-39.9597,-11.8674,-13.4725
577,-0.7798,0.074,0.4888,-39.0131,-10.6765,-9.2893
616,-0.7378,-0.0122,0.5408,-16.204,-10.646,-2.2511
629,-0.7363,0.0576,0.535,-19.8223,-11.5315,-2.419
643,-0.727,0.04,0.4688,-33.0131,-8.5086,-0.7854
656,-0.7617,-0.022,0.4859,-24.1124,-3.5315,1.3672
669,-0.7637,-0.02,0.4612,-5.4559,0.4838,3.2146
681,-0.7488,-0.0213,0.5386,4.5441,2.7586,6.6955
721,-0.7295,0.0395,0.5999,12.6052,-3.5773,6.3443
735,-0.7319,-0.0003,0.6392,25.2006,-2.2491,7.3825
748,-0.7197,-0.0418,0.5538,8.3304,-10.1269,-2.6938
760,-0.7329,0.1133,0.4336,-4.4788,-9.4552,-5.9152
774,-0.7292,0.0659,0.5989,-8.7383,-13.0735,-6.6022
787,-0.7185,-0.1028,0.4837,-24.0055,-19.8216,-20.1595
827,-1.0691,0.0757,0.4017,-6.0208,-22.4323,-24.4801
840,-0.6787,-0.1448,0.4297,-16.7383,-14.3407,-17.7625
853,-0.7129,-0.1323,0.4571,-26.4024,-14.7529,-25.8847
866,-0.7686,0.1164,0.4773,-15.0589,-6.9972,-24.19
879,-0.6792,-0.3008,0.4236,-32.6925,-9.4094,-30.6022
892,-0.8215,0.0044,0.6968,-20.8757,-2.814,-26.0984
933,-0.7581,0.1521,0.386,40.5899,0.3616,-23.9305
946,-0.7515,-0.0852,0.3826,39.4296,5.2624,-24.358
958,-0.7029,-0.0601,0.6509,45.2617,3.354,-13.3656
971,-0.7659,0.1177,0.6353,35.9182,7.3693,-10.5412
984,-0.7778,-0.0293,0.3724,25.0327,8.5601,-9.4725
998,-0.7334,0.0129,0.5096,42.8647,9.186,-5.7778
1037,-0.8318,-0.1113,0.1761,40.2693,17.2776,-3.503
1050,-0.8135,-0.0564,0.3562,30.2998,21.186,0.268
1064,-0.626,-0.0542,0.6551,60.4831,23.9189,14.2375
1076,-0.7085,0.1882,0.5066,51.2311,20.7738,23.9016
1090,-0.7686,-0.0103,0.4903,32.8647,19.0334,19.123
1102,-0.783,0.1501,0.387,29.3838,19.2776,21.6268
1142,-0.6728,0.0827,0.5845,37.3227,20.3158,26.2985
1155,-0.7153,0.0456,0.545,23.0937,15.2318,14.7871
1168,-0.813,0.3069,0.7896,2.8953,28.499,33.9932
1182,-0.8623,-0.0774,0.8936,-12.3108,28.8502,27.6878
1195,-0.762,0.0957,0.2715,12.1166,25.6135,35.8558
1208,-0.7234,-0.2322,0.7757,-5.7002,31.9036,34.7565
1247,-0.4978,0.3249,0.9615,-44.4788,21.4151,34.8329
1261,-0.7195,0.1438,0.6382,-13.6696,21.8731,34.2069
1274,-0.7202,0.0349,0.3997,-12.7078,16.9112,25.2298
1287,-0.9075,0.0635,0.2957,-19.8223,6.7128,22.9398
1300,-0.6956,-0.18,0.5721,-31.0589,0.5448,12.2069
1313,-0.6824,0.1416,0.3775,-10.265,9.2471,29.5199
1352,-0.751,0.0688,0.5179,16.5899,1.0181,6.0085
1365,-0.741,0.0906,0.4803,21.7197,-0.4323,5.1077
1378,-0.7769,0.0617,0.4844,16.9258,0.0105,3.0924
1392,-0.7515,-0.0908,0.5406,16.7121,-3.8063,-9.2129
1405,-0.729,0.0354,0.4996,23.3685,-8.7529,-18.8618
1418,-0.6704,0.0278,0.325,33.964,-12.2949,-16.7396
1457,-0.9253,0.0691,0.1712,17.2159,-3.3636,-32.4648
1471,-0.8125,0.0303,0.5794,29.6434,-10.188,-34.4038
1484,-0.6186,0.2514,0.4847,52.1319,-11.562,-17.0297
1497,-0.4927,0.0229,0.6858,51.0174,-17.562,-34.9839
1509,-0.7009,0.0342,0.5816,30.9716,-5.3636,-29.8541
1522,-0.7893,0.1955,0.3553,25.6586,-2.8598,-21.5793
1563,-0.7524,0.1455,0.5088,13.3991,15.8425,-21.8999
1576,-0.7534,0.093,0.3643,17.2006,22.3616,-18.5564
1589,-0.7002,0.3379,0.7701,54.422,21.9189,-7.0755
1602,-0.8027,0.2793,0.2896,19.9334,16.8349,-16.8465
1615,-0.7937,0.197,0.5894,20.2388,21.7051,-0.4954
1627,-0.9773,0.239,0.6455,22.651,20.9418,11.1688
1667,-0.7063,-0.0029,0.96,7.4296,18.6822,-0.0221
1681,-0.7917,0.0032,0.5914,9.2311,24.499,11.6726
1693,-0.7175,-0.0799,0.5867,3.6281,29.7967,20.1764
1707,-0.7358,0.1929,0.4278,-5.4101,25.2318,17.3214
1719,-0.6118,-0.145,0.9361,-31.3643,10.27,4.2375
1733,-0.7847,0.3406,0.3848,-47.8986,27.6441,16.4665
1773,-0.8193,0.0066,0.367,-39.3948,5.1708,13.0161
1786,-0.8223,-0.0635,0.4119,-37.3032,-8.2338,0.9092
1799,-0.718,-0.1692,1.0074,-33.3185,-6.8292,6.6344
1811,-0.771,-0.0164,0.7242,-12.0055,-2.1727,2.3138
1824,-0.7563,-0.0176,0.4942,-72.036,-4.3101,8.6039
1838,-0.7615,0.0862,0.3465,-49.6849,-2.6918,6.4512
1877,-0.8047,0.0552,0.4466,-23.8528,-14.6765,2.7107
1890,-0.7778,0.2615,0.2373,-16.1276,-19.2872,1.2909
1904,-0.8118,-0.0674,0.4344,-18.0513,-7.9437,-7.3656
1917,-0.8184,0.0639,0.4554,-5.2727,-6.4323,-1.274
1929,-0.7649,0.0581,0.4239,-9.3337,-2.417,4.3291
1942,-0.8083,-0.0122,0.4226,-3.5169,-1.3941,4.4207
1983,-0.7961,0.0762,0.4522,-1.6544,-2.7376,-3.6404
1995,-0.7786,0.0793,0.4556,-2.1429,-0.7224,-4.6022
2008,-0.7847,0.0688,0.4549,-4.0208,-0.5391,-3.7167
2021,-0.7817,0.0617,0.4468,-1.6391,-1.0735,-2.8923
2034,-0.7839,0.052,0.4532,-1.6238,-0.5697,-0.877
2047,-0.7869,0.0635,0.4512,2.8647,0.4838,1.413
2087,-0.7815,0.0805,0.4446,3.8266,0.7738,1.5657
2100,-0.7747,0.0884,0.4449,-1.0131,0.0105,-0.2358
2113,-0.7891,0.0759,0.4427,-3.7612,-0.7224,-0.9534
2127,-0.783,0.0722,0.451,-3.7765,-0.4475,0.8329
2139,-0.7739,0.0488,0.4429,0.6052,0.4838,4.3138
2152,-0.7898,0.0713,0.451,5.9792,0.3158,6.7718
2192,-0.78,0.0869,0.4368,-0.4788,0.4685,3.3978
2206,-0.7935,0.0906,0.458,-0.1887,0.7433,1.0008
2218,-0.7771,0.0908,0.4441,-2.0971,1.3998,-0.419
2231,-0.781,0.0813,0.4454,-6.1429,1.3998,-1.503
2244,-0.7832,0.0786,0.4322,-3.746,-0.3101,-1.4419
2257,-0.7869,0.0613,0.4451,0.6357,0.4838,-0.1747
2297,-0.7786,0.0871,0.4397,7.7502,0.9265,2.0237
2310,-0.782,0.0932,0.448,4.0861,-0.0659,0.955
2323,-0.7873,0.0986,0.4488,0.4067,-0.0506,-1.0908
2337,-0.771,0.0781,0.4373,-3.5933,-0.6155,-0.2816
2349,-0.7837,0.0786,0.4461,-3.1658,-1.1498,0.5123
2362,-0.7808,0.0783,0.4429,-2.2192,-0.814,0.6497
2402,-0.7886,0.0937,0.4449,2.1472,-0.2643,-0.4954
2415,-0.782,0.084,0.448,1.0479,-0.5544,-0.4038
2428,-0.781,0.082,0.4476,-0.494,-0.6613,0.3138
2441,-0.7786,0.0823,0.4519,-1.3185,-0.2185,1.2451
2454,-0.7842,0.0762,0.451,-0.3566,-0.2338,2.0085
2467,-0.78,0.0871,0.4439,0.5899,-0.4475,2.3901
2508,-0.7788,0.0881,0.4422,3.5823,0.3158,2.7565
2520,-0.7825,0.0869,0.45,1.338,0.2242,1.5046
2533,-0.7822,0.0852,0.4463,2.9563,0.499,1.0314
2546,-0.782,0.093,0.4407,1.2617,0.5601,0.5581
2559,-0.7761,0.093,0.4471,-4.3566,0.728,-0.3274
2572,-0.7893,0.081,0.4451,-2.2192,0.3616,-0.5564
2612,-0.7793,0.0776,0.4439,-3.9902,0.041,0.3443
2625,-0.7895,0.0713,0.4517,3.5212,-0.1269,1.9169
2638,-0.7773,0.0866,0.4378,4.254,0.5601,2.5886
2651,-0.7817,0.0884,0.4446,4.025,0.6059,2.7565
2664,-0.7759,0.0918,0.4444,2.5441,0.4532,2.1611
2677,-0.7888,0.0857,0.4497,2.1472,0.6212,1.581
2718,-0.7917,0.0915,0.4488,-2.7689,-0.2796,0.3291
2730,-0.7837,0.0862,0.4485,-4.3566,0.499,0.4359
2743,-0.7781,0.094,0.449,-5.7002,0.6517,0.3749
2756,-0.7805,0.0888,0.449,-8.662,0.8349,-0.0679
2770,-0.782,0.0959,0.4444,-15.2574,1.2776,-1.1518
2783,-0.7825,0.0986,0.4444,-20.4482,0.8196,-3.1366
2822,-0.7734,0.0698,0.4446,-6.7994,-1.5773,-3.6862
2835,-0.7852,0.0674,0.4466,-4.7383,-0.2033,-2.0526
2848,-0.781,0.063,0.4446,-0.6773,1.0028,1.6268
2860,-0.7786,0.0754,0.4446,0.5289,0.4838,2.8634
2874,-0.7771,0.0808,0.4471,1.1548,0.2395,2.1917
2887,-0.7812,0.0842,0.4424,0.6052,-0.646,0.8024
2927,-0.783,0.0669,0.4444,2.7884,0.3005,0.3443
2940,-0.7803,0.0737,0.4451,4.0556,0.5906,1.1077
2953,-0.7817,0.0788,0.4456,3.8571,0.8196,1.6726
2966,-0.7795,0.0862,0.4397,4.2846,-0.0201,0.7565
2980,-0.7834,0.0857,0.4434,4.6968,-0.9819,-0.6175
2993,-0.7866,0.074,0.4473,5.4144,-1.5315,-1.3961
3032,-0.7783,0.0864,0.4485,7.1701,0.2395,2.2222
3045,-0.779,0.0805,0.4429,5.8571,0.3464,1.3825
3058,-0.7781,0.0857,0.4419,4.2082,0.1326,-0.0526
3071,-0.7825,0.0835,0.4478,2.651,-0.3712,-1.6557
3085,-0.7815,0.0825,0.4451,1.5976,-0.5391,-1.7931
3097,-0.7812,0.0779,0.4456,0.9411,0.3158,-0.5259
3137,-0.7815,0.0837,0.4427,0.9258,-0.1422,0.8482
3150,-0.7812,0.0879,0.4424,1.5976,-0.1575,0.1306
3163,-0.7861,0.0813,0.448,0.0556,0.27,-0.0526
3176,-0.7793,0.0818,0.441,1.109,0.4074,0.5733
3189,-0.7798,0.0891,0.4483,0.0556,0.3311,0.3443
3201,-0.7781,0.0884,0.448,0.1166,0.3311,-0.0679
3242,-0.7849,0.082,0.4439,2.5441,0.6212,0.7413
3255,-0.782,0.081,0.4412,3.0021,0.6059,1.3672
3268,-0.782,0.0847,0.4422,3.338,0.4227,2.497
3281,-0.7815,0.0937,0.4461,1.4296,0.4685,1.6878
3294,-0.7756,0.0991,0.4424,-0.9673,-0.188,0.2833
3307,-0.7781,0.0869,0.4515,-2.891,0.0715,-1.7167
3348,-0.7803,0.0913,0.4515,-1.0131,-0.4628,-0.8465
3360,-0.7898,0.0835,0.4468,3.0632,-0.2643,0.8787
3374,-0.7786,0.0879,0.4458,3.2464,0.0715,1.0619
3386,-0.7817,0.0918,0.4497,0.6968,0.1784,1.0619
3399,-0.7844,0.0898,0.4461,0.2388,0.3616,0.6802
3412,-0.7781,0.0945,0.4441,-1.12,0.7738,-0.4801
3452,-0.7859,0.0852,0.451,-1.6849,-0.188,-1.3961
3465,-0.7778,0.0808,0.4473,-0.1276,0.1631,0.1611
3478,-0.7769,0.083,0.4427,0.7731,0.0563,2.0543
3491,-0.7737,0.091,0.4476,0.6968,-1.043,2.1917
3504,-0.7856,0.093,0.4522,-0.7536,-0.1575,1.7184
3517,-0.7773,0.0928,0.4451,-2.2192,0.499,0.7413
3557,-0.7844,0.082,0.4515,-2.8299,-0.0353,-1.8847
3570,-0.7788,0.0869,0.4478,-3.0131,0.2089,-0.6938
3583,-0.7842,0.0749,0.4371,-0.2498,-0.2033,0.5123
3596,-0.7781,0.0786,0.4485,4.4067,-0.0506,1.8863
3609,-0.7817,0.0845,0.4493,3.2617,1.0486,1.9932
3622,-0.7764,0.0918,0.4439,1.796,0.9265,1.1382
3662,-0.7786,0.0852,0.4432,-3.0284,0.0868,-2.0373
3675,-0.7832,0.0776,0.4468,-0.0055,0.5448,-0.19
3688,-0.7783,0.0879,0.4444,-0.6162,0.4685,0.6191
3701,-0.7778,0.0832,0.4446,-1.4711,0.041,0.894
3714,-0.7795,0.0879,0.4493,0.1777,0.0563,0.9856
3727,-0.7795,0.0896,0.4473,-0.5551,0.6059,0.8787
3767,-0.782,0.0835,0.451,-0.6467,1.0944,3.4588
