time_ms,ax,ay,az,gx,gy,gz
10,-0.6812,1.0927,0.649,0.2684,-0.234,0.1827
23,-0.6812,1.0944,0.6515,-0.8767,-0.9362,-1.1608
36,-0.6866,1.0893,0.6466,-1.7164,-1.5317,-0.9623
50,-0.6824,1.0915,0.6485,-1.5179,-1.2416,-0.8402
63,-0.6822,1.0854,0.6515,-0.9988,-1.0126,-0.489
104,-0.6829,1.0932,0.6507,0.1004,-0.0202,-0.26
117,-0.6815,1.0893,0.6485,-1.1209,-0.8752,-1.9547
130,-0.6829,1.0895,0.6524,-1.4416,-1.3943,-2.3669
142,-0.6842,1.0868,0.6549,-2.2049,-2.1576,-2.1684
156,-0.6788,1.0849,0.6476,-3.1515,-3.5164,-2.5654
169,-0.6802,1.0895,0.6498,-3.7011,-4.0049,-3.6035
210,-0.6827,1.0849,0.6583,-2.0217,-2.7072,-1.6188
222,-0.6866,1.0788,0.66,-0.6324,-1.5469,-0.4127
235,-0.6837,1.0798,0.661,0.6195,-0.2187,0.7781
248,-0.6785,1.0785,0.66,1.8867,0.3309,1.8774
262,-0.6856,1.0878,0.6581,2.3294,0.7279,1.9384
275,-0.6893,1.0856,0.662,1.9936,0.4836,1.114
315,-0.6961,1.1003,0.6742,6.3294,-2.3256,-1.8173
329,-0.6409,1.1134,1.2342,16.2073,-20.4172,-13.9394
342,-0.6932,1.0863,0.7831,-25.5026,-25.3179,5.7094
355,-0.8839,1.287,0.9947,-10.8614,-48.524,31.6331
368,-0.7935,1.0932,0.9032,-7.0904,-69.6843,49.5568
381,-0.6458,1.0395,0.7726,-0.953,-75.5775,53.7858
422,-0.4549,0.9604,0.5606,-21.9912,-46.9515,15.2667
435,-0.5106,1.0094,0.5357,-36.9072,-27.8065,-5.3593
448,-0.5662,1.1291,0.5536,-36.5255,-11.9439,-13.1455
461,-0.627,1.203,0.6258,-46.8309,0.5447,-19.7562
474,-0.6834,1.214,0.6849,-82.8767,6.0256,-30.031
487,-0.6138,1.1574,0.6759,-17.5332,17.2928,-17.8173
528,-0.64,1.0934,0.7958,-7.182,15.2317,-26.5806
541,-0.7025,1.0497,0.8429,-12.1744,9.0332,-24.2142
554,-0.7369,1.0033,0.8175,-1.5942,1.9035,-18.7028
566,-0.6763,1.13,0.7794,7.047,0.6515,-9.7104
580,-0.626,1.2475,0.7477,-7.4263,0.621,7.7552
593,-0.6021,1.1928,0.7413,-13.9301,5.7966,23.0987
634,-0.5723,1.0636,0.724,-18.7087,25.5828,5.8926
647,-0.67,1.1603,0.7948,-25.4416,26.5294,5.1598
660,-0.7681,1.1718,0.6673,-33.7622,14.4683,17.1598
673,-0.6414,1.1156,0.4156,-27.7469,17.9951,25.9079
685,-0.7344,0.7944,1.0126,-7.5942,-14.0965,4.5491
698,-0.711,0.9308,0.8243,24.65,-0.3866,4.6255
740,-0.4508,0.7211,1.14,40.6348,-48.3561,-43.4356
753,-0.587,1.1549,0.6629,63.734,-44.295,-39.8631
766,-0.3956,1.6852,0.4588,67.3523,-55.1652,-62.5959
779,-0.3604,1.788,-0.1552,52.5737,-39.1805,-66.718
792,-0.44,1.529,0.4461,2.4821,-21.3027,-36.7486
805,-0.8182,0.6564,0.4742,5.3218,-12.7072,-37.2066
846,-0.8826,1.0942,0.3326,35.6882,27.8577,-14.5501
859,-0.3897,1.5641,1.3956,33.6119,55.3691,15.4194
872,-0.5616,1.308,0.9081,-6.8309,65.6744,28.9308
885,-0.6063,1.466,0.6786,-26.724,58.4073,55.1751
898,-0.4678,1.0114,2.0116,-54.0828,33.4454,36.7476
911,-0.8197,0.5412,1.931,-33.2889,49.7508,40.2438
952,-0.3577,1.0509,1.0091,17.6119,-10.0355,23.7094
964,-0.5262,1.1388,0.7926,14.2073,-4.3103,19.4194
978,-0.7984,1.0033,0.3717,-2.1438,-5.2721,14.1369
991,-0.7218,0.9926,0.6544,1.276,3.4302,14.7934
1003,-0.6475,1.0373,0.67,15.0775,7.247,15.343
1016,-0.6864,0.987,0.7965,-1.5179,-1.0584,3.511
1058,-0.6153,1.3464,0.5887,61.1997,-36.2492,-46.0616
1071,-1.023,0.4801,0.3109,0.2684,-15.2416,-57.2982
1083,-0.9923,0.6886,0.4698,17.1233,-1.8675,-35.6493
1097,-0.3621,1.5126,0.3009,78.3447,-13.1042,-39.3287
1110,-0.481,1.4811,0.723,56.589,-8.0202,-25.1608
1123,-0.7425,0.9772,0.2479,0.9249,8.0256,-48.4127
1164,-0.6424,1.6027,-0.5775,-8.7698,61.0332,26.9155
1177,-0.3389,1.734,-0.0324,9.4897,90.0714,52.8697
1190,-0.3275,1.2575,-0.632,-3.0751,65.2012,67.6178
1203,-0.5338,1.3222,0.5594,-27.7011,48.0409,37.3125
1216,-1.1517,0.8673,1.6134,-68.1286,34.6515,31.114
1229,-0.5655,1.234,0.5511,-2.6935,7.705,25.282
1269,-0.7115,1.0468,0.659,20.36,4.4073,2.1827
1282,-0.6766,1.048,0.6542,14.3447,4.7279,9.4652
1296,-0.6959,1.0827,0.6346,15.047,6.6973,13.2209
1309,-0.6925,1.1061,0.6463,6.7416,6.4683,7.4041
1322,-0.6817,1.123,0.6244,1.3065,4.4378,-0.718
1334,-0.6905,1.0983,0.6388,-2.5255,3.247,-7.9242
1376,-0.6898,1.0805,0.6493,-1.5637,10.3615,-10.8554
1389,-0.68,1.1005,0.6559,-6.8614,16.3157,-5.0692
1401,-0.71,0.9916,0.6044,-13.0293,16.9416,-5.7867
1415,-0.7012,1.0807,0.631,-26.5561,19.9645,-3.5119
1428,-0.6888,0.8893,0.5702,-1.411,21.537,-2.6417
1441,-0.712,1.1657,0.6935,-57.3652,26.1172,2.7781
1482,-0.7088,1.0651,0.6319,-43.4721,21.5676,9.0071
1495,-0.7149,1.0612,0.6239,-45.64,16.0867,6.427
1508,-0.7073,1.0241,0.6119,-36.7087,12.4378,8.6407
1521,-0.7061,1.0426,0.6244,-20.037,7.8882,13.6484
1533,-0.7144,1.0656,0.6261,-10.9835,3.476,13.2209
1547,-0.6968,1.0605,0.6161,-12.1896,-2.8599,9.511
1588,-0.7093,1.0512,0.6344,-16.3881,-10.7225,3.3583
1601,-0.6964,1.0602,0.6405,-11.5484,-11.5927,2.5797
1614,-0.6981,1.0522,0.659,-10.9835,-11.9744,0.9766
1627,-0.6978,1.0524,0.6607,-8.8767,-11.5927,-1.0234
1640,-0.6964,1.0502,0.6598,-5.3194,-10.4477,-0.5959
1653,-0.6947,1.0507,0.6554,-4.1591,-9.8217,0.1216
1694,-0.6956,1.0544,0.6695,1.9936,-5.2416,2.7323
1707,-0.6932,1.0629,0.6615,1.4592,-3.8217,0.2896
1720,-0.6981,1.0634,0.6607,-0.5408,-2.9973,-2.8096
1732,-0.6951,1.0568,0.6617,-2.9225,-3.0889,-4.7638
1746,-0.6976,1.0487,0.6688,-3.7164,-3.608,-4.5654
1759,-0.6927,1.0485,0.6752,-4.0217,-3.5317,-3.9394
1799,-0.692,1.0395,0.6681,-0.6782,0.4531,-0.2906
1812,-0.6934,1.048,0.6673,1.1386,1.3538,1.3888
1826,-0.6954,1.049,0.6678,1.505,1.3691,1.7247
1839,-0.6993,1.0509,0.6664,-0.2355,0.0103,0.6713
1852,-0.6978,1.0546,0.6571,-2.7851,-2.066,-1.9547
1865,-0.6964,1.0507,0.6666,-2.7851,-2.9362,-3.4661
1906,-0.6903,1.0387,0.6734,3.505,-2.9057,2.1369
1919,-0.6939,1.0519,0.6693,2.2684,-2.4935,1.9232
1932,-0.6912,1.0534,0.6722,1.0165,-3.0736,0.7934
1945,-0.69,1.0468,0.6712,-0.098,-2.7378,-0.6417
1958,-0.6917,1.0495,0.6744,0.4821,-2.4477,0.9003
1971,-0.691,1.0426,0.6844,0.2836,-1.8065,2.5491
2011,-0.6903,1.058,0.6749,1.2149,1.2317,3.6789
2024,-0.6861,1.0536,0.6686,1.1539,0.6515,3.5415
2037,-0.6876,1.0507,0.6681,-0.2049,0.1477,3.9995
2051,-0.6866,1.0478,0.6681,0.9401,-0.2798,5.114
2064,-0.6893,1.0517,0.6815,2.7111,0.3309,5.801
2076,-0.6893,1.0705,0.6742,1.3371,0.3767,2.6255
2117,-0.6888,1.0434,0.6788,-0.4187,0.6363,0.5186
2131,-0.6883,1.047,0.6695,3.0165,1.4302,4.0606
2143,-0.6905,1.0463,0.6686,4.5584,1.8271,6.2133
2157,-0.6861,1.0627,0.6759,3.505,1.9798,5.7552
2170,-0.6873,1.0634,0.6722,3.2302,1.476,3.2209
2183,-0.6864,1.0688,0.669,0.2073,1.018,-0.1074
2224,-0.6868,1.0509,0.672,4.3905,0.2546,1.2972
2237,-0.689,1.0585,0.6688,4.7569,-0.0813,2.6102
2249,-0.6859,1.0531,0.6717,6.9096,0.8042,4.0758
2262,-0.6851,1.0663,0.6673,6.65,1.0638,4.0911
2276,-0.6895,1.0717,0.6634,5.7493,0.2851,1.3583
2289,-0.6893,1.0702,0.6651,3.7493,-0.7836,-0.0768
2330,-0.6859,1.0646,0.6686,-1.7469,-2.8446,-2.2906
2342,-0.6839,1.057,0.6732,-1.6095,-2.066,-0.3974
2356,-0.6859,1.0649,0.6673,-1.2431,-1.2416,2.1064
2368,-0.6827,1.0631,0.6703,0.7416,-0.0965,2.6255
2381,-0.6864,1.0683,0.669,0.6195,0.5599,1.8316
2395,-0.6885,1.0678,0.6712,-1.0904,0.0714,-1.344
2436,-0.69,1.0639,0.671,2.7416,-0.4935,-0.0921
2448,-0.6849,1.069,0.6754,0.6958,-1.5469,-1.97
2462,-0.6866,1.0671,0.672,0.2989,-1.7454,-3.6341
2475,-0.6868,1.0573,0.6688,0.6042,-1.9133,-3.7104
2488,-0.6895,1.0558,0.6769,0.3905,-1.4859,-2.4432
2501,-0.6895,1.0539,0.6764,2.3294,0.4225,0.0911
2542,-0.689,1.0678,0.6654,-0.1286,-1.2263,-1.6035
2555,-0.6868,1.0646,0.6654,-0.953,-1.5317,-3.4203
2568,-0.6832,1.057,0.6712,-0.0217,-2.066,-3.9394
2581,-0.6864,1.0531,0.6693,1.0775,-0.9515,-2.3516
2593,-0.6859,1.0553,0.6712,2.9401,-0.1729,0.656
2606,-0.6871,1.0544,0.6708,3.0928,0.6057,3.2056
2647,-0.6866,1.0668,0.6722,3.4592,3.0332,4.5644
2660,-0.6846,1.0646,0.6695,3.5966,3.4149,3.801
2673,-0.6854,1.0653,0.6617,3.0012,3.2775,2.6713
2687,-0.6905,1.0614,0.6647,2.5737,3.0638,3.6178
2700,-0.6881,1.069,0.6649,2.9096,2.3157,4.3049
2713,-0.6824,1.069,0.6666,2.5737,1.1859,4.6255
2753,-0.6839,1.0815,0.6622,0.7569,0.4683,3.6942
2766,-0.6868,1.079,0.6634,-0.5103,0.2393,0.5949
2779,-0.6883,1.0793,0.6651,-1.8996,-0.4324,-1.8173
2793,-0.6878,1.0749,0.6715,-2.2355,-0.9515,-2.1074
2806,-0.6876,1.0639,0.6661,-2.6019,-0.7225,-1.5272
2818,-0.6878,1.0563,0.6715,-2.1438,-0.5851,-0.4738
2860,-0.6876,1.0751,0.6669,2.2989,1.7966,2.8697
2873,-0.6824,1.078,0.6669,2.4516,2.392,1.7705
2886,-0.6766,1.0746,0.6598,1.3829,2.1019,0.1827
2898,-0.6795,1.0695,0.6695,-1.5484,1.079,-0.7944
2911,-0.6864,1.0768,0.6742,-2.9072,0.2241,0.5644
2925,-0.7027,1.0754,0.6891,0.4058,-0.3714,1.6178
2967,-0.6761,1.0509,0.7149,-1.7622,-4.2492,-6.0768
2979,-0.6766,1.0751,0.6446,-2.5713,-4.0813,-5.2371
2992,-0.6754,1.0614,0.6927,-1.3958,-4.7836,-6.2753
3005,-0.68,1.0751,0.6759,-1.2736,-3.2263,-3.1608
3018,-0.8043,1.0512,0.6717,-3.2736,-5.0889,-6.9013
3031,-0.7205,1.0822,0.6927,8.4516,8.4683,6.5033
3072,-0.6981,1.0768,0.6566,2.6042,2.6821,3.801
3085,-0.6807,1.0739,0.6666,1.2607,2.0867,1.6942
3098,-0.6849,1.0744,0.6771,-0.1744,-0.7378,1.6942
3111,-0.6776,1.0715,0.6764,-0.6477,-2.3714,2.6865
3123,-0.6861,1.0795,0.6715,0.0699,-2.0507,3.1293
3136,-0.681,1.0766,0.661,0.65,0.4836,2.0453
3178,-0.6829,1.0802,0.6659,0.4668,0.4073,0.5644
3190,-0.6807,1.0776,0.6578,-0.1744,0.5447,-0.8249
3203,-0.6805,1.0751,0.6578,-0.2049,0.6515,-1.8631
3217,-0.6832,1.0675,0.6622,-0.2202,0.8653,-1.6341
3230,-0.6822,1.0754,0.6632,0.6653,1.079,0.2896
3243,-0.6829,1.0732,0.6605,0.2073,0.6057,0.9766
3284,-0.6837,1.0761,0.662,0.818,1.0638,1.2362
3297,-0.6854,1.0749,0.6634,1.3065,1.1096,0.8087
3310,-0.6856,1.0776,0.6615,1.5203,1.4607,0.9766
3323,-0.6827,1.0795,0.6651,1.1081,1.2775,0.5491
3335,-0.6856,1.0741,0.659,0.8027,1.3844,0.4728
3348,-0.6844,1.0754,0.6571,0.65,0.6821,-0.0158
3390,-0.6854,1.0763,0.6603,-0.1133,0.5141,-0.0158
3402,-0.6871,1.0771,0.6559,-0.1896,-0.066,0.6407
3416,-0.6856,1.0793,0.661,-1.2431,-0.4324,-0.1837
3429,-0.6834,1.0841,0.6571,-1.3194,-0.5088,-2.0921
3442,-0.6871,1.0754,0.6622,-1.8385,-0.3561,-2.9929
3455,-0.6856,1.0812,0.6554,-3.1515,-0.7225,-2.9318
3496,-0.6846,1.0729,0.6632,-1.808,-1.0126,-0.7791
3509,-0.6864,1.0658,0.6708,-0.1286,-0.3256,0.9613
3522,-0.6817,1.0688,0.6654,1.276,0.8195,2.3354
3534,-0.6839,1.0683,0.671,1.5203,1.018,2.5033
3547,-0.6868,1.0776,0.6556,0.9096,1.476,1.74
3561,-0.6861,1.0773,0.6634,1.1539,1.2012,1.0835
3602,-0.6817,1.0746,0.6617,-0.4034,-0.4782,-0.0616
3615,-0.6805,1.07,0.6615,0.2378,-0.3714,0.4423
3628,-0.6854,1.0732,0.6598,0.8485,0.7737,1.4957
3641,-0.6802,1.0717,0.6642,1.8409,1.7966,2.5033
3654,-0.6837,1.0763,0.6732,2.3142,2.3004,2.2285
3666,-0.6802,1.0739,0.6651,2.2989,2.2699,2.4881
3708,-0.6805,1.0824,0.6607,1.4287,1.7966,1.5262
3721,-0.6854,1.0812,0.6622,1.1386,0.5752,1.1904
3733,-0.6824,1.0802,0.6549,-0.1744,-0.0813,-0.031
3747,-0.6871,1.0749,0.6627,-0.4797,-0.0202,-0.5654
3760,-0.6827,1.0744,0.6564,-0.4645,0.0256,-0.886
3773,-0.6839,1.0824,0.6576,-0.8309,0.0256,-1.8173
