time_ms,ax,ay,az,gx,gy,gz
8,-0.8086,0.1723,0.3467,-0.9673,0.438,0.6497
48,-0.8113,0.1709,0.3489,0.4678,0.4074,1.1993
61,-0.8137,0.1721,0.3477,0.5289,0.3311,0.8634
75,-0.8118,0.166,0.3453,0.1777,0.27,0.6191
87,-0.8125,0.1738,0.347,-0.4788,0.499,0.4665
101,-0.8154,0.1675,0.3484,-0.1734,0.27,0.3291
113,-0.8127,0.1679,0.3423,-0.2803,0.2242,0.5275
154,-0.8196,0.1741,0.3382,0.6968,0.5754,1.7489
166,-0.8101,0.176,0.345,0.6815,0.3005,1.9169
180,-0.8166,0.1738,0.3475,1.9334,0.4532,1.1077
192,-0.8132,0.1731,0.3504,1.1243,0.5448,0.9398
205,-0.8179,0.1748,0.3457,0.5441,0.1326,0.8176
218,-0.813,0.1782,0.3494,-0.1734,0.4074,0.3291
258,-0.8137,0.1777,0.3462,-0.1124,0.6212,1.0772
272,-0.8127,0.1775,0.3533,-0.7994,0.438,0.1153
285,-0.812,0.1765,0.3396,-1.0437,-0.4628,-0.3274
298,-0.8123,0.1692,0.3462,0.6815,-0.7224,-0.4496
311,-0.8115,0.1777,0.345,1.4296,-0.0811,-0.3122
323,-0.812,0.1743,0.3465,0.3609,-0.2185,-0.5717
363,-0.8179,0.1711,0.3538,-0.8299,0.3769,0.3138
376,-0.8135,0.1684,0.3492,0.4831,0.6212,1.6115
389,-0.8159,0.1704,0.3489,0.8037,0.7433,2.1001
402,-0.8127,0.1811,0.3448,0.7579,0.667,1.1993
415,-0.8154,0.1828,0.3482,-0.4788,-0.0048,-0.5717
429,-0.8103,0.1736,0.3448,-1.2727,-0.4933,-1.4725
469,-0.8132,0.1723,0.3472,0.0708,-0.0353,-1.3198
481,-0.8149,0.1733,0.3492,-0.0666,0.9112,-0.6022
495,-0.8103,0.1714,0.3455,-0.7994,0.1937,-1.0908
507,-0.8123,0.1709,0.3457,-1.9292,-0.2338,-2.0984
521,-0.8088,0.1658,0.3455,-0.3566,0.0563,-1.7778
533,-0.812,0.1692,0.3494,1.1548,0.5296,-0.648
574,-0.8193,0.1792,0.3501,-1.8528,0.0563,0.1306
587,-0.8127,0.1706,0.3492,0.7273,-0.1727,1.3978
599,-0.8127,0.1604,0.3453,3.1701,-0.4475,3.2756
612,-0.8218,0.1714,0.3592,4.8647,0.0257,5.2146
625,-0.8303,0.1648,0.3501,6.3762,0.4838,8.6802
638,-0.8206,0.1765,0.3565,-1.0284,1.4914,10.9092
678,-0.9534,0.1555,0.4642,-0.891,-16.7071,11.9474
691,-0.9268,0.1238,0.4712,-5.7002,-24.3712,8.6191
704,-0.7886,0.2236,0.3846,-5.6238,-32.7987,8.2069
717,-0.7417,0.2444,0.3777,-2.0666,-30.417,17.1688
731,-0.7295,0.2048,0.3387,-10.7078,-32.2643,20.2985
744,-0.7129,0.177,0.2696,-16.2498,-20.5086,16.8787
783,-0.73,0.175,0.3628,-17.9444,-14.3254,16.5886
796,-0.7727,0.2532,0.4673,-29.0589,-17.4094,15.3672
809,-0.7822,0.2776,0.4793,-35.5322,-26.7376,17.9321
822,-0.7671,0.2751,0.4956,-42.5398,-31.0888,18.9856
836,-0.7451,0.2207,0.3819,-43.2269,-31.2872,13.0924
848,-0.7075,0.2436,0.3462,-40.3566,-21.3941,7.5352
889,-0.7349,0.2326,0.4563,-50.7078,-18.1575,3.0161
902,-0.7117,0.1745,0.4598,-45.0589,-19.333,-1.1518
915,-0.7546,0.2217,0.4143,-33.1047,-18.2643,4.1764
927,-0.7717,0.1975,0.4009,-37.9597,-14.6002,3.3978
940,-0.823,0.166,0.4122,-28.891,-11.1804,6.2527
953,-0.7825,0.0962,0.5025,-24.1582,-11.0888,1.2909
993,-0.7268,0.0845,0.3777,-6.7689,8.438,6.0085
1007,-0.8061,-0.1787,0.3858,129.75,13.354,12.1001
1020,-0.7602,0.0596,0.4695,-25.2116,9.4761,-20.9381
1033,-0.6873,0.1562,0.449,-29.6544,11.8578,-19.5488
1046,-0.7087,0.2004,0.4361,-23.8834,15.7357,-15.7473
1058,-0.9634,0.2138,0.604,-25.7002,-2.9819,-11.2587
1099,-0.7117,0.2148,0.4222,-36.036,-18.5391,-9.6709
1111,-0.8755,0.0183,0.5296,-25.5017,-18.2185,-9.8236
1124,-0.875,0.0903,0.2342,-13.1811,-17.3483,-16.358
1138,-0.6299,-0.0464,0.523,3.1243,-22.5697,-16.0221
1151,-0.7114,0.114,0.6407,50.8495,-15.1193,1.5199
1164,-0.7895,-0.023,0.4971,18.2998,-12.6918,-14.8618
1205,-0.8274,-0.0586,0.4073,-26.5704,-0.7071,-30.0068
1217,-0.8874,0.2634,0.4253,-10.6315,8.1784,-17.7778
1230,-0.7803,0.0449,0.429,-28.4024,4.0868,-35.3045
1244,-0.8408,0.2771,0.3191,6.0403,11.3998,-20.5564
1257,-0.7295,0.2141,0.535,-23.3185,7.5677,-17.7473
1270,-0.6821,0.1213,0.6499,2.3762,12.6822,-10.6328
1309,-0.8257,0.1416,0.1319,1.4296,26.2242,4.5428
1323,-0.7571,0.0635,0.3233,6.2693,24.0868,10.5581
1336,-0.7129,0.0356,0.6202,21.1243,23.9494,28.0543
1349,-0.7793,0.1233,0.6004,-17.5322,14.7891,29.5962
1361,-0.7427,0.1372,0.8577,-24.8605,8.2395,31.4894
1374,-0.6663,0.2488,0.6419,-1.6696,8.041,33.9016
1416,-0.717,0.2099,0.3533,28.651,-1.3483,16.9245
1428,-0.7764,0.0469,0.4524,21.4754,-1.0582,0.5733
1441,-0.8259,0.039,0.366,17.3075,-0.0811,-1.2435
1454,-0.7971,0.0774,0.4251,25.0479,2.0715,0.8024
1468,-0.7754,0.0447,0.4549,39.2159,3.8425,6.8329
1480,-0.7803,0.0583,0.5049,49.5365,3.5677,7.5962
1521,-0.644,0.0976,0.469,33.2464,3.0792,-35.9305
1533,-0.8396,0.3249,0.169,-4.9826,9.9799,-13.3198
1546,-0.6658,0.3606,0.6304,33.6281,9.9799,-4.9992
1559,-0.8372,-0.0637,0.1377,0.5747,20.1173,-23.6404
1573,-0.7644,0.2551,0.1609,25.5365,29.2013,-13.1518
1586,-0.8345,0.26,-0.0632,23.338,38.8654,1.6726
1625,-0.6919,0.6748,0.1834,2.4831,17.5677,24.4665
1639,-0.7082,0.178,0.6961,-29.0284,10.3616,21.5046
1651,-0.6599,0.3791,0.6097,-11.746,-0.4323,18.5275
1664,-0.6514,0.4214,0.6565,6.0098,-13.4399,11.0161
1678,-0.7031,0.0906,0.5049,-58.8147,-26.6002,16.8787
1690,-0.5701,0.3337,0.4851,-2.7231,-26.7224,20.0085
1730,-0.8586,-0.043,0.324,-36.3872,-2.0353,-23.0602
1744,-0.8201,0.0749,0.3909,-7.2727,-0.3712,-16.0984
1756,-0.7751,0.1223,0.4224,-3.2879,-0.3865,-8.1595
1769,-0.7917,0.1111,0.428,2.7273,0.3311,0.8176
1783,-0.7876,0.1203,0.42,9.1853,1.4456,7.2146
1796,-0.793,0.1604,0.4258,8.9563,1.3998,7.8863
1835,-0.7803,0.1462,0.4219,-6.0055,-1.2414,-5.4725
1848,-0.7827,0.125,0.4197,-1.4864,-0.8292,-5.0297
1861,-0.7825,0.1274,0.4305,4.5136,0.0868,-2.9381
1874,-0.7849,0.1277,0.4312,6.5594,0.9418,-0.1289
1887,-0.7869,0.1484,0.4205,4.2388,0.7586,0.1917
1900,-0.7891,0.1548,0.4268,0.0403,0.1479,-0.3122
1941,-0.7832,0.1233,0.4251,-3.7154,-0.0659,3.5199
1953,-0.7817,0.1355,0.4224,-0.1582,-0.0048,5.0924
1966,-0.7869,0.1452,0.4246,3.1243,0.5906,4.5886
1979,-0.7788,0.1482,0.4224,2.4525,0.3769,2.6955
1992,-0.7852,0.1489,0.4212,-3.5475,-0.4323,-0.648
2005,-0.7861,0.1416,0.4253,-1.8223,-0.3559,-0.8007
2045,-0.7825,0.1367,0.429,2.5899,0.1021,2.9092
2058,-0.7847,0.1411,0.4251,5.6586,0.5754,4.5886
2071,-0.783,0.1499,0.4275,5.0479,0.3769,4.268
2084,-0.7861,0.1487,0.4297,2.1014,0.27,2.3749
2097,-0.7861,0.1418,0.4268,-0.8299,-0.0353,0.6191
2110,-0.7847,0.1526,0.4226,-2.3108,0.3464,-0.6175
2150,-0.7856,0.1387,0.4263,-4.0666,0.4838,0.2375
2163,-0.7856,0.135,0.4253,-0.9979,0.0868,2.3596
2176,-0.7837,0.1433,0.4241,2.2235,0.3311,3.4741
2189,-0.7864,0.146,0.4239,7.8876,0.7586,3.7031
2202,-0.7888,0.1482,0.4234,7.338,0.5296,1.8253
2215,-0.7873,0.1584,0.4183,4.4525,0.3769,-0.0984
2255,-0.7903,0.1404,0.4266,0.1624,0.5754,-0.1747
2268,-0.7798,0.1457,0.4283,1.0785,0.3005,0.4512
2281,-0.7834,0.1396,0.4266,3.8418,0.3311,-0.0221
2294,-0.7825,0.1491,0.4209,5.1853,0.1326,0.2527
2308,-0.7847,0.155,0.4234,3.3075,0.4227,-0.5717
2321,-0.782,0.1501,0.4246,1.0632,-0.2796,-1.5488
2360,-0.7861,0.1443,0.4317,3.2311,-0.1117,2.0543
2373,-0.7827,0.1357,0.4253,6.2235,0.3616,3.9016
2386,-0.7844,0.1477,0.4256,8.9563,0.8654,5.5352
2399,-0.7876,0.156,0.4222,7.7502,1.2013,4.4665
2412,-0.7864,0.1594,0.4241,2.651,0.3616,2.5275
2426,-0.7854,0.1511,0.428,4.0098,0.896,1.9627
2465,-0.7876,0.1575,0.4305,-2.9979,-0.0353,-1.8999
2478,-0.783,0.1526,0.4246,-1.7612,0.1173,-0.9228
2491,-0.7834,0.1504,0.4173,-1.1811,0.041,0.5733
2504,-0.7822,0.1509,0.4214,-2.9215,-0.0659,1.0619
2517,-0.7832,0.1531,0.4229,-0.9521,0.6059,1.7184
2530,-0.7798,0.1553,0.4229,0.8189,0.2089,2.039
2571,-0.779,0.1474,0.4248,-0.8299,-0.3254,0.8482
2584,-0.7822,0.1538,0.4273,-0.8452,-0.2185,0.8787
2596,-0.7859,0.1487,0.4251,1.0785,0.0105,1.1993
2609,-0.7854,0.1596,0.4266,3.2769,0.3922,1.123
2622,-0.7822,0.1667,0.4261,2.0708,0.3005,-0.3732
2636,-0.7878,0.1604,0.419,-1.5169,0.0257,-1.9763
2676,-0.7847,0.1535,0.4244,-5.4101,-0.5697,0.2527
2688,-0.7873,0.1516,0.4234,-1.0437,-0.5391,1.4283
2701,-0.7876,0.1631,0.4224,-1.0895,-0.7071,1.2909
2714,-0.7849,0.1548,0.4185,-0.2956,-0.5544,0.8024
2727,-0.7837,0.1528,0.429,1.0785,0.1326,1.123
2741,-0.7815,0.154,0.4278,2.1166,0.0868,1.5504
2781,-0.7817,0.1567,0.4219,-1.0437,0.1021,1.0161
2793,-0.7805,0.1596,0.4256,-4.1124,-0.6307,0.0085
2806,-0.7832,0.1577,0.428,-4.494,-0.4933,-0.8312
2819,-0.7815,0.1526,0.427,-2.6009,-0.4323,-0.7244
2833,-0.7817,0.1513,0.4241,-0.3108,0.0868,-0.1595
2845,-0.7825,0.1506,0.4202,-0.7078,-0.0811,0.0848
2885,-0.7842,0.1709,0.4224,-3.1658,-0.3101,-1.045
2899,-0.7873,0.1504,0.4258,-4.8147,-0.4628,-2.0831
2911,-0.7849,0.1513,0.4222,-2.3414,-0.2185,-0.0679
2924,-0.7852,0.1443,0.4275,0.7273,0.3464,1.5504
2937,-0.7839,0.1596,0.4263,2.8342,0.5906,2.1917
2950,-0.7798,0.1553,0.429,1.4144,0.4227,1.413
2991,-0.7852,0.1526,0.4251,0.6357,0.0257,-0.0679
3004,-0.7856,0.1491,0.4297,0.0098,0.3005,-0.4496
3016,-0.7795,0.1562,0.4207,-0.3108,-0.1422,-0.5717
3029,-0.7854,0.1477,0.4275,0.9411,0.1784,0.1611
3042,-0.7817,0.1487,0.4295,-1.2269,-0.1727,0.1001
3055,-0.7856,0.1592,0.4314,-0.7383,0.2395,-0.3732
3095,-0.7834,0.1614,0.4234,2.6663,0.6364,1.1535
3108,-0.78,0.1648,0.4244,1.3227,0.5296,0.497
3122,-0.7854,0.1589,0.4285,-0.204,-0.1422,-0.8007
3135,-0.7837,0.1601,0.4222,-0.204,-0.2491,-0.8618
3147,-0.7837,0.1616,0.4217,0.0708,0.1784,-0.3732
3160,-0.7817,0.1572,0.4239,0.7121,0.0715,0.3291
3200,-0.7842,0.166,0.4183,2.4373,0.4685,0.894
3213,-0.7827,0.1582,0.4302,1.2922,0.3922,0.2985
3227,-0.7839,0.1631,0.4212,-0.1582,-0.1575,-0.4954
3240,-0.7849,0.1506,0.4246,-0.9521,-0.0048,-1.0297
3253,-0.7854,0.1596,0.4222,-2.0513,-0.2185,-1.4877
3265,-0.783,0.1577,0.4273,-1.3032,0.1173,-0.6328
3305,-0.7888,0.1592,0.4192,1.9792,0.0563,1.4436
3318,-0.7864,0.1596,0.4178,1.2311,0.0105,0.6497
3331,-0.783,0.1604,0.4268,-0.4635,-0.2033,-0.0373
3344,-0.7837,0.1604,0.4219,-3.3185,-0.5849,-0.4801
3357,-0.7842,0.1465,0.4297,-1.7918,-0.2338,0.1001
3370,-0.7873,0.1584,0.4324,0.3762,0.27,0.8176
3410,-0.7847,0.1594,0.4214,-0.7689,0.2089,-1.274
3423,-0.78,0.1589,0.4268,-1.1505,0.0715,-1.2893
3437,-0.7856,0.1516,0.4266,-3.0437,-0.0048,-1.2129
3449,-0.7812,0.1504,0.4297,-2.9521,0.1784,-0.1289
3462,-0.783,0.1511,0.4273,0.1166,0.2089,1.123
3476,-0.7849,0.1572,0.4263,3.5518,0.4838,1.3825
3516,-0.7844,0.1596,0.42,-0.1887,0.1479,-1.3503
3528,-0.7837,0.1589,0.4239,-2.036,-0.0659,-1.4419
3541,-0.7832,0.154,0.4297,-2.1429,-0.0201,-1.274
3555,-0.7856,0.1484,0.4248,1.4907,0.2089,0.2833
3567,-0.7812,0.1611,0.4239,2.0861,0.1631,1.0008
3580,-0.7849,0.1535,0.4226,1.3075,0.2547,1.2451
3621,-0.7842,0.1631,0.4158,-0.9979,0.1326,-0.3122
