time_ms,ax,ay,az,gx,gy,gz
8,-0.7751,0.1308,0.45,-3.4101,-0.2796,-3.503
48,-0.7727,0.1264,0.4463,-8.7536,0.5601,-5.3809
61,-0.7759,0.1257,0.448,-7.7765,0.6975,-5.5488
74,-0.7744,0.1118,0.4522,-5.3337,0.3158,-2.9992
86,-0.7712,0.1054,0.4497,-1.8376,-0.1269,0.497
99,-0.7769,0.1067,0.4451,1.8571,-0.0048,3.5962
112,-0.7778,0.115,0.4456,4.2998,-0.3559,5.0466
153,-0.7751,0.1272,0.4441,2.8189,0.4227,0.7871
166,-0.7766,0.1262,0.4461,-0.1582,0.2853,-0.9076
179,-0.779,0.124,0.4566,-1.975,0.0563,-1.7473
192,-0.7798,0.1177,0.4551,-2.4635,0.1326,-1.6862
205,-0.7754,0.1133,0.45,-1.349,0.0563,0.3749
217,-0.7795,0.1179,0.4493,0.025,0.1326,1.7947
258,-0.7825,0.1318,0.4497,0.8189,0.2395,1.7336
271,-0.7734,0.1272,0.4534,-3.3948,0.0105,-0.2053
285,-0.7744,0.1252,0.4544,-4.6009,-0.2185,-1.8389
297,-0.7764,0.1196,0.451,-4.494,-0.0506,-1.9305
310,-0.7766,0.113,0.4488,0.2388,0.0105,-0.2664
323,-0.779,0.1272,0.449,2.5136,0.2089,1.2756
363,-0.8032,0.0991,0.4576,9.735,-2.2643,15.3978
376,-0.8789,0.1172,0.5533,17.4144,-6.3559,22.4817
389,-0.9939,-0.116,0.6326,6.8647,-11.5162,14.0543
402,-1.0713,-0.0239,0.5762,23.2617,-37.501,13.123
415,-0.9053,-0.1973,0.5433,20.9258,-49.3483,4.4054
428,-0.7817,-0.1873,0.5684,4.6968,-59.9895,-26.0068
469,-0.4648,0.2632,0.3863,23.8113,-55.3636,-32.6938
481,-0.436,0.2937,0.3621,-10.0666,-35.6842,-39.3656
494,-0.4631,0.3125,0.3572,-30.2956,-18.9361,-31.1977
507,-0.5195,0.3276,0.4405,-33.0589,-2.6002,-16.3427
520,-0.541,0.3135,0.4356,-26.0513,8.8196,-6.4954
533,-0.6174,0.4077,0.4917,-31.3643,15.2318,5.184
574,-0.9819,-0.0025,0.5796,-43.975,9.812,-5.0755
588,-0.8276,-0.0005,0.5418,-35.6696,-0.2338,-15.3351
600,-0.6899,0.0903,0.4935,-17.3948,1.8883,-7.7473
613,-0.7519,0.0337,0.594,-28.6467,-4.7529,-8.3732
626,-0.8394,-0.0313,0.5149,-19.9292,-11.9743,-7.2587
639,-0.7854,-0.0293,0.511,-10.5856,-15.333,-2.1137
680,-0.759,-0.1018,0.3846,-43.0284,-17.272,-22.0526
693,-0.8562,0.0686,0.1441,-34.3414,-9.2109,-12.6175
706,-0.7178,-0.0928,0.5843,-28.2345,-12.5239,-16.7702
718,-0.6655,0.0742,0.7007,-18.9979,-13.3788,-22.3732
731,-0.1894,0.4284,0.8492,-45.4864,-26.6002,-60.5717
745,-0.7483,-0.0603,0.5862,-13.7918,-8.6155,-41.2129
784,-0.8066,-0.0115,0.563,60.2998,12.667,-14.7549
797,-0.7703,-0.1577,0.4729,78.7121,23.2166,-7.1518
810,-0.845,-0.0686,-0.0275,40.4373,26.7738,-14.9686
823,-0.7178,0.582,1.0975,39.735,24.7433,-3.9305
835,-0.7082,0.5058,0.8277,45.506,25.125,6.6497
848,-0.7512,0.1985,0.4161,7.3075,33.5219,13.9627
889,-0.5842,0.5305,0.4649,2.2846,35.0944,59.2451
902,-0.7761,0.5981,-0.1767,33.4602,11.4914,42.4054
915,-0.6157,0.3137,0.2173,39.0479,22.4532,56.7413
928,-0.8867,0.0293,0.7713,-10.7383,12.9265,35.9932
941,-0.7148,-0.1511,0.6075,-28.0666,0.5601,23.6573
954,-0.8428,-0.4202,0.5984,-16.9215,6.7586,14.894
995,-0.7681,-0.0198,0.492,52.0861,-2.9666,9.4588
1008,-0.7534,0.0029,0.5052,47.2311,-4.4628,14.5581
1021,-0.7402,-0.0672,0.5286,33.1701,-10.4628,2.5123
1033,-0.7634,-0.1563,0.3726,7.5976,-9.3788,-13.0144
1046,-0.782,-0.355,0.1385,5.0632,1.354,-32.7854
1059,-0.8472,0.0427,0.3123,25.0327,0.1021,-32.9381
1100,-0.7734,0.091,0.305,6.254,22.1631,-25.0144
1113,-0.9285,-0.1699,0.011,7.2617,38.5754,-12.7091
1126,-0.9231,0.2114,0.0508,85.3686,52.6059,10.1764
1139,-0.7969,0.0566,0.6475,95.7502,57.8425,14.2833
1152,-0.8069,0.2141,0.428,33.6281,45.3387,4.2375
1165,-0.644,0.3183,0.8262,36.9716,38.7586,16.955
1206,-0.6677,0.3281,0.3821,9.506,-4.6002,12.2069
1219,-0.824,0.0679,0.5779,-31.6849,-6.0964,14.1001
1232,-0.6589,0.2263,0.4722,-1.2269,-13.0888,25.413
1245,-0.8652,0.0625,0.3377,-16.9063,-9.3941,21.4283
1258,-0.6338,-0.3679,0.2171,-32.4482,-18.2338,3.0161
1271,-0.9109,-0.2222,0.3265,-52.5704,-8.646,-2.6938
1310,-0.7993,0.0241,0.4031,1.5212,0.2395,-4.0984
1324,-0.7725,0.0849,0.4361,2.0708,-1.6995,6.3749
1337,-0.7839,0.092,0.4395,5.9334,-1.8674,13.1382
1350,-0.7761,0.1059,0.4485,10.8495,-0.417,16.3596
1363,-0.78,0.1333,0.449,10.2082,-0.3101,14.3138
1376,-0.782,0.1477,0.4493,4.6052,0.499,7.0161
1416,-0.7795,0.1079,0.4546,2.3609,0.7433,-2.3274
1428,-0.7761,0.1116,0.4417,6.7273,0.1326,-0.6175
1442,-0.7742,0.1223,0.4454,6.5289,-0.5391,0.4054
1455,-0.7793,0.1233,0.45,1.7197,-0.9056,0.1764
1468,-0.781,0.1159,0.4471,1.2769,-1.2109,1.5352
1481,-0.7798,0.0996,0.4468,3.2922,-1.562,5.0161
1521,-0.7749,0.1391,0.4466,9.8724,-0.0201,7.4283
1534,-0.7788,0.147,0.4561,4.2693,-0.6307,2.497
1547,-0.7773,0.1533,0.4478,-7.3643,-1.043,-3.503
1560,-0.7756,0.1289,0.4517,-12.6773,-0.7987,-6.5259
1573,-0.7761,0.1152,0.4529,-13.7002,-0.5086,-7.0144
1586,-0.7776,0.1101,0.4517,-8.9826,-0.2796,-4.3122
1626,-0.7771,0.134,0.4466,6.6968,-1.3483,4.726
1639,-0.7727,0.1167,0.4483,6.3609,-0.7529,4.5428
1651,-0.7747,0.1286,0.4524,2.0861,-0.5697,2.8329
1664,-0.7703,0.1343,0.4585,0.7731,-0.0353,2.4665
1678,-0.7742,0.1286,0.4456,1.2311,0.2853,2.4665
1691,-0.7759,0.1269,0.4566,1.6434,0.041,1.81
1731,-0.7759,0.1318,0.4532,6.2998,0.3616,2.8176
1743,-0.7756,0.1367,0.4519,6.4067,0.6059,2.1764
1757,-0.7744,0.136,0.4454,2.6663,-0.0659,1.0772
1770,-0.7729,0.1362,0.4495,-0.9673,-0.5391,0.0543
1782,-0.7742,0.1304,0.4544,-2.265,-0.5391,0.8482
1796,-0.7747,0.1301,0.4546,0.5289,0.0105,2.6039
1836,-0.7747,0.1379,0.4529,0.2082,1.1097,1.5352
1849,-0.7773,0.1365,0.448,0.1777,0.3769,0.5581
1861,-0.7747,0.1355,0.4541,1.8418,0.3769,0.1001
1875,-0.7781,0.1277,0.4493,4.2388,0.3616,0.894
1888,-0.7742,0.1455,0.4439,1.0937,-0.1269,1.2909
1901,-0.7754,0.1306,0.4497,1.2769,-0.4017,1.4588
1941,-0.7754,0.1452,0.4517,0.3914,0.7433,-1.0908
1954,-0.7756,0.1523,0.4495,-4.4177,0.1937,-3.7931
1967,-0.7747,0.1377,0.4478,-5.1047,-0.3865,-4.8923
1979,-0.7747,0.1296,0.4505,-8.0666,-1.1956,-4.877
1993,-0.7803,0.1286,0.4544,-7.6391,-1.6995,-4.4343
2006,-0.7734,0.1242,0.4505,-8.7383,-1.7605,-4.5259
2046,-0.7683,0.1064,0.4473,-3.1353,-0.5086,0.0085
2059,-0.7732,0.1225,0.4563,0.2693,0.2242,2.1306
2072,-0.7725,0.125,0.4478,2.0556,-0.0506,3.2756
2084,-0.7769,0.1289,0.4522,-0.4635,-0.1727,2.9703
2098,-0.7739,0.1247,0.4554,0.2235,-0.9819,2.6191
2111,-0.7764,0.124,0.4551,3.5365,-0.7987,2.7413
2151,-0.772,0.1379,0.4554,-1.0742,-0.0201,-0.9076
2164,-0.7749,0.1269,0.4436,-4.494,0.0257,-1.503
2177,-0.7756,0.1184,0.4529,-4.3414,-0.1575,-0.0068
2189,-0.7698,0.1162,0.4515,-0.7841,-0.1727,2.5428
2202,-0.779,0.1277,0.4554,1.2922,0.0563,4.0237
2216,-0.77,0.1316,0.4546,2.193,0.1631,4.3749
2256,-0.7688,0.1291,0.4573,-3.5627,0.2547,-1.0144
2268,-0.7671,0.1208,0.4534,1.0174,0.7738,0.3443
2282,-0.7761,0.1262,0.4495,4.3151,1.1555,2.2069
2294,-0.7747,0.1311,0.4512,5.796,1.1708,2.5275
2307,-0.7776,0.1328,0.4414,3.9334,0.8502,2.0237
2320,-0.7737,0.1448,0.4493,1.9029,-0.4017,1.123
2360,-0.7722,0.1294,0.4471,-0.7994,-0.4628,1.0466
2374,-0.7747,0.1406,0.4559,0.2998,-0.0811,1.0008
2387,-0.769,0.1311,0.4473,-0.204,0.2242,0.8482
2400,-0.7747,0.1272,0.4551,2.9105,0.438,1.3978
2413,-0.7729,0.1247,0.4532,3.6739,0.4685,2.1153
2425,-0.7747,0.1379,0.4588,4.1166,0.896,2.8024
2466,-0.7742,0.1335,0.4585,3.2006,-0.0048,2.6191
2479,-0.77,0.1435,0.4534,1.5365,0.1173,1.8405
2492,-0.7759,0.1399,0.4549,1.109,0.3769,1.3367
2504,-0.7686,0.1294,0.4544,0.2998,0.499,0.9092
2517,-0.7695,0.1411,0.4534,4.0403,0.5601,2.0237
2530,-0.7749,0.1365,0.4537,4.2388,0.5143,1.9016
2571,-0.7759,0.136,0.4541,1.1853,0.5143,1.8253
2584,-0.769,0.1313,0.4497,1.4449,0.5906,2.8787
2597,-0.7737,0.1433,0.4568,3.9945,0.4227,4.2985
2610,-0.7693,0.1518,0.4493,3.9029,0.896,3.6878
2622,-0.7727,0.1472,0.4578,-0.6315,0.7586,0.3749
2636,-0.7707,0.1543,0.4471,-1.7765,-0.188,-1.6557
2676,-0.7747,0.1299,0.4593,-1.1505,0.0563,-1.3961
2689,-0.7732,0.1343,0.451,2.5136,0.8502,1.2756
2701,-0.7671,0.1389,0.4449,2.2693,1.186,2.2375
2715,-0.7722,0.1504,0.4463,1.1395,0.6975,1.4436
2728,-0.7732,0.144,0.4512,-2.8757,0.2395,-0.9381
2741,-0.7754,0.1433,0.4473,-3.6238,0.3005,-2.2969
2782,-0.7764,0.1452,0.4537,-0.433,-0.1422,-0.7702
2794,-0.7756,0.1382,0.4485,1.8113,0.1631,0.1917
2807,-0.7744,0.1404,0.4566,0.5136,-0.4323,-0.0068
2820,-0.7703,0.1308,0.4529,0.7121,-0.0811,-0.587
2833,-0.7773,0.1362,0.4515,4.1472,0.4227,0.2985
2846,-0.7717,0.1467,0.4495,2.422,-0.0811,1.0924
2886,-0.772,0.1335,0.4544,-2.4788,-0.5697,-0.8007
2899,-0.7722,0.1296,0.4568,1.5212,0.3311,0.497
2912,-0.7715,0.1423,0.46,2.1472,0.4838,0.1306
2925,-0.7732,0.144,0.4451,0.9258,-0.0201,-0.2358
2938,-0.7739,0.1399,0.4537,-1.3337,-0.7529,-1.2893
2951,-0.7769,0.1401,0.4461,-4.2498,-1.5162,-2.2816
2991,-0.7668,0.1355,0.4563,2.025,0.0563,-0.4343
3004,-0.7742,0.1333,0.4485,3.0021,0.3769,0.3291
3017,-0.7759,0.135,0.4493,3.5823,0.6212,0.2833
3030,-0.7725,0.1384,0.4549,2.3456,0.6975,0.4817
3043,-0.7725,0.1379,0.4488,3.9029,0.3616,0.5428
3056,-0.7764,0.1365,0.4512,2.9563,0.3769,0.5123
3096,-0.7734,0.1306,0.4512,-1.4406,-0.0659,-0.7854
3109,-0.7729,0.1384,0.4566,0.193,-0.188,-0.3122
3121,-0.7729,0.1401,0.4524,-0.1887,-0.2643,0.1917
3136,-0.77,0.1465,0.4537,-2.662,-0.6918,-0.9381
3148,-0.7729,0.1338,0.458,-3.5627,-0.5391,-1.3961
3161,-0.771,0.1391,0.459,-2.662,-0.2949,-1.8389
3201,-0.7722,0.1318,0.4505,-3.3643,-0.7682,-1.8541
3214,-0.7732,0.1316,0.459,-1.349,-0.7682,-0.4496
3227,-0.7729,0.1362,0.4568,-0.7689,-0.6002,-0.0373
3240,-0.7747,0.1438,0.4527,0.6205,-0.3712,-0.587
3253,-0.7747,0.1433,0.4571,-2.2345,-0.4017,-2.3427
3266,-0.7712,0.1421,0.459,-3.1811,-0.417,-3.045
3306,-0.7717,0.1296,0.4602,-4.0513,-0.417,-1.6251
3319,-0.7695,0.1167,0.4563,-0.9368,0.2242,0.2833
3331,-0.7686,0.1343,0.4583,0.7426,0.6975,1.1688
3344,-0.7786,0.1347,0.459,1.6739,0.6059,0.7107
3357,-0.771,0.1272,0.4527,3.796,0.7738,0.8634
3370,-0.7778,0.1335,0.4576,2.4678,0.3616,0.6039
3411,-0.771,0.1352,0.4632,0.2388,0.0105,0.1001
3424,-0.7732,0.1328,0.4561,1.2617,0.2395,0.2375
3436,-0.771,0.1221,0.4532,1.4602,0.5601,0.3291
3450,-0.7786,0.1382,0.4544,1.5212,0.2395,-0.0526
3463,-0.7729,0.1365,0.4461,1.4754,-0.2338,-0.9534
3476,-0.7737,0.1394,0.4541,-0.8452,-0.3865,-1.6099
3516,-0.772,0.1318,0.4566,0.8647,-0.2949,-0.4954
3529,-0.7712,0.1274,0.4576,2.6663,-0.1422,-0.2969
3542,-0.772,0.1228,0.4583,1.2769,-0.0964,-0.0526
3555,-0.7676,0.1308,0.4559,0.0861,-0.6155,-0.2816
3568,-0.7734,0.1301,0.4539,0.6052,-0.2643,-0.8007
3580,-0.7749,0.1491,0.4661,0.1014,-0.1269,-1.6099
3621,-0.7705,0.1365,0.4605,1.5365,-0.3101,-3.3809
3633,-0.7734,0.1252,0.459,-0.3261,0.1173,-3.6862
3647,-0.7744,0.1201,0.4517,0.6205,0.4685,-1.8847
3660,-0.7717,0.1191,0.4573,2.8647,0.3464,0.9092
