time_ms,ax,ay,az,gx,gy,gz
38,-0.6664,0.327,0.6834,24.8693,4.2818,-13.9485
51,-0.7711,0.3585,0.3834,23.0525,1.0604,-12.9409
91,-0.7828,0.7831,0.6659,31.19,3.5795,-14.2997
105,-0.6229,-0.0377,0.3206,-4.3368,6.5108,-10.1318
118,-0.7877,0.6893,0.7432,10.793,-5.3671,2.0515
131,-0.6476,0.829,0.9569,15.022,2.8161,2.8453
143,-0.7438,0.4117,0.5282,3.6785,12.0375,-22.4371
156,-0.7071,0.5345,0.9093,6.1976,2.8772,-7.7043
198,-0.6263,0.6739,1.2044,3.2968,16.1902,-8.086
210,-0.6886,0.4266,0.742,-2.6574,6.5108,1.3034
223,-0.6786,0.1649,0.9615,-24.3673,15.7169,8.1431
236,-0.7816,0.4921,0.5716,1.3274,9.8543,9.4102
250,-0.7704,0.8768,0.5784,-22.3368,9.778,5.914
263,-0.4886,0.3124,0.9779,-2.2452,4.1902,36.8911
304,-0.7643,0.1642,0.6092,-37.5887,-10.7564,25.7766
317,-0.6915,-0.0348,0.9766,-46.3673,3.1673,-0.7272
330,-0.8016,0.567,0.64,-36.1536,2.3581,7.3644
342,-0.7015,-0.4296,1.1534,-52.2757,-2.222,-7.4753
355,-0.5992,0.4593,0.814,-8.352,-0.39,-0.7882
369,-0.6341,0.1195,0.6812,-12.6116,3.1673,-14.0402
410,-0.6952,0.4166,0.6676,2.7167,-3.5808,3.1354
423,-0.6881,0.3893,0.6607,12.7167,-4.8327,14.1431
435,-0.7013,0.3805,0.6702,23.9228,-5.8251,19.8072
448,-0.7101,0.1842,0.5045,31.2358,3.1825,-10.2386
462,-0.713,0.1031,0.4368,40.3045,4.526,-2.8188
474,-0.9425,0.8109,0.961,58.0602,0.9993,-8.2386
515,-0.5553,0.3553,0.0914,36.9915,7.2131,-9.1699
528,-0.4811,0.5038,0.9542,13.5258,11.3505,4.5858
541,-0.6566,0.6874,0.5736,42.0449,23.3199,-11.5974
554,-0.6742,0.67,0.8514,23.4953,21.7627,-18.8493
568,-0.715,0.5392,0.6668,17.1594,14.8009,-21.9944
581,-0.7179,0.6534,0.9029,-0.3062,20.3581,-25.2615
622,-0.6388,0.515,1.0142,-10.1536,16.1291,-18.6814
635,-0.6896,0.6329,0.8739,-28.8558,22.5413,-13.4447
648,-0.8243,0.641,0.3929,-9.3597,17.0451,-1.4447
661,-0.7589,0.5067,0.3353,-36.6726,17.0909,4.1889
673,-0.4689,0.7513,1.3065,-42.978,14.4039,19.0591
686,-0.694,0.2064,1.5228,-62.8559,2.7093,17.5782
728,-0.5343,1.5272,0.8497,-37.3139,-22.6953,58.769
740,-0.9076,-0.8817,0.3187,-41.9551,-14.2373,20.8606
753,-0.67,-0.5453,0.887,-53.4818,-26.7717,17.3186
766,-0.3248,0.6734,0.4513,-31.7871,-24.2526,38.4637
780,-0.4586,0.4117,0.9574,-52.1536,-7.4587,-8.4218
792,-0.4459,1.1476,0.8966,-57.5429,-5.9778,10.7079
833,-0.7496,0.3129,0.5477,1.6938,-0.5427,3.7156
847,-0.723,0.4078,0.6158,13.6174,-2.1457,14.0362
860,-0.7189,0.4283,0.6268,16.1671,-6.1762,18.4026
873,-0.7159,0.4606,0.6541,14.4877,-7.2755,18.2041
886,-0.7186,0.4593,0.6502,14.3808,-5.3976,14.5705
899,-0.7157,0.4676,0.6527,11.877,-3.0923,9.7766
940,-0.7167,0.4601,0.6451,2.5182,1.5947,-1.5211
953,-0.7171,0.4596,0.6451,2.4571,1.2589,-1.1241
965,-0.7157,0.4532,0.6419,1.022,0.3276,-0.1776
978,-0.7159,0.4549,0.6514,3.6938,-0.4969,3.1354
991,-0.7128,0.4642,0.6471,2.5487,-0.7106,2.998
1004,-0.7189,0.4674,0.6512,-0.1841,-0.5274,0.7995
1046,-0.7169,0.4603,0.6468,3.0067,0.1444,1.3186
1058,-0.7171,0.4647,0.6468,1.0984,0.5108,0.54
1071,-0.7142,0.4625,0.6488,1.8617,0.6787,0.1431
1084,-0.7167,0.4574,0.6444,3.2816,0.0986,0.9064
1097,-0.7179,0.4733,0.6517,0.7167,0.2512,-0.1012
1111,-0.7157,0.463,0.6532,-1.0238,0.3734,-1.5821
1151,-0.7201,0.4628,0.6485,-2.0314,-0.3289,-1.231
1165,-0.715,0.4523,0.6514,-0.7184,-0.222,0.1583
1178,-0.7154,0.4542,0.6492,0.2587,-0.848,1.7308
1191,-0.7169,0.4625,0.6502,1.8464,-0.4205,1.914
1203,-0.7145,0.4674,0.6519,0.106,-0.0694,-0.4066
1216,-0.7176,0.462,0.6497,-0.5658,0.068,-1.0936
1258,-0.7137,0.4606,0.6483,-0.352,-0.0694,-0.2844
1270,-0.7115,0.462,0.6512,-1.2375,-0.0541,-0.6966
1283,-0.712,0.4557,0.6541,-1.0391,-0.2373,-1.3379
1296,-0.7167,0.4532,0.6517,-0.2299,-0.6343,-0.9562
1309,-0.7186,0.4659,0.6488,-0.2146,-0.39,-1.3684
1322,-0.7132,0.4642,0.6483,-3.8177,0.068,-4.2539
1362,-0.7174,0.4447,0.6495,0.3197,-0.6648,1.7766
1375,-0.7106,0.4518,0.6497,3.4953,-0.7717,4.2805
1389,-0.7137,0.4618,0.6519,3.1747,-1.0159,4.0515
1402,-0.7184,0.4698,0.6549,2.106,-0.4358,1.5476
1414,-0.7176,0.461,0.6497,0.5335,-0.0388,-1.0783
1427,-0.7152,0.4598,0.6488,-1.8482,0.5413,-2.4066
1469,-0.7125,0.4557,0.6524,0.0907,-0.8938,1.2423
1481,-0.714,0.4589,0.65,2.3808,-1.0312,2.1889
1495,-0.7142,0.4596,0.6554,2.4266,-0.6343,1.6698
1508,-0.7154,0.4601,0.6539,1.022,0.0375,-0.3455
1520,-0.715,0.4586,0.6468,0.2892,0.5413,-1.3379
1534,-0.7118,0.4515,0.6478,1.1289,0.6176,-0.5134
1575,-0.7137,0.4686,0.65,0.9151,0.0222,0.311
1587,-0.7159,0.4601,0.6517,-0.2146,0.0833,-0.9714
1599,-0.7123,0.4598,0.6483,-1.8024,0.2818,-2.2081
1613,-0.7142,0.4518,0.65,-1.207,0.007,-1.2005
1625,-0.7162,0.4579,0.6534,0.6098,-0.5121,0.4179
1638,-0.7115,0.4589,0.6593,-0.5505,-0.4205,-0.4371
1679,-0.7115,0.4608,0.6488,1.2358,0.8925,0.4637
1693,-0.713,0.4552,0.6475,1.2052,0.5718,-0.2844
1706,-0.7113,0.461,0.6471,0.5793,-0.4205,-0.2844
1718,-0.7113,0.4564,0.6461,-0.4436,-0.0083,-0.1623
1731,-0.7135,0.4542,0.6561,-0.3978,-0.2373,0.6469
1744,-0.7164,0.4579,0.6519,-0.0467,-0.4816,1.4408
1785,-0.7103,0.4593,0.6524,2.0907,0.7245,0.9369
1798,-0.715,0.4632,0.65,0.8388,1.0146,-0.2539
1811,-0.7164,0.4606,0.6539,1.251,0.5718,-0.3608
1824,-0.714,0.4601,0.6519,-0.4589,0.0528,-0.7882
1836,-0.7174,0.4593,0.651,-1.8329,-0.3136,-0.9714
1849,-0.7135,0.4608,0.6466,-1.7566,-0.222,-2.0707
1889,-0.7098,0.4596,0.651,0.7167,-0.1457,0.8606
1903,-0.713,0.4547,0.6485,2.4877,0.0375,2.3415
1915,-0.7137,0.4628,0.6585,1.6174,0.4039,2.7079
1928,-0.7145,0.4623,0.6488,-1.1001,0.5108,1.2423
1942,-0.712,0.4598,0.6492,-1.5429,0.9993,-0.7119
1954,-0.7164,0.4571,0.6475,0.6403,0.4802,-0.6356
1995,-0.7159,0.4581,0.6466,2.3197,-0.7869,2.3568
2008,-0.715,0.4733,0.6573,-1.5581,-0.8022,-0.0402
2021,-0.7137,0.4679,0.6532,-5.207,-0.0694,-2.7424
2035,-0.7171,0.462,0.6488,-5.6803,-0.0388,-4.0249
2048,-0.7142,0.4525,0.6456,-4.1994,-0.0541,-3.7501
2061,-0.7164,0.4462,0.6446,-2.7948,-0.3289,-1.8264
2101,-0.7128,0.4596,0.65,0.7014,-0.5274,0.4484
2115,-0.7147,0.4469,0.6485,0.7014,0.1138,-0.3608
2127,-0.7152,0.4532,0.6478,-0.3368,0.7398,-1.1089
2139,-0.7123,0.4527,0.649,0.1213,0.3581,-0.7882
2151,-0.7154,0.4469,0.6507,1.8159,-0.1152,0.4942
2164,-0.714,0.4496,0.6517,1.9838,-0.6343,2.082
2205,-0.713,0.4625,0.6514,2.1671,-1.4282,1.9446
2218,-0.7108,0.4628,0.6578,1.022,-0.4358,1.1507
2232,-0.715,0.4652,0.6512,-1.436,0.6329,-1.4142
2245,-0.7137,0.4603,0.6502,-3.207,1.3047,-3.4295
2258,-0.7147,0.4581,0.648,-2.2299,1.3047,-4.2539
2270,-0.7162,0.4513,0.6497,-0.2146,0.3886,-2.4676
2312,-0.714,0.4591,0.6588,-2.3215,0.4497,-0.7577
2325,-0.7088,0.4554,0.6536,-3.2986,0.8009,-1.3073
2338,-0.7132,0.452,0.6497,-3.1307,0.4192,-1.1852
2350,-0.7113,0.4484,0.6485,-0.2146,-0.0388,0.3873
2362,-0.7154,0.4476,0.6505,2.7777,-0.5732,2.6163
2376,-0.7128,0.451,0.6485,3.709,-0.8175,3.4866
2416,-0.7145,0.4725,0.6578,0.1365,-1.0007,1.9446
2430,-0.7159,0.4657,0.6527,-3.1459,0.2512,-1.3837
2443,-0.7106,0.4547,0.648,-2.6574,0.5718,-2.0249
2455,-0.7164,0.4518,0.6536,-0.1078,-0.161,-0.3608
2467,-0.7115,0.4527,0.6512,1.6785,-0.3289,0.7232
2480,-0.7108,0.4501,0.658,3.0373,-0.6495,2.6163
2522,-0.7091,0.4667,0.661,-0.52,0.0986,1.1202
2534,-0.7157,0.4628,0.6502,-3.9704,0.4344,-0.8188
2547,-0.712,0.4574,0.6551,-3.2681,0.4192,-0.9562
2561,-0.711,0.4567,0.6512,-1.4513,0.0986,-0.2234
2574,-0.7164,0.4635,0.6561,-1.4818,-0.0846,-1.1699
2586,-0.714,0.4574,0.6483,0.1213,0.0833,-1.2615
2628,-0.7142,0.4574,0.6561,0.1365,0.5108,-2.6814
2641,-0.7108,0.4567,0.6505,-1.436,1.3047,-3.918
2653,-0.714,0.4523,0.6568,-2.062,1.3505,-4.4371
2666,-0.7174,0.4488,0.6529,-0.3978,0.9841,-2.9409
2679,-0.7142,0.4513,0.6502,0.6709,0.4497,-1.6127
2693,-0.7145,0.4515,0.6527,2.2587,-0.4358,0.6011
2733,-0.713,0.4618,0.6593,0.0907,0.0528,2.7079
2746,-0.7132,0.4589,0.6532,-1.8787,0.8925,1.2881
2760,-0.714,0.4545,0.6566,-2.5505,0.8772,0.3721
2773,-0.7154,0.4557,0.6556,-0.9322,0.5413,1.1049
2785,-0.7115,0.4542,0.6505,1.1594,-0.2831,2.8606
2798,-0.7147,0.4628,0.6519,0.5029,-0.2984,1.5629
2840,-0.7135,0.4615,0.6566,-2.1994,-0.2984,-1.3837
2852,-0.7145,0.4625,0.6532,-2.3062,-0.6343,-1.7501
2865,-0.7145,0.453,0.6466,-0.4589,-1.3366,-1.3837
2879,-0.7162,0.4535,0.659,0.6403,-1.4892,-1.2768
2891,-0.715,0.4574,0.6522,1.877,-1.5808,-1.4753
2905,-0.7108,0.4632,0.659,-1.665,-0.9091,-3.1394
2946,-0.7115,0.4593,0.6575,-1.2986,-1.0159,-2.8188
2959,-0.714,0.4515,0.6544,-1.3444,-0.7869,-2.605
2972,-0.7137,0.4484,0.6566,-0.8864,-0.39,-2.605
2984,-0.7101,0.4525,0.6588,-1.0238,0.2054,-2.1623
2998,-0.7115,0.4486,0.6573,-0.3826,0.9077,-1.7959
3011,-0.7132,0.4462,0.6554,-0.9627,0.9383,-0.4676
3052,-0.7145,0.452,0.6519,-3.3444,0.8467,0.2805
3064,-0.7123,0.452,0.6527,-1.9704,0.7703,0.0209
3078,-0.7147,0.4576,0.6461,-1.8177,0.1749,-0.376
3091,-0.7118,0.4498,0.6514,-1.3902,0.2054,-1.2768
3103,-0.711,0.4479,0.6541,0.3655,0.1291,-1.231
3117,-0.713,0.4459,0.6512,1.6022,-0.2373,0.1278
3158,-0.7101,0.4579,0.6563,-0.2146,-0.5427,-0.0249
3170,-0.712,0.452,0.6461,-1.0391,-0.39,-1.2921
3184,-0.714,0.4408,0.6524,0.5487,-0.1915,-0.3608
3196,-0.7118,0.4444,0.6512,2.5945,-0.619,1.8224
3209,-0.7096,0.4547,0.6539,4.3045,-1.0617,3.2728
3223,-0.7186,0.4552,0.6561,3.419,-0.9243,3.0744
3264,-0.7162,0.4562,0.6507,-1.665,0.1749,-1.3684
3277,-0.7125,0.4525,0.65,-2.9016,0.0833,-2.7272
3290,-0.7135,0.4442,0.6551,-0.291,-0.2678,-1.3837
3302,-0.7184,0.4486,0.648,0.6403,-0.3289,0.1278
3314,-0.711,0.4496,0.6578,2.0907,-0.3136,0.7843
3327,-0.7142,0.4559,0.6578,1.1289,0.0375,0.5858
3368,-0.7106,0.4549,0.6558,-0.9627,0.0375,-0.4524
3381,-0.7101,0.4488,0.6578,-0.1078,0.0222,-0.2386
3393,-0.7125,0.4471,0.6529,2.5182,0.0375,1.3339
3407,-0.7093,0.4554,0.6566,2.4724,-0.2984,1.5476
3419,-0.711,0.4542,0.6502,0.564,-0.2526,-0.5898
3432,-0.7152,0.4571,0.6534,-0.9322,0.2665,-1.9791
3474,-0.712,0.4466,0.6544,0.8846,-0.0083,0.769
3486,-0.7118,0.4447,0.6517,2.1671,-0.2984,1.5324
3499,-0.7101,0.452,0.6554,2.7014,-0.3747,2.1278
3512,-0.711,0.4567,0.6568,3.3579,-0.0846,1.6545
3526,-0.7115,0.4567,0.6554,1.4648,0.7093,0.8148
3539,-0.7101,0.4513,0.6566,0.8999,0.6482,-0.2844
3579,-0.7135,0.453,0.6532,2.3655,-0.9091,1.3186
3593,-0.7135,0.4564,0.6517,2.2281,-0.6801,1.4866
3606,-0.7132,0.454,0.6561,1.6632,-0.4969,0.8606
3618,-0.7101,0.4552,0.6583,1.5564,0.0375,0.4789
3631,-0.7118,0.4557,0.6519,1.1594,-0.0388,0.0973
3645,-0.7157,0.4557,0.6558,1.3732,0.3276,-0.0707
3686,-0.7113,0.4571,0.6612,1.3121,-0.4663,0.9369
3699,-0.7147,0.4642,0.6563,-1.3749,-0.1762,-0.5287
3711,-0.7132,0.4596,0.6554,-4.0314,0.3276,-2.315
3725,-0.7074,0.4547,0.6551,-3.4818,0.8314,-2.5898
3738,-0.7128,0.4476,0.6534,-2.1994,0.465,-1.7806
3750,-0.7128,0.451,0.6597,-0.7948,-0.1915,-0.2234
3791,-0.7123,0.4554,0.6566,-0.9169,0.1291,-0.8493
3805,-0.7103,0.454,0.6568,-1.0696,0.465,-1.1241
3818,-0.7113,0.4537,0.6541,-0.2452,0.3886,-0.7577
3831,-0.7101,0.4535,0.6573,0.6251,0.3734,-0.0249
3843,-0.7108,0.4535,0.6583,-0.8558,0.4192,-0.1623
3854,-0.7098,0.4515,0.6524,0.5487,0.5413,0.2805
3895,-0.7106,0.4562,0.6492,1.7854,0.4192,0.8606
3909,-0.7118,0.4564,0.6541,1.7396,0.0528,0.311
3922,-0.7079,0.4569,0.6517,0.8541,-0.5885,0.2041
