time_ms,ax,ay,az,gx,gy,gz
13,-0.8125,0.1731,0.3648,-0.9215,1.1555,-0.0984
25,-0.8118,0.1775,0.3592,-1.9139,0.6364,-1.0144
38,-0.8052,0.1731,0.3609,-2.2956,-0.0201,-1.106
78,-0.8066,0.1743,0.3658,2.3762,0.0563,1.0008
91,-0.8071,0.1777,0.3592,2.0556,0.3769,1.1993
105,-0.8093,0.1799,0.3567,-0.494,0.5296,0.5886
118,-0.811,0.177,0.3621,-1.5169,0.5906,0.0543
131,-0.8096,0.1765,0.3609,-2.0055,0.3922,-0.7702
144,-0.8091,0.1731,0.3619,-1.7765,-0.1117,-0.7854
184,-0.8035,0.1728,0.3655,0.651,0.2242,0.6344
196,-0.8047,0.1767,0.3604,0.0708,-0.3254,0.1153
210,-0.811,0.176,0.3621,-0.5093,0.5906,0.1459
223,-0.802,0.1714,0.367,-2.2956,0.2853,-0.19
236,-0.8096,0.1755,0.3645,-2.1429,0.3464,-0.0526
248,-0.8096,0.1701,0.3599,-1.3185,0.1021,-0.2816
288,-0.832,0.155,0.3882,-4.7994,-0.9208,4.9856
302,-0.8923,-0.0254,0.4798,-19.1811,-9.9743,-12.3122
315,-0.8789,0.1194,0.3645,-26.5551,-24.6155,-31.1824
328,-0.9453,0.2688,0.4915,-10.6467,-22.5086,-14.7702
342,-0.8508,0.2048,0.4988,-13.0742,-32.6307,-2.5106
354,-0.7302,0.0613,0.4559,-6.3261,-40.0048,0.497
395,-0.6704,0.3374,0.3506,-10.0208,-28.4475,-4.7244
407,-0.7258,0.2373,0.375,-14.9826,-22.3559,-2.4954
420,-0.7339,0.2324,0.3885,-20.0666,-14.6002,-3.7015
433,-0.7529,0.1618,0.4312,-21.7002,-13.9132,-7.8083
446,-0.7495,0.2883,0.3907,-42.6925,-12.9361,-10.9534
459,-0.7749,0.2497,0.3228,-55.0895,-5.3788,-9.3351
500,-0.7229,0.0517,0.4607,-56.9063,11.8578,-4.9228
512,-0.9602,0.0281,0.4778,-44.7841,-11.4552,-7.2434
525,-0.9011,-0.1638,0.2537,-39.2116,-8.4933,-10.9992
538,-0.8284,0.039,0.3067,-14.9521,-5.8827,-3.274
551,-0.769,-0.0259,0.512,-8.3108,-14.417,-5.5793
564,-0.7197,0.0119,0.5564,-4.494,-17.8827,-2.9076
605,-0.9021,0.2283,0.1724,-10.0513,-14.9514,-13.5641
617,-0.7939,0.1091,0.5918,11.2769,-10.3712,-4.9686
631,-0.7307,0.0852,0.6458,0.2998,-12.6613,-14.0068
643,-0.9006,0.2129,0.0298,-10.5398,-8.3101,-9.3045
656,-0.6343,-0.1946,0.753,17.5518,-25.3941,-25.0755
669,-0.9094,0.3576,-0.0114,34.2235,-27.3178,-23.7015
710,-0.8564,-0.1196,0.2037,22.3914,-18.3407,-36.7854
723,-0.7551,-0.4029,0.4432,-3.12,-1.7758,-33.5946
736,-0.9446,-0.0933,0.3455,24.3151,-11.9132,-42.1137
749,-0.7441,0.0913,0.4009,2.6205,1.0944,-20.0526
762,-0.7822,0.3996,0.1802,26.5136,-0.3407,-20.3274
776,-0.8486,0.4084,0.4756,41.3227,-0.1422,-2.9228
815,-0.8677,0.1504,0.4937,-6.1429,3.6746,-13.9915
828,-0.7654,-0.1262,0.357,-13.0437,9.0334,-21.4877
840,-0.875,0.0158,0.4212,4.7731,12.438,-8.6175
854,-0.884,0.198,0.3201,48.9563,15.5677,-3.6404
867,-0.7788,0.0945,0.5166,52.3609,17.1402,1.0619
880,-0.8086,0.2317,0.2862,14.0708,13.3082,-2.6786
920,-0.7717,0.0317,0.2823,12.0403,21.1402,2.9703
932,-0.7895,0.0222,0.533,36.1166,11.2624,1.0466
945,-0.7451,0.1435,0.4102,23.5823,17.9036,4.4359
959,-0.8384,0.0925,0.3411,12.4983,9.7967,-1.1518
972,-0.7598,0.1653,0.4673,20.4067,17.4151,4.6344
985,-0.7974,0.0508,0.534,6.6968,12.5754,1.7031
1025,-0.7505,0.2915,0.2869,21.5518,16.7433,16.955
1038,-0.8137,0.112,0.3521,21.0937,19.4303,25.81
1051,-0.8144,0.4411,0.0718,-4.6009,22.8349,25.9321
1064,-0.7322,0.2812,0.3562,7.5212,22.896,26.1306
1076,-0.7881,0.1389,0.2923,0.9869,6.6212,5.5504
1090,-0.7834,0.4055,0.4275,11.0174,22.8807,28.726
1130,-0.7224,0.0376,0.4939,-17.4406,7.8883,4.1764
1143,-0.6694,-0.063,0.9414,13.8724,5.2471,13.3672
1156,-0.7634,0.2121,0.3785,-15.6696,16.3616,21.2298
1169,-0.759,0.322,0.0096,2.7273,14.8807,27.3367
1182,-0.8267,-0.1265,0.6158,-50.4788,14.6822,13.4894
1195,-0.8123,0.2759,0.5962,-41.2574,21.3693,25.2756
1235,-0.7905,-0.1504,0.428,-8.2956,-1.1346,12.3749
1248,-0.7397,-0.1409,0.803,-51.975,13.2013,11.2909
1261,-0.8979,-0.2927,0.4969,-55.4711,4.7128,9.0008
1274,-0.751,0.1284,0.4024,-18.0666,2.0105,8.1459
1287,-0.8152,-0.0122,0.3418,-18.9979,0.438,-5.961
1300,-0.8101,0.0967,0.3804,1.735,-0.0506,-3.5641
1340,-0.7957,0.1262,0.3941,9.5212,2.7128,9.8405
1353,-0.8071,0.1299,0.3916,9.8418,3.4151,7.9932
1366,-0.792,0.07,0.4146,10.1166,1.0639,1.8863
1379,-0.8147,0.154,0.3877,19.3227,0.7891,0.3749
1392,-0.8035,0.1545,0.357,20.1166,-1.9437,-5.4877
1405,-0.8042,0.0923,0.4661,21.3227,-10.4628,-19.5488
1445,-0.8284,-0.1555,0.6783,5.9334,-12.3559,-31.3961
1458,-0.8513,0.3371,0.3919,53.1395,-11.7147,-22.0831
1471,-0.7573,0.3738,0.3687,41.2159,-11.7147,-16.7244
1484,-0.6658,0.1958,0.147,20.7426,-6.875,-21.1976
1497,-0.6738,0.1531,0.3946,27.0632,-10.0811,-21.045
1510,-0.8247,-0.3396,0.3921,0.2693,-3.6384,-29.4114
1549,-0.959,0.1797,0.4358,50.5899,5.9647,-9.6251
1563,-0.8259,0.019,0.4039,11.4296,7.3998,-12.5717
1576,-0.8347,0.0425,0.2745,9.2922,10.4227,-11.8389
1588,-0.9314,0.1528,0.3714,8.9411,5.2624,-8.3885
1602,-0.8032,0.1443,0.5188,23.2769,9.9647,-5.0755
1615,-0.8567,0.1885,0.1404,5.1853,17.125,-6.9381
1655,-0.9104,0.2964,0.034,-8.036,27.7357,-5.5946
1668,-0.7964,0.1972,0.5074,29.3533,27.9952,3.7336
1680,-0.7861,0.145,0.2886,6.8647,30.5601,0.497
1693,-0.8723,0.1933,0.1529,0.9716,16.8807,2.2222
1707,-0.8528,0.0959,0.7539,11.7502,17.2624,8.3138
1720,-0.7122,0.3918,0.4263,20.7579,33.2624,10.0237
1760,-0.7761,0.3552,-0.1525,0.254,38.1479,18.2527
1773,-0.8061,0.4992,-0.0156,7.5976,21.4456,21.1077
1786,-0.783,0.4153,0.8299,-13.7307,28.6975,34.2375
1799,-0.8347,-0.0476,0.6753,-10.0818,4.438,10.039
1812,-0.8672,0.0049,0.4673,-13.6849,2.8502,8.726
1825,-0.8091,0.2524,0.1995,-41.3795,7.8731,10.2833
1865,-0.7185,0.1555,0.1546,-74.7536,7.2471,44.1306
1878,-0.8154,0.1968,0.8509,-83.578,0.7128,44.9092
1891,-0.9087,0.2473,0.5721,-43.3337,-4.7376,36.9092
1904,-0.9082,0.0376,0.763,-53.4406,-15.8216,19.0619
1917,-0.8262,0.2038,0.2276,-50.5704,-13.333,14.2222
1931,-0.8552,-0.0459,0.3055,-46.2803,-26.7987,-2.4648
1971,-0.8098,-0.1797,0.4063,-5.1811,-22.9819,-13.3351
1983,-0.8069,0.1103,0.4419,0.5289,-18.4017,-10.7549
1996,-0.9019,0.0393,0.1927,-18.6162,-5.6842,-8.2816
2009,-0.8655,0.0476,0.1978,-7.3032,-3.8521,-0.0984
2022,-0.834,0.0954,0.3326,4.6052,-1.9895,6.5275
2035,-0.8137,0.1484,0.3399,9.3991,-1.6231,11.0772
2075,-0.8208,0.1748,0.344,-2.494,1.1708,-0.8465
2088,-0.8191,0.1636,0.3462,-5.3948,-0.1117,-4.9992
2101,-0.8142,0.1433,0.3514,-2.6315,-0.3101,-4.4954
2114,-0.8159,0.1499,0.3475,1.9334,-0.5697,-3.106
2127,-0.8147,0.157,0.3489,2.0098,-0.1422,-1.7167
2140,-0.823,0.1548,0.3462,2.1319,-0.0964,-0.5412
2180,-0.8142,0.1577,0.345,1.0937,0.0105,1.8558
2193,-0.8118,0.1555,0.3526,1.5976,0.0715,1.9321
2206,-0.8169,0.1596,0.3492,1.7044,0.5448,2.3443
2219,-0.8188,0.1565,0.3467,0.9563,1.1708,2.4512
2232,-0.8181,0.1636,0.3401,0.7731,0.1937,0.3596
2245,-0.8191,0.1587,0.3479,-1.9292,-1.0277,-2.2205
2285,-0.8196,0.1553,0.3567,1.6586,0.8807,1.9932
2297,-0.8171,0.1555,0.345,2.5899,1.5067,2.9856
2310,-0.8074,0.1557,0.3475,3.5976,2.3769,3.9474
2324,-0.8157,0.1572,0.3455,4.3914,2.6975,3.3062
2337,-0.823,0.1621,0.3479,5.2769,2.4532,2.9245
2350,-0.811,0.165,0.3382,4.8342,2.0868,2.3901
2389,-0.8157,0.1562,0.3448,2.8342,0.0868,1.8405
2402,-0.8152,0.1604,0.3438,3.3991,0.9265,3.6878
2416,-0.8188,0.1648,0.3506,4.1166,1.2166,3.6268
2429,-0.8201,0.1711,0.3477,3.0632,1.3845,2.5581
2442,-0.8191,0.166,0.3472,1.9792,1.4303,1.3672
2455,-0.8123,0.1782,0.334,-0.1429,-0.2338,-0.5106
2495,-0.8118,0.1636,0.3343,0.8342,0.3922,0.3443
2507,-0.8174,0.1609,0.3472,3.1243,1.2013,1.7947
2520,-0.8181,0.1711,0.3492,3.2769,1.125,2.2527
2533,-0.8137,0.1697,0.3467,0.6663,0.7586,1.4436
2547,-0.812,0.1711,0.3362,-0.4635,0.4074,-0.1747
2560,-0.8154,0.1719,0.3409,-1.8681,0.0563,-2.1137
2600,-0.8174,0.1701,0.3357,-2.9063,-0.2949,-2.9534
2613,-0.8181,0.1614,0.3433,-2.0666,-0.6002,-2.1747
2625,-0.8203,0.1594,0.3416,-0.4177,-0.2338,-0.1595
2638,-0.8132,0.1638,0.3396,0.0861,0.5906,1.1688
2651,-0.8171,0.1577,0.3462,1.338,0.4532,1.4741
2664,-0.8184,0.1638,0.3457,1.1853,0.6364,1.0924
2705,-0.8225,0.1611,0.3443,1.7502,0.041,0.3596
2718,-0.812,0.167,0.3428,1.6739,0.2547,1.0772
2731,-0.8135,0.1623,0.3489,0.2998,0.5754,0.955
2744,-0.812,0.1653,0.3387,2.2998,0.5906,1.0466
2756,-0.8247,0.1682,0.3431,3.6739,-0.0964,0.6649
2769,-0.8191,0.1623,0.3414,6.4831,-0.0659,1.0466
2810,-0.8159,0.1699,0.3411,-2.1887,-0.0811,-1.2435
2823,-0.8206,0.1723,0.3455,-2.9979,-0.0048,-1.5335
2836,-0.8147,0.1687,0.3467,-4.7841,0.438,-0.7396
2849,-0.8181,0.1653,0.3448,-5.5322,-0.0048,-1.0602
2862,-0.8047,0.1775,0.3477,-8.1124,-0.5239,-2.9839
2875,-0.8184,0.1653,0.3416,-2.9673,0.2242,-2.2664
2915,-0.8181,0.1621,0.3462,-1.6086,-0.0964,-1.7625
2928,-0.8142,0.1609,0.3396,-1.6238,0.438,-0.4648
2941,-0.8171,0.1553,0.3465,-0.5246,0.4532,1.6268
2953,-0.8203,0.1572,0.3448,1.1701,0.7128,2.3443
2966,-0.8166,0.1701,0.3433,0.8647,0.8654,2.4207
2980,-0.8086,0.1765,0.3387,-2.8299,0.27,-0.1595
3020,-0.8171,0.1487,0.3462,-1.3185,-0.4933,-1.6557
3033,-0.8166,0.1579,0.3477,1.4602,0.0715,0.497
3045,-0.8171,0.1631,0.3406,3.338,1.2471,2.268
3059,-0.8113,0.1643,0.3421,2.0556,0.896,2.6497
3072,-0.821,0.1665,0.3384,1.5212,1.3845,1.5352
3085,-0.8162,0.175,0.3475,0.4373,0.9723,-0.1137
3125,-0.8166,0.1587,0.3416,-2.6773,0.0105,-3.9305
3138,-0.8152,0.1701,0.3462,-1.9597,0.0868,-4.5717
3151,-0.8149,0.1567,0.3399,-2.1734,0.0105,-4.0679
3164,-0.8113,0.1565,0.3455,-1.1505,-0.0048,-2.7244
3177,-0.8166,0.1577,0.3462,-2.8757,0.5143,-1.3503
3189,-0.8186,0.1504,0.3494,-0.891,-0.0964,0.4665
3230,-0.8213,0.1614,0.3445,1.1548,1.0181,2.1764
3242,-0.8162,0.1662,0.3409,1.1395,0.5143,0.4512
3256,-0.8115,0.1633,0.3362,-0.3566,-0.0353,-0.7702
3269,-0.8149,0.1596,0.3475,-2.3414,-0.2949,-1.4877
3282,-0.8176,0.1513,0.3384,-0.2345,-0.7682,-0.2664
3295,-0.8166,0.1579,0.3387,0.1472,-0.6307,0.7107
3335,-0.8186,0.154,0.3438,-1.5322,-0.1117,-1.7778
3348,-0.8198,0.1572,0.3423,0.5747,-0.5391,-1.6251
3361,-0.8159,0.1587,0.3453,1.8113,-0.417,-0.2969
3373,-0.8118,0.1516,0.3389,2.0556,-0.1422,0.6191
3386,-0.8184,0.1611,0.3392,3.6586,0.4685,1.9016
3400,-0.8179,0.1579,0.3406,3.8876,0.1326,1.7336
3440,-0.8154,0.1631,0.3384,2.0861,-0.2796,0.1611
3453,-0.8027,0.1628,0.3423,-1.0437,0.041,-0.2969
3466,-0.8271,0.1577,0.345,0.3304,-0.0964,-0.0373
3479,-0.8169,0.1599,0.3445,2.2693,0.667,1.4436
3492,-0.8142,0.1592,0.3394,0.5594,1.0028,1.7642
3505,-0.8203,0.1633,0.3399,0.5441,0.4685,1.352
3544,-0.8186,0.1572,0.3435,-0.3414,0.2089,0.3596
3558,-0.8179,0.1609,0.3435,0.5899,0.1021,1.2756
3571,-0.8157,0.1599,0.3409,1.6434,0.4838,1.7795
