time_ms,ax,ay,az,gx,gy,gz
7,-0.7694,0.4469,0.5133,1.4953,-0.161,2.2499
21,-0.7687,0.4464,0.5103,3.0067,0.0222,2.5858
34,-0.7716,0.4567,0.5101,4.5945,-0.9549,1.914
74,-0.7723,0.4447,0.5174,-0.3062,-0.1152,-0.8646
88,-0.7674,0.4425,0.505,-0.8558,0.2054,-0.1165
100,-0.7691,0.4462,0.5128,1.4037,0.1444,1.2881
114,-0.7682,0.4515,0.5086,2.3808,-0.9701,2.6774
127,-0.7677,0.4505,0.5138,2.2129,-0.7106,2.54
139,-0.7665,0.4584,0.5145,1.4037,-0.3442,0.2652
181,-0.7699,0.451,0.513,3.1747,-0.3747,0.5553
194,-0.7711,0.4427,0.5091,0.8235,-0.1915,1.1049
207,-0.7699,0.4466,0.5145,2.3197,-0.2678,2.7537
219,-0.7704,0.453,0.5133,3.6327,-1.0159,3.1049
233,-0.767,0.4591,0.5147,2.106,-0.8785,2.1431
246,-0.7648,0.461,0.5145,2.0449,-0.39,0.6011
286,-0.7716,0.4393,0.514,-3.4971,0.2207,-5.0173
299,-0.7699,0.4379,0.5059,-2.0314,-0.2984,-2.8493
313,-0.767,0.4361,0.5135,-0.4589,-0.5885,0.4637
326,-0.7667,0.4442,0.5181,2.8999,-0.9091,3.914
339,-0.764,0.4615,0.5155,2.6861,-1.0465,4.1431
352,-0.7699,0.4542,0.5186,0.5335,-0.4358,0.6316
393,-0.7718,0.4442,0.5091,-1.1765,0.465,-3.1547
405,-0.7687,0.4435,0.5098,-1.0543,-0.6953,-1.3684
418,-0.7689,0.4442,0.5111,0.0449,-1.2755,0.8759
432,-0.7691,0.4488,0.5184,2.3503,-0.8022,2.3263
445,-0.7643,0.4559,0.5164,0.564,-0.5885,0.6011
458,-0.7704,0.4442,0.5138,0.7625,0.1138,-0.7577
499,-0.776,0.4452,0.5164,-0.3368,2.1291,6.5247
511,-0.8468,0.4276,0.5181,-2.0467,3.2894,9.0438
524,-1.0282,0.3461,0.7091,3.9686,-8.5274,6.5095
538,-0.9957,0.3016,0.6492,8.6251,-38.8022,-15.9485
551,-0.8978,0.3849,0.6226,16.7777,-59.7488,-5.3989
564,-0.6861,0.495,0.4984,19.6174,-72.848,2.7843
604,-0.558,0.5943,0.568,7.3732,-16.7411,-1.7959
618,-0.6205,0.6256,0.5982,-0.81,-6.2373,-7.6585
631,-0.681,0.5592,0.6256,-13.7413,-0.4358,-7.8722
644,-0.7247,0.5182,0.6148,-22.4589,1.6558,-15.7043
656,-0.7723,0.4762,0.5714,-22.3062,2.8925,-12.1776
669,-0.7911,0.4567,0.545,-22.7337,3.6253,-4.4371
711,-0.7399,0.4366,0.5338,-12.4742,12.3581,9.4713
723,-0.7618,0.4569,0.566,-11.2375,12.3428,7.9751
737,-0.7572,0.4637,0.5765,-11.6192,13.1062,5.4866
750,-0.7406,0.4513,0.5589,-16.2146,13.5184,-0.5287
763,-0.7289,0.4359,0.5177,-17.4971,14.1291,-7.918
775,-0.7626,0.4274,0.5553,-19.1459,16.7551,-12.1012
817,-0.7567,0.3732,0.5201,-4.6726,0.7093,-1.1699
830,-0.7616,0.3807,0.5203,4.1976,-5.3213,12.2957
842,-0.7464,0.2508,0.4813,10.1976,0.9077,9.5324
855,-0.6935,0.2464,0.4434,30.1213,-0.4053,7.2423
869,-0.6781,0.0477,0.8045,46.8999,18.5871,-24.2234
882,-0.6322,-0.0043,0.4581,36.6861,15.3047,-15.6585
923,-0.7743,0.6903,0.5487,75.6785,14.7856,-18.2997
936,-1.3312,1.0824,0.2442,99.8312,26.694,-35.2768
949,-0.3629,-0.39,0.2457,-40.7337,25.3352,-25.1852
962,-0.6752,0.8461,1.2406,-6.9322,0.0375,14.082
974,-0.745,0.4271,0.336,12.8235,5.6864,-7.6432
988,-0.7757,0.506,0.6002,20.3961,15.2589,-14.6508
1029,-0.7794,0.4645,0.5037,-11.6803,5.0146,-21.2615
1041,-0.8185,0.5109,0.4356,-11.436,12.4802,-0.9562
1055,-0.7506,0.4149,0.3453,70.3045,7.7474,22.1278
1068,-0.7767,1.142,0.5155,10.4571,19.152,14.8911
1081,-0.9503,-0.1515,0.543,-36.2757,8.4497,29.5171
1094,-0.6896,-0.5099,0.9774,-22.581,12.923,28.082
1134,-0.8485,0.0065,0.2943,-79.2223,10.694,7.395
1148,-0.6883,-0.3724,0.5955,-47.3139,11.8543,-8.1318
1161,-0.7826,0.6158,0.4786,37.0067,-2.3595,-0.3455
1174,-0.785,0.358,0.4649,-10.5047,-0.1152,1.7156
1187,-0.7587,0.2955,0.5299,16.564,-2.2526,13.4255
1200,-0.764,0.388,0.5084,6.7014,-1.3671,10.4026
1240,-0.7801,0.4586,0.4993,21.3121,-2.5885,18.9675
1254,-0.7027,-0.0053,0.5487,26.3503,-8.7869,-15.7653
1266,-0.7418,0.1796,0.6444,60.3503,-1.6114,-1.2005
1280,-0.4925,-0.0028,0.0938,52.6098,22.236,-15.5516
1293,-0.6161,-0.6139,-0.3317,33.0984,26.6329,-30.4829
1305,-0.3815,0.482,-0.0116,76.1976,38.5413,-18.1623
1347,-0.732,1.1949,0.9095,-14.062,-3.3824,9.4866
1360,-0.8255,0.4908,0.3487,-3.8635,16.2054,-20.1012
1372,-0.8187,0.6964,0.4574,-2.6879,37.7932,-8.9104
1385,-0.9278,0.7613,-0.2961,14.7777,35.2436,0.6927
1399,-0.8348,0.4305,0.3992,-12.1078,29.4268,4.4942
1412,-0.85,0.5218,0.2796,-23.2833,32.9077,13.5934
1453,-0.9317,0.6212,-0.0822,4.1518,8.2512,4.0209
1466,-0.9122,0.8861,0.232,-119.94,19.1062,24.9217
1479,-0.6774,0.9064,0.9124,58.9457,-2.619,22.3415
1492,-0.7472,0.3961,0.9034,-48.0772,-21.1381,24.2499
1505,-0.4757,1.6075,0.828,4.4266,-31.0465,24.9522
1519,-0.7384,0.545,0.6732,-104.902,-51.7335,29.0591
1559,-0.7855,0.3414,0.3729,-38.5505,-1.1381,-7.5669
1572,-0.7272,0.2357,0.4505,25.4342,-23.764,14.2041
1584,-0.7933,0.3907,0.5108,4.9457,-3.5656,10.6774
1598,-0.5275,0.2013,0.9989,-17.4665,-40.1152,-7.9333
1611,-0.8024,0.6451,0.62,-5.1307,-9.6877,-1.6432
1624,-0.7047,0.3959,0.7025,-16.6726,-9.8098,-8.2234
1665,-0.7926,0.4838,0.4693,2.2739,-0.4205,-0.147
1677,-0.7818,0.4947,0.4827,2.793,-1.7182,1.1354
1691,-0.7821,0.4894,0.4823,1.2663,-1.2297,1.9446
1704,-0.7801,0.4891,0.4891,0.6556,-0.4205,1.166
1717,-0.7833,0.4891,0.4947,0.9457,-0.0388,0.7995
1730,-0.7775,0.4938,0.4862,2.6098,0.6024,0.7843
1770,-0.7799,0.4847,0.491,1.3121,1.381,0.2194
1784,-0.7804,0.4806,0.4876,3.1136,1.0299,2.8606
1797,-0.7814,0.5084,0.4815,-2.3215,-1.1991,-0.8493
1809,-0.7811,0.4921,0.4896,-3.2681,-1.6266,-3.5821
1822,-0.785,0.4884,0.4928,-1.4513,-0.39,-3.2157
1836,-0.7789,0.4852,0.4932,-0.8406,-0.0999,-4.1928
1876,-0.7816,0.4994,0.483,0.2739,0.6787,-0.4371
1890,-0.7818,0.4906,0.484,-2.9322,-0.4358,-3.689
1903,-0.7801,0.484,0.4881,-2.9627,-0.4969,-4.1623
1916,-0.7779,0.4859,0.4913,-3.2528,0.1902,-3.9485
1929,-0.7811,0.4803,0.4876,-3.4818,-0.161,-3.231
1941,-0.7814,0.4725,0.4876,-0.1078,-0.0236,-0.8035
1983,-0.7833,0.4823,0.493,-2.1688,-0.2526,-2.1776
1995,-0.7799,0.4808,0.4923,0.5182,0.3123,-1.0325
2008,-0.7853,0.4847,0.4867,-1.7566,0.6176,-2.376
2021,-0.7838,0.4737,0.4879,0.8999,0.6482,-1.0631
2035,-0.7809,0.483,0.4832,2.2587,-0.222,-0.315
2048,-0.7792,0.4864,0.491,-3.3291,-0.3442,-2.6966
2089,-0.7782,0.4762,0.4954,-2.7642,0.4344,-3.0631
2102,-0.7814,0.473,0.4876,0.0144,0.8161,-1.7043
2115,-0.7784,0.4786,0.4803,0.2281,1.0909,-0.9714
2127,-0.7809,0.4769,0.4869,0.3961,1.3505,-1.1547
2140,-0.7787,0.4728,0.4886,1.419,0.4039,0.5095
2153,-0.7838,0.4791,0.4845,1.3732,0.3734,0.2957
2194,-0.784,0.4691,0.4791,-0.81,-0.3136,-0.773
2207,-0.777,0.4735,0.4879,-0.1994,-0.0388,0.4179
2219,-0.7809,0.4713,0.4908,1.648,0.1749,1.4408
2232,-0.7794,0.4742,0.4893,3.3884,0.3581,2.7232
2245,-0.7782,0.4913,0.4847,1.8922,-0.2068,-0.3913
2259,-0.7799,0.4864,0.4835,-4.9169,-0.0083,-6.0707
2300,-0.7782,0.462,0.4879,-2.4894,-1.1381,-1.5058
2313,-0.7796,0.4645,0.4903,1.5716,-0.9701,1.5629
2326,-0.7762,0.4769,0.4913,1.7548,0.4802,1.6545
2339,-0.7809,0.4789,0.4879,-0.4436,1.4573,-1.0173
2351,-0.7814,0.4803,0.4903,-1.1765,1.2589,-3.918
2364,-0.7838,0.4713,0.4832,-1.6345,1.5642,-4.7119
2406,-0.7796,0.4652,0.483,2.7167,-0.8938,3.5476
2419,-0.7804,0.4703,0.4942,5.0831,-0.7259,5.6545
2431,-0.7784,0.483,0.4898,2.793,-0.0388,2.1583
2444,-0.776,0.4852,0.482,-0.062,0.8925,-1.9944
2458,-0.7823,0.4742,0.493,-2.7948,1.6711,-4.5134
2471,-0.7836,0.4657,0.4871,-2.2757,1.0146,-3.4753
2512,-0.7772,0.4762,0.4869,1.3426,-0.8327,1.4102
2524,-0.7796,0.4737,0.4906,-0.9016,0.1291,-0.1776
2538,-0.7799,0.4681,0.4827,-0.4436,0.4955,-0.6508
2550,-0.7801,0.4715,0.4827,-0.6726,1.61,-1.9027
2562,-0.7818,0.4584,0.4845,0.4419,1.5337,-0.4066
2575,-0.7792,0.4667,0.4818,2.2739,0.8772,1.8682
2616,-0.7775,0.4776,0.4874,1.709,0.0528,0.3568
2630,-0.7838,0.4755,0.4859,1.3732,-0.6648,-0.2692
2643,-0.7779,0.4755,0.4859,0.0296,-0.9396,-0.9104
2656,-0.7796,0.4728,0.4842,1.8464,-0.6037,-0.8035
2669,-0.7787,0.4701,0.4876,2.2434,-0.5579,-0.8646
2682,-0.7804,0.4701,0.4871,3.3274,-0.5732,-0.0707
2723,-0.7777,0.4693,0.4857,6.0449,0.1749,3.2881
2735,-0.7777,0.4747,0.4879,9.3884,1.1215,3.1812
2748,-0.7821,0.4769,0.4862,7.4495,2.6024,2.0056
2761,-0.7796,0.4889,0.4867,6.3503,2.694,0.6163
2774,-0.7821,0.4862,0.482,-0.9322,1.8696,-2.7882
2787,-0.7811,0.473,0.4818,-3.9704,0.3276,-3.2463
2829,-0.7796,0.4647,0.4847,-3.2528,-0.1457,-2.6508
2842,-0.7811,0.4635,0.4867,-0.4894,0.694,-0.2997
2854,-0.7796,0.4681,0.4854,0.4113,0.8467,1.2423
2867,-0.7828,0.4852,0.4827,-2.1994,0.3734,0.1431
2880,-0.7765,0.4762,0.4803,-4.3673,-0.0236,-1.0173
2894,-0.7806,0.4686,0.4786,-2.0314,0.0528,-0.1623
2934,-0.7833,0.4742,0.4876,0.8388,-0.5732,0.4637
2947,-0.7818,0.4723,0.484,-1.207,0.1138,-1.4447
2960,-0.7796,0.472,0.4847,-2.8711,0.2207,-2.7119
2974,-0.7767,0.4689,0.4793,-1.9551,0.0375,-2.0707
2987,-0.7809,0.4696,0.4886,-0.9475,-0.4511,-0.834
3000,-0.7814,0.4647,0.4864,2.1213,-0.6343,0.9064
3040,-0.774,0.4696,0.4867,-2.2299,0.7551,-1.6737
3054,-0.7801,0.4698,0.491,0.1518,1.0451,-0.9714
3067,-0.777,0.4711,0.4832,0.2892,0.7551,-0.6661
3080,-0.7806,0.464,0.484,1.0831,0.3123,0.4942
3092,-0.7811,0.4696,0.4801,1.938,-0.2526,2.2041
3105,-0.7809,0.4715,0.4852,1.3426,-0.2678,2.0362
3146,-0.7816,0.4735,0.4862,3.022,-1.0007,0.998
3159,-0.7792,0.4693,0.4867,5.9533,-1.4282,1.6698
3172,-0.7823,0.4689,0.4908,8.7625,-1.6572,3.6087
3186,-0.7858,0.4698,0.4845,10.8999,-2.1304,5.3644
3199,-0.7816,0.4772,0.4832,15.6785,-2.7869,7.2728
3212,-0.7767,0.4935,0.4913,13.1136,-2.8938,4.6316
3253,-0.7782,0.4767,0.4906,-1.8482,1.0909,-5.5974
3266,-0.7814,0.4703,0.4847,-3.7413,1.2894,-3.3531
3279,-0.7823,0.4733,0.4842,-3.0391,0.6176,0.9522
3292,-0.7818,0.4718,0.4788,-2.7948,0.3581,2.3415
3305,-0.7762,0.4986,0.4932,-4.4131,0.5871,-1.1547
3318,-0.7772,0.4908,0.4859,-10.9322,2.6482,-7.2768
3359,-0.7765,0.462,0.4784,-2.7642,0.8314,-1.46
3372,-0.7799,0.4693,0.4859,-1.8635,0.3886,0.9522
3385,-0.7782,0.4798,0.4847,-3.6039,0.3276,-0.1012
3398,-0.7757,0.4769,0.4815,-2.7184,0.7703,-2.2386
3411,-0.7823,0.4725,0.4852,-0.6574,0.9841,-3.689
3423,-0.7799,0.4674,0.4854,-0.4131,1.2894,-4.6356
3465,-0.7806,0.4693,0.4842,1.8922,-0.6037,1.9751
3478,-0.7814,0.473,0.4862,0.9304,-0.619,1.5018
3490,-0.7804,0.4737,0.4862,-0.2604,-0.1762,0.0515
3503,-0.776,0.4691,0.4879,1.6632,-0.0236,0.0667
3517,-0.7826,0.4681,0.4879,4.9304,-0.9549,0.5247
3529,-0.7799,0.4664,0.4891,2.9915,-0.0694,0.1736
3570,-0.7796,0.4798,0.4915,8.7167,-3.3976,2.6011
3584,-0.7735,0.4899,0.4906,-0.291,-0.8175,-1.3989
3597,-0.7775,0.4781,0.493,-1.7261,0.5566,-3.0478
3610,-0.7787,0.4686,0.4879,-3.2833,0.694,-2.4218
3623,-0.7782,0.4664,0.4886,-2.4284,0.4955,-0.7272
3635,-0.7845,0.4689,0.4832,-2.0772,1.0604,0.5095
3676,-0.7809,0.4757,0.4845,-5.6803,0.923,-3.689
3690,-0.7811,0.461,0.4879,-3.207,0.0833,-2.4218
3703,-0.7796,0.4618,0.4862,-4.0162,0.4344,-2.2386
3715,-0.7789,0.4693,0.4869,-2.8558,-0.5427,-0.5287
3729,-0.7787,0.4686,0.4876,-0.1078,-0.5427,0.6163
3742,-0.7792,0.475,0.4854,-1.0391,-0.2068,-0.4676
3783,-0.7811,0.4645,0.483,-2.9627,1.2589,-2.6508
3796,-0.7809,0.4618,0.4874,-1.5429,0.9688,-1.1852
3809,-0.7784,0.4676,0.4798,-0.1383,0.4192,-0.1776
3822,-0.7809,0.4632,0.482,2.0296,-0.4816,0.6774
3835,-0.7818,0.464,0.4832,2.9151,-0.5121,1.0896
3847,-0.7801,0.4664,0.4862,2.3808,0.2512,0.998
3888,-0.7784,0.4635,0.4891,-0.8406,1.1367,-1.7043
3902,-0.7775,0.4662,0.4835,-0.8711,0.3428,-0.3455
3915,-0.7792,0.4672,0.4864,-1.6345,0.4497,-0.4066
3928,-0.7794,0.4652,0.4869,-0.2604,0.1444,-0.3302
3939,-0.7809,0.4674,0.4898,-0.1841,0.297,-0.8493
3952,-0.7804,0.4706,0.4864,-1.3749,0.0833,-2.6203
3993,-0.7782,0.4557,0.4823,-0.7948,0.5566,-1.6127
4005,-0.7816,0.4567,0.4793,0.9151,0.0833,0.3873
4018,-0.7779,0.4623,0.4832,2.1671,-0.4053,1.7766
4032,-0.7779,0.4686,0.4923,0.3961,-0.2831,0.2041
4044,-0.7796,0.4686,0.4857,0.4419,0.0222,-1.231
4057,-0.7775,0.462,0.4837,-1.1459,0.6024,-2.7424
4097,-0.7745,0.4574,0.4825,1.022,-0.1457,0.0362
4111,-0.7816,0.4569,0.4874,2.335,-0.3136,1.6545
4124,-0.776,0.4657,0.4788,1.2968,-0.1152,0.8453
4137,-0.7789,0.463,0.4847,0.2892,0.1749,-0.147
4148,-0.7779,0.4625,0.4852,1.8617,0.3123,0.2194
4161,-0.7784,0.473,0.4881,-0.9016,-0.1457,-1.689
4202,-0.7796,0.4579,0.4847,0.106,0.0528,0.7537
4216,-0.7823,0.4549,0.481,0.4419,0.297,1.8835
4229,-0.7762,0.4615,0.4808,-0.4131,-0.0846,0.9675
4241,-0.7767,0.4659,0.4874,-0.7032,1.0451,-0.773
4254,-0.7826,0.4584,0.4871,-0.2604,1.0299,-1.8111
4268,-0.7804,0.4628,0.4801,-0.6574,0.923,-2.4524
4308,-0.7816,0.4569,0.4837,1.8006,-1.3976,1.6087
4322,-0.7772,0.4669,0.4864,-0.2452,-0.9091,0.8606
4335,-0.7775,0.4615,0.4849,-1.7566,-0.0236,-0.7424
4348,-0.7821,0.4598,0.484,-1.5123,1.0299,-1.5211
4361,-0.7762,0.4576,0.4779,-1.0085,1.2894,-2.0096
4373,-0.7816,0.4523,0.4832,0.4571,0.5718,-0.7119
4414,-0.7767,0.465,0.4835,-1.2375,-0.4663,0.6469
