time_ms,ax,ay,az,gx,gy,gz
7,-0.8097,0.546,0.4102,-0.6879,0.6024,0.3415
19,-0.8021,0.5494,0.4075,-0.6726,0.4344,-0.4676
31,-0.8043,0.5504,0.4168,-1.5734,0.9077,-1.231
44,-0.8082,0.5384,0.4151,0.4571,1.1367,-0.6356
85,-0.8048,0.5441,0.4027,0.3045,0.694,-0.0249
98,-0.8014,0.5482,0.41,-0.062,0.5108,-0.2844
110,-0.808,0.5463,0.4139,-0.1383,0.3886,-0.2844
123,-0.8067,0.547,0.4056,-0.0009,-0.4969,-0.4676
135,-0.805,0.5441,0.4134,0.2281,0.0375,-0.5592
147,-0.8038,0.5455,0.4146,0.8541,0.4955,0.4637
189,-0.8043,0.5506,0.4122,-0.5047,0.4039,-0.9409
202,-0.8063,0.5484,0.4012,-1.0849,0.068,-1.6432
215,-0.8107,0.5245,0.4207,7.6785,-1.3671,-2.0707
228,-0.805,0.5489,0.4046,-2.52,0.3276,-2.2997
240,-0.8109,0.5524,0.4095,-0.8711,-0.4053,-3.0173
253,-0.8077,0.5399,0.4132,-0.4742,-0.5885,-3.1394
295,-0.8468,0.6051,0.5277,-19.1154,-14.4358,-19.2005
308,-0.9205,0.9169,0.5111,-18.0162,-82.1152,14.7385
321,-1.0072,0.9032,0.4051,-54.8711,-60.3289,20.7843
334,-1.0077,0.8944,0.4661,-74.3062,-78.3595,40.9675
346,-0.8509,0.6991,0.4019,-64.978,-78.7106,45.0133
359,-0.6559,0.6249,0.349,-62.1688,-69.3365,40.9675
401,-0.5401,0.3187,0.4901,-29.3597,-6.0388,4.9522
414,-0.6102,0.348,0.4337,-24.5505,14.2207,-0.7882
427,-0.7472,0.3734,0.5057,-25.8329,27.2131,-6.2234
439,-0.8182,0.3966,0.5809,-22.749,27.3199,-9.6737
452,-0.8795,0.3558,0.6182,-14.8406,16.0528,-14.3455
465,-0.7726,0.3307,0.4842,-7.436,17.2894,-15.1241
506,-0.714,0.2198,0.7923,0.106,-17.8709,-19.7043
520,-1.0712,0.338,0.5387,-20.1383,-20.2678,-25.2921
533,-1.4889,0.5109,0.4747,-1.8329,-35.0312,-25.3837
546,-0.1959,0.7115,0.3184,-41.7719,-18.0541,-41.5363
559,-1.2469,0.9042,1.0301,45.7243,-31.306,-16.4371
572,0.236,-0.5426,-0.8649,-17.8635,-13.5808,-41.4905
613,-0.6219,0.6517,0.6314,23.4495,-1.1686,-13.7043
626,-1.0126,0.5843,0.242,43.5869,-4.5121,-6.4218
639,-0.5531,1.2005,0.5113,33.3121,2.0528,15.1812
651,-0.7337,0.6122,0.422,28.9609,5.4879,12.9064
664,-0.7577,0.4811,0.3233,17.709,-2.0236,0.9522
677,-0.8199,0.5223,0.7174,-11.1154,4.2054,-25.5821
719,-0.8011,0.8319,0.2323,-0.8711,42.526,-13.4905
732,-1.014,0.538,0.4788,-31.1001,41.6711,3.4713
744,-0.8194,0.3668,0.5062,-20.8253,39.2283,23.1354
757,-0.7045,1.0826,1.0748,-60.6268,50.4192,42.311
770,-0.7245,0.6146,0.4764,-25.9856,51.3505,36.6469
784,-0.7589,0.3404,1.2144,-65.665,25.1825,26.0973
825,-0.504,0.2755,0.7989,-57.2375,1.9306,0.0056
838,-0.409,0.548,0.6021,5.419,-5.2449,8.769
851,-0.798,0.2784,0.442,-2.3673,-4.0846,-18.1318
864,-0.8302,0.214,0.7918,-32.9322,1.1062,-11.1699
876,-0.7789,0.3016,0.4642,2.4877,5.2283,2.2041
889,-0.7982,0.3561,0.4415,14.4877,13.9154,30.3721
931,-0.8143,0.4569,0.5682,23.7396,11.61,1.0591
943,-0.4759,0.8436,0.8289,36.9762,19.5642,-8.4371
957,-0.9903,0.7098,1.1934,31.1594,34.3428,-24.8646
970,-1.0799,0.9835,0.8419,80.564,0.2512,-10.3608
983,-1.077,1.1146,0.9056,68.5029,7.8238,-15.0936
996,-1.1747,1.087,0.795,62.8235,23.7169,-10.5134
1036,-0.7823,0.8339,0.8494,53.9533,5.0757,5.0896
1050,-0.8683,0.569,-0.1076,19.2816,-0.5427,-5.3989
1063,-0.8031,0.7508,0.2926,-34.7795,11.4879,41.6698
1076,-0.7879,0.5604,0.418,13.419,7.7474,12.8759
1089,-0.8177,0.5611,0.4097,1.2205,7.7474,5.7461
1101,-0.8041,0.5616,0.3988,0.0296,6.1902,-0.8188
1143,-0.8114,0.5475,0.399,0.8541,-0.4511,0.2041
1155,-0.8058,0.5467,0.4039,2.1671,-2.3747,1.7308
1168,-0.8087,0.5436,0.4051,2.9762,-4.1457,2.769
1181,-0.8028,0.5528,0.3992,1.8312,-3.9778,1.8835
1195,-0.8058,0.5553,0.4034,0.0296,-3.8098,-0.086
1208,-0.8026,0.5497,0.4115,-2.52,-2.6037,-1.2463
1248,-0.8045,0.5401,0.4122,2.9457,1.4115,4.7843
1261,-0.8087,0.5436,0.4039,5.0525,1.9917,8.4484
1275,-0.8048,0.5524,0.409,4.8693,2.2512,9.8072
1288,-0.8038,0.558,0.401,0.4113,2.7093,8.4484
1300,-0.8026,0.5575,0.4119,-0.7184,1.6405,6.8301
1313,-0.8063,0.5541,0.4056,-1.5581,1.1673,4.9217
1354,-0.8075,0.5489,0.4058,4.8846,-2.0388,1.5324
1367,-0.8041,0.5467,0.4093,7.0373,-1.5961,4.1278
1380,-0.8026,0.558,0.4061,9.8464,-1.8251,7.1049
1394,-0.8024,0.5707,0.4112,3.7701,0.5566,6.7385
1407,-0.805,0.5736,0.4105,-0.9475,2.1444,4.4026
1419,-0.8038,0.5751,0.4014,-5.0391,2.0833,1.9446
1461,-0.8053,0.5589,0.3995,-1.2833,1.1367,-3.4295
1474,-0.8063,0.5548,0.4056,-0.0162,1.4573,-2.8035
1486,-0.8058,0.5592,0.4017,0.4113,0.297,-0.9714
1499,-0.8043,0.555,0.4051,-0.0772,0.007,0.3873
1511,-0.8077,0.5599,0.4024,0.7319,-0.4053,2.2805
1525,-0.8085,0.5646,0.4007,-0.352,-0.39,1.3492
1565,-0.8063,0.5555,0.4017,0.6251,2.0833,0.311
1578,-0.8094,0.5572,0.4027,2.6556,1.6864,1.456
1592,-0.8124,0.5651,0.3956,3.9228,0.9688,2.9217
1605,-0.8063,0.5697,0.3983,4.1213,0.2054,3.1812
1617,-0.8082,0.5741,0.4005,1.022,-0.6343,0.4789
1630,-0.8089,0.5726,0.4017,-1.9093,-1.077,-2.2386
1672,-0.8104,0.5499,0.4044,2.564,0.9077,1.7461
1684,-0.8045,0.5582,0.3971,2.4266,1.8696,3.853
1697,-0.8036,0.569,0.4071,1.877,1.1215,3.1507
1711,-0.8067,0.5709,0.3995,-1.0696,0.3886,0.0973
1724,-0.8087,0.568,0.4019,-2.0162,-0.0846,-2.3302
1736,-0.8058,0.5704,0.401,-2.5047,-0.7564,-4.0249
1777,-0.8041,0.5414,0.4063,2.9151,-0.8633,0.0667
1791,-0.8036,0.5521,0.4058,4.5335,0.2665,5.0591
1804,-0.8036,0.5594,0.4068,4.7777,0.8161,7.6392
1816,-0.8033,0.5685,0.3939,3.0678,1.3963,7.1965
1829,-0.8002,0.5834,0.3985,-1.6345,1.0757,1.2728
1843,-0.8063,0.577,0.3931,-4.749,0.5871,-4.605
1883,-0.8058,0.5419,0.4068,2.1671,-1.2144,-3.5669
1896,-0.8058,0.5504,0.4027,4.2739,-0.3747,1.0744
1909,-0.8045,0.5565,0.4012,3.6938,0.0528,4.2347
1923,-0.8058,0.567,0.4032,1.4953,0.3123,5.0286
1936,-0.8048,0.5751,0.4093,-1.1765,0.7856,2.4484
1948,-0.8031,0.5738,0.4066,-2.5352,0.2512,-1.2768
1990,-0.8063,0.557,0.4063,3.0067,1.1673,-1.0173
2003,-0.8031,0.5548,0.4075,3.5106,2.1138,1.6545
2016,-0.8089,0.5648,0.4085,2.0602,1.0909,4.1125
2028,-0.8028,0.5746,0.3985,-0.6574,0.2207,2.8301
2042,-0.8053,0.5738,0.3978,-2.2757,0.0222,-0.086
2055,-0.8031,0.5668,0.4019,-3.3139,0.526,-2.9104
2095,-0.8055,0.557,0.4017,1.6632,1.0604,-0.8188
2109,-0.8075,0.5616,0.4019,1.6327,1.1825,0.6469
2121,-0.8111,0.5631,0.3988,1.2663,0.8009,0.7385
2134,-0.8072,0.568,0.4005,0.1671,0.1902,-1.2615
2148,-0.8104,0.5638,0.4002,-2.1688,-0.0846,-2.8798
2160,-0.8075,0.5568,0.3973,-1.0085,-1.1533,-4.5898
2201,-0.807,0.5531,0.4019,5.6938,-2.9701,-3.9638
2215,-0.8087,0.5548,0.4068,6.9151,-3.7335,-5.8264
2227,-0.806,0.5607,0.4063,4.7319,-3.3671,-6.5745
2241,-0.8063,0.548,0.4083,3.2205,-2.3136,-5.9638
2254,-0.8043,0.5524,0.4049,1.1594,-1.0617,-4.0096
2267,-0.8058,0.5524,0.4105,-0.7795,0.1596,-2.8035
2308,-0.807,0.5499,0.3983,4.793,0.8467,6.0515
2320,-0.8033,0.5672,0.4049,2.5487,-0.39,3.9751
2333,-0.8129,0.5624,0.4046,-0.2604,-1.9014,0.6011
2347,-0.8065,0.5611,0.4071,-1.6955,-4.0541,-3.0936
2360,-0.7984,0.5692,0.4036,-5.3139,-3.8098,-9.3837
2373,-0.7989,0.5404,0.4083,-4.5352,-3.5656,-11.5974
2413,-0.8016,0.5438,0.4095,0.4266,1.0451,2.2805
2426,-0.8031,0.5506,0.4137,-1.7261,2.0375,4.0973
2440,-0.8028,0.5546,0.411,-2.062,3.0757,2.9369
2453,-0.8072,0.5519,0.4085,-2.5047,3.5795,0.0973
2466,-0.8072,0.5504,0.4102,-1.4971,3.3657,-2.2081
2478,-0.8077,0.5504,0.4019,0.4877,3.1673,-3.2157
2519,-0.8038,0.5465,0.3978,0.5335,0.6329,-2.834
2533,-0.8055,0.5463,0.4017,-3.5123,0.3428,-3.1852
2546,-0.8082,0.5406,0.4005,-4.7948,0.1749,-1.1699
2558,-0.806,0.5421,0.4044,-4.4131,0.0375,-0.4066
2572,-0.8041,0.5358,0.4054,-1.5276,0.6329,0.6774
2584,-0.8092,0.5445,0.4029,0.5487,1.4573,0.8911
2625,-0.8045,0.548,0.4063,-1.7413,0.0833,-4.5592
2639,-0.8053,0.5358,0.4019,-3.0543,0.3123,-2.9104
2652,-0.8041,0.5282,0.4073,-2.4894,0.3276,0.1583
2664,-0.806,0.5362,0.4075,-0.9627,1.3199,3.5476
2677,-0.8067,0.5431,0.4054,0.2892,1.2741,3.8835
2690,-0.805,0.5475,0.4046,-0.062,1.4421,1.8835
2732,-0.805,0.5355,0.3997,-1.3749,-1.2755,-5.4753
2744,-0.807,0.5309,0.4039,-1.0543,-0.0694,-2.315
2757,-0.8036,0.5321,0.4056,-0.6421,0.5871,2.1431
2770,-0.8019,0.5365,0.4034,0.5335,1.3963,4.4331
2784,-0.8055,0.546,0.4007,-0.1688,1.0604,3.6392
2797,-0.8041,0.5492,0.4034,-1.436,0.6329,0.6316
2837,-0.806,0.536,0.4014,0.564,-1.0312,-2.5287
2850,-0.805,0.5392,0.4019,0.8083,-0.5274,-2.605
2864,-0.8102,0.5375,0.4032,-0.1994,-0.0083,-0.1012
2877,-0.8097,0.5394,0.4051,-0.291,0.2054,1.3034
2890,-0.8038,0.5377,0.4002,-0.2452,0.6482,1.2728
2903,-0.806,0.545,0.4034,-1.7719,0.3886,0.9522
2943,-0.8075,0.5343,0.4027,3.4037,0.3581,0.5705
2957,-0.808,0.5438,0.3997,2.1365,-0.3289,0.0362
2970,-0.8021,0.5392,0.4073,0.7014,0.0986,-1.3989
2982,-0.8099,0.5428,0.3958,0.5793,-0.3595,-0.6203
2995,-0.8038,0.5384,0.4088,-1.2528,-0.3442,-0.8188
3007,-0.8082,0.534,0.4046,-0.6421,-0.0999,0.2041
3049,-0.8048,0.5428,0.4027,-1.1765,1.4726,-0.2386
3062,-0.8053,0.5423,0.4014,-1.9093,0.6482,-1.7959
3074,-0.8033,0.5311,0.4032,-0.7184,0.007,-2.376
3087,-0.8094,0.5331,0.4061,0.7472,0.1444,0.4637
3099,-0.8067,0.5392,0.3997,-0.8711,0.2818,1.1965
3112,-0.807,0.5353,0.3997,-0.6574,0.2207,1.7614
3154,-0.8053,0.5309,0.4102,0.9304,-0.0846,-0.6203
3166,-0.8063,0.5431,0.4002,0.0602,0.4344,-0.8493
3178,-0.8082,0.5367,0.4024,-0.3062,0.0833,-1.3073
3191,-0.8036,0.5326,0.4012,1.1442,0.2207,-0.4982
3204,-0.8043,0.5389,0.4039,0.6861,-0.5427,0.0973
3217,-0.805,0.5384,0.4,-0.9169,0.1596,0.0973
3257,-0.805,0.5387,0.3975,-0.7337,-0.1915,-0.1165
3271,-0.8102,0.5387,0.4056,-0.352,-0.0999,-0.834
3283,-0.8043,0.5392,0.4039,0.0602,0.1444,-1.5211
3295,-0.8055,0.5367,0.3997,-0.6116,0.4955,-1.9333
3309,-0.805,0.5318,0.4007,-0.291,1.0299,-0.9409
3322,-0.7953,0.5782,0.3809,7.5564,-0.2678,1.3492
3362,-0.8087,0.5333,0.4049,0.5487,0.6176,2.3873
3375,-0.8045,0.5426,0.3966,-0.2757,0.526,0.8148
3388,-0.8102,0.5392,0.4032,-0.352,0.7093,-0.9104
3400,-0.8036,0.5592,0.3944,2.5029,0.4344,-1.5516
3412,-0.806,0.5292,0.4,-0.6574,1.4115,-1.2005
3425,-0.8063,0.5355,0.4036,0.8693,0.9841,0.5705
3467,-0.8075,0.537,0.4014,0.2739,0.7856,2.0209
3479,-0.808,0.5406,0.4019,-0.4742,0.8772,1.1965
3492,-0.807,0.5345,0.4051,-2.9169,0.6482,-1.1852
3506,-0.8038,0.5389,0.4034,-0.7642,0.4344,-2.3608
3519,-0.8092,0.5362,0.3985,0.9609,-0.3595,-1.8722
3532,-0.8063,0.5362,0.3944,0.4266,-0.222,-1.4447
3573,-0.8048,0.5333,0.4085,1.2358,-0.4511,1.7461
3585,-0.8102,0.5414,0.401,1.0984,0.4955,1.9904
3599,-0.8075,0.5411,0.4044,0.564,0.8619,0.9827
3611,-0.807,0.5394,0.4049,-0.7795,1.5795,0.1278
3625,-0.8053,0.5399,0.4054,-0.978,1.3963,-1.2615
3638,-0.8053,0.5394,0.4044,-1.2833,0.5566,-2.605
3678,-0.8075,0.5358,0.4019,-0.4284,-0.4663,-0.4676
3692,-0.8099,0.5321,0.3995,0.7319,-0.7717,0.3568
3704,-0.808,0.5353,0.401,1.4648,-0.4511,0.2499
3717,-0.806,0.5348,0.4027,1.8006,-0.6801,0.6927
3729,-0.8085,0.5333,0.4017,2.1365,-0.8175,1.4713
3743,-0.8063,0.5367,0.4051,1.7548,-0.3595,1.2728
3784,-0.8102,0.537,0.3985,-0.581,2.6634,1.1354
3796,-0.808,0.5411,0.3975,-0.3368,2.0833,0.9217
3810,-0.8075,0.5375,0.3978,0.2129,0.5566,-0.3913
3823,-0.808,0.5431,0.3983,-1.2375,-0.2526,-2.147
3836,-0.8085,0.5331,0.4,-1.7261,-0.619,-2.3455
3849,-0.8094,0.5343,0.399,-0.8558,-0.4511,-1.2463
3889,-0.8053,0.5372,0.3966,0.106,0.4344,0.6316
3902,-0.8082,0.538,0.398,0.5793,0.5108,-0.0554
3916,-0.8038,0.5392,0.4012,-0.3062,0.1444,-1.4905
3929,-0.8092,0.534,0.3978,-0.52,0.3581,-1.8417
3941,-0.8043,0.534,0.3968,-0.6574,0.3428,-1.1089
3954,-0.8041,0.5387,0.3963,-1.3902,0.297,-1.3531
3996,-0.8085,0.5377,0.3978,1.3426,-0.3136,1.1965
4008,-0.8043,0.538,0.4,0.5335,0.3734,0.4331
4020,-0.8036,0.5406,0.4032,0.1671,0.7398,-0.4982
4033,-0.8065,0.5416,0.3973,-0.0772,0.2818,-1.8111
