time_ms,ax,ay,az,gx,gy,gz
11,-0.8219,0.6704,0.8022,-0.2218,0.3565,-0.1591
53,-0.821,0.6668,0.798,0.1446,0.4481,-0.3271
65,-0.8178,0.669,0.8075,0.1599,0.3565,0.3905
77,-0.819,0.6631,0.8061,0.3736,0.2649,0.4973
89,-0.818,0.666,0.808,0.3889,0.097,0.421
101,-0.8168,0.6716,0.7997,-0.1302,0.7993,0.192
114,-0.8205,0.6653,0.8017,-0.6798,0.5855,-0.0981
155,-0.8185,0.6687,0.8019,-0.1454,0.0206,0.1157
168,-0.8185,0.6724,0.799,-1.4737,-0.3305,-0.2813
180,-0.8215,0.6712,0.8039,-1.6874,-0.361,-0.5103
191,-0.8144,0.6648,0.8036,-0.9546,0.0206,-0.3882
203,-0.8193,0.6599,0.8044,-0.5271,-0.3152,0.2073
215,-0.8224,0.6707,0.8029,0.6637,0.1733,0.5126
257,-0.82,0.6672,0.8044,-0.4202,0.5092,-0.2507
269,-0.8193,0.6665,0.8029,-0.6798,-0.0862,0.2989
281,-0.8219,0.6624,0.8056,0.5111,0.6008,0.8027
294,-0.819,0.6648,0.8061,-0.405,0.0054,0.421
305,-0.818,0.6702,0.7983,0.7859,0.4481,0.5889
317,-0.8168,0.6685,0.7992,-0.3134,-0.0557,-0.2813
359,-0.8163,0.6663,0.8024,-0.237,-0.0557,0.1309
371,-0.8151,0.6672,0.8075,0.4195,0.4787,0.3141
383,-0.8224,0.6658,0.8031,-0.466,-0.3305,-0.2355
395,-0.8224,0.6682,0.7985,0.2362,0.4939,-0.0828
408,-0.8234,0.667,0.8029,-0.237,0.4176,-0.495
419,-0.818,0.6694,0.798,-0.5118,-0.0252,-0.3729
461,-0.8188,0.6692,0.8041,0.282,0.0817,0.9096
473,-0.821,0.6736,0.8007,0.4347,0.2038,-0.0828
485,-0.8139,0.6685,0.8029,-0.5118,0.4481,-0.3424
497,-0.8237,0.6682,0.8031,-1.1531,0.0817,0.1462
509,-0.8222,0.6599,0.8048,-1.1378,0.2038,1.1538
522,-0.8312,0.658,0.8117,0.5874,0.7077,2.6805
563,-0.8366,0.6604,0.8151,4.5874,-1.0023,6.3752
576,-0.8178,0.6597,0.8358,4.2973,-3.674,5.047
589,-0.8156,0.6528,0.8319,1.595,-8.59,2.9248
600,-0.8232,0.7034,0.7992,2.6637,-9.6282,1.0164
612,-0.853,0.6729,0.8302,3.3355,-10.3,2.7264
624,-0.8222,0.6631,0.8085,9.8851,-11.8572,3.4134
666,-0.7936,0.6909,0.8019,5.763,-6.2389,1.2454
678,-0.8039,0.6917,0.828,5.4271,-6.361,0.8638
692,-0.8141,0.6936,0.8317,1.0912,-6.8191,-0.8156
704,-0.8097,0.6968,0.8288,2.5416,-7.216,-1.5637
715,-0.8029,0.6919,0.8258,2.6943,-6.6053,-1.3958
727,-0.7895,0.6887,0.8207,3.0912,-5.7351,-0.7851
769,-0.7963,0.6777,0.839,2.2057,-6.2542,-2.1439
781,-0.7834,0.6736,0.8254,1.7782,-7.0328,-4.5561
793,-0.7839,0.6838,0.7919,-2.6035,-4.0557,-5.8538
806,-0.7922,0.6748,0.7948,-4.5882,0.1275,-6.4034
817,-0.7939,0.6892,0.8058,-5.3973,2.9519,-7.3347
829,-0.8058,0.6826,0.8297,-6.176,3.9901,-6.9988
871,-0.901,0.7009,0.8551,-7.3973,6.3107,-9.0446
883,-0.863,0.6936,0.8144,-4.1302,0.1733,-5.579
895,-0.8266,0.6565,0.8158,-4.7561,2.0206,-3.2126
908,-0.8088,0.6702,0.8146,-3.7332,0.158,-3.182
919,-0.8107,0.6765,0.8151,-3.9622,-0.1473,-2.8462
931,-0.8239,0.6773,0.8066,-5.3821,-0.6053,-1.5332
974,-0.8158,0.7524,0.8156,-1.6874,-1.8725,3.4744
985,-0.8063,0.4978,0.9049,-12.1302,-1.1244,-4.8156
997,-0.8149,0.811,0.8461,4.7706,0.6466,8.818
1009,-0.8168,0.6912,0.817,-1.5653,0.0512,3.6271
1022,-0.8049,0.666,0.8468,-1.8401,-3.1091,0.6653
1033,-0.7873,0.6421,0.7897,-4.2676,2.0664,13.1538
1076,-0.7438,0.5493,1.0204,0.4958,-15.1397,5.7035
1087,-0.8434,0.4695,0.8581,-11.3821,-15.6587,-4.8156
1099,-0.686,0.6111,1.0548,-3.3668,-19.3381,-1.4874
1111,-0.6061,0.6204,0.9699,7.0149,-21.7045,-0.6935
1124,-0.8251,0.7092,1.0341,13.4424,-15.0175,-3.2278
1135,-0.9665,0.5442,0.735,0.282,-20.8801,-4.663
1178,-0.6789,0.606,0.9633,13.0149,-19.6587,-15.9912
1190,-0.6882,0.4758,0.7668,-11.2447,-9.1855,-17.1668
1201,-0.9875,0.8662,0.8149,17.366,-9.5366,-2.4492
1213,-0.9079,0.679,0.7353,17.7477,-5.8572,-8.4645
1226,-0.7292,0.6362,0.8183,-4.3897,0.4634,-18.6935
1238,-0.8796,0.7734,0.7323,4.4042,0.3107,-9.5485
1279,-0.8073,0.7185,0.7455,-16.3134,8.8909,-11.0141
1292,-0.8224,0.6348,0.6117,-8.8477,11.1046,-4.7088
1304,-0.7675,0.6116,0.7699,-13.8554,22.1275,-0.266
1315,-0.7695,0.7505,0.8813,-0.2676,14.9061,3.9325
1327,-0.8259,0.6394,0.6791,-3.0157,9.5168,0.1615
1339,-0.8703,0.6277,0.6576,-5.0615,11.3031,0.6195
1381,-0.87,0.6587,0.9066,-14.3439,14.4634,9.963
1393,-0.8288,0.8064,0.8302,-5.5347,19.8832,17.7035
1406,-0.8312,0.5051,0.7814,-14.6187,10.6924,0.0851
1417,-0.8075,0.9036,0.7919,10.9233,13.4558,24.9554
1429,-0.8012,0.5813,0.8542,11.8851,9.3336,9.4592
1442,-0.8268,0.7756,0.7633,14.5569,14.326,19.8103
1483,-0.7919,0.5545,0.8356,-4.4202,7.4252,4.7264
1495,-0.7848,0.5684,0.8246,-11.5195,1.1504,-4.8309
1507,-0.831,0.6836,0.7856,-4.5729,2.4634,-0.953
1520,-0.8127,0.6167,0.7514,0.2515,18.555,20.1615
1531,-0.7748,0.5652,0.8612,-5.0615,1.1199,2.9859
1543,-0.8058,0.6492,0.8161,-5.9928,1.1046,0.3752
1586,-0.8014,0.6441,0.8322,0.0683,2.8145,3.108
1597,-0.818,0.666,0.8161,0.9691,1.5474,0.9859
1609,-0.8093,0.6653,0.8092,-1.2599,1.3642,-1.0446
1621,-0.8166,0.6514,0.8078,-0.5271,0.9977,-2.3882
1634,-0.8139,0.6492,0.799,-1.2599,0.5855,-2.2049
1645,-0.8139,0.6541,0.8112,-0.0996,0.9519,-0.4645
1688,-0.8132,0.6516,0.809,10.4958,2.3107,5.0012
1699,-0.8173,0.6685,0.8041,8.0836,2.4634,4.6958
1711,-0.8136,0.6406,0.8092,5.2439,2.555,2.7264
1723,-0.8149,0.6113,0.8,6.6332,2.6008,1.1996
1735,-0.8156,0.5649,0.7709,6.6179,4.3718,-4.8156
1747,-0.8249,0.7058,0.8185,17.2133,5.8527,3.7798
1789,-0.7336,0.5908,0.8507,13.3049,4.2955,-6.0065
1802,-0.6642,0.6177,0.6862,-2.9851,3.8527,-30.5256
1813,-0.7326,0.4397,0.7438,-12.6645,-1.6435,-34.2813
1825,-0.8964,0.7251,0.8097,14.4653,8.9367,-21.5027
1837,-0.7927,0.7085,0.7924,5.7019,2.8145,-13.6248
1850,-0.9289,0.8958,0.9804,16.5569,2.4939,-18.8462
1891,-0.8176,0.6802,0.7968,-6.237,1.4252,-3.6095
1904,-0.8229,0.6948,0.8017,-4.0386,-0.3763,-5.7317
1916,-0.8254,0.6814,0.7956,-1.2752,-0.4374,-3.1668
1927,-0.818,0.6538,0.8063,0.3431,-1.1091,-2.0828
1939,-0.8168,0.6629,0.7921,-0.5882,-0.8954,-1.4569
1952,-0.8132,0.6506,0.8007,-1.5653,-1.0633,-0.5866
1993,-0.8198,0.6543,0.8017,1.1217,0.3718,1.3065
2005,-0.8217,0.6516,0.799,0.3278,0.7535,-0.4187
2018,-0.8171,0.6423,0.7985,8.7553,0.097,-0.8156
2029,-0.8188,0.6362,0.8022,0.0072,-0.3763,-1.7469
2041,-0.8151,0.6433,0.7951,-1.0157,-0.3458,-1.121
2053,-0.8198,0.6455,0.8017,-0.6035,0.0206,-0.1286
2095,-0.8185,0.6526,0.8009,0.9233,0.2955,0.7722
2107,-0.8161,0.6489,0.8026,-1.321,0.2344,-0.663
2119,-0.8198,0.6514,0.7965,-1.4431,0.1886,-1.2278
2132,-0.8141,0.6392,0.7985,0.6179,0.6771,-1.2278
2143,-0.8171,0.6411,0.7968,-1.0462,0.2191,-1.182
2155,-0.8198,0.6487,0.8051,-0.2981,0.9672,-1.1973
2197,-0.7988,0.6453,0.789,1.0301,0.0512,-2.6172
2209,-0.8263,0.6257,0.8041,4.8927,0.2344,0.2836
2221,-0.81,0.6316,0.7931,5.6103,0.4023,3.0622
2233,-0.8136,0.6558,0.7939,5.9614,0.8298,3.3828
2246,-0.8198,0.6484,0.8004,3.8088,-0.4984,3.337
2257,-0.8144,0.6541,0.8066,3.1828,-0.6511,3.6424
2300,-0.8205,0.6597,0.7956,-4.6798,-0.6053,-6.037
2312,-0.8195,0.6458,0.8019,-5.0309,-1.445,-4.9378
2323,-0.818,0.6416,0.7987,-4.6951,-1.9183,-3.5637
2335,-0.8117,0.6406,0.7968,-3.5805,-1.2771,-1.8233
2348,-0.8198,0.6355,0.7985,-1.947,-1.5824,0.5279
2359,-0.8193,0.6475,0.8056,-0.9699,-1.1244,2.4057
2401,-0.808,0.6438,0.8014,0.1141,0.1428,5.1233
2414,-0.8188,0.6624,0.8046,-3.4889,0.6619,3.0622
2425,-0.8188,0.6431,0.8014,-6.2218,0.1428,1.047
2437,-0.8151,0.6487,0.8029,-5.1073,0.3413,1.4592
2449,-0.8198,0.6589,0.8063,2.7553,-0.1626,2.4363
2462,-0.8078,0.6423,0.8026,-0.7561,0.6771,2.8638
2503,-0.8266,0.6377,0.798,5.595,-3.5366,14.6805
2516,-0.8234,0.6699,0.8029,3.5034,-4.5442,13.3981
2528,-0.8151,0.6714,0.8044,-0.7409,-5.2771,7.7645
2539,-0.819,0.6692,0.8063,-2.863,-5.3076,4.3447
2551,-0.8144,0.6629,0.8009,-2.2676,-4.8649,2.5737
2564,-0.8183,0.6545,0.8051,-1.6111,-3.2923,1.9019
2605,-0.819,0.6567,0.8114,0.7859,1.1657,-0.2202
2617,-0.8161,0.656,0.808,1.4729,1.0435,0.6958
2629,-0.8215,0.6604,0.8066,2.7401,0.9825,1.5508
2642,-0.818,0.6646,0.8034,0.7553,-0.758,0.9248
2653,-0.8183,0.6629,0.8083,-0.1454,-0.8954,0.421
2665,-0.8166,0.6572,0.8105,0.221,-0.9717,0.1157
2708,-0.8124,0.6709,0.8036,-3.3821,-1.0786,-1.3653
2719,-0.8163,0.6704,0.8068,-5.6111,-0.7122,-2.434
2731,-0.8171,0.6526,0.8146,-6.8935,-0.9717,-2.7088
2744,-0.8144,0.6555,0.8153,-6.7561,-0.361,-1.2431
2756,-0.8119,0.6589,0.8063,-8.8477,-0.6511,-0.7546
2767,-0.8083,0.645,0.8019,-8.4202,-0.6664,-0.0065
2810,-0.8141,0.6458,0.799,-14.2218,-5.4603,10.3905
2823,-0.8205,0.6619,0.8163,-11.1378,-4.7427,10.8485
2835,-0.8127,0.6807,0.8075,-19.2752,-5.6282,4.9706
2846,-0.8144,0.6453,0.8141,-20.6645,-6.5595,3.1996
2858,-0.8107,0.6487,0.8066,-15.5958,-5.8267,4.9859
2871,-0.8136,0.6536,0.8134,-14.9088,-5.3687,4.8485
2912,-0.8141,0.6475,0.8114,-6.634,-3.7962,6.0393
2924,-0.8141,0.6528,0.8109,-2.4508,-3.3381,4.7111
2936,-0.8158,0.6575,0.8168,0.0378,-3.216,2.5431
2949,-0.8136,0.655,0.8151,1.3507,-2.6358,0.0241
2960,-0.8097,0.6597,0.8136,1.137,-1.8725,-1.2126
2972,-0.8061,0.6626,0.8168,-4.0538,-2.3,-3.4263
3014,-0.8139,0.6419,0.8156,0.8164,1.0435,4.8485
3026,-0.8124,0.6506,0.817,2.4195,0.7687,5.3523
3038,-0.809,0.6526,0.8261,2.2057,-0.2389,4.2378
3050,-0.8095,0.6751,0.8183,-3.3668,-1.0175,0.5889
3063,-0.8102,0.657,0.8175,-8.0386,-1.7503,-2.1591
3075,-0.81,0.6543,0.817,-8.4813,-1.9946,-1.1973
3116,-0.8095,0.6394,0.8192,-5.8706,-2.361,9.1691
3129,-0.8144,0.6611,0.8178,-5.4279,-1.1244,9.7798
3140,-0.8063,0.6602,0.8144,-5.6569,-1.0633,8.7722
3152,-0.8105,0.6585,0.8175,-3.6722,-1.1702,7.8561
3164,-0.8105,0.6599,0.8161,-0.2523,-1.5671,7.276
3177,-0.81,0.6597,0.8153,1.366,-1.7656,5.6882
3218,-0.8095,0.6543,0.8192,0.679,-1.9641,-2.3424
3230,-0.8085,0.6526,0.8163,2.5263,-1.6435,0.1462
3243,-0.8093,0.6533,0.8271,3.8088,-1.8878,2.2073
3254,-0.8129,0.6604,0.8271,4.1904,-1.3992,2.9706
3266,-0.8053,0.6548,0.8224,4.1752,-2.4068,2.2683
3278,-0.8136,0.6636,0.83,3.5798,-2.361,1.4286
3320,-0.8041,0.6631,0.8212,2.6943,-1.4145,-0.9072
3332,-0.8078,0.6594,0.8275,2.4042,-0.8343,-0.9072
3344,-0.8075,0.6572,0.8271,4.3278,0.3107,0.5279
3356,-0.8083,0.6597,0.8236,5.3202,-0.0557,1.4286
3368,-0.8044,0.6768,0.8183,3.6561,-0.8496,0.3447
3380,-0.8063,0.6714,0.8227,1.5798,-1.4145,-1.0904
3422,-0.81,0.6633,0.828,1.0759,-0.8343,-0.7851
3434,-0.808,0.6675,0.8261,-0.5882,-0.8191,-1.0141
3446,-0.809,0.669,0.8261,-0.9851,-1.0023,-1.2126
3459,-0.8061,0.6677,0.8207,-0.7256,-0.529,-2.1744
3471,-0.801,0.6619,0.8251,-3.3515,-1.5977,-2.1744
3482,-0.8066,0.6553,0.8241,-0.6187,-0.758,-1.2736
3525,-0.8095,0.6619,0.8283,-0.7867,-0.6053,0.0241
3536,-0.8051,0.6567,0.8278,-0.4966,-0.2847,-0.2813
3548,-0.8085,0.6641,0.8315,-1.0157,0.0206,-0.2813
3560,-0.8058,0.6607,0.8293,-0.8019,-0.6053,-0.495
3573,-0.8085,0.6589,0.8319,-0.2981,-0.3763,-0.2202
3584,-0.8075,0.6626,0.8334,-0.466,-0.5442,-0.4187
3626,-0.8107,0.6631,0.8263,-0.4813,0.2191,-0.266
3638,-0.8027,0.6597,0.8317,-0.0691,0.3565,0.0393
3650,-0.8031,0.6602,0.8232,-1.2294,-0.1168,0.1309
3662,-0.8083,0.6607,0.8293,-0.2981,0.1733,0.2531
3674,-0.8022,0.6607,0.829,1.2133,0.4481,0.3752
3687,-0.8056,0.6621,0.831,0.053,0.6924,-0.3424
3728,-0.8088,0.6597,0.8195,-0.4813,-0.1778,-0.495
3741,-0.8056,0.6575,0.8268,-1.3973,-0.3916,-0.2202
3753,-0.8075,0.6577,0.8254,-0.7409,-0.0252,-0.1591
3764,-0.8083,0.6565,0.8273,-0.5424,0.0512,-0.2355
3776,-0.8083,0.656,0.8315,-0.4355,0.097,-0.1286
3788,-0.8085,0.6594,0.8244,-0.0844,0.097,-0.0065
3830,-0.8066,0.6555,0.8278,-0.2065,0.158,-0.037
3842,-0.8095,0.6597,0.8268,-0.2218,0.2649,0.0393
3855,-0.8075,0.6599,0.8246,-0.4966,-0.1168,0.0241
3866,-0.8073,0.6587,0.8258,-0.7103,-0.3152,-0.2355
3878,-0.8041,0.6631,0.8258,-3.947,-1.903,-1.6553
3891,-0.7956,0.656,0.8329,-4.008,-1.8267,-1.1973
3932,-0.8071,0.6585,0.8273,1.2286,1.8069,1.108
3944,-0.8063,0.6607,0.8339,1.1981,1.5321,0.3752
3957,-0.8063,0.6653,0.8278,0.4653,1.471,-0.9225
3968,-0.8034,0.6611,0.8236,-1.2599,0.3107,-1.1973
3980,-0.8049,0.6585,0.8271,-0.8019,0.158,-1.0599
3992,-0.8071,0.6558,0.8354,0.6179,0.0054,-0.2202
4034,-0.8075,0.6592,0.8324,0.8469,0.1275,0.1767
4046,-0.8053,0.6614,0.8312,0.4653,1.0741,0.421
4058,-0.8066,0.658,0.8297,0.6485,0.9672,0.0088
