time_ms,ax,ay,az,gx,gy,gz
9,-0.8243,0.5101,0.2647,0.3808,-0.3289,-0.4829
22,-0.8199,0.5184,0.2674,0.6556,-0.5732,-0.2386
33,-0.8233,0.5084,0.2689,0.6403,-0.4205,-0.6508
46,-0.8209,0.5035,0.2706,0.5793,0.007,0.3415
87,-0.8251,0.5135,0.275,-0.4436,-0.1762,0.311
100,-0.8224,0.5109,0.2713,-0.2757,0.526,-0.1623
112,-0.8221,0.513,0.2784,-0.7032,0.8314,-0.8646
123,-0.8233,0.5062,0.2769,0.5335,1.1673,0.2652
137,-0.8175,0.516,0.2667,1.5411,0.8467,1.2881
149,-0.8207,0.5104,0.263,1.3426,1.0909,2.2347
191,-0.8248,0.5177,0.2667,-1.436,-0.8938,-2.4982
203,-0.8216,0.5096,0.2747,-0.8864,-0.7869,-3.2921
217,-0.8241,0.5045,0.2681,0.7319,-0.3442,-1.1394
230,-0.8224,0.5067,0.2696,0.9304,0.7093,1.0896
243,-0.8236,0.513,0.2677,0.0296,1.3199,1.4408
256,-0.8221,0.5089,0.2711,-0.6574,1.5031,1.2576
297,-0.8219,0.5109,0.2703,-1.0391,0.7093,-1.9944
310,-0.827,0.5035,0.2728,-0.0314,0.4192,-1.3989
322,-0.8219,0.5101,0.2633,1.5106,0.7703,1.166
335,-0.8255,0.5111,0.2701,0.7625,0.5413,1.6698
348,-0.8238,0.5167,0.2679,-0.1688,0.465,2.2347
362,-0.8226,0.5167,0.2691,-0.6268,-0.39,0.9675
403,-0.8307,0.5172,0.2642,-0.8406,-5.1839,1.5018
415,-0.838,0.4774,0.2808,5.7243,-10.161,4.6774
429,-0.8578,0.5375,0.3468,-7.0238,-17.9778,12.6621
442,-0.9486,0.7828,0.8287,23.9838,-70.1304,42.2957
455,-1.0279,0.6656,0.2523,-35.5734,-48.3289,50.3873
468,-1.1207,0.6578,0.3839,-32.6574,-83.3823,59.5018
509,-0.495,0.4989,0.2274,-74.6116,-72.6801,57.8988
522,-0.4916,0.3536,0.3035,-62.3673,-31.3365,43.624
535,-0.6854,0.5843,0.3958,-50.4742,-12.9854,25.7308
548,-0.8714,0.6547,0.4754,-42.0772,-15.2907,16.4026
561,-0.8714,0.6471,0.4849,-44.52,-18.8175,20.6163
574,-0.7652,0.5787,0.4097,-31.7413,-15.2297,21.5476
615,-0.7062,0.4857,0.3922,-27.6497,21.9459,4.5705
628,-0.7213,0.482,0.3958,-23.1154,30.5108,-3.8417
641,-0.805,0.5367,0.3822,-21.4818,33.6253,-14.3455
654,-0.8824,0.5758,0.3839,-21.8024,31.4573,-16.7577
667,-0.9183,0.5614,0.3966,-18.352,24.2512,-19.2921
680,-0.776,0.6388,0.2735,-10.0009,-13.4129,-2.0402
721,-0.7994,0.5455,0.4842,-0.1841,-6.2831,10.6621
734,-0.8392,0.524,0.0794,13.419,-10.5274,-2.4524
747,-0.6105,0.1075,0.6973,-6.291,-17.0312,-10.9867
760,-0.7479,0.42,0.4283,14.0754,-9.5808,-17.9027
773,-0.765,0.4938,0.5489,-12.352,-14.9701,-6.3302
786,-0.7076,0.8861,0.1449,19.4953,9.4726,-18.1928
827,-0.5919,0.5829,0.5701,-10.749,-20.6801,-10.6966
840,-0.8207,0.8422,0.3512,25.2358,-26.39,-3.4295
853,-0.9432,0.5724,0.4132,36.1365,-34.6495,-4.7577
866,-0.8224,0.6796,0.6307,-27.1765,-21.3366,-0.6814
880,-0.6761,0.0287,0.513,-12.9169,-55.5808,-25.5974
893,-0.7128,0.1507,0.5255,-28.0925,-12.3442,-23.8264
933,-0.7901,0.8583,0.4864,11.9228,-8.7411,-6.5745
946,-0.8207,0.9383,0.0269,15.5716,11.4268,-10.6356
959,-0.7987,1.3414,0.9371,1.5258,19.2436,-10.6966
972,-0.6249,0.431,0.8304,12.2281,5.0909,-25.5821
985,-0.7848,0.4842,0.2655,20.1671,1.6711,-1.9791
998,-0.7836,0.4447,0.3939,7.7548,6.8009,-6.0249
1039,-0.8507,0.3971,0.2777,15.5564,18.1444,-6.6966
1052,-0.763,0.586,0.2049,8.5487,23.8085,-5.4142
1065,-0.7577,0.4505,0.0035,-9.5276,40.5108,-20.2081
1078,-0.7843,0.4894,0.3958,-8.0162,21.2741,2.4331
1091,-0.8338,0.4901,0.502,8.106,4.2054,-7.7195
1104,-0.8619,0.5253,0.4261,1.6785,13.1215,-2.7119
1145,-0.909,0.3497,0.336,7.0984,35.3199,9.5324
1157,-0.7799,0.5016,0.1441,21.3121,13.6711,7.3339
1171,-0.7316,0.1622,0.4571,-14.2604,29.3047,17.7308
1184,-0.8019,0.2184,0.1632,40.6556,6.007,6.9369
1197,-0.8497,0.7352,0.4954,21.0984,20.5718,17.1965
1210,-0.6803,0.4457,-0.2414,29.251,24.3428,15.6392
1251,-0.8934,0.5194,0.6029,-0.7337,23.3657,6.8606
1265,-0.9935,0.6058,1.0701,-42.8558,15.3199,12.7995
1277,-0.8373,0.4288,0.4202,-39.6039,31.5795,-2.5287
1290,-0.6546,0.5314,0.3182,31.9075,-9.932,12.1736
1303,-0.7904,0.5455,0.1829,-20.7032,26.9688,15.1202
1316,-0.8085,0.7059,0.9307,-16.6268,54.6329,11.6392
1357,-0.7897,0.5492,0.1002,-15.6039,22.8009,12.0056
1370,-0.7765,0.4408,0.263,18.7777,-5.8862,-7.2157
1383,-0.819,0.5885,0.158,21.8617,-4.9701,-9.689
1396,-0.8619,0.463,0.1185,-35.3291,44.694,1.5782
1409,-0.8568,0.2015,0.5291,3.2358,-4.9396,-12.773
1422,-0.8346,0.5033,0.2457,3.5716,4.7398,-11.1699
1462,-0.8346,0.5653,0.2406,-3.0849,5.381,-0.6661
1476,-0.8334,0.5641,0.4312,-11.4818,16.4802,17.3034
1489,-0.8441,0.5062,0.3575,-9.4818,10.0833,-1.3226
1501,-0.8146,0.5343,0.2552,-8.6268,0.4039,-4.9256
1515,-0.8041,0.6066,0.2266,-9.2833,19.5489,1.3644
1528,-0.8219,0.6493,0.3267,-6.0925,15.4573,1.395
1569,-0.815,0.5694,0.1566,-7.9856,12.1444,-1.5058
1581,-0.817,0.5401,0.264,-3.3139,3.6558,2.8606
1595,-0.8282,0.5233,0.2745,-0.352,3.2283,6.9675
1608,-0.8314,0.526,0.2611,4.2892,4.3734,12.5705
1621,-0.826,0.5394,0.2528,4.793,6.0833,15.6087
1634,-0.8287,0.5484,0.2545,4.1671,5.61,16.6163
1675,-0.8033,0.3602,0.2633,5.3426,11.0757,-3.1852
1688,-0.8719,0.7369,0.1322,26.3045,6.2054,12.7537
1701,-0.5629,0.5748,0.4661,0.5335,-4.8633,-22.5745
1714,-0.6849,0.4498,0.3365,57.9991,-9.1381,-15.9027
1727,-0.8324,0.7665,0.0711,38.0602,-1.2602,-6.7119
1740,-0.8419,0.5746,0.3402,12.3197,3.2131,-7.7043
1781,-1.0253,0.8434,0.4925,45.1747,9.2894,0.6163
1795,-0.8392,0.7577,0.3646,21.3426,4.4192,-17.9485
1807,-0.8104,0.5963,0.2669,51.4342,-13.932,-1.4295
1820,-0.6986,0.5721,0.2491,26.8388,2.0833,-8.7577
1833,-0.6139,0.2267,0.3075,-6.2146,5.9001,-17.5821
1846,-0.7679,0.2665,0.7865,24.0907,-8.0694,-14.1318
1887,-0.8336,0.4601,0.1934,38.1671,0.9535,-12.5898
1900,-0.7438,0.3722,0.4715,23.2205,7.7932,-18.2539
1913,-0.871,-0.0343,0.826,23.251,-16.1915,-17.1241
1926,-0.8524,0.4071,0.4185,14.8541,4.6634,-2.4676
1939,-0.9598,1.253,0.0824,71.0831,4.6634,12.3415
1952,-0.7325,0.9913,-0.1547,16.1823,12.9535,9.8682
1994,-0.7955,0.8617,-0.0275,20.6861,6.6329,-2.5898
2006,-0.7171,0.3273,0.4691,50.8235,-5.8556,-12.2844
2018,-0.8602,0.4803,0.2523,42.6556,-6.5121,1.2576
2032,-0.8631,0.7333,0.1492,8.8235,12.3428,2.6774
2046,-0.694,-0.0993,0.4608,24.1976,-8.7106,-15.3379
2057,-0.8011,0.5682,0.2047,2.1976,8.4802,21.4713
2098,-0.8595,0.6625,0.1895,5.4648,8.4344,5.8988
2112,-0.817,0.5065,0.2598,5.7548,5.839,2.7995
2125,-0.8251,0.5878,0.2454,9.6022,-2.1762,-3.3226
2138,-0.8375,0.6622,0.18,2.0449,2.7551,2.0973
2151,-0.8285,0.5433,0.2308,4.8083,0.6482,-1.5669
2163,-0.8307,0.5289,0.2364,7.022,-1.4282,-0.086
2205,-0.8224,0.5546,0.2313,-1.5276,-2.9243,-0.086
2218,-0.8209,0.557,0.231,-3.0543,-3.1381,-0.3455
2230,-0.8295,0.5279,0.242,3.251,-2.4969,1.4102
2244,-0.8238,0.558,0.2379,-4.3368,-0.39,-0.2692
2257,-0.8297,0.5404,0.2442,-2.6879,0.694,-1.7348
2270,-0.8273,0.537,0.2413,-3.6039,1.7474,-1.7959
2310,-0.8295,0.5397,0.2359,3.9228,-0.7259,-0.2692
2324,-0.8219,0.5458,0.2435,3.251,-2.6495,-1.8569
2337,-0.8248,0.5465,0.2413,0.0449,-1.3824,-2.4829
2350,-0.8258,0.5411,0.2513,-1.0238,-0.3136,-2.7272
2363,-0.8312,0.5411,0.2447,-1.5123,0.1444,-2.5134
2375,-0.8282,0.5406,0.2386,-0.8406,-0.9701,-2.5287
2417,-0.8275,0.536,0.2357,6.2281,-4.3747,0.2194
2430,-0.8246,0.5499,0.2459,3.9991,-4.0388,-1.7959
2442,-0.829,0.5423,0.2428,2.3961,-3.5198,-2.4524
2456,-0.8287,0.5414,0.2435,-0.4284,-2.3747,-3.3226
2469,-0.8297,0.517,0.2513,0.1823,-2.0236,-1.7806
2482,-0.8282,0.5289,0.2498,1.4037,-0.9091,1.3492
2523,-0.826,0.5453,0.245,-2.0467,1.381,-1.8875
2536,-0.8258,0.5406,0.2447,-2.9169,1.6711,-2.8951
2549,-0.8243,0.538,0.2457,-2.7184,1.1978,-3.002
2562,-0.8207,0.5599,0.2257,-1.3291,-0.3595,-1.7959
2574,-0.8287,0.5314,0.2408,-1.0849,-1.0617,-1.7653
2588,-0.8253,0.5387,0.2489,-1.0696,-1.1991,-0.8035
2629,-0.8258,0.5321,0.2535,0.0754,-1.2602,1.395
2641,-0.8241,0.5377,0.2474,-0.81,-0.8327,1.2118
2655,-0.8251,0.5445,0.2442,-2.1688,-1.0923,-1.0631
2668,-0.8251,0.5431,0.2508,-3.5581,-1.6266,-3.8875
2681,-0.8273,0.5267,0.2562,-5.3749,-1.9778,-5.6279
2694,-0.8273,0.5282,0.2501,-2.4894,-2.5732,-5.4295
2734,-0.826,0.5338,0.2525,0.4877,-1.3366,1.227
2748,-0.828,0.5338,0.2557,-0.5352,-0.9243,1.5476
2761,-0.8224,0.5321,0.2535,-2.1994,0.1902,1.0286
2774,-0.8238,0.5294,0.2567,-1.6803,1.0757,-0.6661
2787,-0.8219,0.5304,0.2535,-1.0849,1.5489,-0.4829
2799,-0.8285,0.5287,0.2555,0.4877,1.0451,-0.6356
2841,-0.8282,0.5372,0.2489,-0.9475,-1.7488,-1.7195
2854,-0.8246,0.5536,0.2435,-3.9856,-2.3289,-4.7119
2867,-0.8248,0.5248,0.2555,-2.9169,-2.0999,-6.544
2879,-0.8277,0.5121,0.2608,0.9609,-0.8175,-3.002
2892,-0.8258,0.5253,0.2542,2.9151,0.4802,0.1125
2905,-0.8263,0.5233,0.2515,2.0144,1.5795,0.6469
2947,-0.8243,0.527,0.2513,-0.7795,-0.4053,-0.1776
2960,-0.8243,0.5301,0.2574,0.1213,0.0986,-0.605
2972,-0.8258,0.527,0.2567,-0.2146,0.3581,-1.2005
2985,-0.827,0.5245,0.2528,0.7777,0.9077,-1.1394
2997,-0.8258,0.5289,0.2498,1.2205,1.1978,-0.2997
3010,-0.8246,0.5323,0.2474,-1.1917,0.5108,-0.8798
3052,-0.8233,0.5243,0.245,-1.1612,-2.0236,-1.0936
3064,-0.8302,0.5189,0.2559,1.3426,-0.6801,0.4026
3078,-0.8263,0.5299,0.2464,1.5869,0.923,1.7614
3091,-0.8263,0.5238,0.2537,1.709,1.7169,1.3186
3103,-0.8231,0.5311,0.2442,0.2129,1.1215,1.1965
3117,-0.8273,0.5267,0.2471,-1.0696,0.3428,0.6316
3158,-0.8265,0.5235,0.2493,2.0754,0.4039,2.3721
3171,-0.8307,0.5275,0.2503,2.3045,1.381,3.3644
3184,-0.8224,0.538,0.255,2.0449,1.7474,2.0056
3197,-0.8302,0.5309,0.2474,0.9151,1.0909,0.9522
3210,-0.8258,0.5309,0.2479,-0.6574,0.0222,-0.5287
3222,-0.8238,0.5311,0.252,-1.6803,-0.3136,-1.3073
3264,-0.8277,0.5279,0.2523,1.7701,-0.9396,1.4866
3277,-0.8236,0.5394,0.2501,0.6861,-0.5427,0.6011
3288,-0.8275,0.5294,0.2525,-0.123,0.2054,-0.6814
3301,-0.8282,0.5323,0.2613,-0.8864,0.923,-0.4676
3313,-0.8265,0.5336,0.255,-1.0391,1.61,-0.315
3326,-0.8273,0.5279,0.2489,-0.6879,0.7093,0.3263
3367,-0.8273,0.5309,0.2496,0.8999,-0.5121,0.7079
3380,-0.8263,0.5318,0.2537,0.9609,-0.7411,-0.315
3392,-0.8204,0.5328,0.2506,-0.3826,-0.7411,-1.9333
3405,-0.8231,0.5284,0.2528,-1.5276,-0.4816,-1.231
3418,-0.8258,0.525,0.2555,-0.5047,-0.6343,-0.2081
3431,-0.8258,0.525,0.2567,0.1213,-0.3595,1.7003
3472,-0.8304,0.5331,0.2589,-0.8711,1.6711,-0.9104
3485,-0.8304,0.5299,0.2525,-1.7108,1.0604,-1.9485
3498,-0.8275,0.5275,0.2437,-1.4055,0.7398,-1.0936
3511,-0.8255,0.5248,0.2493,-1.4513,0.1902,-0.6966
3524,-0.8273,0.5228,0.2511,-0.4589,0.8009,0.3721
3537,-0.826,0.5306,0.2537,0.4877,0.297,1.7614
3578,-0.8275,0.5387,0.2467,-1.894,0.4192,-1.46
