time_ms,ax,ay,az,gx,gy,gz
13,-0.7822,0.165,0.4234,0.1472,-0.417,-0.1137
25,-0.7778,0.1711,0.4219,0.6357,0.0105,0.6955
38,-0.7812,0.167,0.4248,-0.1429,-0.5697,1.1382
52,-0.7803,0.1606,0.4151,2.4525,-0.814,1.8558
92,-0.7812,0.1667,0.4224,-1.8528,-0.3559,-1.4419
104,-0.7808,0.1699,0.4239,-0.7689,0.0257,-1.1518
118,-0.7815,0.1706,0.4268,-1.0742,0.1021,-0.8007
130,-0.7834,0.1648,0.4248,-0.1276,0.27,0.039
143,-0.7822,0.1731,0.4185,2.0708,0.5448,0.955
156,-0.7803,0.1743,0.4219,0.4678,0.3769,0.3291
196,-0.7852,0.1699,0.4212,0.193,0.4532,-0.1747
210,-0.7856,0.1736,0.4246,-1.8986,0.1631,-0.1137
223,-0.7854,0.1679,0.4297,-3.12,-0.2033,-1.0144
236,-0.7842,0.1667,0.4258,-2.0513,0.0868,-0.4648
249,-0.7805,0.1645,0.4251,-2.7536,-0.2491,-0.2816
261,-0.7854,0.1626,0.4261,0.254,-0.2643,0.2985
301,-0.844,0.1833,0.4412,8.4831,1.9189,2.5428
314,-0.8579,0.2724,0.3335,36.1472,-4.3712,12.1306
328,-1.0894,0.2012,0.6958,25.1548,-25.73,23.413
340,-0.9875,0.2336,0.5545,9.6892,-39.4704,25.5046
354,-0.7302,0.2116,0.4207,7.0327,-41.8216,24.2069
367,-0.5488,0.2082,0.3191,-2.7078,-33.4704,17.184
407,-0.7351,0.2617,0.4353,-18.6315,-9.0277,-8.8923
420,-0.7317,0.2739,0.4429,-21.578,-6.0811,-11.8847
434,-0.6692,0.2688,0.4065,-29.0131,-2.0964,-12.2664
446,-0.603,0.2202,0.3963,-31.3185,5.125,-11.4114
458,-0.6687,0.3694,0.5125,-25.12,9.3387,0.1459
472,-0.6462,0.2512,0.4427,-25.2421,15.5983,22.1001
512,-0.8332,0.125,0.5008,-43.349,16.0563,12.8634
525,-0.8191,0.0722,0.5684,-39.3795,11.0028,9.0619
537,-0.7722,0.1174,0.4236,-37.12,9.9189,6.0543
551,-0.7051,0.1133,0.4007,-31.7612,12.0563,5.1382
564,-0.6106,0.0632,0.427,-30.5857,16.3464,2.1459
577,-0.6108,-0.0093,0.4432,-33.8528,18.1479,-8.358
617,-0.8689,-0.0711,0.4078,-6.9063,4.6059,-13.2434
631,-0.689,-0.031,0.3282,9.0785,-14.9514,-35.4725
643,-0.8567,-0.1514,0.3638,4.3762,-12.5697,-28.2053
656,-0.7712,0.0923,0.6185,75.0632,-13.9437,-18.4954
669,-0.772,0.0085,0.3594,17.6892,0.5296,-27.7167
682,-0.6465,0.2944,0.1099,11.5365,14.041,-24.4496
722,-0.7495,0.365,0.4148,-32.891,29.1708,-24.2816
735,-0.7556,0.3764,0.9822,-46.0666,43.4914,-4.1595
748,-0.6909,0.6806,0.3345,-14.6162,51.9341,14.7718
760,-0.7351,0.1623,0.9837,-47.807,31.0181,0.2527
774,-0.8711,0.26,-0.0678,-39.3337,27.7051,-1.274
787,-0.6111,0.7119,-0.1413,11.6434,27.6593,21.6726
826,-0.6504,-0.4063,0.503,-15.8528,3.7204,0.1306
840,-0.8352,-0.3306,0.3746,31.6739,0.9265,-25.8541
852,-0.79,-0.0386,0.3709,50.8647,1.2624,-6.7091
866,-0.9214,-0.2044,0.1414,19.1853,12.8044,1.9321
879,-0.9419,-0.3369,0.4681,57.0021,16.7586,3.0924
893,-0.8227,-0.5037,-0.082,-12.6773,19.2776,-33.5183
932,-0.6372,0.2854,0.2437,21.4296,2.3158,-13.0144
945,-0.8911,0.5356,0.3951,109.17,-3.5926,6.894
957,-0.6916,0.3628,0.3594,13.9334,-5.6384,2.4512
970,-0.7978,0.3413,0.3851,-3.4406,2.1631,6.1306
984,-0.8252,0.1247,0.3636,-9.2727,-0.5391,-11.3198
997,-0.8166,0.1211,0.3758,-7.3643,-2.9819,-19.8847
1037,-0.8071,0.0771,0.3753,-0.3719,-2.0201,-4.0068
1049,-0.8047,0.0896,0.3738,5.8876,-1.9895,3.9016
1062,-0.8081,0.0935,0.3829,9.7044,-1.8979,9.8863
1076,-0.813,0.0991,0.3848,13.2159,-0.5086,13.6878
1089,-0.8005,0.1206,0.3811,13.6586,0.3311,13.9016
1102,-0.8032,0.1335,0.3824,10.7579,0.5448,9.3672
1142,-0.8057,0.1264,0.3833,-8.4788,0.041,-8.4038
1155,-0.8042,0.1128,0.3833,-11.2574,-0.2796,-8.419
1168,-0.8113,0.1006,0.376,-7.5475,-1.1956,-6.4648
1181,-0.8049,0.0967,0.3753,0.254,-0.9666,-1.8694
1194,-0.8057,0.1125,0.3802,5.6128,-1.3788,3.2909
1206,-0.8049,0.1086,0.3836,5.4907,-1.0582,5.0772
1247,-0.8081,0.1206,0.3841,-7.1811,1.3693,3.2451
1260,-0.8049,0.112,0.3792,-6.1429,1.3235,3.5504
1273,-0.7976,0.115,0.3802,-4.7078,0.2242,3.9779
1286,-0.8059,0.1103,0.3826,-4.3566,-0.0048,4.4359
1299,-0.8108,0.1164,0.3809,-3.3185,0.3005,4.1306
1311,-0.8042,0.1221,0.3794,-3.746,0.499,4.2985
1352,-0.8081,0.1213,0.3826,-2.0513,0.4838,7.5504
1365,-0.8054,0.1189,0.3807,-0.6467,0.4227,7.8711
1378,-0.8071,0.1267,0.3811,2.651,0.3769,7.6268
1391,-0.8047,0.1316,0.3763,0.9105,-0.2643,5.9779
1404,-0.8098,0.1313,0.3836,3.6128,-0.2643,5.0008
1417,-0.8022,0.1367,0.3875,-0.204,0.5754,2.5123
1457,-0.8057,0.1235,0.3816,-5.6696,0.5296,-1.3503
1470,-0.8005,0.1262,0.3799,-6.2956,0.499,-0.419
1483,-0.8035,0.1238,0.3794,-5.9902,0.0563,0.1153
1496,-0.7966,0.1167,0.386,-5.2727,0.4074,1.1688
1509,-0.8057,0.1264,0.3877,0.0098,0.8349,3.9169
1522,-0.8054,0.136,0.3909,-3.807,1.9952,4.3443
1562,-0.8037,0.1308,0.3733,11.7808,0.6364,10.6344
1575,-0.8144,0.1347,0.3777,11.4449,-0.3101,8.0848
1588,-0.8098,0.1379,0.3758,18.3304,-0.6307,4.8787
1601,-0.8027,0.1448,0.3736,14.1472,-1.8369,1.184
1614,-0.8035,0.1606,0.3811,7.3991,-3.0124,-3.2893
1626,-0.802,0.1567,0.3826,-2.7994,-2.9056,-7.1976
1666,-0.8061,0.1242,0.3804,-3.7002,0.27,-2.2205
1680,-0.8086,0.1152,0.3809,1.6434,0.7128,2.3596
1693,-0.7998,0.1235,0.3848,3.4907,1.3998,5.4894
1705,-0.8015,0.1365,0.3858,0.8495,1.9799,6.4207
1718,-0.7993,0.1506,0.3843,-2.7078,2.499,5.4283
1731,-0.8054,0.1365,0.3804,-3.3948,2.1631,4.0848
1772,-0.8027,0.1438,0.3743,-1.578,-0.2338,0.1306
1785,-0.8049,0.1399,0.3819,-1.2116,-0.1727,-0.9686
1798,-0.8066,0.1452,0.3772,-4.1276,-0.417,-2.3885
1811,-0.8064,0.1233,0.3904,-3.2574,0.3158,-2.4801
1824,-0.8032,0.1291,0.3763,-2.1887,0.5448,-0.7854
1837,-0.8081,0.1299,0.378,-0.5093,0.1173,0.0543
1877,-0.8035,0.1367,0.3846,2.3609,-0.3254,0.3443
1890,-0.8044,0.1408,0.3799,1.1701,-0.3712,-1.1824
1903,-0.8069,0.1357,0.3768,1.0632,-1.0582,-2.0068
1916,-0.8032,0.1347,0.3787,-0.8452,-0.7834,-1.1976
1929,-0.8057,0.1286,0.387,-2.6467,-0.2185,-0.19
1942,-0.8047,0.133,0.3843,-3.3948,-0.5086,0.3901
1982,-0.8052,0.1277,0.3885,0.8342,-0.5086,1.5199
1994,-0.8052,0.1338,0.3872,2.9716,-1.104,1.9474
2007,-0.8064,0.1377,0.3763,2.4983,-0.3101,1.0924
2021,-0.8027,0.1426,0.3802,0.3762,0.1784,-0.877
2034,-0.8074,0.1384,0.3819,-1.746,-0.0506,-2.6022
2047,-0.8018,0.1323,0.3763,-1.9292,-0.2796,-2.2664
2087,-0.8008,0.1255,0.3811,-0.9826,-0.3712,-0.3274
2100,-0.8047,0.1343,0.3833,0.6968,0.3616,-0.0068
2113,-0.8027,0.1404,0.3865,-0.8147,0.7586,0.2069
2126,-0.8032,0.136,0.388,-3.0437,0.9112,-0.0831
2138,-0.8005,0.1289,0.3809,-5.3032,0.5296,0.3749
2152,-0.8101,0.1257,0.3841,-1.0131,0.6822,1.5504
2192,-0.8035,0.1457,0.3824,-7.9597,-0.0659,0.3749
2204,-0.8115,0.1059,0.3841,-1.6696,0.3616,0.2375
2217,-0.8044,0.143,0.3804,3.2922,0.9418,1.642
2231,-0.8057,0.1294,0.378,1.8418,0.0105,0.5275
2244,-0.8049,0.1411,0.3836,0.0556,-0.188,-1.3503
2257,-0.8052,0.1328,0.3782,-2.6773,-0.0506,-1.9305
2296,-0.8086,0.1284,0.3824,0.1014,0.4227,0.6344
2310,-0.7998,0.1308,0.3824,-1.8223,0.438,1.184
2323,-0.8057,0.1289,0.3836,-0.3261,0.4074,1.5352
2336,-0.8093,0.1318,0.3841,-1.4101,-0.0659,0.3443
2349,-0.8049,0.1352,0.3858,-3.3643,-0.1727,-1.4267
2361,-0.8,0.1289,0.3814,-6.494,-0.1117,-2.5717
2401,-0.8064,0.124,0.3821,-2.0818,1.0334,0.3138
2415,-0.8008,0.1294,0.3836,1.0937,0.667,1.4283
2428,-0.8022,0.1321,0.3789,-0.7689,0.438,-0.0831
2441,-0.803,0.1362,0.3924,-2.3108,0.0105,-1.8847
2454,-0.8037,0.1343,0.375,-4.2192,-1.2414,-3.1518
2466,-0.8035,0.1167,0.3868,-5.0284,-1.4704,-3.3809
2507,-0.8054,0.1238,0.3848,3.3533,1.2471,4.0848
2519,-0.8044,0.1391,0.3794,3.1243,0.1631,3.3978
2532,-0.8025,0.1345,0.3858,-0.0513,-0.9514,1.1077
2546,-0.804,0.1218,0.3851,0.5289,-0.6307,0.7871
2559,-0.8013,0.1242,0.3882,-0.2803,-0.188,1.7795
2572,-0.8059,0.1272,0.3848,0.5289,0.3922,2.3901
2612,-0.8013,0.1318,0.3897,0.7426,0.6975,0.2375
2625,-0.8054,0.1399,0.3885,-0.9063,0.0257,-0.8618
2638,-0.8061,0.1299,0.3816,-2.0513,-0.2033,-1.7167
2651,-0.8064,0.1279,0.3811,-1.12,0.0563,-1.5488
2664,-0.8057,0.125,0.3831,0.7579,-0.4628,-0.8923
2677,-0.8037,0.1218,0.3887,2.6815,0.5448,0.3443
2717,-0.8022,0.1255,0.3846,-1.2269,-0.5391,-1.4419
2729,-0.8049,0.1318,0.3846,-2.5246,-0.4781,-1.4877
2743,-0.8035,0.1206,0.3826,-1.1963,-0.1575,-0.6633
2755,-0.8061,0.1206,0.3833,0.254,-0.0353,0.7107
2769,-0.8042,0.1294,0.3841,1.1243,0.2242,1.1993
2782,-0.8049,0.1279,0.3802,2.2235,0.2089,0.8634
2821,-0.8044,0.1301,0.3858,-1.1963,-0.2643,-1.6709
2835,-0.8022,0.1299,0.3836,-2.204,-0.188,-1.8694
2848,-0.804,0.1221,0.3809,-1.5627,-0.5239,-2.0679
2861,-0.8018,0.1228,0.3826,-1.5322,-0.1575,-0.6786
2873,-0.8052,0.1228,0.3853,1.2769,0.1173,0.3749
2887,-0.7991,0.1306,0.3877,2.5289,-0.4017,1.581
2927,-0.7991,0.1299,0.388,-2.1276,0.2547,-2.0679
2939,-0.8081,0.1247,0.3853,-2.3872,-0.0964,-1.8541
2952,-0.8049,0.1286,0.3858,-1.578,0.0105,-0.9839
2965,-0.8037,0.1184,0.3814,0.4373,-0.5239,-0.0679
2978,-0.8054,0.124,0.3809,3.1395,-0.2643,1.123
2991,-0.8047,0.1404,0.3987,1.8266,-0.3865,0.3291
3032,-0.8032,0.1233,0.387,-4.0818,-0.4933,-2.8618
3044,-0.8054,0.115,0.3892,-2.7841,-0.2949,-2.4954
3058,-0.8096,0.1133,0.3902,0.5136,0.5448,-1.274
3071,-0.8054,0.1106,0.3855,2.8189,0.5143,0.7871
3084,-0.8025,0.1391,0.389,3.796,0.5754,2.3443
3097,-0.8086,0.1328,0.3831,0.5441,0.2395,0.3291
3137,-0.8061,0.1264,0.387,-3.8376,0.499,-4.1289
3150,-0.7996,0.1196,0.3811,-3.4406,1.125,-2.5259
3163,-0.8088,0.1211,0.378,-1.5627,0.499,-0.4496
3175,-0.8061,0.1247,0.388,0.6815,-0.2491,0.6802
3189,-0.8042,0.1181,0.3843,-0.4177,-0.0201,1.4894
3202,-0.8076,0.1164,0.3799,2.8342,-0.1422,3.0008
3242,-0.8074,0.1306,0.3887,-2.7383,1.2471,-1.0297
3255,-0.8005,0.1228,0.386,-3.0131,0.6517,-1.1366
3268,-0.8049,0.1223,0.3833,-2.5704,-0.2338,-1.3961
3280,-0.8101,0.1152,0.3802,0.3456,-1.2262,-0.5106
3293,-0.8059,0.1255,0.3809,3.4296,-1.6078,0.1306
3307,-0.802,0.1279,0.3868,1.2617,-1.5468,-0.2053
3347,-0.8057,0.1242,0.3836,-2.1429,1.0028,1.4588
3360,-0.8066,0.1164,0.3838,0.1624,0.8349,2.5275
3373,-0.8057,0.1272,0.3868,1.8266,0.2089,2.9245
3386,-0.8093,0.1255,0.3855,5.0785,0.3464,2.1917
3399,-0.8025,0.1338,0.3819,2.6663,0.8196,0.497
3412,-0.8086,0.1328,0.3826,-0.3261,0.2395,-1.3198
3451,-0.8005,0.1228,0.387,-1.0131,-0.0506,0.3749
3464,-0.8103,0.1164,0.3819,1.0174,0.499,1.4436
3477,-0.8047,0.1296,0.3824,3.735,0.5754,1.9169
3491,-0.8015,0.1252,0.3821,4.2693,0.5143,1.8711
3504,-0.8027,0.1286,0.387,1.4754,0.3922,0.4207
3517,-0.8054,0.1367,0.388,-1.8528,0.041,-1.3503
3556,-0.8061,0.1118,0.3863,0.1624,-0.2949,-0.7091
3569,-0.8069,0.1228,0.3829,3.2159,-0.5697,1.3825
3583,-0.8042,0.1284,0.3851,2.2693,-0.2338,0.955
3596,-0.8018,0.1318,0.387,0.5441,-0.0506,-0.2664
3609,-0.8064,0.1199,0.387,-2.4482,0.2853,-0.5412
3622,-0.8008,0.1245,0.3848,-2.0055,0.728,0.8787
3661,-0.8057,0.1372,0.3843,3.506,0.2242,2.4512
3675,-0.8088,0.1347,0.3863,2.0098,0.1479,0.3291
3688,-0.8003,0.1316,0.3804,1.0174,-0.188,-0.7854
3701,-0.8025,0.1377,0.3848,-1.0131,-0.3559,-1.6709
3714,-0.8086,0.126,0.3811,-3.0895,-0.3712,-2.2816
3727,-0.803,0.1147,0.3824,-2.036,-0.417,-2.0831
3766,-0.8061,0.1299,0.3838,-0.3872,0.4074,0.6344
3780,-0.8071,0.1218,0.3816,2.2388,0.0563,0.6649
3793,-0.8025,0.1279,0.3865,0.7579,0.0105,0.7413
3806,-0.8057,0.1279,0.3872,-0.0818,0.3311,-0.1289
3818,-0.804,0.1267,0.3868,-0.9673,-0.4933,-1.2282
3831,-0.7986,0.1216,0.3909,-1.5933,-0.4781,-1.2282
3872,-0.8027,0.1225,0.3931,-0.9063,0.1784,-0.5717
3885,-0.8005,0.1242,0.3875,-0.7994,0.1479,0.1764
3897,-0.8052,0.1255,0.3833,-0.6925,-0.1727,0.5733
3910,-0.8049,0.1277,0.3836,0.2846,-0.2185,0.9856
3923,-0.8018,0.1245,0.3855,-0.1429,0.1937,0.7565
3936,-0.8059,0.126,0.3853,1.964,0.2089,0.3596
3977,-0.8037,0.1262,0.3843,-1.6696,-0.2491,-1.8541
3989,-0.8025,0.1238,0.3902,-2.1276,-0.1117,-1.6099
4002,-0.8081,0.1147,0.3848,-1.6238,0.2395,-0.4801
4016,-0.8047,0.1257,0.3877,1.2769,0.6822,1.2298
4028,-0.8035,0.1199,0.387,0.8189,1.2929,1.9016
4041,-0.8018,0.1247,0.3831,0.2998,1.4151,1.5199
4082,-0.804,0.1252,0.3875,-1.7765,-0.0964,-1.8389
4095,-0.8066,0.126,0.3851,-1.3185,-0.4475,-1.5183
