time_ms,ax,ay,az,gx,gy,gz
8,-0.7159,0.8883,0.7337,2.3447,-0.0202,2.9461
21,-0.7178,0.8988,0.734,1.0775,-0.1729,2.8087
34,-0.7171,0.9076,0.7406,-0.4187,-0.3561,-0.3822
47,-0.7125,0.9013,0.7386,-2.6019,-0.4935,-4.3516
88,-0.7154,0.884,0.7379,1.0317,-0.0355,1.511
100,-0.7047,0.8735,0.7289,0.0088,0.9569,3.74
114,-0.7105,0.8964,0.7352,3.2913,0.3615,1.7705
127,-0.7169,0.8915,0.7367,-0.6477,0.5599,-1.3593
140,-0.7135,0.8918,0.7367,-2.5103,0.1019,-3.0539
153,-0.7156,0.8859,0.7379,-0.3576,0.4531,-1.2829
194,-0.7171,0.8954,0.7345,1.7645,0.6821,1.4194
206,-0.7174,0.8957,0.7396,0.9859,0.8195,-0.657
220,-0.7188,0.8969,0.7384,-0.724,0.3004,-2.0463
232,-0.7161,0.8876,0.7357,0.2531,0.3309,-0.4585
245,-0.7159,0.8915,0.7379,1.2913,0.0561,2.1216
258,-0.7149,0.8937,0.7352,1.6882,0.6973,2.4881
299,-0.7176,0.8927,0.7367,-0.724,0.7431,-2.3516
312,-0.7166,0.8915,0.7296,-0.098,0.5141,-1.7867
325,-0.7239,0.8837,0.735,-0.4339,-0.7225,-0.0616
336,-0.7159,0.8886,0.735,1.3523,0.0714,1.4652
350,-0.7169,0.8893,0.7301,-0.037,-0.066,1.1293
363,-0.7193,0.8979,0.7374,-0.0828,0.2088,-1.2982
404,-0.7203,0.8776,0.7384,-0.3423,1.5676,-1.7257
417,-0.72,0.8832,0.7301,2.2531,1.7813,2.2438
430,-0.7147,0.9037,0.7289,1.276,0.7584,3.8163
443,-0.7188,0.9013,0.7318,0.9096,-0.8599,3.3278
456,-0.7144,0.8944,0.7335,-1.2584,-1.7607,1.6789
469,-0.7152,0.901,0.7311,-1.9301,-2.7072,-3.1303
510,-0.7144,0.8859,0.745,-2.6629,-0.1576,-0.3058
523,-0.7213,0.8886,0.7389,1.1081,1.2012,1.6942
535,-0.7186,0.8896,0.7391,0.2989,1.5981,1.801
548,-0.7174,0.8954,0.7386,-1.3194,1.1554,1.4804
561,-0.7301,0.8949,0.7416,-1.7927,0.1172,1.4652
575,-0.7435,0.9362,0.7489,-8.9988,-1.7912,-3.1455
617,-0.9949,1.4938,1.6048,-54.3576,-18.0202,70.4117
630,-1.3338,1.8197,1.6625,-120.968,-90.4324,92.2438
642,-0.9605,0.9069,1.1842,-148.296,-123.242,85.1598
655,-0.4715,0.9611,0.92,-142.19,-134.585,58.2743
669,-0.2286,0.8149,0.6153,-129.258,-130.112,56.1522
682,-0.1551,0.4001,0.5062,-5.1667,-102.967,66.3507
722,-0.4608,0.4692,0.348,-101.457,10.4073,-15.9242
735,-0.6282,0.4972,0.5484,-70.6324,38.1172,-22.3669
749,-0.7203,0.6239,0.7674,-67.4416,50.9722,-21.7867
761,-0.7469,0.5124,0.7474,-57.64,54.6363,-25.9547
774,-0.7601,0.6271,0.8097,-15.5179,64.8347,-16.6875
787,-0.6827,0.7748,0.808,4.5584,67.0332,-7.1761
829,-0.4664,0.7633,0.3399,-134.296,-21.9286,-28.7486
842,-0.5955,0.6388,1.0641,-35.411,-3.2111,-14.6417
854,-0.5482,0.7072,0.9378,-22.8767,-19.6385,-28.3364
868,-0.8333,0.2113,0.9134,13.7646,-16.8141,-15.5119
880,-1.0145,0.1667,0.6398,22.7569,-13.5011,-50.6722
893,-0.9141,0.3556,1.307,95.3371,-11.1805,-47.5577
935,-0.4774,0.1764,0.3736,99.4287,22.9722,-78.886
948,-0.4547,0.8593,0.9164,97.902,30.2241,-66.7944
960,-1.0804,1.6188,0.8126,156.635,22.9874,-25.4967
973,-0.6036,1.3395,1.3463,90.9859,24.2699,-26.7333
986,-0.8284,0.6305,0.7284,-3.3805,10.85,-40.5043
999,-0.606,1.1007,0.9178,17.3065,19.2164,-32.5959
1041,-0.1949,2.2511,-0.1825,98.7874,49.3691,82.656
1054,-0.4188,0.7904,0.5826,28.0088,56.9569,70.4881
1066,-0.0614,2.4985,0.4278,5.3676,68.2699,90.5339
1079,-0.6717,1.3017,2.1659,-53.0141,49.2164,75.4346
1092,-0.744,1.6176,1.8407,-66.6477,59.3538,99.5415
1105,-1.1395,0.953,1.7591,-47.3652,28.2393,88.3354
1147,-1.0863,0.5605,-0.0377,-18.3423,6.6821,28.3049
1160,-1.001,0.4284,0.8063,-19.9454,11.5981,-9.2371
1173,-0.6859,0.7253,0.7389,14.9859,16.3157,26.2285
1185,-0.7298,0.6874,0.721,43.9783,6.621,39.0682
1198,-0.8145,0.6044,0.8111,38.7416,-8.6614,11.8621
1211,-0.827,0.2023,0.5609,22.2073,-10.753,-48.4432
1252,-0.8099,1.8024,1.1158,77.4745,4.9722,-60.8707
1266,-0.6451,0.4953,0.9684,30.9401,-10.0813,-100.016
1279,-0.4215,1.1654,1.7069,25.1691,-19.7912,-113.222
1291,-0.7327,1.8293,1.066,21.1233,-18.7072,-80.657
1304,-0.8228,0.4294,1.2179,21.7035,-21.1805,-67.0539
1317,-0.7366,2.1029,0.6041,-15.8232,19.8577,39.7094
1358,-0.7113,0.777,0.7059,1.505,2.621,-33.6799
1371,-0.7218,0.7817,0.7181,7.3371,0.3767,-7.4967
1384,-0.7279,0.8146,0.7296,20.6195,1.7508,21.3736
1398,-0.7227,0.8832,0.732,17.5355,2.1477,29.1904
1410,-0.7298,0.9076,0.7355,12.192,0.4989,22.0453
1423,-0.7166,0.9145,0.7284,3.5508,0.0867,4.9613
1464,-0.722,0.8388,0.7384,4.3294,-0.753,0.6407
1477,-0.7237,0.8654,0.7291,10.3752,0.2699,10.9308
1490,-0.7235,0.8925,0.7374,8.589,0.9111,10.7323
1503,-0.7242,0.8962,0.7286,2.4974,0.3004,4.5644
1516,-0.7249,0.8959,0.7328,-2.037,-0.3256,-3.0234
1529,-0.7186,0.883,0.7157,-4.724,-2.0507,-6.9776
1570,-0.7164,0.8673,0.7342,1.4287,-0.9515,3.8468
1583,-0.721,0.8852,0.7411,1.505,-0.3103,3.0682
1596,-0.7227,0.8805,0.7291,0.6348,-0.6614,1.2056
1609,-0.7161,0.8776,0.7318,0.0241,-0.8294,0.5491
1620,-0.7188,0.8835,0.7262,0.8638,-0.6614,0.4575
1633,-0.7218,0.8791,0.7223,1.6424,-1.4859,0.1064
1674,-0.7152,0.8766,0.7391,1.276,-1.9439,2.3659
1687,-0.7196,0.8771,0.743,0.9096,-0.6462,0.9308
1700,-0.7239,0.8898,0.7464,-1.4721,0.4378,-1.2524
1713,-0.7103,0.8595,0.7352,6.4516,3.4302,0.3354
1726,-0.7286,0.87,0.733,5.963,2.1019,-2.26
1739,-0.7132,0.8937,0.7235,6.36,2.1935,-2.1074
1780,-0.7193,0.8847,0.7306,1.1386,0.0256,-0.7028
1793,-0.7181,0.8759,0.7303,4.1462,-0.1118,0.4117
1806,-0.723,0.88,0.7272,4.4974,-0.1271,1.6636
1819,-0.7178,0.8852,0.7313,2.4668,-0.3408,0.7781
1832,-0.7193,0.8793,0.7257,1.4439,-0.0965,0.9003
1845,-0.7191,0.8818,0.7208,0.9554,-0.6767,1.2209
1886,-0.7232,0.8844,0.7303,-0.9835,-0.4935,1.4194
1899,-0.7205,0.8859,0.7364,-1.0141,-0.1576,0.9919
1912,-0.7127,0.8835,0.7333,0.192,0.7737,1.0835
1925,-0.7166,0.8883,0.7345,0.7111,1.5218,0.9155
1938,-0.7232,0.883,0.7359,1.902,1.5981,1.6331
1950,-0.7191,0.8869,0.723,1.9783,1.8729,2.2133
1992,-0.7249,0.8898,0.7298,0.0852,-0.1882,0.7323
2005,-0.7235,0.8854,0.7257,-1.7316,0.0714,-0.657
2018,-0.7159,0.891,0.7311,-2.3423,-0.5393,-0.718
2031,-0.7196,0.892,0.7323,-1.7622,-0.6462,-0.9318
2045,-0.7227,0.8847,0.7333,-1.7622,-0.1423,-0.9623
2057,-0.7169,0.8949,0.733,-2.4645,-0.5088,-1.7715
2098,-0.7144,0.884,0.7313,0.1615,-0.295,-1.0539
2111,-0.7174,0.88,0.7325,1.0928,0.9264,-0.2753
2124,-0.722,0.8854,0.7347,1.0928,1.2622,0.0453
2136,-0.722,0.8803,0.7347,1.4287,0.8958,1.0987
2149,-0.7176,0.8844,0.7245,0.6653,0.8348,1.572
2163,-0.7237,0.8901,0.7362,0.9401,0.0409,1.0529
2204,-0.7166,0.8869,0.7328,-0.5408,-0.0049,-1.0845
2217,-0.7193,0.882,0.7298,0.3752,0.6973,0.0911
2230,-0.7222,0.881,0.7296,1.4897,1.0638,1.572
2242,-0.7208,0.8854,0.7306,2.192,1.2012,2.8087
2256,-0.723,0.8881,0.732,1.1539,0.4683,2.2896
2269,-0.7218,0.8908,0.7286,-0.495,-0.0355,1.1446
2310,-0.7191,0.8837,0.7345,1.4897,0.8806,1.5262
2323,-0.7225,0.8827,0.7259,3.4287,0.9569,3.6942
2335,-0.723,0.8864,0.7267,2.4974,0.5905,3.7094
2349,-0.7235,0.8991,0.7355,-0.0675,0.85,1.9842
2362,-0.7203,0.8962,0.7264,-1.4721,0.6821,0.0911
2375,-0.7156,0.8908,0.7286,-0.037,0.5141,-0.1379
2415,-0.7174,0.8891,0.7298,1.7645,0.9111,3.6484
2428,-0.7225,0.8964,0.7274,0.4058,1.1554,2.427
2442,-0.7203,0.8944,0.7254,-1.182,0.3004,-0.1226
2455,-0.721,0.8957,0.7279,-1.9912,-0.3714,-1.2524
2468,-0.7196,0.8866,0.7279,-1.9454,-0.8599,0.03
2481,-0.7188,0.8893,0.7252,-0.3118,-0.524,1.8163
2522,-0.7169,0.8947,0.7259,-2.2049,-1.0431,-0.7333
2535,-0.7203,0.8937,0.7323,-3.4263,-1.0584,-2.26
2548,-0.7186,0.8847,0.7294,-2.953,-1.0431,-2.5501
2562,-0.7203,0.8815,0.7342,-2.266,-0.982,-2.0158
2574,-0.7183,0.8859,0.732,-0.0522,-0.3408,-0.6417
2586,-0.7154,0.8879,0.7315,-1.1209,-0.3103,-0.7486
2627,-0.7196,0.8857,0.7381,-0.9988,-0.234,-1.7562
2640,-0.7159,0.8844,0.7313,0.0394,0.3462,-0.8402
2653,-0.7203,0.884,0.7313,0.7111,0.4531,-0.718
2665,-0.7193,0.8864,0.7357,0.8485,0.7431,0.427
2677,-0.7181,0.8813,0.7298,0.8638,0.7279,0.8545
2689,-0.7171,0.884,0.7294,1.734,0.5447,1.6636
2730,-0.7227,0.8871,0.7318,0.1768,0.3615,-0.9776
2743,-0.7178,0.8842,0.7264,1.8714,1.0027,0.3659
2756,-0.7198,0.8842,0.7357,3.3371,1.5828,2.6713
2769,-0.7171,0.8832,0.7301,5.2607,1.537,4.4881
2782,-0.7159,0.8996,0.7345,4.7264,1.6744,3.3125
2795,-0.722,0.9052,0.7284,0.4363,1.5676,-0.7638
2836,-0.7244,0.8739,0.7284,-1.5637,0.3615,-0.2906
2849,-0.7171,0.8886,0.7281,3.5966,1.1859,2.6407
2862,-0.7169,0.8898,0.725,2.3142,0.7126,2.8392
2875,-0.7178,0.8966,0.7291,1.3676,0.3462,1.9842
2888,-0.7276,0.894,0.723,-0.037,0.2546,-1.1913
2901,-0.7242,0.8888,0.7308,-0.9683,-0.6156,-2.26
2942,-0.7237,0.8854,0.7284,-0.6324,-0.3866,1.2056
2955,-0.7215,0.8952,0.7303,-0.6019,-0.3714,1.2667
2968,-0.7196,0.8918,0.7345,-1.7774,-0.066,-0.1074
2981,-0.7208,0.8954,0.7315,-2.8003,-0.4019,-2.886
2994,-0.7196,0.892,0.7276,-3.6553,-0.7988,-4.6112
3007,-0.7252,0.891,0.7357,-6.4492,-1.5011,-3.8631
3048,-0.7208,0.8857,0.7252,0.1615,-0.3561,2.0758
3061,-0.7159,0.8908,0.732,-0.3576,0.0103,0.0148
3074,-0.7203,0.8883,0.733,-3.1057,-0.7836,-2.199
3087,-0.7276,0.8842,0.7262,-3.8385,-0.295,-3.3745
3100,-0.7159,0.8759,0.7315,-1.6706,-0.692,-2.657
3113,-0.7225,0.8796,0.7362,0.3447,-0.2034,-0.3516
3154,-0.7242,0.891,0.7257,-0.1591,0.2241,-0.4127
3168,-0.7249,0.893,0.7337,-1.5026,-0.3561,-2.1532
3180,-0.7208,0.8903,0.7325,-3.1209,-1.379,-3.6341
3193,-0.7176,0.8815,0.7369,-1.7622,-1.4706,-2.3364
3206,-0.7178,0.8803,0.7352,-0.5255,-0.9057,-0.3822
3218,-0.7183,0.8788,0.7391,0.36,-0.234,0.9155
3259,-0.7232,0.8778,0.7259,1.0928,1.5676,-0.2295
3272,-0.722,0.8844,0.7284,1.1233,0.8195,-0.0921
3285,-0.722,0.8844,0.7323,1.3676,0.2088,0.4881
3298,-0.7181,0.8893,0.7342,1.1844,-0.0355,-0.1226
3311,-0.7171,0.8852,0.7389,-0.7393,-0.4172,-1.2982
3324,-0.7164,0.8886,0.7335,-1.5026,-0.3103,-1.7715
3365,-0.7198,0.8866,0.7333,0.9401,0.3157,0.427
3378,-0.7208,0.8874,0.7313,-0.098,1.0332,-0.2906
3391,-0.722,0.884,0.7289,0.2531,0.9416,-0.2448
3403,-0.7186,0.8842,0.7411,-0.0522,0.8195,0.0148
3415,-0.7215,0.883,0.7362,0.4821,0.4225,0.4881
3427,-0.7208,0.8778,0.733,0.7264,1.0485,0.9919
3468,-0.7161,0.8866,0.7296,-1.182,-0.463,-1.1303
3481,-0.7218,0.88,0.7323,-1.1667,-0.5851,-1.8784
3494,-0.7161,0.8781,0.7313,0.2531,-0.2492,-0.3516
3505,-0.7174,0.8815,0.7333,1.2149,0.1783,1.343
3519,-0.7239,0.8869,0.732,1.5508,0.7279,2.4881
3532,-0.723,0.8854,0.7308,1.4592,0.5905,2.2438
3574,-0.7237,0.8869,0.735,-1.869,-0.921,-0.886
3586,-0.7203,0.8827,0.7372,-1.9301,-0.6767,-1.0234
3599,-0.7203,0.8842,0.7345,-1.3042,-0.5698,0.198
3612,-0.72,0.8822,0.7333,-0.2507,0.1172,1.0987
3625,-0.7161,0.8861,0.7303,0.5737,0.7126,-0.1684
3637,-0.7227,0.882,0.7308,-0.4187,0.0561,-0.5043
3678,-0.7176,0.8818,0.7306,-1.1362,-0.4477,-0.0463
3691,-0.7186,0.8781,0.7335,-0.6171,0.4073,0.3354
3703,-0.7181,0.88,0.7381,0.2073,1.0027,1.7094
3717,-0.7191,0.884,0.7357,0.2226,0.8195,0.4881
3729,-0.7188,0.8891,0.7306,-0.9225,1.1859,-0.9623
3742,-0.7208,0.883,0.7291,-0.8003,0.4989,-2.2295
3783,-0.723,0.8791,0.7323,2.2684,0.4836,2.7171
3796,-0.7178,0.8918,0.7328,1.2913,0.4225,1.7247
