time_ms,ax,ay,az,gx,gy,gz
13,-0.818,0.4757,0.3013,-1.4513,-0.3747,-2.4982
26,-0.8216,0.4674,0.305,-0.2757,0.1291,-2.0402
38,-0.8168,0.472,0.3013,-0.291,0.0528,-1.3379
51,-0.8199,0.4706,0.3031,-0.52,0.4039,-0.9409
92,-0.8197,0.4759,0.3023,0.793,-0.0541,-0.2539
106,-0.819,0.4733,0.3082,0.9457,-0.0083,-0.147
118,-0.8212,0.4747,0.3048,0.0449,0.2665,-0.7424
130,-0.8202,0.4759,0.3043,-0.9322,0.4192,-0.1012
142,-0.818,0.4723,0.3138,-1.0238,0.2512,-0.7577
155,-0.8155,0.4723,0.2999,-0.5047,0.0986,-0.4982
195,-0.8177,0.4667,0.304,1.1136,0.4192,0.998
208,-0.8197,0.473,0.3033,1.0525,0.6634,1.166
222,-0.8165,0.4757,0.307,0.106,0.8161,0.4026
235,-0.8172,0.4752,0.3079,0.8235,0.7703,0.0209
247,-0.8175,0.4715,0.3018,0.5182,0.9993,-0.3913
258,-0.8204,0.4715,0.3062,0.6709,0.2665,-0.4371
300,-0.8219,0.4684,0.3079,8.4571,-0.2526,4.9217
313,-0.8202,0.4947,0.3057,4.8083,-0.9701,5.1049
326,-0.8197,0.4852,0.2906,10.1518,-2.6801,5.0286
339,-0.8148,0.4933,0.3077,4.5182,-3.7793,2.2194
352,-0.8316,0.494,0.3084,-0.7337,-5.2755,-3.3226
365,-0.8448,0.5004,0.3189,-1.7871,-8.0846,-4.5134
406,-1.0438,0.6112,0.3299,-49.3291,-57.3824,26.4331
419,-1.0113,0.6791,0.3743,-83.8024,-70.7717,29.6698
432,-0.9588,0.6927,0.2816,-93.4971,-82.161,43.8072
445,-0.8426,0.6651,0.2923,-92.3368,-80.5427,62.2041
458,-0.7479,0.5958,0.2928,-104.55,-76.9396,70.7079
471,-0.6273,0.4635,0.2745,-82.5352,-61.6572,62.1278
512,-0.6925,0.3944,0.4574,-45.9093,-8.9091,-1.6127
525,-0.8094,0.4147,0.4964,-48.2299,-9.474,-11.0325
538,-0.8702,0.5299,0.461,-42.4742,-14.619,-5.4142
551,-0.8512,0.5299,0.4998,-58.0772,-18.9091,3.1202
564,-0.7821,0.4913,0.4544,-53.9551,-23.7182,10.6621
578,-0.7489,0.4488,0.429,-53.9093,-20.7259,13.6698
618,-0.67,0.3419,0.3956,-5.4207,16.7703,-16.7424
632,-0.732,0.4579,0.3675,-4.4284,26.1596,-16.1318
644,-0.8158,0.5719,0.3607,-7.2833,33.5184,-11.1852
658,-0.9066,0.5943,0.4498,-13.3444,29.839,-7.0325
670,-0.9176,0.5836,0.4578,-18.7795,17.0451,-2.1165
683,-0.8451,0.5333,0.4154,-20.5352,8.6329,-4.0249
724,-1.8158,0.4127,0.8944,-43.8024,-4.619,-35.4447
737,-0.931,0.5111,0.2996,-3.1917,-15.1686,-6.9562
750,-0.7919,0.3207,0.69,-24.0772,-8.9701,-12.8798
763,-0.8221,0.475,0.3453,7.19,-33.0007,-4.376
776,-0.6417,0.3566,0.651,-4.3673,-32.3747,2.2194
789,-0.9125,0.5887,0.2345,7.4495,-30.161,-6.8493
830,-0.5384,0.4401,0.6439,1.8312,-22.4663,-13.2615
843,-1.0441,0.829,0.2616,28.3045,-34.1762,-14.7424
856,-0.3907,0.6278,0.7608,2.1976,-38.4969,-28.4524
869,-0.4154,0.4191,0.067,-9.2986,-26.7411,-10.5134
883,-0.6578,0.0626,0.4124,16.1213,-38.6953,-33.1547
895,-0.7079,0.368,0.5301,13.8006,-20.0846,-32.1012
936,-0.6879,0.1547,0.0377,8.9304,3.6711,-1.8875
949,-0.9938,0.3566,0.3048,41.251,4.3428,4.0209
961,-0.7323,0.734,0.6344,31.3274,3.7627,5.8377
975,-0.7823,0.6337,0.4386,-3.8482,0.8161,12.8759
988,-0.7779,0.4896,0.4635,10.8388,10.5718,-6.315
1001,-0.7826,0.4364,0.4513,11.4342,1.5795,0.8148
1042,-0.8141,0.4405,0.0809,44.8235,25.2589,-3.3226
1055,-0.9178,0.318,0.1051,32.5335,38.0528,1.1049
1068,-0.8297,0.3234,0.316,18.8693,50.7703,3.4102
1082,-0.9261,0.1925,-0.507,18.0449,54.3886,17.5324
1094,-0.9076,0.942,0.7943,85.6327,73.1825,31.7308
1107,-0.8341,0.4945,0.5462,36.7777,75.778,5.9446
1148,-0.7308,0.3236,1.0042,-40.7948,60.3581,13.7614
1161,-0.88,0.8451,0.9559,10.1671,50.0986,-2.773
1174,-0.4195,0.2989,-0.3,3.5411,41.6405,25.0896
1187,-0.6683,0.7926,-0.2192,-4.3368,57.5184,21.7461
1200,-0.6835,0.2545,0.0152,-17.9551,31.8238,10.3568
1213,-1.1837,0.099,1.4346,-69.1917,19.7474,-10.1012
1254,-0.8045,0.5397,0.4263,-17.7566,21.2436,-8.1928
1267,-0.7967,0.1266,0.6456,-39.1612,9.3352,-13.231
1280,-0.8336,0.4325,0.326,-7.7871,5.5031,-11.231
1293,-0.8204,0.4457,0.3475,3.0984,6.2665,-0.376
1305,-0.8214,0.4911,0.3123,4.3197,7.3352,7.8072
1319,-0.8163,0.4728,0.3067,8.2129,7.839,12.1278
1360,-0.8199,0.4881,0.3094,27.419,15.0451,41.4713
1373,-0.8273,0.4134,0.3282,34.6709,18.236,52.4179
1386,-1.0614,0.3219,0.7144,108.61,7.7932,-19.7043
1399,-1.1297,-0.1832,0.9405,107.068,-8.1457,-43.7501
1413,-0.6256,1.2362,0.0596,147.037,12.7551,-30.0707
1425,-1.527,0.6156,-0.7951,156.014,-4.8022,-5.1241
1467,0.1056,1.1105,-0.1904,66.6861,-9.5198,-34.4829
1480,-1.0983,1.2516,0.0365,79.1441,-4.3289,1.4408
1492,-0.7826,1.1551,0.0294,37.022,1.1062,24.6163
1505,-0.8487,0.6996,0.2496,2.8999,0.2054,9.4102
1518,-0.8243,0.6495,0.2557,-1.2681,4.3581,-14.3302
1531,-0.8165,0.5607,0.2943,-12.4894,3.7016,-27.1852
1572,-0.8214,0.4496,0.3045,-4.0925,0.6482,-7.3226
1585,-0.8194,0.4518,0.3033,-1.2375,1.4879,5.0438
1598,-0.8197,0.4818,0.3055,-0.5047,1.0604,10.4026
1611,-0.8177,0.4943,0.3057,-4.52,1.3657,8.7079
1624,-0.8202,0.4808,0.2984,1.3274,0.0222,6.9675
1637,-0.8194,0.4779,0.3082,-0.4589,0.0222,-0.0554
1678,-0.8219,0.4779,0.3136,0.6251,-0.4969,-6.6356
1691,-0.815,0.4776,0.2982,-0.1383,0.0222,-3.8264
1704,-0.8155,0.4686,0.3045,-2.3368,0.526,-1.8722
1716,-0.8207,0.475,0.307,0.0296,1.4268,1.2728
1730,-0.817,0.4798,0.3009,-0.749,1.5947,1.0438
1743,-0.8236,0.4811,0.3009,-0.0772,0.7856,0.4942
1784,-0.8168,0.4835,0.3033,-1.5429,-0.3747,-3.2463
1797,-0.8182,0.4652,0.3038,-0.9016,0.8467,-1.9333
1810,-0.8194,0.4554,0.3084,1.4495,0.923,0.2957
1823,-0.8192,0.4867,0.305,1.19,0.9993,1.4713
1836,-0.8158,0.4796,0.2982,-0.4284,0.4039,-0.0707
1848,-0.8212,0.4801,0.2992,-1.0696,-0.4205,-1.2005
1889,-0.8265,0.4654,0.3048,1.8312,0.007,0.4942
1902,-0.8212,0.4867,0.2965,2.6556,0.3428,2.2499
1916,-0.8321,0.4733,0.3094,36.5029,-4.2984,-0.7577
1928,-0.8192,0.4794,0.2996,-3.0085,-0.0846,-2.0402
1941,-0.8182,0.4803,0.3023,-1.0543,0.2054,-1.5669
1954,-0.8085,0.4791,0.297,-3.4513,0.6482,-1.3073
1995,-0.8224,0.4794,0.2996,0.6403,1.4573,1.6392
2008,-0.8099,0.5353,0.2882,-5.0849,0.2054,-0.9256
2022,-0.8224,0.4828,0.3001,-1.1765,-1.1839,-2.9104
2034,-0.8197,0.4796,0.3033,-1.8482,-1.0007,-3.0783
2047,-0.8212,0.473,0.3023,-1.894,-0.9243,-4.0249
2060,-0.8199,0.4733,0.305,0.2434,0.0375,-2.8798
2101,-0.8202,0.473,0.3023,-0.8558,0.0222,-1.3531
2114,-0.8182,0.4752,0.2977,-0.1383,-0.1457,-0.6356
2126,-0.8199,0.474,0.2992,-1.3749,-1.077,-0.9104
2139,-0.8187,0.4642,0.2987,5.9686,-1.7182,-0.8493
2152,-0.8107,0.4188,0.3065,7.1136,-1.1381,2.3263
2165,-0.8177,0.4723,0.3031,2.3808,-0.5427,1.5018
2206,-0.8153,0.4767,0.3001,-2.2452,0.8009,-2.7272
2218,-0.8124,0.4698,0.3072,-2.3673,0.4344,-2.1928
2232,-0.8124,0.4728,0.2982,-0.0009,0.1749,-1.4753
2245,-0.8165,0.4703,0.3018,-0.0162,0.4955,-1.1241
2258,-0.8177,0.4752,0.3031,0.1976,0.9688,-0.5134
2271,-0.8241,0.4772,0.2999,-0.7184,0.7551,-0.4524
2312,-0.8182,0.4684,0.297,-1.3444,-0.4969,0.0973
2325,-0.8126,0.4737,0.3067,-0.6726,0.0222,-0.8035
2337,-0.8175,0.4701,0.3001,0.1365,0.8619,-0.3913
2349,-0.8158,0.4755,0.2996,-0.3368,1.7169,0.1583
2362,-0.8116,0.4725,0.3004,-0.7337,1.3505,-0.9256
2375,-0.8146,0.4735,0.2996,-1.2986,1.4421,-1.1241
2416,-0.818,0.4711,0.296,-0.1688,0.5108,0.8606
2428,-0.8177,0.4696,0.2994,0.8083,-0.2831,0.1889
2441,-0.8163,0.4755,0.3026,1.5564,-0.161,0.3263
2454,-0.816,0.4755,0.2926,0.4877,-0.3136,-1.0325
2467,-0.8212,0.461,0.3016,-1.2375,-1.2755,-0.834
2480,-0.8175,0.4613,0.2974,3.2663,-1.1991,-1.6127
2521,-0.815,0.4689,0.2984,0.1823,1.4421,0.8148
2534,-0.8172,0.4725,0.3048,1.2968,1.8543,0.7995
2547,-0.8172,0.4742,0.2965,1.4037,1.5489,0.3415
2560,-0.8148,0.473,0.2979,0.8846,-0.0083,-0.6661
2572,-0.8209,0.4715,0.2989,0.1671,-1.2449,-1.3684
2585,-0.8168,0.4681,0.2999,-0.0162,-2.0083,-2.2386
2626,-0.8109,0.5353,0.2916,-15.9246,1.2741,0.8301
2639,-0.8192,0.4696,0.3016,1.1289,0.236,-0.3302
2652,-0.815,0.4647,0.3065,1.8312,-0.0846,0.4942
2665,-0.8204,0.4691,0.296,1.7548,-0.6648,0.5247
2678,-0.818,0.4737,0.2962,-0.123,-1.1533,-1.2768
2691,-0.8155,0.473,0.3031,-1.4818,-0.2526,-2.086
2732,-0.819,0.4686,0.3033,1.8006,1.778,2.0515
2745,-0.8202,0.473,0.3004,2.1213,1.5642,2.1431
2757,-0.8182,0.4696,0.3004,2.7777,1.0757,1.5171
2770,-0.819,0.4737,0.3031,1.2358,0.9841,1.0133
2784,-0.818,0.4755,0.2999,0.0602,0.3581,0.9827
2797,-0.8126,0.4742,0.2957,-1.1765,-0.2526,-0.5745
2838,-0.8192,0.4637,0.3053,1.19,-0.7564,-2.086
2851,-0.8158,0.4589,0.3031,1.9838,-0.7411,-0.2081
2864,-0.8175,0.4696,0.304,1.8312,-0.0999,0.8606
2877,-0.8155,0.4708,0.3009,0.8999,0.1749,1.2118
2890,-0.8148,0.4755,0.3045,-0.1688,0.1138,0.3721
2903,-0.8187,0.473,0.2979,-1.6039,0.2665,-2.4371
2944,-0.8172,0.4664,0.2974,-0.7948,-0.6801,-1.5058
2957,-0.816,0.465,0.3031,-0.52,-0.7564,-0.6508
2969,-0.8182,0.4642,0.3065,1.1594,-0.39,0.9827
2982,-0.8177,0.4742,0.2943,0.9304,-0.2984,1.7308
2995,-0.8155,0.4764,0.2948,-0.8864,-0.4358,0.2499
3008,-0.8141,0.4696,0.3055,-1.6039,-0.1304,-1.5211
3049,-0.8158,0.4564,0.3079,0.4266,-0.0999,-2.147
3062,-0.815,0.4606,0.3035,0.8693,0.4344,-0.6661
3075,-0.8182,0.4667,0.2996,0.3503,0.4039,0.3721
3087,-0.8204,0.4623,0.3096,0.5487,0.1596,1.8682
3099,-0.8155,0.4669,0.2952,0.3655,0.465,2.769
3113,-0.816,0.4723,0.3055,-1.1154,-0.0846,-0.2081
3153,-0.818,0.4608,0.3004,0.1365,-0.7564,-2.2692
3167,-0.818,0.4598,0.2989,2.3197,0.1291,0.082
3180,-0.8165,0.4608,0.3011,2.3655,0.4802,2.7843
3193,-0.8136,0.4794,0.3016,1.0373,0.2054,2.7537
3206,-0.8175,0.4725,0.307,0.2434,-0.4969,0.4942
3220,-0.8165,0.4679,0.3021,-0.2299,-0.222,-1.7348
3260,-0.8185,0.4662,0.3016,0.3655,-0.3747,-0.5134
3273,-0.8177,0.464,0.3077,0.1213,-0.2831,0.0209
3286,-0.818,0.4647,0.305,-0.4436,-0.8327,-0.4371
3298,-0.8148,0.4669,0.3035,-0.8864,-1.1991,-0.7882
3311,-0.8168,0.4715,0.3006,-0.6268,-1.4129,-0.6661
3324,-0.816,0.464,0.3072,-0.6574,-1.4282,-2.1012
3365,-0.8126,0.4701,0.3021,-0.749,-4.5885,-6.147
3378,-0.8126,0.4669,0.3114,-2.7642,-4.4663,-7.0478
3391,-0.8158,0.451,0.315,-0.7642,-2.4511,-4.6661
3404,-0.8107,0.4515,0.3118,0.335,-0.0388,-0.8646
3416,-0.8158,0.453,0.317,1.3121,2.1596,2.7537
3429,-0.817,0.4601,0.3077,1.419,3.1062,4.9064
3470,-0.8165,0.4659,0.3038,-1.436,-0.0541,-1.7195
3483,-0.8146,0.4589,0.2992,-0.7642,-0.7411,-1.918
3496,-0.8009,0.4579,0.3111,3.0984,-1.7335,-2.9867
3509,-0.815,0.454,0.3082,0.0296,-0.1762,0.4637
3521,-0.8175,0.4586,0.3082,0.8541,0.5108,1.5629
3533,-0.8148,0.4623,0.3075,0.7167,0.7703,1.4408
3575,-0.8136,0.4625,0.3043,-0.1688,0.236,-1.4295
3588,-0.8172,0.4603,0.307,-0.581,0.3886,-1.7653
3601,-0.8185,0.4598,0.3001,-0.4436,0.4344,-0.5745
3613,-0.8224,0.4574,0.3084,0.7319,0.068,0.3415
3626,-0.8141,0.4596,0.3033,-0.0009,0.2207,0.998
3638,-0.8192,0.4603,0.3016,-0.3368,-0.3289,0.2041
3679,-0.8138,0.4684,0.2992,-6.3368,-1.0923,-4.3302
3692,-0.819,0.4601,0.3067,-12.2452,-0.0236,-3.6127
3705,-0.8131,0.4576,0.3089,-5.7413,0.2665,-2.147
3718,-0.8185,0.4554,0.3031,-6.9169,0.8009,-1.1699
3731,-0.816,0.4547,0.306,-1.9704,0.526,-0.5134
3744,-0.8192,0.4554,0.3048,-0.81,0.5413,-0.2386
3786,-0.8131,0.4559,0.2979,-0.81,0.2054,-2.1928
3798,-0.818,0.4523,0.3006,0.5945,-0.0236,-1.3989
3811,-0.8121,0.4549,0.3023,0.7777,-0.5274,-0.1623
3824,-0.8168,0.4584,0.3018,-1.436,-0.6037,0.0056
3837,-0.8114,0.4557,0.3009,0.335,-0.4663,0.4179
3849,-0.8146,0.4562,0.3082,-0.291,-0.2678,-0.4218
3890,-0.8153,0.4501,0.3031,-0.2299,0.6634,-1.3684
3902,-0.8182,0.4462,0.3009,1.0984,0.5566,0.4789
3916,-0.8126,0.4569,0.3026,1.6632,1.1062,1.853
3929,-0.8163,0.4515,0.3092,1.9075,0.6176,2.3263
3942,-0.8121,0.4557,0.3082,0.9304,0.694,1.5324
3955,-0.8153,0.4601,0.3053,-0.2452,0.8009,0.0056
3996,-0.8214,0.4479,0.3055,0.2587,-0.0694,-1.3379
4009,-0.8199,0.443,0.3065,1.3579,-0.1762,0.6316
4021,-0.8126,0.4581,0.2974,2.2892,-0.0236,1.7919
4035,-0.8163,0.4589,0.2994,0.3197,0.7245,1.3339
4048,-0.8155,0.4574,0.3023,-0.5963,0.0528,0.2499
4061,-0.8153,0.4608,0.3004,-2.1383,-0.1457,-1.8111
4102,-0.8172,0.4371,0.3045,2.4266,-0.39,-0.2997
4115,-0.8138,0.4537,0.2992,1.2358,0.1291,0.5705
4128,-0.817,0.4579,0.3053,0.5029,0.0833,0.4331
4140,-0.8177,0.4549,0.3021,0.106,0.5566,-0.4524
4151,-0.816,0.454,0.3038,0.2587,0.1291,-0.6661
4164,-0.8131,0.4547,0.2984,-0.3673,-0.1762,-1.8722
4205,-0.8126,0.4513,0.3011,0.8999,-0.1762,0.5553
4218,-0.8168,0.4552,0.3026,2.0754,-0.5427,0.9064
4231,-0.8168,0.4505,0.3021,1.48,-0.0236,0.6927
4244,-0.8204,0.4513,0.3075,1.2205,0.6787,0.54
4257,-0.815,0.453,0.3016,1.6174,0.3428,1.1049
4270,-0.8138,0.4554,0.3023,-1.1459,0.4497,-0.5134
4311,-0.8136,0.4562,0.3045,0.3961,-0.3442,-0.8646
4324,-0.8133,0.4545,0.3109,-0.7337,-0.2984,-1.7501
4337,-0.8155,0.4457,0.307,-0.6574,-0.1304,-1.0325
4349,-0.815,0.4442,0.3092,0.2281,-0.3595,0.1889
4362,-0.8141,0.4552,0.3011,-0.1078,0.7093,1.7003
4375,-0.8141,0.4498,0.296,1.0067,0.3886,2.0667
4416,-0.815,0.4501,0.3084,-0.2452,0.2207,-1.8417
4429,-0.8202,0.444,0.3045,0.8999,-0.7259,-1.6585
