time_ms,ax,ay,az,gx,gy,gz
13,-0.7322,0.9247,0.6783,3.2607,0.8806,2.8239
26,-0.7335,0.9316,0.6847,2.2836,-0.0507,2.6102
39,-0.7315,0.9347,0.6839,1.4134,-0.4172,1.8163
52,-0.732,0.936,0.6822,-2.1896,-0.3714,-1.2066
93,-0.7335,0.9328,0.6805,-1.4568,-0.753,-0.5501
106,-0.7293,0.9325,0.6852,-1.6248,-1.3943,-0.1837
119,-0.7271,0.936,0.6908,-1.4721,-1.1805,0.3201
132,-0.7325,0.9345,0.6932,-1.8538,-0.9362,-1.0692
145,-0.7337,0.9355,0.6839,-2.495,-0.3561,-2.2295
158,-0.7271,0.9262,0.6891,-1.8232,-0.2187,-2.3516
199,-0.733,0.9325,0.6871,0.1004,0.1172,0.1827
212,-0.7281,0.9306,0.69,-0.8003,-0.1271,-1.1455
225,-0.7257,0.9272,0.6908,-1.1209,-0.7683,-1.3135
237,-0.7318,0.9247,0.6886,-0.724,-0.3408,0.1216
250,-0.7357,0.9298,0.6825,-0.3576,-0.1118,0.1369
262,-0.7305,0.9345,0.694,-0.2813,-0.0813,-0.0005
303,-0.7315,0.9223,0.6878,0.1004,-0.0202,-2.2753
316,-0.7274,0.9257,0.6922,-0.8461,-0.1729,-1.7409
329,-0.7296,0.9225,0.6876,-0.6935,-0.3103,-1.2371
342,-0.7332,0.924,0.683,-0.0828,-0.6156,0.0453
353,-0.731,0.9272,0.6847,0.8943,0.2241,0.3812
366,-0.7276,0.9277,0.6881,0.6042,0.3462,-0.6875
407,-0.7352,0.9145,0.6905,-1.6248,0.5141,-4.7638
420,-0.7357,0.9164,0.68,-0.9988,-0.7836,-2.7333
433,-0.733,0.9196,0.6795,-1.7622,-2.463,-1.1913
446,-0.7305,0.9218,0.6949,-1.8385,-3.5164,-0.2448
459,-0.7325,0.9289,0.6988,-3.7927,-3.9744,-1.1608
473,-0.7305,0.9233,0.7018,-2.6019,-2.4019,-1.97
513,-0.7313,0.9062,0.6878,1.1539,0.9111,1.0224
526,-0.7374,0.9076,0.6871,3.0928,0.5447,4.9003
538,-0.7276,0.9115,0.6932,5.2455,0.1172,8.6713
552,-0.7308,0.9169,0.6952,4.3294,-0.3866,12.5644
565,-0.7347,0.9228,0.6915,10.1462,0.2393,19.343
578,-0.733,0.956,0.6927,3.047,-0.1729,15.7552
619,-0.7459,0.9389,0.7013,0.6348,0.6363,11.9995
632,-0.8939,1.1772,0.805,2.0852,5.1859,21.0987
645,-1.314,1.2609,1.1146,-3.9301,-57.7759,37.1904
659,-1.0474,1.1506,0.9496,-28.4645,-94.1729,50.5949
671,-0.6424,1.0766,0.8453,-40.1591,-110.509,30.7323
684,-0.327,1.2113,0.6383,-38.724,-105.119,41.6942
726,-0.3507,1.161,0.7735,-48.6477,-60.4324,35.4041
738,-0.4954,1.1801,0.5814,-77.3194,-39.8981,37.0224
751,-0.4681,1.0707,0.6607,-128.617,-26.9515,28.0148
764,-0.4547,0.8139,0.7884,-123.762,-16.4782,16.656
777,-0.5811,0.6252,0.6556,-105.991,-14.921,-4.718
791,-0.5838,0.7275,0.7713,-106.678,-1.8675,-10.1074
831,-0.5496,0.7536,0.682,-70.8309,23.766,16.198
844,-0.6407,0.5085,0.7582,-63.3805,38.621,-4.3669
858,-0.8514,0.6364,0.9083,-59.808,33.2164,-21.7104
870,-0.8404,0.6645,0.9161,-35.411,23.766,-16.2753
883,-0.7701,0.6506,0.7745,-16.5866,22.621,-13.2524
896,-0.7635,0.6921,0.7149,-1.5637,26.1172,-12.7333
937,-0.7252,0.8796,0.8495,13.8714,33.3233,-20.3211
950,-0.6837,1.0175,0.8238,11.1386,31.5676,-15.9089
963,-0.6317,0.9411,0.8221,1.4592,35.537,-2.2906
976,-0.7352,0.9438,0.9166,2.5432,34.2088,1.4957
989,-0.846,0.8874,1.0204,-2.7545,19.5676,3.9384
1002,-0.7149,0.6608,0.7606,42.1615,2.4378,16.4575
1043,-0.6248,0.7536,0.972,5.963,-9.837,2.0148
1057,-0.638,0.6774,1.0018,0.8638,-12.3256,-6.2753
1070,-0.6954,0.849,0.8365,16.6348,-16.692,-12.3058
1082,-0.6947,0.8185,0.8141,37.1539,-9.2721,7.1904
1095,-0.5985,0.8339,1.2337,36.5737,-11.8981,-1.6799
1109,-0.7479,0.893,1.058,29.4897,-2.066,7.9842
1149,-1.0277,0.2306,0.347,50.8791,-3.9744,-44.7638
1162,-1.0799,0.299,0.9689,101.566,4.2851,-14.9776
1175,-0.9007,0.946,0.5641,64.6653,4.5141,-42.3822
1188,-0.4974,1.4001,1.2467,32.6042,3.0485,-38.2753
1202,-0.6282,1.5727,0.1856,11.8256,10.5141,-38.4738
1214,-0.7486,1.1476,-0.3534,5.7951,10.1935,-61.3287
1255,-0.8287,1.2074,0.5221,0.8943,21.4454,-34.5196
1269,-0.7315,1.3769,0.787,124.849,23.247,12.6713
1281,-0.4879,1.1427,0.8502,22.5737,25.3996,-22.7944
1294,-0.6092,1.0778,1.2164,40.65,15.1859,3.2056
1307,-0.5819,1.1742,1.4513,59.7645,33.2012,16.1827
1320,-0.7042,1.0343,1.2525,15.4745,23.5981,-9.3135
1361,-0.7596,0.7126,1.2584,36.192,19.5981,13.3583
1374,-1.116,0.4574,2.1488,-60.6935,49.4607,19.8468
1387,-0.7513,0.7177,1.9869,-30.495,40.9111,39.9842
1400,-0.5062,1.2528,0.4928,30.6042,49.8577,63.1598
1413,-0.5943,1.8805,0.1761,-41.3958,21.0638,60.7171
1426,-0.9617,1.4142,1.888,-184.022,37.5676,36.4117
1468,-0.9132,0.1989,1.4957,-78.1133,-4.6309,10.2743
1480,-0.6986,0.7248,0.3255,12.8943,3.5828,32.9003
1494,-0.7869,0.6757,1.1813,-42.0828,-1.379,0.5033
1506,-0.8172,0.7528,0.5963,15.505,13.9645,19.3583
1519,-0.7508,0.7607,0.7555,21.1997,10.163,29.9079
1533,-0.8197,0.4596,1.067,17.8104,-5.1652,9.1598
1573,-0.8192,0.7641,0.5367,98.5737,-22.753,-35.802
1586,-1.1199,2.4887,-0.3705,159.627,-10.7378,-19.8325
1599,-0.7388,0.2765,0.8797,77.8561,-16.4477,-58.718
1613,-0.868,0.8178,0.5856,81.2455,-1.4859,-32.5501
1625,-0.8033,1.2834,-0.0751,47.2607,11.9187,-16.26
1638,-0.7947,1.234,0.9049,19.1386,5.1706,-9.5883
1680,-0.6141,0.8776,0.5499,45.902,16.1783,-23.8784
1692,-0.5323,2.2499,0.0775,94.5432,17.1859,19.114
1705,-0.618,0.2519,1.2154,14.9554,-19.0889,-30.657
1718,-0.6302,2.4755,0.329,29.5813,10.7431,14.5491
1731,-0.5848,0.8019,0.745,10.7722,-3.837,-12.9165
1744,-0.7628,0.9169,0.7401,3.2607,10.2393,-0.9623
1785,-0.7706,0.9662,0.5968,7.1997,0.4989,8.2743
1798,-0.7413,0.9455,0.6581,1.1691,-1.9133,6.5186
1811,-0.7357,0.9567,0.6725,-6.5713,-4.8141,1.8621
1824,-0.7379,0.945,0.6822,-10.3423,-5.2874,-1.0845
1837,-0.7366,0.9096,0.692,-6.5103,-3.7607,1.343
1850,-0.7552,0.9416,0.6993,-10.4645,-4.1423,2.8087
1891,-0.7313,0.9352,0.6839,-22.2507,-6.6767,-1.3898
1905,-0.7313,0.9574,0.6903,-32.5561,-8.8446,-7.8784
1917,-0.744,0.9379,0.7125,-28.724,-7.9897,-6.5806
1931,-0.7374,0.9237,0.7044,-31.1362,-6.066,-7.0387
1944,-0.7293,0.9013,0.6949,-26.5408,-4.295,-4.428
1957,-0.7222,0.8832,0.6979,-18.5408,-3.6996,3.4499
1997,-0.7259,0.9218,0.7101,-5.5026,-4.2187,5.9537
2010,-0.7283,0.9142,0.704,-1.4568,-2.982,5.3736
2022,-0.7296,0.9215,0.7023,0.1615,-2.9057,5.2667
2036,-0.7181,0.924,0.6983,-1.8538,-2.982,4.9155
2049,-0.7313,0.9301,0.7018,-9.4721,-4.3714,0.0453
2062,-0.7242,0.9411,0.7096,-20.3576,-5.2721,-6.428
2103,-0.7254,0.8937,0.7189,3.5661,-0.3256,3.9384
2116,-0.72,0.8986,0.7071,18.2073,0.0561,10.5797
2129,-0.7225,0.9225,0.7081,19.5355,-0.3408,10.3812
2142,-0.7208,0.9806,0.7257,-0.7545,-0.3256,3.7858
2155,-0.7213,0.9731,0.7152,-3.5179,-0.3408,1.4041
2168,-0.7203,0.923,0.7108,-5.6858,-0.3103,1.2972
2209,-0.7452,0.9616,0.7562,-10.6629,0.0714,2.0606
2223,-0.7215,0.9257,0.7035,-11.411,0.2088,1.8163
2235,-0.7286,0.8993,0.6903,-12.2049,2.9874,1.1446
2248,-0.7188,0.8984,0.7032,-6.495,1.9493,-0.199
2261,-0.7093,0.8979,0.7179,-7.2736,0.1019,-1.4356
2274,-0.7237,0.8805,0.7191,-13.8385,-1.4248,-2.5501
2315,-0.7152,0.882,0.6993,-2.0828,2.0409,1.5873
2328,-0.7403,0.9381,0.712,-8.037,1.0485,-1.5272
2341,-0.721,0.9179,0.7086,-8.4187,0.0256,-3.4203
2355,-0.7279,0.8913,0.7284,-20.7393,-2.2492,-5.6035
2367,-0.7093,0.893,0.7115,-20.0522,-2.8904,-2.5348
2380,-0.7227,0.8888,0.7191,3.2302,-1.6538,3.572
2421,-0.7039,0.9257,0.7142,4.4821,1.2775,2.3049
2434,-0.7252,0.913,0.714,9.734,1.4454,3.5415
2447,-0.721,0.8898,0.7137,7.9325,0.8653,3.3888
2460,-0.7227,0.8988,0.7262,4.7569,0.8348,2.8545
2473,-0.7191,0.9152,0.7193,5.3981,0.0561,3.3583
2485,-0.7174,0.9101,0.7113,2.8791,-0.1729,1.8774
2527,-0.7215,0.9157,0.721,-1.8538,-1.15,-1.2219
2540,-0.7239,0.9103,0.7191,0.1615,-1.4401,-2.0768
2553,-0.7242,0.9113,0.7218,0.192,-1.2111,-2.718
2566,-0.7171,0.9086,0.7169,-1.5179,-1.7149,-2.4585
2579,-0.7205,0.8942,0.7208,3.0317,-0.7225,0.8545
2592,-0.7156,0.9096,0.7174,4.9096,0.1019,2.5949
2633,-0.7152,0.9089,0.7171,1.3065,-0.4782,-2.4432
2646,-0.7213,0.9091,0.7159,-1.0751,-0.9057,-2.8555
2659,-0.7161,0.9027,0.714,0.36,-1.1805,-1.8478
2672,-0.7176,0.8952,0.7201,1.3523,-0.7378,1.0529
2684,-0.7191,0.9064,0.7206,3.6577,0.3157,3.8926
2698,-0.7225,0.9174,0.724,5.8714,0.9722,4.5491
2739,-0.7205,0.9145,0.7191,-0.4492,0.3157,-0.3364
2751,-0.7115,0.9106,0.7137,1.0775,0.7431,0.7934
2765,-0.7178,0.9115,0.724,4.192,0.7584,1.0987
2778,-0.7174,0.9059,0.7135,11.276,1.4149,2.8392
2791,-0.7156,0.9128,0.7079,7.0012,-0.4172,0.4575
2804,-0.7191,0.911,0.712,4.1004,-1.2111,-0.1379
2845,-0.7188,0.9152,0.7167,1.5508,0.2393,0.5186
2858,-0.7198,0.9247,0.7149,2.3905,0.5294,1.3278
2871,-0.7208,0.9196,0.7169,2.3142,0.4378,1.0682
2884,-0.7164,0.924,0.7174,1.6577,-0.2187,-0.1379
2897,-0.7205,0.9252,0.712,-1.411,-0.5546,-2.0158
2910,-0.7186,0.9181,0.7159,-2.0217,-0.6309,-1.7104
2951,-0.7196,0.9174,0.7164,1.7493,0.1783,0.5644
2964,-0.7191,0.9179,0.7152,1.8409,0.2699,0.1064
2977,-0.721,0.922,0.7213,0.6806,0.0103,-0.4738
2989,-0.7149,0.9215,0.7113,-3.2278,-0.6156,-1.7867
3002,-0.7205,0.9125,0.7164,-3.411,-0.7988,-1.0234
3015,-0.7186,0.9067,0.7162,-5.8996,-1.2874,-1.4356
3056,-0.7169,0.9113,0.7142,2.3447,-1.1652,-3.1455
3070,-0.7191,0.9067,0.7164,-1.5637,-0.6614,-2.4432
3082,-0.7198,0.9211,0.7149,1.0012,-0.4935,-0.7333
3095,-0.7225,0.915,0.7152,-0.1133,-0.3714,0.3049
3107,-0.7196,0.9062,0.7169,0.818,-0.2187,1.4194
3120,-0.7227,0.9345,0.7159,0.2378,-0.1118,0.7476
3161,-0.7181,0.9169,0.7191,0.1768,-0.6767,-0.3058
3174,-0.7178,0.9128,0.7245,0.7264,-0.0965,0.3965
3187,-0.7181,0.9172,0.7142,1.0165,-0.1576,0.0148
3200,-0.7183,0.9174,0.7179,0.5737,-0.234,-0.5959
3212,-0.7205,0.9086,0.7179,0.8943,0.1935,-0.886
3224,-0.7156,0.9194,0.7225,1.902,0.4073,-0.26
3265,-0.7191,0.9147,0.7147,1.7798,0.1019,3.2972
3278,-0.7186,0.9206,0.725,2.6195,-0.066,4.1522
3291,-0.7196,0.9025,0.6878,12.4668,1.476,2.7171
3304,-0.7227,0.9159,0.7137,3.8256,-0.4019,-2.9013
3317,-0.7225,0.9215,0.7215,-0.1744,-0.5851,-4.031
3330,-0.7169,0.9103,0.7252,-0.1591,0.0714,-1.5577
3371,-0.7196,0.9277,0.7157,1.6119,0.9111,0.1675
3384,-0.7237,0.9301,0.7198,-2.4492,0.1477,-3.97
3397,-0.7164,0.9079,0.7159,-1.1209,0.0867,-4.1226
3410,-0.7186,0.9008,0.7098,-0.5103,-0.1271,-0.5959
3422,-0.7125,0.9003,0.7193,3.5661,-0.1729,3.5262
3435,-0.7215,0.9257,0.7184,1.3676,-0.3408,3.6942
3476,-0.7186,0.9184,0.7206,-2.7087,-0.9515,-4.2295
3489,-0.7188,0.9081,0.7242,-0.7698,-0.2187,-1.6951
3501,-0.7142,0.9154,0.7169,1.6729,0.1172,1.2209
3515,-0.7169,0.9174,0.7159,0.0088,0.3615,1.4652
3528,-0.721,0.923,0.7213,0.1615,0.4836,0.8392
3540,-0.7164,0.9206,0.7208,0.131,0.3462,-0.3822
3581,-0.722,0.9174,0.723,3.8714,0.7584,2.5339
3594,-0.7196,0.9259,0.7189,2.0088,0.3157,1.7094
3607,-0.7178,0.9223,0.7179,2.5737,0.8958,0.3201
3620,-0.7166,0.9272,0.7218,1.6119,1.2928,-0.3364
3632,-0.7205,0.9191,0.7167,2.5279,0.6515,-0.0768
3646,-0.7125,0.9159,0.714,3.3981,0.1935,1.8316
3687,-0.7198,0.9211,0.7203,-0.3729,0.5447,-0.7638
3699,-0.7169,0.9189,0.7169,0.8638,0.5447,-0.8096
3713,-0.7215,0.922,0.7196,2.4363,0.6057,0.3659
3726,-0.7139,0.9213,0.7137,2.6653,0.0409,1.0987
3739,-0.7203,0.9284,0.7169,2.6958,-0.2492,0.8545
3752,-0.7215,0.9284,0.722,-0.0828,-0.463,-0.199
3793,-0.7186,0.9191,0.7149,2.9707,0.5447,1.3125
3806,-0.7174,0.9274,0.712,2.1004,0.3767,1.4804
3819,-0.7188,0.9228,0.7189,1.4745,0.2699,1.9079
3832,-0.7208,0.9269,0.7171,0.9096,0.1783,0.7018
3844,-0.7152,0.9262,0.7181,0.2226,-0.066,-0.4127
3856,-0.7171,0.9211,0.7193,0.4058,-0.0049,-0.0768
3897,-0.7203,0.923,0.7132,1.5508,0.4989,0.9919
3909,-0.7186,0.9211,0.7149,1.2302,0.3309,0.2743
3923,-0.7125,0.9308,0.7093,0.6042,-0.3103,-0.9929
3935,-0.7222,0.9272,0.7125,-1.1362,-0.4477,-1.4661
3948,-0.7164,0.9211,0.714,-0.9683,-0.7988,-0.6417
3959,-0.713,0.9101,0.7103,1.2913,-0.3561,1.4041
4001,-0.7227,0.9394,0.723,0.4363,0.163,-1.4661
4014,-0.7159,0.9262,0.7228,-0.3118,0.6515,-1.2066
4026,-0.7178,0.9208,0.7149,0.5584,0.4683,0.0758
4039,-0.7178,0.9211,0.7149,1.0317,0.5905,0.6255
4052,-0.7218,0.9233,0.7145,0.6348,0.6821,1.0835
4065,-0.7171,0.9279,0.7184,1.5966,0.2851,0.6713
4106,-0.7181,0.9296,0.7171,1.505,1.0027,1.3583
4119,-0.7183,0.9264,0.7108,1.276,0.4225,0.5644
4132,-0.7178,0.923,0.7174,0.2684,0.3004,0.4117
4143,-0.72,0.9286,0.7142,0.9554,-0.0049,0.5644
4156,-0.7171,0.9298,0.7157,0.9096,0.2546,-0.3822
4168,-0.7169,0.9225,0.7176,0.9249,0.3004,-0.1532
4209,-0.7169,0.9277,0.7154,2.131,0.3004,0.7934
