time_ms,ax,ay,az,gx,gy,gz
12,-0.759,0.2209,0.4539,2.9411,0.2547,1.642
25,-0.7534,0.2219,0.4549,1.7197,0.1021,1.4741
38,-0.7568,0.2236,0.4517,-0.0055,0.3922,0.1306
78,-0.76,0.2178,0.4524,-1.3185,0.1479,-1.3351
91,-0.7595,0.2243,0.4571,-3.1353,-0.0811,-0.7396
104,-0.761,0.2136,0.4519,0.9105,-0.0048,0.3749
117,-0.7544,0.2121,0.4554,-0.0208,0.3616,0.3901
130,-0.7563,0.216,0.4507,0.5747,0.0868,0.0237
143,-0.7593,0.2207,0.4573,0.4067,0.1479,-0.9839
184,-0.7581,0.2151,0.4478,-0.1887,0.3616,-0.877
196,-0.7585,0.2158,0.4507,0.1014,0.438,-0.2205
209,-0.7583,0.2165,0.4527,-0.8605,0.3922,0.3138
222,-0.7593,0.2195,0.4473,-0.891,0.4074,0.497
235,-0.7588,0.2104,0.4527,0.9411,0.4074,0.6344
248,-0.7593,0.2197,0.4485,1.506,-0.0353,0.3443
288,-0.7615,0.2141,0.462,-0.9063,0.438,-0.8923
302,-0.7556,0.2153,0.4544,-0.6467,0.438,-0.0831
315,-0.7568,0.2129,0.4559,-0.6315,0.1631,0.0848
327,-0.7602,0.2146,0.4595,0.4678,0.3005,0.4817
340,-0.7563,0.2143,0.4622,0.8037,0.4532,0.497
353,-0.7546,0.219,0.4578,-1.7154,0.3769,-0.8923
393,-0.7593,0.2097,0.4527,0.2388,-0.0811,0.1917
406,-0.7571,0.2012,0.4466,1.9182,0.438,1.7184
419,-0.7605,0.2217,0.458,1.9182,0.3769,2.7871
433,-0.7585,0.2243,0.4576,-0.1276,0.6517,1.9627
445,-0.7634,0.2148,0.4515,0.193,0.3616,1.4588
458,-0.7642,0.2241,0.4537,0.3456,0.1173,0.8482
498,-0.7866,0.1914,0.4727,10.0403,0.7586,5.2298
511,-0.783,0.1233,0.4485,-4.0055,-0.3865,3.7947
525,-0.8433,0.1701,0.5467,9.8418,-5.1804,-0.0984
538,-0.9412,0.3445,0.5765,5.109,-20.2949,4.6039
550,-0.8791,0.4282,0.595,0.3151,-31.1651,17.6115
563,-0.7344,0.4795,0.4683,-11.9597,-37.1804,32.0848
605,-0.5957,0.3921,0.441,-43.9597,-31.1498,22.0085
618,-0.5571,0.3948,0.4109,-57.5169,-24.2033,18.3596
630,-0.4839,0.4468,0.4119,-64.6772,-17.0582,21.3672
644,-0.4885,0.352,0.4095,-79.3337,-5.4857,27.4283
656,-0.5491,0.2685,0.439,-94.1734,2.5296,27.2604
669,-0.5901,0.3125,0.4124,-107.944,10.3158,28.4665
711,-0.7082,-0.0987,0.5462,-118.25,21.3387,0.6191
724,-0.8677,-0.1973,0.6053,-114.631,13.2471,-19.5793
737,-1.0325,-0.2493,0.6607,-94.0666,2.3464,-30.7702
750,-1.1016,-0.1741,0.8345,-57.9139,-27.8979,-26.1289
763,-0.707,-0.3269,0.565,24.6815,-27.1193,-20.1595
776,-0.5876,-0.4981,0.7686,59.338,-41.8674,-36.7702
815,-0.6787,-0.043,0.2339,29.9029,-9.6384,-46.7244
828,-0.8249,0.2075,0.6927,3.7655,0.8807,-40.5259
842,-0.8528,0.2488,0.262,105.842,4.0868,-34.6938
855,-1.0022,0.3074,0.4661,157.582,16.9723,-14.2358
867,-0.7202,0.438,0.6163,87.5518,20.957,-19.7931
880,-0.8313,0.407,-0.1408,7.3991,48.5448,-17.8236
920,-0.5225,0.1941,1.3953,15.7808,85.2013,64.1611
933,-0.6707,0.3664,0.9236,-55.1811,63.2776,64.5123
946,-0.7732,0.3186,0.6643,-88.6314,65.3998,67.5352
960,-0.4673,0.7615,0.2085,-30.8299,55.4609,76.1459
973,-0.9512,0.447,0.5735,-70.0055,53.583,74.3901
985,-0.8962,-0.1709,0.0581,-93.975,39.6899,54.2985
1025,-0.8411,-0.0593,0.512,49.5823,9.1402,-20.6786
1038,-0.8801,-0.4629,0.6917,42.422,-7.2414,-27.045
1051,-0.9309,-0.2771,0.0569,77.0479,-21.4704,-69.2129
1064,-0.6116,0.2612,0.7767,69.9029,-25.4399,-78.2205
1078,-0.7019,-0.0701,-0.2002,-10.9826,-7.7758,-75.9457
1091,-0.6194,0.3323,-0.1211,3.567,-12.6155,-37.106
1130,-0.6584,0.6291,0.4808,3.3533,-1.9437,32.5428
1143,-0.7244,0.509,0.3697,7.0479,5.1708,23.8863
1157,-0.8125,0.3542,0.4297,-18.0208,0.4074,-21.2893
1170,-0.7798,0.2541,0.44,-18.494,-2.875,-33.1366
1183,-0.7571,0.2143,0.3772,-4.2192,-9.4094,-35.0144
1196,-0.7769,0.2134,0.4285,-14.0818,-5.9132,-30.587
1236,-0.771,0.1443,0.4436,5.6892,-1.6384,4.6649
1248,-0.7739,0.1582,0.4446,18.7884,0.6517,15.6726
1262,-0.7649,0.1931,0.4397,24.7884,0.9112,19.4894
1274,-0.7673,0.2202,0.4422,19.6128,0.896,15.7489
1287,-0.7737,0.2378,0.4429,8.4067,0.4838,7.4894
1301,-0.771,0.2295,0.4349,-1.7307,-1.0277,0.1917
1340,-0.7681,0.1909,0.4339,6.8953,-0.4017,3.5046
1353,-0.7681,0.1999,0.4432,10.422,0.5906,5.6878
1366,-0.7646,0.2099,0.4383,10.1014,1.0792,6.1459
1379,-0.7644,0.2324,0.4405,7.3075,0.957,4.6955
1392,-0.7705,0.2124,0.4383,3.9029,0.5601,3.1688
1406,-0.7698,0.2141,0.4388,3.3227,-0.0964,2.3138
1445,-0.7676,0.218,0.4363,1.9182,-0.1269,0.8787
1458,-0.7649,0.2221,0.4395,1.1243,-1.1804,-0.1747
1471,-0.7668,0.2041,0.4424,0.9411,-0.3865,-1.1671
1485,-0.7637,0.2212,0.4388,1.7197,0.499,-0.9228
1497,-0.7668,0.216,0.4375,-0.2956,0.5448,-1.1976
1510,-0.7712,0.2214,0.4395,-1.3185,0.4685,-1.274
1550,-0.7654,0.1997,0.4397,-3.1505,-1.043,-0.9686
1563,-0.7673,0.2038,0.4336,3.5976,-0.4933,1.6115
1576,-0.7664,0.2141,0.4436,3.1548,0.3005,1.8863
1589,-0.7661,0.2163,0.4329,0.88,0.1326,0.894
1603,-0.7668,0.2185,0.4324,1.1701,-0.875,-1.503
1616,-0.7661,0.2217,0.4371,1.338,-1.5162,-3.0602
1655,-0.7634,0.2041,0.4385,-1.3643,-0.8292,-0.648
1668,-0.759,0.2046,0.4434,0.254,0.8044,2.3443
1681,-0.7666,0.2165,0.4444,0.2235,0.438,2.6497
1694,-0.7585,0.2107,0.4371,-0.4788,0.4685,1.3214
1707,-0.7678,0.2207,0.4478,1.0632,0.1631,0.3138
1720,-0.7656,0.2209,0.4371,-0.1887,-0.1727,-1.3351
1761,-0.7686,0.2124,0.4419,-5.4711,-0.2338,-1.0297
1773,-0.7661,0.1982,0.4378,-0.4788,0.2089,0.3749
1786,-0.7634,0.2104,0.4466,5.5365,-0.0506,0.955
1799,-0.771,0.2126,0.4344,4.6968,0.27,-0.2664
1813,-0.7729,0.2173,0.439,1.7655,0.5601,-0.2816
1825,-0.7683,0.2156,0.4397,-0.2345,-0.0506,-1.1671
1866,-0.7659,0.1994,0.439,-1.1353,-1.2414,-0.6938
1879,-0.7681,0.2092,0.4441,3.0632,-0.7071,0.8024
1891,-0.7654,0.2085,0.4456,2.1166,-0.1269,0.8787
1904,-0.7627,0.2073,0.4449,3.1243,0.3158,-0.4496
1917,-0.7686,0.2195,0.4441,1.6128,0.438,-1.4114
1930,-0.76,0.2234,0.4356,-1.7612,0.041,-2.5259
1971,-0.7668,0.2016,0.4407,0.6663,-0.1269,1.3367
1983,-0.7659,0.2099,0.4385,1.1853,0.667,2.2222
1996,-0.7664,0.2153,0.4388,1.735,0.5754,1.581
2009,-0.7678,0.2148,0.4397,1.7502,-0.0353,-0.1442
2022,-0.7693,0.2134,0.4373,0.6663,-0.5086,-2.2053
2035,-0.7688,0.2097,0.439,0.5899,-0.4323,-2.7549
2075,-0.7659,0.1992,0.44,-0.6162,0.5143,0.9703
2088,-0.7747,0.1994,0.4427,5.2922,0.3158,1.7489
2101,-0.7605,0.2256,0.4373,3.6128,-0.0048,0.4817
2114,-0.7654,0.2278,0.4378,-0.6467,-0.1727,-2.8618
2127,-0.7629,0.2107,0.4297,-3.3337,-0.4628,-3.8389
2140,-0.7668,0.2085,0.4344,-0.5093,-0.5849,-3.1366
2180,-0.7676,0.2126,0.44,-0.4482,0.5601,2.3443
2193,-0.7678,0.2063,0.44,1.2006,0.6517,2.1459
2207,-0.7637,0.2146,0.4375,-1.7154,0.0868,0.9856
2219,-0.7698,0.2099,0.4414,-2.7383,-0.0201,-0.7702
2232,-0.7676,0.2092,0.4417,0.5136,-0.0659,-1.3961
2245,-0.7654,0.2099,0.4395,0.2846,-0.3559,-1.7473
2285,-0.7651,0.2048,0.438,-0.6773,0.728,1.6726
2298,-0.7666,0.208,0.4436,0.5747,0.041,1.6878
2311,-0.7678,0.2192,0.4419,0.7579,-0.0506,0.8176
2324,-0.769,0.2116,0.4378,0.8953,-0.4933,-1.1824
2337,-0.7666,0.2138,0.4388,0.2082,-1.1498,-2.3427
2351,-0.771,0.2085,0.4449,0.1166,-0.7529,-2.1595
2390,-0.7671,0.2055,0.4385,1.8266,-0.0659,1.1993
2403,-0.7649,0.206,0.4424,2.9258,0.1021,1.4894
2417,-0.7664,0.2163,0.4346,-0.2345,0.1784,0.5886
2430,-0.7654,0.2068,0.4427,-0.0818,0.4532,-1.0144
2443,-0.7659,0.208,0.4405,-0.9215,0.6517,-0.9076
2455,-0.7656,0.2114,0.4351,0.2388,0.2242,-0.4343
2495,-0.7637,0.2009,0.4378,-0.1887,-0.2491,1.1535
2508,-0.7683,0.2087,0.4424,-0.1124,0.3005,0.8024
2521,-0.7671,0.2116,0.4444,0.3304,0.3005,0.039
2534,-0.7676,0.219,0.4441,-1.1353,-0.2796,-1.4267
2547,-0.7642,0.206,0.438,-1.7918,-0.9666,-2.587
2561,-0.7666,0.2024,0.4419,-1.3643,-1.3483,-1.3045
2600,-0.7634,0.2178,0.4393,-0.1582,-0.0048,0.7413
2613,-0.7646,0.2046,0.4407,0.025,0.0257,-0.0984
2626,-0.7624,0.2085,0.4395,-1.7002,0.0105,-1.5335
2640,-0.7664,0.207,0.4414,-1.6696,-0.1117,-0.8465
2653,-0.7683,0.2055,0.4468,-0.204,0.0257,0.3596
2666,-0.7651,0.2063,0.4441,0.2388,0.4838,1.1382
2706,-0.7651,0.2163,0.4439,0.6357,0.0105,-0.0068
2718,-0.7661,0.2136,0.4366,-1.3032,-0.417,-1.2893
2732,-0.7651,0.216,0.4422,-4.9215,-0.6155,-3.4725
2744,-0.7666,0.2031,0.4436,-3.4406,-0.5391,-2.6938
2758,-0.7605,0.199,0.4427,-2.4788,-0.0964,-0.9686
2770,-0.7681,0.198,0.4331,0.2388,0.0257,0.3596
2810,-0.7622,0.2156,0.439,-1.7918,0.1631,0.0543
2824,-0.7686,0.207,0.4434,0.7731,-0.3254,0.955
2836,-0.7688,0.208,0.4471,-1.6391,0.0868,0.0848
2849,-0.7698,0.206,0.4471,-1.2879,0.1021,0.8787
2863,-0.7659,0.2085,0.4397,-1.2879,0.0257,1.4588
2875,-0.7668,0.1985,0.4363,0.2388,-0.3101,1.4894
2915,-0.7676,0.2129,0.4446,-1.0284,-0.0506,-0.9228
2928,-0.7612,0.2055,0.4427,-2.1734,0.1479,-1.1824
2941,-0.7646,0.2041,0.4361,-1.0131,-0.2185,-0.5259
2954,-0.7642,0.2092,0.44,0.2235,0.0563,0.7871
2967,-0.7632,0.2051,0.4434,0.0098,-0.2491,1.1993
2980,-0.7637,0.2129,0.4419,0.7579,0.2547,2.2222
3020,-0.7698,0.2136,0.4424,0.0861,0.2395,-0.0373
3034,-0.7659,0.2126,0.4414,-1.3948,-0.0048,-0.3885
3046,-0.7683,0.2099,0.4439,-1.5322,-0.1269,0.0848
3059,-0.7656,0.2031,0.4471,-0.7689,-0.2643,0.9092
3072,-0.7693,0.2065,0.448,2.9105,-0.4781,2.1306
3085,-0.7615,0.2134,0.4446,1.735,0.1326,1.8711
3126,-0.7673,0.208,0.4395,-2.0818,-0.4323,-1.6099
3138,-0.7664,0.2043,0.4434,-1.0742,-0.6155,-0.9686
3151,-0.7664,0.2087,0.4483,1.1701,-0.0048,0.4359
3164,-0.7639,0.2121,0.4427,-0.0513,0.3616,0.2833
3177,-0.7664,0.2092,0.4476,0.5289,0.3769,0.6039
3190,-0.7646,0.2082,0.4422,0.7884,0.3464,0.4665
3231,-0.7668,0.206,0.4385,-1.12,-0.8445,-0.877
3243,-0.7659,0.2031,0.4449,0.0556,-0.6002,0.0848
3256,-0.7661,0.206,0.4441,1.4602,-0.3559,0.5123
3270,-0.7671,0.2099,0.4375,2.3151,-0.1422,-0.3274
3282,-0.7686,0.2151,0.4407,1.0174,0.2547,-1.4419
3296,-0.7627,0.2163,0.4478,-1.5017,0.0715,-2.3122
3335,-0.7654,0.2068,0.4363,-1.4864,-0.1422,-4.8312
3349,-0.7622,0.2422,0.4324,-6.4024,-0.8292,-10.2205
3361,-0.7651,0.2107,0.4385,-9.7154,-1.2414,-13.3351
3374,-0.771,0.2051,0.4427,-11.7612,-1.3788,-13.7015
3388,-0.7715,0.1821,0.4517,-8.6773,-1.043,-9.4725
3400,-0.7676,0.1767,0.4497,0.3456,-0.4781,-2.4954
3440,-0.7676,0.1975,0.4422,4.7579,0.6059,5.2604
3454,-0.7676,0.207,0.4456,2.5594,0.8654,3.2146
3466,-0.7681,0.2058,0.4395,-1.0284,0.2395,0.1764
3479,-0.7651,0.2004,0.448,-2.7841,-0.3712,-1.0297
3492,-0.7678,0.1831,0.4451,-0.3414,-0.6918,-1.0755
3505,-0.7651,0.1902,0.4454,2.3456,-0.2949,0.3749
3545,-0.7651,0.1972,0.4436,-0.494,0.8807,1.9627
3558,-0.7678,0.1943,0.4441,0.2082,0.4532,1.8711
3572,-0.7666,0.2026,0.4471,1.7655,0.3922,1.7795
3584,-0.7659,0.2024,0.4395,2.6357,0.2395,0.6039
3597,-0.7646,0.2119,0.4383,-0.1429,0.0715,-1.3656
3610,-0.7678,0.2048,0.4405,-2.7689,-0.417,-2.8465
3650,-0.7673,0.1948,0.4456,2.3609,0.667,2.3596
3664,-0.7678,0.2048,0.4393,1.7808,0.9418,1.9169
3676,-0.7624,0.2036,0.4432,0.2846,0.5906,1.0161
3689,-0.7632,0.2029,0.4395,-1.5322,0.1784,-0.4496
3703,-0.7649,0.2012,0.4444,-1.6544,-0.0811,-0.9534
3715,-0.7666,0.1931,0.4502,-0.8605,-0.0048,-0.419
3755,-0.7668,0.2041,0.4436,2.7579,0.4227,1.4588
3769,-0.7615,0.2063,0.4383,-0.0666,0.6059,-0.6938
3781,-0.7703,0.2053,0.438,-1.4406,0.2547,-1.0908
3794,-0.7722,0.2026,0.4422,-2.8147,-0.1575,-1.6251
3808,-0.7693,0.195,0.4471,-2.2345,-0.5239,-1.0144
3820,-0.7654,0.1943,0.4436,-0.1429,-0.6765,0.3138
3860,-0.7671,0.2016,0.4412,2.8953,0.3311,0.7107
3874,-0.7632,0.2095,0.44,1.0785,0.1326,-0.2816
3887,-0.7664,0.2087,0.4414,-1.975,-0.7376,-1.8236
3899,-0.7698,0.2012,0.4397,-3.2269,-1.1956,-2.3427
3912,-0.7668,0.1926,0.4476,-1.7002,-0.4628,-0.816
3925,-0.7671,0.1943,0.4473,0.8342,0.1326,1.3367
3965,-0.7666,0.207,0.4454,0.8189,0.0868,-0.0831
3978,-0.7639,0.207,0.4458,-0.4024,0.1479,-1.6557
3991,-0.7659,0.2073,0.4427,-2.036,-0.2033,-2.1137
4005,-0.7632,0.2004,0.4439,-4.1734,-0.1117,-1.8236
4018,-0.7686,0.1965,0.4488,-3.0589,-0.2643,-1.2282
4031,-0.7681,0.1965,0.4476,-0.2498,-0.1422,-0.4343
4070,-0.7703,0.2021,0.4478,0.7273,0.3158,-0.9228
4083,-0.7646,0.2026,0.4488,-0.8299,0.1021,-1.6709
4096,-0.7668,0.2021,0.4434,-1.4406,0.0868,-1.4267
4110,-0.7644,0.2004,0.4439,-2.4177,0.4074,-1.045
4123,-0.7659,0.1919,0.4451,-2.9521,0.0868,-0.2816
4136,-0.7671,0.198,0.4449,-1.0131,-0.4781,0.3901
4175,-0.7654,0.1977,0.4441,-0.8605,0.1479,-1.274
