time_ms,ax,ay,az,gx,gy,gz
13,-0.793,0.1658,0.4014,-1.0284,-0.1575,-0.3732
25,-0.79,0.1589,0.396,0.7579,0.4838,1.8405
39,-0.7935,0.1748,0.3948,2.1014,0.5296,2.5428
52,-0.7947,0.1762,0.3909,1.109,-0.4323,1.4894
92,-0.792,0.164,0.3982,0.254,-0.188,-1.5641
105,-0.7937,0.1716,0.4002,1.2311,0.0563,-0.8465
117,-0.7922,0.1758,0.4019,0.7121,-0.2491,-1.045
131,-0.7893,0.167,0.3977,1.2311,-0.2949,0.1306
144,-0.7913,0.1711,0.397,1.2159,0.3005,0.9092
156,-0.7935,0.1802,0.3995,-0.1887,0.2242,1.0314
197,-0.7927,0.1694,0.3938,-1.8223,-1.2262,-0.6175
210,-0.7966,0.1662,0.3977,2.0556,-0.417,0.4207
223,-0.7925,0.1719,0.3987,2.651,-0.0353,0.4817
235,-0.791,0.1767,0.4009,1.2464,0.667,-0.2205
249,-0.793,0.1731,0.3894,0.1166,0.6822,-0.877
262,-0.7895,0.1755,0.3946,-2.3566,-0.2185,-1.106
302,-0.8027,0.1716,0.4063,4.6052,0.5601,2.0543
315,-0.7988,0.177,0.3987,8.9105,0.0868,6.1764
328,-0.7974,0.197,0.41,22.1624,-0.7834,15.4741
341,-0.803,0.1269,0.4012,20.651,1.2166,15.0619
354,-0.8625,0.1628,0.4414,18.422,-4.8445,8.9703
367,-0.8833,0.1907,0.4339,14.5899,-15.0582,6.726
408,-0.7146,0.1033,0.4817,22.7579,-33.1193,-5.6251
420,-0.6685,0.1208,0.4327,24.4067,-40.1727,-15.5335
433,-0.6794,0.2253,0.346,2.5594,-33.9895,-23.1518
446,-0.688,0.2441,0.3855,-9.5627,-24.8598,-21.961
459,-0.7861,0.1846,0.4715,-10.9521,-22.6002,-21.9457
472,-0.8313,0.0185,0.5533,-50.0208,-31.2414,-36.7091
511,-0.6692,0.3069,0.3318,1.1395,-3.333,6.3443
525,-0.6882,0.2307,0.3824,2.8647,5.186,14.039
538,-0.7485,0.1513,0.4402,0.0403,8.1021,11.3214
551,-0.8616,0.1323,0.5071,-0.4177,6.6059,3.9779
563,-0.9268,0.1748,0.5782,5.7044,-5.3788,1.5657
577,-0.7588,0.1443,0.4524,21.5365,-14.6918,-5.2282
617,-0.8433,0.29,0.3279,22.6663,-19.3941,-5.6862
630,-0.8352,0.1186,0.2876,5.2769,-24.1727,-23.3656
643,-0.7878,0.0361,0.3912,-1.1811,-15.6536,-14.877
656,-0.7974,0.0512,0.386,-8.6315,-10.4781,-16.8618
669,-0.7483,-0.1697,0.5696,-24.1429,-12.814,-27.8847
682,-0.7895,0.1814,0.4822,-48.7078,-3.2872,-27.4572
722,-0.7703,0.3835,0.3931,12.4525,12.4838,-7.0297
736,-0.7812,0.3364,0.355,-28.2192,20.1173,-13.2434
747,-0.7688,0.3196,0.4893,10.88,26.8349,9.1382
761,-0.8311,0.2471,0.4024,-11.6849,32.4685,23.3062
774,-0.7322,0.0644,0.877,-31.2116,27.6899,28.0848
787,-0.697,0.0827,-0.061,-28.0971,39.2776,33.5199
827,-0.791,0.1892,0.1946,-40.3261,28.6822,23.5046
840,-0.8232,0.0024,0.4334,-28.8757,14.8349,6.7413
853,-0.7578,0.0334,0.4737,-10.9063,5.5677,4.4817
866,-0.7837,0.0212,0.4642,1.8876,0.8654,3.9169
879,-0.792,0.1015,0.4202,25.9487,1.0486,10.3443
892,-0.7944,0.0893,0.4214,36.5289,1.7357,14.6955
932,-0.7852,0.1567,0.4224,30.6357,-2.9666,-3.503
945,-0.8362,0.2793,0.2835,20.8953,-0.7224,-11.4267
958,-0.7786,0.48,0.3296,46.4373,-2.814,3.4741
971,-0.8123,0.3637,0.4419,29.6892,1.7662,7.8253
984,-0.7332,0.0373,0.5135,9.1243,3.0792,-2.7396
996,-0.77,0.3381,0.441,16.2998,5.2166,7.6573
1037,-0.7847,0.1853,0.4175,2.3304,0.7586,-4.2969
1050,-0.79,0.1802,0.4192,4.1166,-0.7071,-5.8694
1062,-0.7859,0.1672,0.4168,4.7884,-1.1956,-3.8083
1075,-0.7869,0.146,0.4119,11.109,-1.272,1.2756
1088,-0.7878,0.1711,0.4141,10.4983,0.7891,2.1764
1102,-0.793,0.1609,0.4222,5.2922,2.3922,-0.2358
1142,-0.7766,0.1924,0.4178,-6.7994,-0.5544,-0.1137
1155,-0.7837,0.1699,0.4161,-10.2956,-0.188,1.5199
1168,-0.7844,0.1653,0.4151,-7.12,-0.0201,3.9932
1181,-0.7856,0.1679,0.42,0.7121,1.2013,5.5352
1194,-0.7844,0.1787,0.4187,2.6357,1.5677,4.6039
1207,-0.7908,0.1826,0.4119,2.2693,0.9265,2.1459
1247,-0.8401,0.2112,0.4195,33.3075,-7.4399,6.8176
1260,-1.0364,0.2053,0.5667,28.5441,-15.0735,20.2985
1273,-0.9351,0.0923,0.4766,27.2311,-29.4704,19.3367
1286,-0.7107,0.1584,0.367,29.3227,-30.188,14.1764
1299,-0.5813,0.2766,0.3016,19.2769,-18.4017,10.8787
1312,-0.6445,0.3193,0.4002,20.5594,-8.2185,11.2146
1352,-0.7659,0.2295,0.4273,6.7884,-3.3788,-8.7854
1365,-0.7756,0.2439,0.4353,2.1777,-3.9285,-9.3809
1377,-0.749,0.2004,0.4278,-1.7918,-3.272,-9.2434
1391,-0.7524,0.208,0.4219,-3.9597,-2.5086,-8.1747
1404,-0.7507,0.2046,0.4212,-3.1963,-1.7758,-5.6862
1417,-0.7595,0.1758,0.427,-0.0818,-1.6231,-4.358
1456,-0.7485,0.2236,0.4336,3.567,0.6975,3.3367
1470,-0.7456,0.2053,0.4378,1.6586,1.6593,2.2527
1483,-0.7659,0.2141,0.4307,1.0327,1.5219,1.1993
1495,-0.77,0.2021,0.431,1.5212,1.2929,0.7413
1509,-0.7773,0.2143,0.4314,3.506,0.0715,-0.587
1522,-0.783,0.2295,0.441,2.7731,-0.3101,-0.5717
1561,-0.7502,0.2387,0.4209,1.4449,1.2166,1.2451
1574,-0.7507,0.2007,0.431,2.0708,1.5983,1.581
1588,-0.7678,0.2029,0.4419,0.025,1.7204,1.0008
1600,-0.793,0.2068,0.4493,1.4602,0.8807,0.3291
1614,-0.7769,0.2165,0.4324,0.8037,0.2547,-0.816
1627,-0.7607,0.2307,0.4231,0.3762,1.3235,0.5886
1667,-0.7886,0.2033,0.4495,0.0403,0.1784,1.8405
1679,-0.7666,0.1931,0.4336,-0.5704,-1.8521,-3.3198
1693,-0.7541,0.2351,0.429,-0.1582,-1.4704,-2.6175
1706,-0.7607,0.198,0.4082,2.1166,-0.8292,-2.8312
1719,-0.7922,0.2366,0.4285,-0.8147,0.1021,-1.5183
1732,-0.7766,0.2302,0.4307,-0.2498,-0.3559,0.0695
1772,-0.7622,0.1867,0.4302,-3.3795,-0.1269,-4.1137
1785,-0.759,0.2246,0.4324,-4.7994,0.6212,-4.3427
1797,-0.7756,0.1938,0.4322,-4.8147,1.4456,-2.8312
1810,-0.7959,0.2197,0.4446,0.6968,-1.2262,-0.9992
1824,-0.7756,0.2224,0.4339,-0.1887,-1.4399,-0.7396
1837,-0.7681,0.2099,0.4324,0.5594,-0.9514,0.039
1877,-0.7554,0.1994,0.4241,-2.0818,2.0105,1.3062
1890,-0.7629,0.2324,0.4368,-2.3872,2.8196,3.6268
1903,-0.7612,0.2048,0.4241,-1.807,2.6975,4.2222
1916,-0.8142,0.1609,0.4551,-1.8528,0.9418,1.5504
1929,-0.8157,0.209,0.441,0.5136,-1.5773,0.0848
1942,-0.7563,0.2143,0.4229,2.651,-2.4017,1.352
1982,-0.7776,0.2278,0.4393,-2.1429,1.4151,-1.3656
1995,-0.7827,0.2036,0.4285,-2.5704,0.438,-0.2664
2008,-0.7905,0.1907,0.4439,-0.9215,-0.5239,0.2222
2021,-0.7808,0.1721,0.4366,2.1472,-0.6613,-0.5106
2034,-0.7668,0.2053,0.4302,3.2922,-0.9361,-1.2893
2047,-0.7583,0.2334,0.427,2.3609,0.3158,-1.3045
2087,-0.7688,0.2209,0.4341,-2.4635,1.0486,-0.0831
2100,-0.7793,0.1865,0.4402,-2.3108,1.1708,0.039
2113,-0.7932,0.1863,0.4327,-0.891,-0.4017,-2.3274
2126,-0.7837,0.2263,0.4314,1.6128,-1.3178,-1.1518
2139,-0.7502,0.2107,0.4246,1.5212,-0.646,-0.6938
2152,-0.7563,0.2182,0.4239,1.338,-0.0506,-0.3427
2192,-0.7676,0.2029,0.428,-0.265,0.1937,0.7565
2205,-0.7722,0.2048,0.4278,0.8037,0.1021,1.8558
2217,-0.7783,0.2129,0.4371,1.4144,-0.0964,1.4436
2231,-0.7732,0.2187,0.44,1.0479,-0.6155,1.2909
2244,-0.7646,0.2082,0.4353,0.6663,-0.5239,1.5046
2257,-0.7742,0.2168,0.4297,-1.2421,-0.3559,0.7718
2297,-0.7649,0.218,0.4224,-5.1658,2.1021,0.2222
2310,-0.7727,0.2002,0.4378,-6.2345,1.7662,-1.4419
2323,-0.7844,0.2007,0.4414,-4.4788,1.186,-1.961
2336,-0.78,0.2114,0.4412,-1.7154,0.0563,-1.4877
2349,-0.7776,0.2085,0.4397,0.5747,-0.4933,-0.8007
2362,-0.7707,0.2046,0.4344,1.7197,-0.9208,-0.3732
2402,-0.7671,0.1977,0.4388,-0.1124,2.499,-0.5106
2415,-0.8052,0.2114,0.459,-0.1734,0.6364,-1.6404
2428,-0.7854,0.196,0.4458,0.8189,-1.1651,-1.3198
2441,-0.7566,0.2146,0.4329,-0.1124,-1.562,-1.7931
2454,-0.7461,0.2158,0.419,-1.8223,-0.4628,-0.7244
2467,-0.761,0.2038,0.4331,-3.0589,0.9265,-1.1366
2507,-0.779,0.1907,0.4454,-4.8605,1.0181,-1.3961
2520,-0.7817,0.2112,0.4383,-3.746,0.1021,-2.0221
2533,-0.7751,0.2038,0.4226,-1.4101,0.3616,-1.2129
2546,-0.7781,0.2068,0.4248,1.2311,-0.4323,0.4359
2559,-0.7654,0.2029,0.4224,2.6968,0.1021,2.2222
2572,-0.7571,0.196,0.4229,0.6357,1.0181,0.7871
2611,-0.7764,0.1855,0.4231,-1.5169,1.5067,-1.4877
2625,-0.8147,0.2163,0.4483,-1.3795,-0.5239,-0.8007
2637,-0.783,0.1958,0.4466,1.3075,-1.9895,1.5046
2650,-0.7456,0.2185,0.4143,0.3914,-1.0735,2.2375
2664,-0.7595,0.2082,0.4273,0.5594,0.4074,2.497
2677,-0.7844,0.1887,0.4405,1.338,0.5754,1.3214
2717,-0.7761,0.208,0.4307,0.1166,0.5448,0.1459
2730,-0.7886,0.2043,0.4395,0.1166,-0.4323,-1.6557
2743,-0.7756,0.2129,0.4275,1.3533,-0.9208,-0.5259
2756,-0.7549,0.2007,0.4212,2.025,-0.6307,0.3901
2769,-0.7581,0.1931,0.4339,0.5136,-0.0353,0.2222
2782,-0.7803,0.2143,0.4353,1.2311,-0.188,1.184
2822,-0.7568,0.1804,0.4327,-0.2192,-0.4628,-1.0908
2835,-0.7664,0.2065,0.4256,-1.2879,-0.1727,-2.1137
2848,-0.7717,0.2151,0.4319,-1.1963,-0.0353,0.3749
2861,-0.781,0.1958,0.4363,0.88,-0.6307,1.1382
2874,-0.7725,0.2112,0.4266,-0.2345,-0.6918,1.3367
2887,-0.7581,0.218,0.428,-0.7841,-0.1269,1.7336
2926,-0.7644,0.2016,0.4229,1.7044,-1.0124,1.3825
2940,-0.7581,0.1577,0.4341,1.7197,-1.0735,-1.961
2953,-0.7717,0.2219,0.4312,0.9869,-0.6918,-1.7931
2966,-0.7632,0.2212,0.4297,0.5136,-0.3865,0.3443
2979,-0.7573,0.2073,0.4383,-1.1047,0.1173,-0.1595
2992,-0.7749,0.2187,0.4363,-2.1124,0.4532,0.1611
3032,-0.7556,0.197,0.4248,1.3991,-0.3712,0.0543
3044,-0.7581,0.2073,0.4307,1.1548,0.1631,1.1382
3058,-0.7747,0.2109,0.4495,0.2082,0.0257,1.0008
3071,-0.7676,0.1748,0.4383,-2.4788,-0.646,-1.8236
3084,-0.7693,0.2134,0.4344,-5.3795,-0.6765,-4.3122
3097,-0.7764,0.2197,0.4324,-2.1734,-0.5239,-1.6251
3137,-0.7605,0.1992,0.4288,0.5136,0.728,3.8863
3150,-0.7722,0.1792,0.4485,-1.6696,1.0944,1.4588
3163,-0.7686,0.1584,0.4324,-1.8223,0.7433,-1.4419
3176,-0.7876,0.1968,0.4344,-0.6315,-0.4323,-3.9915
3189,-0.7739,0.2263,0.4393,1.3075,-1.272,-2.2816
3202,-0.761,0.2243,0.4151,-0.3872,-0.3865,-0.9992
3241,-0.769,0.1865,0.4371,1.9792,0.1479,-0.2969
3255,-0.7695,0.1919,0.4385,1.5365,-0.8903,-1.2893
3268,-0.7664,0.2148,0.4302,1.3991,-0.2643,-0.9839
3281,-0.7615,0.2141,0.4292,-0.494,0.3616,-0.5106
3294,-0.7659,0.2126,0.4353,-0.8299,0.7891,-0.1442
3306,-0.7659,0.2019,0.4341,-0.7994,1.0334,-0.0679
3347,-0.7844,0.2004,0.4373,3.964,-1.4552,1.5046
3360,-0.7534,0.208,0.4224,4.0403,-1.333,1.7489
3373,-0.7402,0.2031,0.4334,1.2006,-0.0659,0.8787
3386,-0.7563,0.2148,0.4341,-1.2421,1.3693,0.6497
3399,-0.7598,0.1975,0.4339,-2.7231,1.5677,-1.106
3412,-0.7881,0.1946,0.4444,-2.2803,0.9265,-2.0068
3452,-0.7629,0.2073,0.4234,-2.433,-1.1193,0.9398
3465,-0.7571,0.2051,0.4292,1.506,-0.417,0.4359
3478,-0.7668,0.208,0.4397,1.1395,-0.1575,-0.0679
3491,-0.7537,0.2026,0.4366,-0.4788,0.7738,-0.0068
3504,-0.7678,0.1994,0.4385,-1.6696,1.1708,0.2833
3517,-0.7859,0.1955,0.4402,0.2235,0.4838,0.6802
3557,-0.7537,0.2077,0.4339,1.4907,-0.3865,-0.4648
3570,-0.7661,0.2114,0.4346,1.4144,0.27,0.0543
3583,-0.7649,0.2033,0.4383,1.338,0.0715,0.8634
3596,-0.7734,0.1985,0.4378,1.4907,0.5906,0.6802
3609,-0.7776,0.1924,0.4375,-0.0818,0.2547,-0.2358
3622,-0.7778,0.2073,0.4356,0.8647,-0.4475,-0.3122
3662,-0.7646,0.216,0.4371,-0.5856,0.9876,-0.7091
3675,-0.7783,0.2073,0.4419,0.0556,0.5143,0.2069
3688,-0.7888,0.2051,0.4393,1.2311,-0.2033,1.0619
3701,-0.7817,0.1975,0.4436,2.6357,-0.875,2.3749
3714,-0.7673,0.1926,0.4329,1.6434,-0.8903,0.2222
3726,-0.7664,0.2077,0.4358,0.4067,-0.4017,0.2069
3766,-0.7554,0.2012,0.4302,-0.2498,0.5906,-0.1595
3779,-0.78,0.216,0.4463,0.4678,0.8349,0.7565
3793,-0.7798,0.1889,0.4488,0.3914,-0.0506,-0.1289
