time_ms,ax,ay,az,gx,gy,gz
12,-0.7524,0.217,0.4639,0.025,-0.0659,-1.3198
53,-0.7585,0.2134,0.4685,-0.1734,0.438,1.0161
66,-0.7551,0.2097,0.4673,0.4983,0.3158,1.0008
79,-0.7541,0.2148,0.4695,-0.2956,-0.417,0.1917
92,-0.7534,0.2156,0.4717,0.1624,-0.3559,-0.816
105,-0.749,0.2131,0.4644,-1.5627,-0.4323,-1.8083
118,-0.748,0.2112,0.4742,-0.494,-0.4475,-1.1824
157,-0.7544,0.208,0.4683,2.1014,0.1021,0.894
171,-0.7519,0.2158,0.4659,1.5823,0.2395,0.3443
184,-0.7519,0.2136,0.4688,1.109,-0.3101,-0.2205
197,-0.7524,0.2126,0.4703,0.6205,-0.3559,-0.5717
210,-0.748,0.206,0.4676,0.3151,-0.1575,-0.0221
222,-0.7493,0.2102,0.4668,0.4373,0.5143,0.4359
263,-0.7576,0.2185,0.4715,1.8418,-0.1575,0.3749
276,-0.7671,0.2192,0.4759,2.193,0.5601,0.0695
288,-0.5906,0.3835,0.3907,6.3151,-8.3254,2.1917
302,-0.7605,0.1992,0.4747,1.8113,-1.6231,2.2375
315,-0.7529,0.2195,0.4827,7.5976,-3.5773,1.6268
328,-0.7825,0.1953,0.552,-1.2116,-10.6307,-6.1595
368,-0.7126,0.3074,0.6092,-7.0589,-33.3941,18.894
381,-0.6926,0.3266,0.6246,-18.7231,-44.2033,21.1688
394,-0.71,0.3696,0.6321,-40.4024,-51.3941,21.1993
407,-0.6868,0.2822,0.6189,-72.1124,-56.9819,18.6497
420,-0.6477,0.2839,0.386,-95.7918,-51.3788,9.2451
433,-0.6111,0.2978,0.3763,-83.9444,-39.1956,5.81
474,-0.6306,0.2358,0.3702,-68.3108,-11.2109,24.726
487,-0.624,0.3398,0.262,-57.578,8.2242,28.894
500,-0.5549,0.3818,0.3577,-52.3719,28.0257,44.7718
513,-0.5654,0.2763,0.407,-55.6391,39.5067,52.1917
526,-0.6582,0.2073,0.4353,-56.3108,50.499,53.5199
539,-0.9407,-0.1795,0.6587,-57.9597,42.1326,29.5199
580,-0.6467,-0.085,0.618,-3.6238,-7.6842,-2.5564
593,-0.7153,-0.126,0.5779,-1.0284,-15.7605,-0.6786
606,-0.834,-0.032,0.5342,-24.1887,-5.043,1.5046
619,-0.8157,0.0969,0.4353,75.0327,-22.9514,3.9474
633,-0.7866,-0.6768,1.0955,42.88,-30.7376,-25.2435
645,-1.1201,0.5566,0.6539,79.109,-34.8292,-38.6022
686,-1.2715,-0.0476,0.4766,19.6128,15.7204,-27.3045
699,-0.7473,0.531,0.5921,54.88,8.1784,-21.2587
712,-0.9849,0.2561,-0.6679,4.5747,35.0181,-23.4725
725,-0.6294,0.7471,0.1497,-13.0131,38.2395,-28.0373
738,-1.0105,0.344,-0.0705,-28.265,71.4609,16.2375
751,-0.7778,0.0903,-0.396,-92.7689,110.988,43.8863
792,-0.9087,-0.0652,1.0445,-23.0131,24.896,31.8558
805,-0.5818,0.3608,0.3592,-19.8376,27.354,44.5123
818,-0.5178,0.292,0.2227,-0.6925,28.7586,55.3214
831,-1.1787,-0.1316,0.6329,-97.5017,33.1708,33.5657
844,-0.6191,-0.2835,0.8968,-30.6162,6.1479,8.7107
857,-0.9416,-0.751,1.0479,-42.9063,9.2013,-20.3122
898,-0.947,-0.9458,0.1978,58.3304,-10.4323,-41.8847
911,-0.9031,0.3515,0.5769,114.468,-19.4094,-30.4343
923,-0.5151,-0.094,0.3028,-32.7689,-12.7682,-63.7625
937,-0.8123,0.5444,0.48,85.109,-11.6689,-11.9763
949,-0.7114,1.011,0.2295,98.7884,-12.9972,1.81
962,-0.5178,0.7856,0.2952,72.1777,-1.73,15.4283
1002,-0.7717,0.2932,0.44,-28.3261,-3.272,-27.6557
1016,-0.759,0.2219,0.4451,-27.5475,-4.4323,-30.2664
1028,-0.7546,0.2053,0.4458,-22.3261,-4.2338,-24.2969
1041,-0.761,0.1863,0.4537,-7.0589,-1.9285,-10.7091
1054,-0.7493,0.1926,0.4507,1.7044,-1.7911,2.4207
1067,-0.7473,0.2104,0.4507,7.7655,-1.7147,10.3291
1107,-0.7463,0.2427,0.4534,13.8418,0.0563,10.0543
1120,-0.7571,0.249,0.4588,10.88,-0.0353,1.7947
1133,-0.7473,0.2544,0.4532,0.4525,-1.959,-5.7473
1146,-0.7539,0.2441,0.4549,-4.2345,-1.5468,-7.8694
1159,-0.7551,0.2246,0.4588,-7.1963,-0.9819,-6.3885
1172,-0.7519,0.2136,0.4539,-4.7536,-1.3941,-2.4954
1212,-0.7573,0.2387,0.4522,3.5212,1.0486,4.6497
1225,-0.7595,0.2458,0.459,1.4144,1.2776,2.1917
1238,-0.7602,0.2505,0.4495,-1.7002,0.8807,-1.3045
1251,-0.7551,0.2412,0.4444,-6.7383,-1.0124,-4.587
1264,-0.7559,0.2226,0.4507,-6.0208,-2.3712,-4.5564
1277,-0.7559,0.2016,0.4522,0.1472,-3.0124,-2.0221
1317,-0.7585,0.2419,0.4573,3.0937,-0.1575,-1.2893
1330,-0.7522,0.2368,0.4602,-1.349,-0.5239,-4.6175
1343,-0.7549,0.2278,0.4607,-1.7002,-1.1956,-5.2587
1356,-0.7507,0.2236,0.4605,-3.975,-1.2262,-3.8694
1369,-0.7517,0.2175,0.4595,-3.1963,-1.9285,-1.5641
1382,-0.7515,0.2129,0.4659,4.5594,-1.959,1.6115
1421,-0.749,0.2436,0.4668,0.6663,1.3998,0.6497
1434,-0.7551,0.2353,0.4546,-1.807,1.7051,0.039
1447,-0.7527,0.2263,0.4546,-3.5933,1.4609,0.2222
1461,-0.7549,0.2317,0.4602,-1.1505,1.1708,-0.2511
1474,-0.751,0.2256,0.449,-3.1963,0.4227,-1.5488
1487,-0.7556,0.2248,0.4512,-0.1582,0.27,-1.5641
1527,-0.7595,0.2178,0.4576,-1.5322,-1.1193,-1.732
1539,-0.7537,0.2202,0.4517,-0.7231,-0.7224,-0.3885
1553,-0.7585,0.229,0.4534,-1.746,-0.188,0.0848
1565,-0.7527,0.2253,0.4549,0.193,0.2395,-0.587
1579,-0.7659,0.2378,0.4634,0.0098,0.5906,-1.6557
1592,-0.7466,0.2339,0.4617,-1.1658,0.4227,-3.1671
1632,-0.7512,0.2334,0.45,2.7121,-0.9361,-6.4343
1645,-0.7612,0.2361,0.4576,0.6357,-1.2567,-10.0373
1658,-0.7556,0.2319,0.4537,-6.2956,-2.2796,-10.4801
1671,-0.7571,0.2168,0.4615,-8.6925,-1.1498,-8.2664
1684,-0.7578,0.2046,0.4593,-5.6238,-0.875,-2.2358
1696,-0.7581,0.1709,0.4556,4.4067,-1.2414,2.5733
1737,-0.7578,0.2346,0.4622,3.964,-0.2033,-0.3732
1750,-0.7556,0.2261,0.4568,-1.3795,0.1021,-2.6786
1763,-0.7495,0.2185,0.4671,-5.1963,0.3616,-3.0144
1776,-0.7544,0.2029,0.4551,-4.0971,0.4532,-1.8389
1789,-0.7532,0.2109,0.4644,1.109,0.4532,-0.5412
1802,-0.7551,0.2082,0.4602,4.3914,0.5754,0.4817
1841,-0.7544,0.2185,0.4595,2.651,1.4761,0.497
1855,-0.7576,0.2243,0.4515,-1.5322,1.6288,0.3596
1868,-0.76,0.2241,0.4563,-4.4635,0.7891,-0.419
1880,-0.7559,0.2173,0.4458,0.1777,-0.0811,-0.587
1894,-0.7578,0.2165,0.4544,1.3685,-0.7376,-1.1671
1907,-0.7563,0.2258,0.4546,0.3609,-0.4475,-1.8236
1947,-0.7522,0.2283,0.4571,-3.3185,0.0257,-2.7091
1960,-0.7559,0.2263,0.4612,-6.3261,0.5601,-2.0068
1973,-0.7559,0.2202,0.458,-9.1963,0.1173,-2.7244
1986,-0.7539,0.2082,0.4573,-8.5093,0.2242,-2.1442
1999,-0.7607,0.2024,0.4578,-1.4711,0.2547,-0.19
2012,-0.7541,0.2202,0.458,-1.0131,-0.3254,-0.0831
2052,-0.7556,0.2207,0.4571,-0.5551,-1.2262,-3.6862
2064,-0.7573,0.208,0.4512,-0.9673,-1.2567,-3.1518
2078,-0.7563,0.2041,0.4612,-0.891,-0.3559,-1.0297
2090,-0.7559,0.2116,0.4588,1.1853,-0.4017,0.6649
2104,-0.7566,0.2077,0.4551,4.7426,-0.6307,1.1535
2117,-0.7546,0.2134,0.462,5.4449,0.1173,1.0008
2157,-0.7529,0.2156,0.459,0.1777,0.4227,-1.4419
2170,-0.7571,0.2168,0.4637,-0.6162,0.3311,-1.8999
2183,-0.7576,0.2082,0.4566,-0.4482,1.2624,-0.4954
2196,-0.7522,0.2097,0.4568,-3.4864,1.1555,1.123
2209,-0.7622,0.2046,0.4637,-2.2192,0.8196,1.4894
2222,-0.7563,0.2114,0.4559,5.9029,0.2395,2.7718
2262,-0.7573,0.2285,0.4537,2.3304,0.4532,-0.4954
2275,-0.759,0.2175,0.4559,-1.4864,1.0944,-1.0144
2288,-0.7585,0.2226,0.4573,-2.204,0.8807,-0.1137
2301,-0.7544,0.2187,0.4476,-3.7918,-0.1422,-0.0984
2314,-0.7573,0.2063,0.4522,1.1853,-0.7376,1.3825
2327,-0.7593,0.2033,0.4573,11.0174,-0.6765,3.5657
2367,-0.7529,0.2331,0.4478,2.4678,-0.0964,-0.5564
2379,-0.7627,0.2121,0.4585,5.2617,-0.6918,-0.8465
2392,-0.7568,0.1965,0.45,18.4983,0.1479,-0.0984
2406,-0.748,0.2197,0.4578,13.7655,0.4074,2.0695
2419,-0.7622,0.2439,0.4783,7.8266,1.2776,4.4665
2432,-0.7556,0.2146,0.4507,10.2235,1.3387,4.8634
2472,-0.7507,0.2429,0.4585,1.796,-0.6613,-1.3809
2485,-0.7554,0.23,0.4539,-7.2269,-0.1422,-3.0908
2498,-0.7571,0.2207,0.451,-3.3795,0.27,-0.9076
2510,-0.7571,0.2148,0.4515,4.025,0.7738,2.4665
2524,-0.7559,0.2331,0.4468,5.9182,0.9876,3.6268
2537,-0.7541,0.2392,0.4517,3.5976,0.6212,1.0924
2577,-0.7541,0.229,0.4534,-3.3032,-1.0888,-3.8847
2590,-0.7588,0.2209,0.4512,-1.12,-0.9056,-1.2129
2603,-0.7532,0.2187,0.4495,0.5747,-0.0506,1.5199
2616,-0.7573,0.2309,0.4505,1.0632,0.3158,1.9932
2629,-0.7537,0.2407,0.4537,-0.0971,0.1326,0.7871
2642,-0.7556,0.2397,0.4534,-3.8223,0.0868,-0.9992
2682,-0.7539,0.2204,0.4571,-3.5169,-0.4781,-0.587
2695,-0.7544,0.2168,0.4544,0.5594,-0.0811,1.5352
2708,-0.7607,0.2219,0.4524,5.0632,0.4074,2.3291
2721,-0.7554,0.2385,0.4524,0.5899,0.7128,0.3749
2734,-0.7598,0.2287,0.46,-1.1353,0.4227,-1.6557
2747,-0.7539,0.229,0.4561,-3.6544,-0.0659,-2.0221
2787,-0.7539,0.2124,0.4519,-2.2192,0.0257,0.0848
2799,-0.7566,0.2234,0.4546,0.1014,0.1479,1.184
2813,-0.7585,0.2287,0.4546,-0.5398,-0.0353,-0.0068
2826,-0.7624,0.219,0.4532,6.9411,-0.0811,-0.2205
2839,-0.7495,0.2248,0.4537,8.6052,-0.2033,-1.1976
2852,-0.7554,0.2392,0.4566,1.4449,0.8196,-3.2282
2892,-0.7576,0.2207,0.4588,-6.0055,0.499,1.4894
2905,-0.759,0.2109,0.4505,-3.5933,0.7586,3.5199
2918,-0.7581,0.2173,0.4588,0.3151,0.8654,3.7795
2931,-0.7549,0.2339,0.451,-0.3719,0.5906,2.0543
2944,-0.7568,0.227,0.45,-3.746,0.0257,-0.8923
2957,-0.7566,0.2322,0.4541,-5.1505,-0.0811,-2.0526
2997,-0.759,0.2204,0.458,-1.9292,-0.417,2.0543
3010,-0.7541,0.2163,0.4556,-0.1734,-0.0811,2.726
3023,-0.7546,0.2263,0.4517,1.4296,0.2089,2.2985
3036,-0.7566,0.2317,0.4519,-0.8452,0.5296,0.955
3049,-0.7585,0.2209,0.45,2.5899,0.0715,0.039
3062,-0.7534,0.2239,0.4512,3.6586,-0.1117,-0.9686
3101,-0.7539,0.2153,0.4593,0.254,-0.2185,-0.0221
3114,-0.7549,0.2248,0.4559,-0.7994,-0.2796,0.268
3128,-0.7546,0.2229,0.4544,2.3456,0.3311,0.4359
3141,-0.7583,0.2221,0.4549,6.88,-0.0201,0.4665
3154,-0.7568,0.2287,0.4534,5.796,-0.0811,0.3443
3166,-0.7566,0.2121,0.4578,3.0174,0.3616,0.7413
3207,-0.761,0.217,0.4539,8.6357,0.438,5.5962
3219,-0.7519,0.2427,0.448,6.6052,0.1479,4.6955
3233,-0.7539,0.2409,0.4522,1.9945,-0.1269,1.8863
3246,-0.7549,0.2275,0.4529,0.2846,0.0105,-0.0068
3259,-0.7571,0.2324,0.4546,-0.9521,-0.7529,-2.3427
3272,-0.7593,0.2265,0.4539,-0.1429,-0.6613,-2.9686
3312,-0.7544,0.2256,0.4529,-0.5551,0.5754,1.5504
3324,-0.7551,0.2324,0.4563,2.7273,0.27,0.9398
3338,-0.7593,0.2331,0.4571,1.567,-0.2949,-0.4038
3351,-0.7541,0.2322,0.4529,-0.0055,-0.4475,-1.1518
3364,-0.7571,0.2292,0.4595,-1.2421,-0.6613,-1.2282
3377,-0.7588,0.2273,0.4549,0.4983,-0.0048,0.3291
3417,-0.7561,0.229,0.4524,-2.891,0.3922,-0.4343
3430,-0.7554,0.2285,0.4522,-0.0971,-0.3254,-0.4801
3443,-0.7554,0.2295,0.4527,-1.0131,-0.1727,-0.4038
3456,-0.7571,0.2265,0.4551,-1.2116,-0.1117,-0.6786
3469,-0.7605,0.2246,0.4568,-1.1505,-0.1269,-1.0602
3481,-0.7563,0.2297,0.4571,-1.6696,0.1784,-0.5106
3522,-0.7522,0.22,0.4534,2.3304,-0.3865,0.1611
3535,-0.7566,0.2356,0.4576,1.0174,0.1479,-0.1442
3548,-0.7532,0.2361,0.4512,-1.6238,-0.1269,-1.1671
3561,-0.75,0.2263,0.4568,-3.9597,-0.2949,-1.6862
3574,-0.7534,0.2207,0.4598,-1.4101,0.8654,-0.7549
3587,-0.7588,0.2229,0.4561,-0.1582,0.957,0.9245
3627,-0.7583,0.2187,0.4495,2.2693,0.5601,0.8787
3640,-0.7571,0.2378,0.4578,2.3456,-0.0659,0.2833
3653,-0.7541,0.2258,0.4563,-1.746,-0.0659,-1.3198
3666,-0.7578,0.2285,0.4561,-2.1124,0.3769,-1.4419
3679,-0.76,0.2234,0.4551,-1.1963,0.6364,-0.7702
3692,-0.7561,0.2275,0.4541,-1.8528,0.0868,-0.4038
3732,-0.7515,0.229,0.4629,-0.1887,-0.2643,0.726
3745,-0.7522,0.2239,0.4507,-1.3643,-0.5086,1.1077
3758,-0.7512,0.2219,0.4654,-1.5322,-0.814,1.0466
3771,-0.7522,0.2295,0.4549,3.0327,0.2242,0.6344
3784,-0.7554,0.2405,0.4571,-0.4788,0.5448,-1.1976
3797,-0.7554,0.22,0.4568,-0.8757,0.0105,-2.7244
3837,-0.7537,0.2217,0.4561,-1.1353,-0.2185,-0.2969
3850,-0.7559,0.2256,0.4554,-1.2727,-0.1269,0.4817
3863,-0.7549,0.2192,0.448,-0.204,-0.188,1.6268
3876,-0.7546,0.2214,0.4556,3.3227,0.0105,2.9092
3889,-0.7622,0.23,0.4517,1.6128,0.6212,1.8405
3902,-0.7554,0.2304,0.451,-0.1124,0.3616,-0.6938
3942,-0.7534,0.2322,0.461,-1.1505,-0.6002,-0.4648
