time_ms,ax,ay,az,gx,gy,gz
0,-0.4310625806783391,0.5797601281212078,0.7068221592401063,0.3412833291840852,1.2609641046555462,0.6519071480286885
10,-0.4134374414031408,0.601045882386838,0.7297956785039552,-0.8132097373803472,0.14210455799001992,0.06983902444226076
20,-0.4280200066818662,0.5843094052457403,0.7158281351103324,-0.38195304167273414,0.5002706028133399,-0.049609683547960914
30,-0.4448656967269485,0.5629514720679667,0.6929012786780507,-1.2951583341888233,-0.765214136466776,-1.1999690332272706
40,-0.4441895119615796,0.5654559405627125,0.6972676791369744,-0.5268901811487247,-0.31699440904157017,-0.22686036977354507
50,-0.4374285036998925,0.573159586429672,0.6990817255558748,-1.3126481019172214,-0.9216785704116495,-0.6966218472988965
60,-0.4353241637891825,0.5759846572138,0.7021370241427174,-0.25946745075943267,0.7129829154581289,0.6120916489723026
70,-0.4383238185328972,0.5717466074065185,0.7038036213600606,-2.9628197922219597,-2.0691173601589945,-2.7555842937166117
80,-0.4512688927639717,0.5554972405012789,0.6901892010586179,-3.4226682887554345,-2.8901426153086134,-3.163042659024956
90,-0.4183547804470373,0.5884832503807081,0.725798188898799,0.08497454213689382,0.47440570006969013,0.8019355183396637
100,-0.45246365540992034,0.557200156334226,0.6930610851354349,-0.4199461411109827,0.014613516374921698,0.3005759609390639
110,-0.4312421652872359,0.5809822635931402,0.7139851029951144,1.739340430358969,2.3163170354908384,2.1601544162825315
120,-0.4515250622971832,0.5604902276303659,0.6924450794076096,-1.0099188581265575,-1.0512638210960592,-1.2888167254466392
130,-0.4334001839418869,0.5731454042988924,0.7046285914641187,1.8941335321410842,0.9408359265167798,0.5319496559761732
140,-0.45659304584880495,0.5553231870808868,0.6896102257107768,0.12674710220226793,-1.0623586531945497,-1.1540842407239102
150,-0.44549427477441284,0.5686504164757322,0.7077588070554273,-1.240237386941858,-1.4929718814530704,-1.9293054503007132
160,-0.4547548390012048,0.5622046171412711,0.69736058935708,-5.862250265633964,-1.5119389511403047,-0.4895824099328685
170,-0.4856218764782433,0.5460080720725461,0.6878007883637578,-13.363928374673785,-5.399574610227257,-1.6979281837420548
180,-0.5366506869874135,0.5048090097485962,0.7768406638159492,15.871619043033327,-44.209219709642895,7.710018044882592
190,-0.4325034477681845,0.4734663890341827,0.752837937156068,21.816404132209307,-49.46978868417814,8.37286756813998
200,-0.3701361618319501,0.4954312432034156,0.6606543350968813,26.136500290053736,-47.124528476455765,7.721505422853198
210,-0.3652752640507789,0.527639834262152,0.6692397373351282,28.159511193229605,-40.254833970367955,5.601950717457377
220,-0.33917764413453977,0.5695435172819044,0.70210946285151,24.38501328428373,-34.385581604824374,0.7758496437304407
230,-0.3495104594201115,0.5917793925748697,0.6879179053704871,15.274416072679486,-21.16588930702434,-8.952699419184777
240,-0.35461353571617765,0.6410979655559053,0.7313038758137714,4.715176601916565,-7.544958973470526,-15.347095422700354
250,-0.3735068205128438,0.6172247321098696,0.7444195619330869,-1.9560993103802746,-7.071946980380287,-16.84506768047524
260,-0.4133832661501507,0.5673512714028142,0.6966400262617652,-2.2796584774696385,0.08677774629479673,-14.276321616504
270,-0.3921011141928344,0.5802559341210672,0.7272671177815486,-6.914027573426701,2.332705546860513,-17.470949656416373
280,-0.41691041702242976,0.5812811016300247,0.7174991733791745,-13.545476572449711,1.4758976106218618,-21.603446881843414
290,-0.45425800638008046,0.5444757810377425,0.7298128587762227,-18.634993539019113,2.09625697602017,-18.188375512622045
300,-0.46881883624196447,0.5214508189190122,0.7256549466322733,-12.537321750006825,6.928888011889843,-10.557441146942018
310,-0.4780139790310217,0.5235689039780881,0.71083029673972,-7.781960911328897,3.9133169889708697,-9.629154939880607
320,-0.4050261703704536,0.5773598190220777,0.7626696560556872,-9.201625928234163,-0.9417075536405517,-10.725105653956874
330,-0.4312287556379239,0.5127925147573162,0.743211969283858,-7.8783125851168485,-0.4747755721010547,-9.17493324556901
340,-0.3890460740639261,0.5379330964638338,0.7722892106732135,-6.5955129687285465,-0.7936200758027703,-10.191600777976445
350,-0.4186572676775241,0.5183198644196598,0.7223756463312415,-0.08658001010699956,-4.5680641003083515,-13.902525579244887
360,-0.4054737181683209,0.5648853412594588,0.7398879557288593,0.2861637142490284,-2.1988162869369927,-11.040836953275116
370,-0.39771743570810286,0.5666079154047353,0.7536596850765815,0.7215605971237751,1.3020028671101604,-6.052721932460141
380,-0.4098136177195451,0.5502769575195511,0.7323153133705599,-2.2648036377293903,-0.647487759681634,-7.095336588106376
390,-0.4059690433311543,0.5301810629677105,0.7564126424654286,-3.0203080740395856,-0.16408595208126298,-6.578090001370333
400,-0.4024917811213984,0.5378817155958437,0.764525139988868,-2.108171687559822,-0.19281950174269813,-2.702986394323462
410,-0.4281376249274068,0.5366280328638543,0.7811616461327336,-5.542550604132051,-6.9944173970307055,-2.2230457399998325
420,-0.4610529125189471,0.5341555047282204,0.7529130843178559,-11.250522819929401,-7.480805715858349,0.5146789899458954
430,-0.46459012792434745,0.4869065596047505,0.7750197917322162,-16.48157717026648,-8.370635011974779,0.15862409433605462
440,-0.49428179938460337,0.4544517354031743,0.7535342980332681,-19.001823133764038,-6.06093866621536,1.1829546172636924
450,-0.45855410485262554,0.5176485731709902,0.7012086751926015,-13.658380394711784,-6.758252856860829,2.0129435653473666
460,-0.3459875085750705,0.5945030278065041,1.0654840494246085,-11.679269052351186,8.025225540741994,16.745747156826486
470,-0.5797050904789359,0.3742271609630693,0.5002798145769356,-31.81600294525584,8.289264333216886,8.42238442680358
480,-0.40589169628755023,0.35872118902563965,0.7576017843038914,-19.459836817664716,13.445738293550392,13.136909483960926
490,-0.22596429054831985,0.28727818413423284,0.9929993942419546,-4.836494210136648,13.018118290960123,0.08504056424561579
500,-0.4432912819099271,0.508357901949809,0.5996994880946419,13.345993564521565,31.882074854656235,15.388561972702938
510,-0.3852609186408358,0.3246262347140397,0.8903958105639248,-1.8661294292091721,27.846037818140335,10.277757368457985
520,-0.3260862753289845,0.49230556507503,0.9175132836235055,16.65204401432278,16.489018380999333,0.16737557769387612
530,-0.418286367126275,0.4892043439313192,0.6866505352517716,21.95908988231347,26.493179521302643,-0.6908850992799738
540,-0.40132166247992324,0.595032938540412,0.8058069791087021,31.040399318630836,17.51203702384396,-9.61773045088968
550,-0.382369779240263,0.6064593091731877,0.7975736182044395,23.086731193874634,15.44683913663875,-10.060092650928237
560,-0.387053621240904,0.579434968116664,0.641096452010636,19.224083852229345,13.566925326892207,-9.761673367629935
570,-0.392209717638403,0.6615465028555616,0.68774938928991,17.394060302054136,5.292115266364996,-4.019669587922147
580,-0.4445550440948919,0.6446709981134829,0.7085461113563082,11.146184908334007,1.9289063894971985,-0.4236679050615101
590,-0.45577840770029915,0.5372884861200473,0.6851487164037281,3.2405861950793065,1.9957732458760338,-3.2098935262367276
600,-0.4269144811589844,0.5977266707436143,0.7318343178550455,4.117688992034627,1.386076596740444,-5.005950690735729
610,-0.43521069627326614,0.5549997832952295,0.7155455479183516,1.092653783636178,0.12375544250234677,-0.027703552515932983
620,-0.42972959525822785,0.5372742419249642,0.7161382432765779,-0.1656992994180051,0.1627711739024399,2.643877244529887
630,-0.43337929143697906,0.5351146627783512,0.7150961847444641,-1.0868018141144686,-0.756922983667973,0.21776876041338794
640,-0.45900590660424273,0.5137246796653006,0.6891076820625969,-3.2333811156784393,-1.642208292035393,-1.5877149187728994
650,-0.43092609735098714,0.53325729255844,0.7110961487742808,-1.4371911459302298,1.498967048248559,0.26558443405872434
660,-0.46176856795637844,0.5041991343331459,0.6822592688586816,-1.8727852527583153,0.6059113600118912,-0.994614709982075
670,-0.437868676773712,0.5269676200604978,0.704590743437258,-4.10215449006918,-3.0931126288667423,-4.285296369460159
680,-0.44213714715313784,0.5259962723996877,0.7017451290626207,2.212044100726856,3.0461848070311093,2.155968046608462
690,-0.41863035387817293,0.5461743547152274,0.7232903763153129,-4.127427891898346,-2.5563651654761124,-3.153721282428642
700,-0.46250300977326503,0.4993437065175349,0.682134855075418,-0.8104932393317258,-0.2795246594261025,-0.8055293500097052
710,-0.4291548933385047,0.5356143533117,0.7165962885614795,0.869973485927253,0.7569615860642169,0.11227634066972891
720,-0.4316142613507858,0.5316226186802906,0.7119292538117644,2.6521265163582513,2.4375935835168674,2.0078108387339313
730,-0.4547485432703194,0.5097996403214053,0.6919743075369331,0.15264273517832483,-0.2973975358492371,-0.7431499683491481
740,-0.4285941676377574,0.5375657627917175,0.718020112385025,0.7130981124519002,1.3670190344223623,0.6967193423955277
750,-0.441252878817625,0.5240597509995226,0.7050993854381645,-3.592720975465017,-1.457506295106127,-2.450020492318594
760,-0.41937691993557585,0.5466911611736405,0.7269137989207022,-1.04910366668144,1.54262976972207,0.679105338712082
770,-0.42433932944291164,0.5364689900251306,0.721838279393364,-1.4661849193692147,1.4288062387481038,1.038340419220136
780,-0.43991922675371314,0.5198011756569906,0.7006254036730488,0.3899391721271803,2.003252629515447,1.764105554369071
790,-0.4602241038299236,0.49768237335558607,0.6808960556495915,0.8538794553543496,0.4779551469720898,0.39723591077462284
800,-0.4365798272242205,0.5287248592003052,0.7124044037235432,-0.38822867591082144,-0.06571954974821871,0.013069372695576703
810,-0.43573735088776816,0.5294383034344603,0.7078130697581065,0.04351187820273453,0.0527187561259678,0.3549738836386284
820,-0.4544473028980985,0.5056399228291639,0.6938195721807032,-3.2144039761237595,-2.645280751452688,-3.037306267860661
830,-0.4602907522140472,0.5080966146878879,0.6886910230053266,-2.1289938549312555,-1.1543499087182787,-1.2864348481706196
840,-0.42758444196532497,0.5336180992170992,0.7209314787608513,-0.8637687296716625,-0.07871805331493925,0.10437576406547559
850,-0.44279352612106165,0.516103188044314,0.7013495901762414,-2.0409028607033424,-1.089382911846494,-0.6849829228387755
860,-0.431597920801006,0.5321159212663057,0.7159533201790661,-0.14450625291901664,-0.4963652271925718,-1.1552155549129715
870,-0.49148199477256793,0.469155374681403,0.655228748146852,0.089032785388516,0.6501588690110096,-0.4659463776141319
880,-0.4112945015258026,0.5512149378956678,0.7330169061108955,0.4220887962609434,2.2419229647609513,1.7253318911837385
890,-0.4172228069281114,0.5441664060761153,0.7282810656826066,-4.551930962142288,-2.182183146197278,-2.4931002370393047
900,-0.44731846112820445,0.5097075940675182,0.6969979617447277,-1.53866881234786,-0.18100864950551748,-0.12907176427631162
910,-0.438296690679754,0.5224705453385994,0.7101948061338094,-1.7693345944694046,-1.6219724373495532,-1.5365939775048196
920,-0.43513025269334094,0.5278549882514089,0.7107316215861863,-1.0994065139610059,-0.24349081389483812,-0.12145932931921855
930,-0.44371710898009087,0.5158080732249508,0.7010099720626899,-1.342426607481067,0.5268465643598756,0.2850861793002194
940,-0.44603994166315547,0.5133388787491235,0.7002619843451588,-2.593483298619534,-0.5409958119360863,-0.8038105565396536
950,-0.43947004843337373,0.5203939699688312,0.7073925684778994,-3.59414784033003,-1.9821732450727148,-2.5963794904349076
960,-0.4497645835935571,0.5069610803032455,0.6963943784171106,-0.7928421956947769,-0.38105078894428435,-0.2882563003025973
970,-0.43225275070820074,0.5267802790530622,0.7148304009139292,-3.284862854375234,-1.328717935479593,-1.0533301787630427
980,-0.4646358122058937,0.49836332082465856,0.681716689616717,-2.4168176016741842,-0.7748780468282968,-1.201118295546261
