time_ms,ax,ay,az,gx,gy,gz
0,-0.49512025237761736,0.970616310750082,0.7492173819170399,2.720629445110486,1.557463995293039,2.6035850381226417
10,-0.48047086240628484,0.9939912186184575,0.7692893704927408,2.907111330926492,1.7615703087445487,2.062573677151917
20,-0.4871658364674822,0.9887720784709203,0.7572953008161485,0.8018299287369027,0.15514330963816403,0.9124563768548418
30,-0.5077530281453986,0.9697654595086371,0.7421228065459063,1.0160182043822756,0.5794815952591755,1.5589316741519368
40,-0.4760793087133045,0.9973583495832626,0.7698139201396239,2.407569605202976,2.562815528354736,2.980856045689873
50,-0.4898493621288752,0.9807274065861475,0.7571994076182653,1.2037627823998,1.3540736402327498,1.2631011908914955
60,-0.5052984235938354,0.9738593543261719,0.7420106813189393,0.6200027179674413,0.7556474151426891,0.6171087038333557
70,-0.4991484320851505,0.9790801164575372,0.7455166832670796,-0.9043474204428668,-0.7619052696557127,-0.607324070291366
80,-0.5025653692711362,0.9714832179507324,0.7450475763225413,-0.2399706354758951,-0.5047269104547285,-0.4198716490576833
90,-0.4947761966121413,0.9769261513220858,0.7524421317369242,1.247868705486451,1.07295410961011,1.1001216028551917
100,-0.5103747256348056,0.9668361551200421,0.736540479032348,1.7367837249241647,1.6865231217053194,1.269734441510972
110,-0.5008472839299243,0.9767990285156828,0.7401403951957949,-0.9299232897935872,-0.5055968356305593,-1.8356842581465092
120,-0.4867789103125038,0.9907520959039399,0.7604732213570361,1.927995415115143,2.0648009304934765,1.5167793278895025
130,-0.49033456158906097,0.9796969861748352,0.7527853405668578,0.7493338310036467,0.6125036921423787,0.5003763715940546
140,-0.5134797796283586,0.9562287106603762,0.7286017925673802,-1.5031236962795194,-0.9386755150612351,-2.3674169331256527
150,-0.5113258205315184,0.9640056392631399,0.7353257201288048,-0.32590065945821434,1.2504412097177362,-1.8171952993878069
160,-0.5168539613544478,0.9546888442849564,0.7301828571896956,0.42581530889120156,1.2528610870610106,-0.3999157414910677
170,-0.49624855093199394,0.9759110053997019,0.7524493249797053,-3.0370350018866628,-3.4964231732150477,-2.767193745631457
180,-0.5268908313603375,0.9647925536761555,0.7290789672501639,-1.6043758510253898,-2.3012483209522507,-0.8584978679365789
190,-0.49390163047287633,1.0678680460698662,0.6820920463404433,6.829461593749641,5.840747253349093,13.998203245338232
200,-0.4226576582921996,1.22377132035855,0.6790091617881899,3.952761006057302,17.144079204120942,44.55459851431675
210,-0.559962008090937,1.0949243968511697,0.882283759510068,7.632838539778761,3.12222678131316,54.226454928781564
220,-0.6325006492182451,0.9234612287048307,1.0761211239509272,23.758406612619176,-35.55963881766414,57.79889033737224
230,-0.47256551180492384,0.8359110560432271,0.999323981075312,2.2337027523819666,-73.21582007542938,52.311208182504735
240,-0.27874202169453155,0.7109282336411616,0.7636463458042984,-9.04054145531872,-85.95724863284488,27.992025146734996
250,-0.31328350054072673,1.0868875362437476,0.6886920097915747,-4.35913426978226,-42.547334187594544,-44.32667003289651
260,-0.701568240386866,1.3629419510103686,0.38786040914487524,-62.960820895052485,-31.34877346034827,-40.74972100236561
270,-0.6078445183127181,1.2226484517338585,0.5374015628515454,-72.69542011550575,-31.844859313117844,-22.41407601160361
280,-0.8098338568011272,1.0632100575003787,0.559267842420193,-110.40742051686996,-24.185223697780494,-38.395598343108176
290,-0.5937900206941819,1.5588441974426392,-0.23587576996046597,-87.29640239325249,7.255096429082844,21.943512008739496
300,-0.2917108224416304,1.5767100222628725,-0.44324788801034865,-16.731900428675996,43.862919917378534,73.11207009392491
310,-0.37463217757424505,0.6572587988643734,1.0654999352055992,50.683272707728,68.58196869031956,47.51430690562188
320,-0.6107704759013064,0.46333976202342775,0.7435603505274637,75.27274269757197,58.90048557813574,6.985918757873761
330,-0.2806912223204455,0.783412195806413,1.2247741248182595,93.00049459216986,40.664430685305206,-8.731039960573817
340,-0.1725315541732618,1.2282597302630591,1.0415550484444691,107.35071646185206,28.079463805213578,-24.74413533076319
350,-0.45493024449863945,0.9169991466747979,0.7751167726913303,61.691572075562156,-1.4695436354786156,-65.78671686702243
360,-0.4154185421872838,1.2916656289079866,0.6716601148596839,65.25105274773426,-24.982576508263456,-66.23390718378438
370,-0.4412907688909571,1.5998148352026031,0.5615858688313812,23.205225109200786,-14.15484073742601,-33.7043565739729
380,-0.5130942725305945,1.1140169709437082,0.6852094018616316,3.513397143107913,-0.7801907164178585,-15.316042122326042
390,-0.4673415152796404,1.009334162380664,0.7940781567454746,-12.01667095072916,-4.306860308041634,-19.55667616760556
400,-0.4772806089245488,0.9668398752406601,0.7779616522670961,-8.878863812408294,-1.878618754966538,-10.677593569897654
410,-0.5137011244738272,0.929717216624643,0.7473894979291226,-5.046627884001889,-2.8458781436717695,-3.091730961186685
420,-0.5016635495603531,0.9485635514922034,0.7570518350821258,-2.0854488018427633,-0.9077456646564863,3.9607611937646086
430,-0.4872014474421682,0.9470805948553511,0.795009773924939,-6.422901779427117,-2.86225295611841,-3.6035910370163267
440,-0.516433330510629,0.9127287653008219,0.740976699271162,-7.1635791772198765,-3.381863449988769,-3.8037972583040225
450,-0.4868911538812833,0.9529066157794462,0.7798469214621401,-2.635671310348584,-1.0157918589599486,-2.1668768121264623
460,-0.47831334505424783,0.9542029083989437,0.789233224800253,3.414132311317701,3.0508555258153867,2.1479324018824455
470,-0.5065421639230098,0.9232944152115674,0.7563344460673347,8.52275244156807,5.665392603191995,8.270149115834377
480,-0.494685671562111,0.9499849889949264,0.770325879595989,6.3419513703511425,2.4497385061496386,4.3379845103675825
490,-0.49588040728606586,0.9580485838812705,0.7660389891590658,3.172241814044651,1.5691584511692587,1.6355077047648308
500,-0.49588696565555024,0.9556582035140289,0.7726566146792107,4.592837520196854,3.594026262009864,3.2102292752593438
510,-0.5251938391211853,0.9165213034662054,0.7357477675167118,3.8212946377184323,1.4717011149129684,1.9598809412423188
520,-0.4978881000539492,0.9507007584546089,0.7686199913546331,3.585385219441485,0.2854757058489499,2.282066048380435
530,-0.490686128994743,0.9617208684173841,0.7730869932113358,-0.17395675602362015,-1.1644667322819888,-0.8106231882955943
540,-0.47452765294521826,0.9806562900592753,0.7843792670859273,2.273346445773024,1.7699537989665166,0.86204633711167
550,-0.495263072094207,0.9516789517121144,0.7612610983274734,-2.3181880046866494,-2.784186676914218,-1.3815763502896705
560,-0.49095009291698843,0.9559701673882686,0.7669466778336648,0.8016341378012728,0.12725707492315697,1.3240327861171646
570,-0.4792371643848676,0.9653989614587716,0.7797810008521026,-0.30498892963668545,-1.4853443068089462,0.25760992054132714
580,-0.5006479328505473,0.9528027943373814,0.7634533090512219,0.8433453962470713,0.3902742640973025,1.6004603789407539
590,-0.49634050584980477,0.9574113288324635,0.7643307833612093,-0.971813133934094,-0.11794613420871125,-1.3348885576822482
600,-0.4865968326997031,0.9632377248522728,0.7736580697243226,1.1806830126187546,1.4695275921668796,0.9549147481440079
610,-0.47954097637004034,0.9690865322052521,0.7815656221011789,1.1342628121305984,0.07536484017659117,1.3993570613964499
620,-0.49375560109714195,0.958379925871395,0.7665779671242904,2.9830700659875413,1.97142656214423,3.104611781814774
630,-0.4710739773164758,0.9812205298363541,0.7899778157172787,0.7528176370677537,0.6195630440275087,0.5311374650101137
640,-0.4731875270137879,0.9769574277602331,0.786233845632778,1.1175455361221855,1.3087094267351147,1.1224993087113135
650,-0.4731212232804894,0.9767732508670213,0.7833431492244898,-0.8673012971488496,-0.6181385546864178,-0.5331884374327558
660,-0.5008962580519332,0.9446434855186753,0.7557828688182014,1.1005063894277964,0.6404246037721938,1.0054375180054533
670,-0.4989878314156245,0.952543196877173,0.7591634278067126,-0.20088818268121855,-1.2729299805798373,-0.8421814379718009
680,-0.47041948269656864,0.9808728238617378,0.7848991630393509,1.649107921227245,0.6678687957655234,0.47487761748715673
690,-0.47978282855840976,0.9706113757679554,0.7760128869681744,1.591260850683823,1.0466264552693698,0.4282733201629304
700,-0.4830916661909965,0.9697950344339876,0.7729575449079423,0.060290916831929,0.21815534486862775,-0.8924944193193285
710,-0.4659444668746154,0.987738960824024,0.7893519597918205,1.8794161190716387,1.5860909882152177,0.785867454136794
720,-0.49865478035755595,0.9591047816822315,0.759227326543216,2.036670538874602,1.0818257714276212,1.3219070860831417
730,-0.47756894394128585,0.9778812323923773,0.7821892772024575,2.3021583862960577,1.6087130088176311,2.0494885090787855
740,-0.48917104911634707,0.9661086169056032,0.771485398451902,1.8469418802883775,1.7459580380045658,1.666860484019434
750,-0.49512042071283613,0.9573731921845096,0.7630758648120783,1.2318741757943894,1.0858603423555289,0.7029057229127962
760,-0.4895971642105172,0.9641220824939719,0.7635169408622526,1.5916205607935172,1.3735357042180403,1.274168575311966
770,-0.48458331958287315,0.970344663662781,0.7716406946810922,-0.018601974332237425,-0.39182375128260793,-0.8105286616307134
780,-0.4959742673540712,0.9597024286274994,0.7608127897998187,0.3066652306774148,0.20109525981808207,-0.6412316156660496
790,-0.5023786648516665,0.9487618913068552,0.7509820723837043,-0.894347660529432,-0.9967777195125663,-1.3163919638177113
800,-0.5185512084348615,0.9319548383256185,0.7312813926678454,-2.1758534538778886,-2.1721639591577233,-2.0762621035652202
810,-0.5255633602957418,0.9305242686248608,0.7245041275420427,-0.553208474113172,-0.5637837628086719,-0.833034312748956
820,-0.5152116571427934,0.9352317540156679,0.7386087286432005,1.2736166555280994,1.0710564359408714,0.9868219928724276
830,-0.49213373160849594,0.9583931931413654,0.7625400447349929,-0.12435685878611036,0.5572856012174984,0.0960395242009302
840,-0.48889252236281866,0.9672781519603624,0.7720067523898069,4.120505582398873,3.9623872974437346,4.153830002967343
850,-0.4812641651659864,0.9643125964448899,0.7681335216592231,0.11099118234254482,-0.005547963215134094,0.168908257816479
860,-0.48951611829637426,0.9684501997431766,0.765592813138462,0.11527815166589944,0.24219879167677322,-0.32269585805007645
870,-0.5143256303302527,0.9331554381329152,0.7358496198957499,-1.220740102941492,-0.7036345183743854,-2.6158116207605415
880,-0.49022514018070323,0.9566155873142035,0.7698418708006826,-0.9002676593711397,-0.4145054537893423,-1.3718686264262119
890,-0.5056866013031187,0.9504406041196136,0.7508802258135641,-0.37440789391703194,-0.19233697105497005,-0.6378201263512587
900,-0.4833743226103034,0.9781202990186461,0.7714526791640699,-0.5895140715912879,-0.3961848788308598,-1.4208540122706939
