time_ms,ax,ay,az,gx,gy,gz
0,-0.7614230913222756,0.6611431354845863,0.5685951030633771,0.8554102154564216,-0.3890227877818838,0.3531059111764556
10,-0.7561095875835154,0.6724724173600877,0.5743623262749149,3.528512899891634,2.0392047277398575,3.4976175965804206
20,-0.770698806953817,0.6556929808972439,0.5601256615210769,3.2565869027707333,2.0859666887447235,2.617658416917883
30,-0.761711127692383,0.6668313853700181,0.5701669386643173,3.38413600437271,1.963488072113475,1.7625900342158207
40,-0.7705334841014411,0.6586799801358632,0.5621866114249565,1.0431290217334068,-0.624532425250193,-0.18984909880465659
50,-0.7694211702639413,0.6618980016308323,0.5561168828755388,-1.3902225172251697,-2.028575816224348,-0.44683851684439346
60,-0.7860898573880495,0.6427789820985237,0.5452551709898825,0.30279542137472487,0.44132135284424084,1.654586975239563
70,-0.760657590548466,0.6714009281177629,0.5708961651610259,-0.2728001695592104,0.8004158656639716,0.3149041084507833
80,-0.7645140313172676,0.6661434583724588,0.5611869523759789,-2.706921948975334,-1.07185188711437,-2.447027528457289
90,-0.7740226244378825,0.6564169474488507,0.5539282043513497,1.5369934086719497,1.8302810911904288,1.6309219328647706
100,-0.7420118669291597,0.6893620057721285,0.5905211063676203,-0.7300198114805919,-0.7627953576286269,-0.667386288137164
110,-0.7802434191911793,0.6479433354075662,0.5570191567682352,-0.07029432239987266,0.3203762412097041,0.037765475128202386
120,-0.7447462999165154,0.6792990161780993,0.5876256346447117,-0.7737796526324541,-0.1977193647264433,-0.5008614699009308
130,-0.7656433621329921,0.6606083639922636,0.5600824761997844,0.37473967558254184,0.8635510983525714,0.8153925075182323
140,-0.7581924149755154,0.6750753176712446,0.5717323846209693,1.51409077181592,1.6796533431595777,1.001935944556827
150,-0.7616796600082227,0.6712957297311423,0.5735232954078935,0.5105822714771882,1.0635933024894668,-0.39814234693296424
160,-0.7478531936231941,0.678270091379372,0.5880927937697604,1.2093152150466033,3.2707792182320485,2.111427296397118
170,-0.744225985458543,0.6873729073906437,0.5963821636790682,-3.718419746454901,0.9588155553442697,0.4713882165582435
180,-0.7540508983190621,0.6674454430032852,0.5607846394787802,3.288549266218475,2.4198762595359082,4.308817740461805
190,-0.7458554606978021,0.6987596483983753,0.5692515678465092,5.64551980512269,-8.792022829647692,-3.0215701875231784
200,-0.7826740077289684,0.6960047968662021,0.632553761550884,10.317519533889309,-10.359526576698944,4.846610385296902
210,-0.7387872221367755,0.7064014495370289,0.6318373187667876,10.735082495051017,-14.186655280141444,5.808577522989953
220,-0.7784946288752014,0.6443286793870743,0.5830052732351878,11.771476693510937,-13.87341144354801,7.244547453390335
230,-0.7298291339925773,0.6630317377968409,0.5905720038598389,11.872039305344904,-13.783133674096204,6.203290035112049
240,-0.7123633732068739,0.6689895853671596,0.5871372676690999,14.050572441042334,-4.908066114551378,-0.06925679364832105
250,-0.7058100000656256,0.6875224691037467,0.629390769038462,8.24163818018806,-4.582661938091808,-4.653990330201475
260,-0.7128992107827266,0.7029321666131476,0.6471963088528365,3.572376732289743,-8.023047362429983,-10.225375231952338
270,-0.7350617893038297,0.6908184583407148,0.6169168181312403,8.296332767709448,-2.0950806902972463,-5.53330007543682
280,-0.7253483166266896,0.7090711940638826,0.62479652512473,1.228501510998628,-2.206058607198939,-10.380495658436887
290,-0.7684216259865486,0.6638842226144377,0.5972996305164683,-1.1016911769746707,-2.2555183302751143,-10.0367310394719
300,-0.7453461492851445,0.7063649487163829,0.6466078545854558,-0.11581015370079784,-0.12059244318097684,-7.402485655116689
310,-0.7217353538531971,0.7237198586756037,0.7084809173086353,-3.3204005072706346,-4.403481189706262,-7.532210822277528
320,-0.737287611310356,0.736597461617632,0.6044962712782687,2.1929632436391504,-1.600812973391534,1.0472709080335751
330,-0.8192304484668192,0.7212224184050454,0.48161419438609626,-6.842027707034835,-3.0191408760497644,-1.267698643316826
340,-0.8399580649459835,0.7371668265491197,0.6355615523215641,-7.366574188561626,-2.447831997458185,-0.8095200901704276
350,-0.5773501817056383,0.7906496753125433,0.6075752278100787,-7.5689348461999595,-1.8786208986864052,5.526085098455841
360,-0.5671688690938047,0.6580264183550611,0.766466788876058,-4.97406033289115,-6.4425653975461055,3.1537388514552975
370,-0.9061319704712703,0.4549692988581508,0.6152281495607679,-28.85244100623182,-3.922862024591431,-4.829335890966134
380,-0.9158222689988585,0.7036825556175922,0.4956371415716784,-42.67326860313427,1.485530169875231,4.711437069382422
390,-0.797628383987252,0.7134031350128501,0.6323052991594368,-31.986307987268603,10.925547417987696,7.7073447941457776
400,-0.8100945515972655,0.6575058078436347,0.2868249141927481,10.66309973364697,12.6731588367157,10.894290462755592
410,-0.7600806945321381,0.5566408910201683,0.47062708071374654,-7.720067921343018,13.769382213934048,9.228774049544825
420,-0.7338436208931226,0.7410725417811845,0.3255154909430687,-0.8696580788550652,13.99737398780163,18.062660433617275
430,-0.7574975198297261,0.679360962000811,0.22229507676834234,0.20504619679797592,11.560985583578603,16.353878836213717
440,-0.8212276771945315,0.5931121383060006,0.7080239792167897,-24.26271018247079,20.442261758744493,10.559047044225197
450,-0.9075723498262169,0.6853456052235679,0.6083571947580683,3.9762915747627985,0.09280718467735039,2.1690967753234336
460,-0.9246003583415721,0.5438100512590689,0.24076583643770938,3.1186146581653382,2.688012530103985,11.271405830975079
470,-0.6863473749188765,0.7439457906241602,0.5228801639137123,4.378573226464787,8.47264671409684,5.953952326905655
480,-0.7294845921661477,0.5426268555073807,0.7275003181636797,0.28483835114570044,5.715766473228279,1.644409242843651
490,-0.7196122702971719,0.8734962301341979,0.8488667827184466,31.301377075383204,-2.2482030199829817,13.544660427570314
500,-0.6936075166677832,0.7757206346779413,0.6114725545663782,26.384553425206455,2.9190043736370552,5.313358902334245
510,-0.709477178572011,0.6847222572782816,0.4717574492961116,16.29672594974799,1.576348137480628,-4.9662947974729414
520,-0.635456835251418,0.4831303306972608,0.5577538241730772,15.108620978737834,1.9540301228063282,-15.87900937399599
530,-0.5314553178067191,0.163797398511848,0.5404587145686293,-9.204641543325865,1.1210097518378153,-30.930916725826982
540,-0.6115609287716293,0.5838757195697624,0.5694088701731848,5.156772408375257,-0.43002343534712395,-17.525209062474826
550,-0.7349295603900962,0.8183240756007846,0.7702507063652478,21.150367278834402,-3.510584878362007,-2.3039516245465546
560,-0.7372131316217122,0.7348633728686947,0.45844767124652397,10.213178022760912,1.7963779838905842,-1.9019132585161094
570,-0.7598806425474223,0.8150131960830361,0.5824290373204785,5.4361705201060895,2.5190638286265434,1.4676922541335182
580,-0.7570994742840663,0.7008468328781078,0.5917909791741025,0.32209265069660176,2.3864533203437377,-6.179672977786908
590,-0.7709631438154764,0.6677444307547167,0.5479512778775464,-0.34883265059006136,0.044988383805004695,-5.6429672568914455
600,-0.7537094050505968,0.6690471983797253,0.5733585380494262,-1.4344949670472522,-2.7110758883953134,0.7811323007522584
610,-0.765722829654388,0.6557256992127292,0.5588352832652806,0.9667840147347508,-1.792722214492064,5.3106860743955355
620,-0.7330198605832524,0.7008404644167597,0.5936727070918187,-0.1534635177521893,-2.8402790625417307,2.3704834640990766
630,-0.7570140863558615,0.6733890869674761,0.5666353692250568,-1.7715720648377604,-3.2695877193605245,-1.1814058737182034
640,-0.7487383758967043,0.6784892659574974,0.5787925276621532,-2.4196141814232592,-3.593383618419346,-2.454963917757955
650,-0.7517278575057683,0.6743959940144242,0.578305732778384,-2.377112610525278,-2.5754161284581008,-2.1475428506367207
660,-0.7488549239449082,0.6760404197252626,0.577205646954664,-1.713309225150004,-1.5915671074036817,-1.324609320803828
670,-0.7635543517274674,0.6629581663630172,0.571093224183039,1.8073873668228988,2.127898465291554,1.8576087841844298
680,-0.7635173064039295,0.658014334571536,0.5647353421284224,0.5491098378878052,1.0777842493056455,0.8345196840013608
690,-0.762903094195235,0.6616804956704279,0.561121242918344,1.2102457183929405,0.21943422511619598,0.512015397217672
700,-0.7673604060834084,0.6593594439094039,0.5596630917620821,1.4971053797467584,-0.648664305516611,0.6081277754730898
710,-0.7625285983647785,0.6662864224654956,0.5659113813853229,0.04665037060598212,-2.07535824183672,-0.790319158371234
720,-0.7507714055671533,0.6743996940142873,0.5787188369680689,0.6290652400073821,-1.4766217026987527,-0.6083408869918473
730,-0.749055342404656,0.6748668102475319,0.5894812970879195,3.5990470752918817,1.9042274186032673,2.824166719862798
740,-0.7480078863401359,0.6784991738444617,0.589083926466717,0.9944582657202476,0.2442264111764218,0.7365912923822366
750,-0.7702505546427144,0.6526182913417308,0.5621114633447074,1.1662290123865602,1.925197162216036,1.6104712916913528
760,-0.7259666713118332,0.6991882584639701,0.6042825137955027,-2.4162328993416473,-2.8893165670025294,-2.9063619323641996
770,-0.7513837231256156,0.6791276585924639,0.5845458248328742,2.746708528420731,2.4428534553804333,2.3008989168309575
780,-0.7400603064148541,0.6886193805258937,0.5983680352879215,-0.31789339811451944,-0.6278703108286853,-0.8076917915378872
790,-0.7609469790011738,0.6669983622435491,0.5740252129731089,1.1463253223130743,1.1989345763551382,1.4779532178987953
800,-0.7321570720363385,0.6918025792621311,0.5998959754487182,1.595081793471371,0.9597148768101224,2.545290801628784
810,-0.7357779094110592,0.6928595422192032,0.5956952664435425,0.8428158527963893,0.8563470447389013,1.415234414811745
820,-0.7727775110672662,0.6572929985648177,0.5622186381147536,0.2265815438815988,0.8914692477925104,0.42336393069833345
830,-0.7421569459369409,0.6811272986675734,0.5916904262298195,-0.9417779707800699,0.5118028525033792,-0.8553284287155262
840,-0.719172077296174,0.7040841192702123,0.6131983755324919,0.5201839875253552,1.1200805268308882,-0.26623965598242294
850,-0.7651151309427964,0.6608814677595367,0.5662901418935535,-1.03473171451013,-0.2589353000968575,-0.08037162518821805
860,-0.7817578562894512,0.6457320230731776,0.5534067550174939,-1.0057060067470545,0.05448970929809338,0.1164221145595874
870,-0.7609713543961895,0.6684875313835398,0.5733196119155266,-0.35201471055055417,-0.03592444128393818,-0.35061654353757865
880,-0.7709778179545203,0.6562540032803192,0.557641590926465,0.9380176778253818,0.7428254244833521,0.4130789527224159
890,-0.7286823107528666,0.6975058945126981,0.6061050849152637,-1.0511685548544802,-0.34855861365196666,-1.3386942535539732
900,-0.7370263869139394,0.6912607535991446,0.5960693376155111,1.4764132334238105,1.9146606798211545,2.672624255593778
910,-0.7541615714068901,0.6702480105217035,0.575137491987774,-1.8920921125254027,-1.0499896930922488,-0.8894571780859094
920,-0.7660336332192145,0.6595509396879063,0.5624763106728554,-1.198879216471512,-0.3935110671463005,-0.990823866717609
930,-0.7591234114673894,0.6647145528815238,0.5724289564252096,-0.3365454853264306,0.809985500838399,-0.5021939883448455
940,-0.7715246564096789,0.6475976617880788,0.5609363179776277,-1.2281102614736912,-0.015319788282799333,-0.9835900148291037
950,-0.7540615472219894,0.6724664730448503,0.5766922162446556,-2.756075600922752,-2.155796504672119,-2.180434944781931
