time_ms,ax,ay,az,gx,gy,gz
0,-0.7063387868141232,0.6018859187261385,0.645482424224504,1.5402156586820244,0.7418086041475542,0.3633487731006068
10,-0.6601967986849888,0.6510742047877711,0.6961181441314224,3.7611511569748264,3.6365518931610925,2.864264193041234
20,-0.6802994086008027,0.6342734217220316,0.6830908728849855,-0.37857428058709564,0.7888948174263457,0.06478251169973215
30,-0.6777183051691175,0.6375444128034866,0.6881143652413291,-0.8966263964877903,1.6465762237723167,0.4987453582122394
40,-0.6857673202041161,0.6161707692198978,0.6786913602371792,-0.530935023736123,0.4242432081445032,0.19440955819419456
50,-0.6758291955295376,0.6292956046863233,0.6876903453925652,-2.84411614694179,-2.9405546998958285,-3.087047811139527
60,-0.6978284351509687,0.6138059134540855,0.6677649627009894,3.1904556675671003,2.6643597325800665,2.1765856366727485
70,-0.6496828802835509,0.6624443544684302,0.7113135290118152,1.71464218804998,0.1267826979815997,-0.35351984482992105
80,-0.6978932792630811,0.6154663404950388,0.6591741238553266,-1.7791318205497002,-0.9395385869197415,-1.884888276717533
90,-0.7041456555888397,0.6045189298359543,0.6517037581825068,-0.9727080309259084,1.3681062124474388,0.03808631325227818
100,-0.6672448306788785,0.6391089518208524,0.6946461735340307,-2.0479466804601465,-0.5883720940740629,-0.4787604925943041
110,-0.6875311353810464,0.6190430157893502,0.6734863621989705,0.8712829680871559,0.8536548489469731,1.1854539580802765
120,-0.682474492052513,0.629636214961099,0.6752278816740308,-0.8388861134217556,-0.6198600881763743,-0.9779455709516286
130,-0.682616433939026,0.6286275598717096,0.6775875216458315,-0.8441885133147566,-0.0005456290457556134,-0.3948521296155077
140,-0.6910801570442172,0.6170073302434387,0.6685421906934417,-1.193036269100047,-0.24695871369740624,-1.4401519579688284
150,-0.7066265207963819,0.6050441126621585,0.6559614343722016,-3.7541491406647305,-2.4585580939002174,-3.711833608404747
160,-0.6710568490779647,0.6357794168710642,0.6945559790410226,0.3993983742232351,0.8723915805754598,0.4568232923521724
170,-0.6946242096967872,0.6116633428725703,0.6659813374013379,0.5860310909681177,-0.0330046277328131,0.1621564301053342
180,-0.6886282645855182,0.6199225989894261,0.6777047963053702,1.164605096117149,1.2297463480982966,1.6531906770673455
190,-0.6837527574711479,0.6299644140257508,0.6846540589996326,0.8565236379714463,1.5588069651146452,3.173602958210932
200,-0.6884454485102774,0.6333362903929366,0.6771976135756345,-3.867413639426993,-0.9290647261770917,0.7985698619741455
210,-0.6728575358929707,0.6401301248633493,0.6891440567345746,-6.50134161020242,-3.875956083474236,-2.7446431910466904
220,-0.7555372653631481,0.6469243284856225,0.7882004829359806,6.506125873623466,-30.90113901960959,-1.7733195938548865
230,-0.7464361545899262,0.5837962739594859,0.7961223334704419,13.711173086555998,-45.47169247975716,4.2657775612565425
240,-0.699744452508948,0.4867962012813246,0.7329097355053955,19.3605740296395,-50.703517562121164,5.32833504918226
250,-0.6263814705104587,0.5091276868835083,0.6752617158359118,22.721771243075715,-51.436911263119626,-2.10307861373763
260,-0.575768714863771,0.5743198104745386,0.6969221590236744,24.674186209127384,-45.98651467895422,-6.669595885447349
270,-0.5562185067290423,0.5990772752880416,0.7151547244733741,27.579915045286164,-40.45921446274709,-10.498616666374454
280,-0.5988169959458537,0.6510466785578655,0.7162313813319345,21.646943065499922,-28.717436710104806,-21.60652437083489
290,-0.5919854669958898,0.6331608432941191,0.7690460695884133,10.30148000625757,-22.315405249958108,-28.41959888280609
300,-0.5982914744757928,0.6310754104192573,0.7688084231828677,23.465485509847195,-18.66962206947298,-25.58674216354051
310,-0.5835612630605427,0.6581287496191079,0.7650497975058104,29.9269501362767,-18.57392997336867,-28.232607282755147
320,-0.6001936418563693,0.6620286598795453,0.7175774891323503,19.5329710607436,-12.589371719249366,-30.204515928177173
330,-0.6132522157947479,0.693901338178737,0.6999879962864914,3.348981160899167,-8.068521090116324,-32.272083852822604
340,-0.6451909388893937,0.6664324170561192,0.7255014369318085,-3.516391830562139,0.6916312346952593,-23.200270810610476
350,-0.619364434010775,0.6838492252375122,0.7608584189598592,-0.5778224987686524,7.733184026171093,-14.151864630734691
360,-0.6505602704008066,0.6421205995771477,0.7415081847260131,-5.913786669326595,5.622593678003393,-15.26043672641003
370,-0.6591590056712231,0.6202887365599986,0.7381228371505657,-5.596632104807465,6.363814345156358,-11.28972516389411
380,-0.6483733619070774,0.6490266533007651,0.7710484694230908,-4.42623416757634,7.295130575515837,-6.551881530903637
390,-0.6750023442084446,0.6291227546244091,0.7439881823975213,-7.368213469109933,4.947258851695336,-3.907505772955008
400,-0.6438311391390079,0.6277204051327363,0.6662483737556604,-5.0467038744274495,-0.7279771274915652,6.927555944012696
410,-0.5262692530055763,0.6586079627225858,0.682911236084939,6.6868981568846,-5.270637760914291,12.208172622733642
420,-0.6053585737329947,0.5266724727053407,0.760084802747149,-0.43520600531642617,-5.72270931451166,6.327111281085683
430,-0.6229443509326896,0.7013291509973288,0.7640629349302815,-2.701941863192049,-0.794253944002955,10.945990421178214
440,-0.7002237607756627,0.7020481654491503,0.7061786725976036,-15.838105843537388,0.40264020948868134,15.09688552000422
450,-0.7624934978589054,0.6413125648028941,0.6762108536198115,-39.29909542560637,-1.4660485407048172,9.82787772436063
460,-0.49839743831405475,0.7318408362937224,0.5058479178253166,-32.683752932757336,9.160218116687437,17.437233747663846
470,-0.7019194478820943,0.538286391654645,0.6608942080677154,-33.65331881611335,23.252130920100996,22.397250372255552
480,-0.7593538588222546,0.040805855959114845,0.9159606228224553,-30.997930848282525,22.134707456118477,13.622209294948862
490,-0.6115333016303609,-0.07362914124567636,1.194201096444853,-31.085380383793172,14.755771513039518,8.226618096385906
500,-0.6126553343928915,0.38431251561942287,0.8995405787898327,-4.439110472700449,28.707338274984366,29.462325514634028
510,-0.5834276121959023,0.6290446260338122,0.8514905280589676,-3.910622248598813,32.13036674085236,33.50015539401082
520,-0.6430376961907103,0.4292306188544614,0.9473825158272292,-18.88971623845319,23.769148600848112,15.58432100925911
530,-0.7092729005115695,0.48680029156964555,0.8677408690723483,0.1598589643664523,28.194013016122103,13.068562558608775
540,-0.6006519623234032,0.6161466867469977,0.9376240349700035,13.15336765833339,25.514822946689875,10.117207995398374
550,-0.5549767479793064,0.5577557250302954,0.7968981043586498,14.964811258531244,28.705646113883756,3.3590881449312393
560,-0.6293820473567525,0.5671586807335043,0.6218289395011544,14.906049009756043,24.824807547318333,12.74237970815631
570,-0.6412310814238195,0.6110434314534726,0.5481729778390528,13.488079215385056,14.126782815383093,10.946166054595418
580,-0.6765384488164636,0.6333934030437393,0.6639707710555575,32.41340240204166,14.38383558570059,4.231390474380514
590,-0.6458660780333222,0.66671641701551,0.8147053064250309,31.856208970725977,7.518571274108448,-4.821175479323038
600,-0.6135891656908575,0.7232244740094257,0.7645591956770328,20.82669640521086,7.0324709652746815,-2.4578704092315027
610,-0.7239832575879935,0.6993133427464038,0.5638407742289635,13.200839424908382,5.681553198257481,4.068511876206008
620,-0.7471481044968579,0.4975145475678604,0.3822395863554198,-1.7846579160534832,11.340391727461677,-4.525790293165082
630,-0.7414638080934713,0.45873914013368633,0.4757296265013816,-15.434297046356185,4.078081604239824,-6.2297512780716815
640,-0.6946545788921981,0.7052452017197228,0.6891158521085619,-2.7583926047256195,-1.493083607584536,6.992015697499548
650,-0.7028730404478202,0.6902965197298033,0.691559405180623,12.813978933861993,3.2246639755916764,6.839480299610834
660,-0.6913035165187561,0.6726505933665344,0.6722266020088166,7.89886058553123,3.8844688298098733,3.4514144942245504
670,-0.6826135762688159,0.6835440540831126,0.6774185840559892,1.0849756076975507,1.4324309741901178,-2.021634099309954
680,-0.6914255490710112,0.652890181573622,0.6632677662052926,-1.406197472334111,2.1875799097549145,-1.9827321015078212
690,-0.7197633770779674,0.609284760581409,0.6319360919504045,-5.661374898703338,-2.5860942539774823,-5.759924320151574
700,-0.6994223480812252,0.621249959126053,0.6528950494334012,-1.1026363354451814,-0.15513174571053123,-0.6655114223690984
710,-0.6953606374433288,0.6249665111726606,0.6573477649199644,3.3803933666374473,1.90327051531364,4.131014195256112
720,-0.6864798176997039,0.637679210882743,0.6668293844211571,3.876137734357138,2.1413737007095657,4.6339665113325355
730,-0.6869748885737088,0.6393695121478541,0.6660792653876351,4.54497297361417,3.6752324251172808,5.520968508003981
740,-0.671636370794331,0.6600918613364584,0.6829940907512,0.8238372434390802,1.2934866846873936,2.707387457801698
750,-0.6842323968098567,0.6476983355112758,0.6699667664324845,-6.484408548352274,-3.3301896198616694,-2.253173653061608
760,-0.6675676536818459,0.6556934895075758,0.6805529429082199,-4.620123654215497,-1.0014683978498686,1.145352091466379
770,-0.6735543032212669,0.6427812464971638,0.6783777466788908,-4.9078649003880805,-4.6744364778453,0.3353461200122694
780,-0.6844568885912781,0.6392483551577769,0.6736016756126428,-1.366118572448268,-1.2763181072055314,3.3187629426365977
790,-0.6915275629899076,0.637109999180706,0.6624695693453087,0.27997467640152485,-0.265974122801229,3.771464463186215
800,-0.6972679457238331,0.6289032156322518,0.6546420180931708,-1.7677869229108087,-1.5348620467611096,0.5037557433637363
810,-0.688453109032223,0.6326052294056587,0.6619124428746307,0.0395477716908168,-0.06439666378437026,0.5328112206009064
820,-0.6695438917563459,0.6539839710513815,0.6845248183652489,2.798121295981794,2.398721200057534,2.425718648004342
830,-0.6501319852927476,0.6776269894615132,0.7040893393500933,2.6923699374794507,1.9592829421917468,2.2729437504338583
840,-0.672328330937274,0.655713023820283,0.6783086207054686,-1.5670572911001832,-0.9799397111512532,-1.0046678858079179
850,-0.7049127529954327,0.6198315856256321,0.6480073048371154,-2.3299589087744774,-0.3237250285113925,-0.7922084743800194
860,-0.6644251775591311,0.6549936896865384,0.6844545607274436,-1.7608040362215958,0.04874455417942547,-0.24856572270026733
870,-0.6672768499866129,0.6510903128336274,0.6816701713926175,-1.0920090570610572,-0.4333636986589396,-0.6810061728351859
880,-0.6792186649783676,0.6483326486928923,0.6743968683793607,0.13270112766048414,0.09216480611057071,-0.22348038248242463
890,-0.7108017484951245,0.6173440747962211,0.642661370638957,-6.027536739702043,-5.355116713074253,-5.93016560873782
900,-0.70369395000903,0.6193643544755755,0.6535119885385604,-1.7405010571793225,-0.677829177772706,-1.0089359351623348
910,-0.697512719112732,0.6253397578022692,0.6553366805799836,-1.3938385359355587,-0.8964682246144132,-0.4765422140714927
920,-0.6996270030780876,0.6285907929453384,0.6498838024231763,1.2035736451262937,0.44092216696773595,0.8690613468043732
930,-0.6928504423406522,0.6321100998240148,0.6587050595144809,0.12208873035005308,-0.763433889861273,-0.3317295548838365
940,-0.717178179581432,0.6077773337092846,0.6400829417081662,0.7664889604015706,1.2247214836557263,0.898910438679209
950,-0.6714376744329011,0.656308547893142,0.6774195313049953,-0.6352075026154078,-0.21756633554100469,-0.5662335091355408
960,-0.6968474747804567,0.6339648138674739,0.6525520174303895,-0.10757612601317734,1.1226635725474208,0.37407194363867324
970,-0.6964703419567916,0.6279982442853028,0.6604026834393812,1.083241884167773,2.0079027996403016,0.9953842105872692
980,-0.6936905137328516,0.6307454681181439,0.6527642910406624,1.7561278101516533,2.939737073803064,1.9202520451976095
990,-0.6651442158731969,0.6504164004459855,0.6844754443147512,-1.8212043996753102,-1.8696484652731118,-2.6950302925627883
1000,-0.6758628655408255,0.6500047626917764,0.6818191427675065,4.5455612039061615,2.9848967282496823,3.2278437413597123
1010,-0.6746606036616024,0.6504095564262377,0.6836370265148971,-1.4433871006484815,-2.0922769406699393,-2.003026059956862
1020,-0.6784761864003183,0.643748663208655,0.6751774358659878,-0.5724344278632024,-0.4017627065117591,-0.8239807513674062
1030,-0.6868437460850025,0.6382149617140953,0.6603133723199086,-0.5781775324480887,0.1780287523143818,-1.0913660257572122e-05
1040,-0.6936596838116713,0.627302631865878,0.6521555669182375,-3.0163432336805425,-2.2196970679173207,-2.3891918500596985
1050,-0.6989318665223735,0.6262519590465137,0.6578849635901296,-1.168290257980597,-0.8929543359399761,-1.0477728216455848
1060,-0.6783239872837511,0.6520936391629852,0.6804016176638171,0.30757997792735464,0.5581976828726131,0.12147872467388568
1070,-0.6465972544553913,0.6820373296519764,0.7116376994584199,-0.3712358625979671,-0.07348070473091245,-0.7447581542308946
1080,-0.6460040746756832,0.6768274818378679,0.7054138031384585,0.5754223519060948,0.11189683263280872,-0.44827581073323897
1090,-0.6777805845687406,0.6493015082502275,0.672227764712059,0.3906903534960855,-0.09803705626774825,-0.4462070171259802
1100,-0.7006106144654652,0.6234078588123948,0.6512163992540982,-2.8207922918990325,-2.4824011205144147,-3.0330178227541023
1110,-0.6385305482209088,0.6776056259363438,0.7084521788812367,0.9684012332559124,1.8188909393394883,1.0650163961282302
1120,-0.6606082988197041,0.6648832792303203,0.6976004316725166,-0.88311860312107,-0.1043175586184098,0.17986171809792809
1130,-0.6730032618707313,0.6501946903338002,0.6836706221829378,0.9888475823845457,0.8019803666598113,0.9490322998031755
1140,-0.67558904862078,0.6505689063426181,0.6775144818300403,1.301504792863228,1.5110315464974322,0.6901844156249033
1150,-0.6939517168400512,0.6299106861168013,0.6622163197965772,0.4953609690169669,0.12588676228991136,-1.1836296237166033
1160,-0.6623129609332644,0.6611400978326458,0.6887607693830642,0.599106754969717,-0.34489993238704664,-1.269748516961751
