time_ms,ax,ay,az,gx,gy,gz
0,-0.7569108559026549,0.652657401159366,0.47618052946007083,-0.5997073275681599,0.5691002594291429,-0.14355653558517922
10,-0.7560954680554969,0.6520575657276236,0.48114008211568143,-0.14792341956318433,0.33130483740985,0.8426952027534296
20,-0.7697515275375975,0.6471987810658905,0.46923457074673525,-0.045797179899446594,0.2966508835733772,1.1540985348861639
30,-0.777381379083205,0.6431975665480161,0.4605982465755444,-1.6761178715061185,-0.6425041785160557,-0.35182833743364733
40,-0.7637183752991161,0.6517522161075217,0.471008196820935,-0.5534837685424141,-1.0456081397155952,-1.5491902356597973
50,-0.7443534545737709,0.6670490601806851,0.4861222250823444,1.7856839691301696,0.820071748343534,0.3416423374042264
60,-0.7610523777597643,0.6561802658105536,0.4755516504799058,-1.1213465748876523,-1.843585533519349,-2.9328860167316773
70,-0.7409739918066457,0.676293286728002,0.49327100711437055,1.7003466410473063,0.4712134900182125,0.07458146223368711
80,-0.7375769065344875,0.6716964934299978,0.5016975951394179,-2.467291204215066,-1.317786494034109,-2.9944344277996007
90,-0.7621533477460527,0.6682557061271752,0.48919612278561153,-0.2792664526375353,2.548730843438513,-0.5666773431352807
100,-0.7581125825442769,0.690639081693526,0.4564467212856007,-7.039643074719542,-11.817382291336452,0.34666830218399936
110,-0.8374567248114873,0.6238452942697752,0.48557237197707487,-14.760672018369512,-16.742788840405044,-4.682898982700525
120,-0.8199112539924553,0.6253732639703923,0.5640231495357197,-5.712534953840658,-25.476825562201924,-2.0770886090024767
130,-0.8294824124638494,0.6989708180054084,0.5786421843312812,9.399514964097946,-34.345275506475055,3.260406194724749
140,-0.8014656315549729,0.6501593377857553,0.5416727899695387,15.10475114472662,-36.03273924575856,21.487278609735245
150,-0.7716303946586753,0.5847890848178837,0.518423725843971,19.83446940648873,-30.207344505120346,24.94810553265514
160,-0.6728017992569709,0.627124305962038,0.5405278914307724,24.862966960898714,-29.847102136946283,19.101960096620207
170,-0.6938691412499881,0.6186268727329183,0.56063402705895,25.43736958955549,-26.805452796186586,14.075437535434551
180,-0.6960499706706609,0.6284449040634296,0.572209487280641,21.982722644404916,-29.021642599986425,3.6127487237060825
190,-0.6707311223511471,0.6437945011604183,0.5387080618152865,22.919019025469133,-24.887811060299317,-2.3829983500502188
200,-0.6224820016371686,0.7170996069066085,0.557500675020873,17.602745314640604,-19.986789801141036,-9.92469943930936
210,-0.6909038328897251,0.7077737024808141,0.5295981267588283,12.531117731501181,-14.485127315353306,-11.937749405598492
220,-0.7227567146682093,0.7319846857778471,0.5745672955730279,13.59281301844826,-7.341610999427152,-8.294739589053892
230,-0.722517789119387,0.6890896627903765,0.5647154360391937,11.894903799605986,-6.23429340182584,-9.692028829074104
240,-0.7325073010815387,0.6769125442241677,0.5226712937143021,12.143815463575134,-3.1561784683060434,-9.451873487043876
250,-0.7127277935675242,0.6964364981770874,0.558903307680166,7.147854993655907,-3.1805940046619874,-12.742970919152247
260,-0.7537901178755854,0.6813043191406912,0.5585618069961151,12.147132874145742,-0.9344949889354277,-6.971326640874476
270,-0.7462710205187815,0.6787738312941958,0.5632374414602019,5.19583311808417,-4.397475547764342,-10.69283600685017
280,-0.7316410966873022,0.6930258642477709,0.5498619290335933,5.731261255813386,1.5406641952353506,-7.342727711881771
290,-0.7695325195726703,0.6507356174450142,0.5350300740076371,6.573521051678776,2.58383934594867,-5.785242763717855
300,-0.7376904494400094,0.6679506316141324,0.5542434618046643,5.71771872151099,0.737464370829596,-6.700690366450429
310,-0.722669319134664,0.6754386315430251,0.5599928305935301,4.60115517610874,-0.8321655125296483,-8.597711612126146
320,-0.7238579098589649,0.6884805681746542,0.5743196587498309,6.717455460222509,-1.01048553155124,-8.304428241767862
330,-0.7357223777535693,0.6854878857223828,0.5467928413429656,10.331433711752277,-0.07391585367882358,-4.871214331575441
340,-0.7257831502260873,0.6930528100907706,0.5404061549734906,0.5485377983077031,1.9418068842448406,-13.363808487067946
350,-0.7402258027359828,0.6939256310245131,0.5289196766381609,0.730804787414339,5.665636860696918,-12.130606037190656
360,-0.7448814884966657,0.6631818483199275,0.5362811739067985,-2.918780615801346,4.410359521001474,-14.362919451585817
370,-0.7147492625689593,0.669418574953426,0.5254013124458942,1.8959023545998377,5.739656565489049,-14.724640580767069
380,-0.6970322831423148,0.7112213969527812,0.5428905346864323,5.280246515209492,9.961502133915438,-13.163693408563185
390,-0.7073921961190797,0.7096689028968867,0.5335572746862316,-1.405387268360781,9.00344154250657,-16.52106706094882
400,-0.7622773727203669,0.6670205679844636,0.551352581367894,-5.810900547717071,8.267369509425532,-17.35734372548024
410,-0.7324941632415449,0.6982603649730261,0.6018822005384434,-4.087624820148819,7.6121679103100295,-13.665778205236876
420,-0.7687958574226651,0.6956124673870325,0.48978642312275167,0.56421070846213,5.762062985217139,-9.285860089360408
430,-0.7737133264197874,0.6571713039476148,0.5372750734360883,-0.5295249151527908,4.043965536789515,-6.850084516832815
440,-0.7963411592605386,0.6492532495639273,0.5524613050491839,-8.11758292428435,-0.9226191829071,-8.452461972056351
450,-0.7339258490645441,0.7448540645820994,0.6177248525332364,3.9664002884012204,-4.751028898696261,0.7435491884246568
460,-0.7665438202759381,0.6454330035180502,0.4485520873569089,3.1395433487894295,1.777712170789077,2.1660832991952463
470,-0.7019910579090701,0.8002637444456145,0.4880375841858967,-3.339611267460394,1.9066357961157294,8.508378752608733
480,-0.7641774868430637,0.6110479231910454,0.5742684616936049,-2.2849487055184845,2.1518602698861473,4.377599412832731
490,-0.6487801609179517,0.6754563962896664,0.6934822085764959,11.68007355783314,3.8160324320498598,11.203354977754744
500,-0.7798068677283995,0.6452800828496814,0.6643022277227656,-3.5160483462705097,5.910425846894281,10.654358923737979
510,-0.6312148992859685,0.8019418095523613,0.5935230200482383,5.168046850365343,9.030214660243246,20.381307398653735
520,-0.8346686328682004,0.4703142705794311,0.3317597992227111,-11.735241273706698,4.079667543443408,5.097185997796444
530,-0.6843670990223729,0.4763892875238967,0.4315968286702197,6.371351005512272,12.499014163244928,13.685183650363461
540,-1.029823229905471,-0.009492637658386979,1.2801950101298807,-54.60956155993277,3.6633129569866987,-20.520695305638878
550,-0.7579197400425217,0.286113066180862,0.7984557044256976,-41.73779113184819,10.460115821946435,6.1365454157524475
560,-0.8168432102163342,0.5826640411680354,1.0325534655892075,-37.6000841233143,6.034646381283251,1.202565692866653
570,-0.8027498471443314,0.49007354854420676,0.654677028101366,-25.65325959574764,7.352319206260202,6.706085043117768
580,-0.9386886126340872,0.4835120924305435,0.5698976377941454,-35.55790741333219,5.81032969830047,-8.808971116069378
590,-0.8999899067315948,0.6121186390152162,0.6427525909364082,-40.54547575280063,-0.4568048343666317,-4.608351150867043
600,-0.8637445337339683,0.32927585302393403,0.9680213301914207,-48.22835382550612,7.193398271118293,7.090450110781788
610,-0.7874294360301348,0.5072425011750736,0.8265751157624665,-11.953676394449813,9.472105640975508,3.2357100778448116
620,-0.9185928358821921,0.3523246563870922,1.1331280673817883,-17.507397967009684,4.491914019550231,0.6366042354734902
630,-0.7749910473456826,0.4214478089133812,0.6512718882049339,-4.190276024603334,15.346225577316813,10.193550628898153
640,-0.5811218793858515,1.0382354233556848,0.13554241659412902,2.3432752809186743,12.42362006254362,24.611940270572735
650,-0.7394769386421532,0.7636954438896465,0.5619826552824526,-5.489930952718268,9.629835180052948,10.484315932953024
660,-0.8867194267226596,0.7524500889651728,0.545448537858291,-25.399165989702116,8.07595465199184,1.6218831906393292
670,-0.8851115589221347,0.6046170039135838,1.3394142625026872,-26.822741689339647,10.741943783217412,1.0701519712460033
680,-0.7138040321957935,0.8792383539287976,0.30370142802313416,-5.436634223650328,15.605573923175243,17.15352068446378
690,-0.6973649241098853,0.865229009154624,0.10479407252777159,5.87657243593009,4.907583014546201,11.475525754350203
700,-0.8609203161871124,0.6168941366116237,0.7637382616458184,-0.9702520018719942,10.37928217571556,12.55629343856306
710,-0.8616715593432482,0.4882961296554021,0.8014154426248701,-14.760021597567588,-1.8428264391378084,2.2561457822391944
720,-0.8181574409238661,0.5625831154520589,0.6924808010759468,-23.49379107711629,6.1698009155622255,-6.535576328328988
730,-0.6648333354480794,0.7415109199614494,0.42174966371786987,-3.303535177118547,23.678388425262384,10.532059179800282
740,-0.7258103355718422,0.7251468133850195,0.5249931088275785,2.3853375203465816,20.297697766932735,12.402416603241502
750,-0.7413204311791539,0.6921168891711191,0.6421542306449703,-4.679310628064805,7.810283885824498,3.635036388816806
760,-0.7395855204922959,0.674135062590133,0.2549470243222465,2.2253051237853994,21.34165115059538,3.0413218117705334
770,-0.7709476550809139,0.7750940671582286,0.6967861106323873,-7.315635824743228,9.214657421686915,6.009767719326033
780,-0.8043743204305978,0.6981218123184505,0.667552551918201,2.6189688668850444,10.86870008634039,7.545313572787096
790,-0.597580988874745,0.5843458062941134,-0.2613792244982924,-1.1162864387315166,20.628065149966275,-3.3549479051410493
800,-0.7525870312515268,0.7778635019744212,0.9162256273708673,5.833655128312276,6.539260982249168,6.404129073365223
810,-0.8852111587806293,0.8628194861088412,1.2990498791450147,12.754306722294112,12.071528905642609,13.100051709073234
820,-0.913084675040191,0.7522714735491369,0.26736079268709295,-1.4220833100492216,0.39945174738956357,8.652126444196751
830,-0.764986078986912,0.8425301863620522,0.7613709839720524,9.136111781534908,1.359816409144073,12.035246474635356
840,-0.7919184048573549,0.626874041123818,0.14265051614749405,6.829827893094659,11.073878559811138,0.01934586500142854
850,-0.7470345823844331,0.5893535146818474,0.6423374424352785,0.16497111418101162,2.574026615400561,-9.915955952058951
860,-0.7137840842154399,0.9047569484910292,0.6712963194115406,31.108611952683127,9.769357491978342,3.701726830538811
870,-0.7714425919801582,0.464783171455816,0.3681876284828183,1.413464653936639,1.8476603386917239,-6.004393438699715
880,-0.8165915197940886,0.39601653849612906,0.45810400796624684,-5.159372247715012,6.579309083996442,-17.967666242666464
890,-0.7330445086140122,0.8201047225847885,0.6707267167044206,14.119876495070262,-3.6307751488250855,-0.9726963901970274
900,-0.7673044060286464,0.4647741000882627,0.3744193233636343,0.2087097906514841,-6.102506270360367,-15.499845973653992
910,-0.7850183933612972,0.835259749540733,0.6059950647184148,11.001158505227405,0.353518314597291,11.022589091406996
920,-0.7732773748182132,0.7807409936611636,0.6522327989692246,18.338901512085204,4.782144251988221,2.1553157502044473
930,-0.7680908380360701,0.6092089283628311,0.42960954452257616,-0.7666398882867589,1.5425337154064347,-0.8361036974683618
940,-0.8466546580926337,0.47042092473037,0.47832747379729595,-20.100761018545157,1.4555544237628735,-11.157208760392407
950,-0.8206600571374141,1.0034647522481555,0.3838616833439521,7.926398973129254,-5.820731127556093,7.24378721968825
960,-0.828482672923873,0.8405816955616008,0.32813739384758933,21.336667362451962,-1.902943693459172,9.770202473486393
970,-0.7853782001481502,0.6621198879818233,0.6208332490702171,11.312240559282607,-1.3832568198730706,-4.379024362935753
980,-0.6635879705656154,0.6959882012442529,0.28731911577611474,12.21552491177006,0.25747506629437833,-9.925165478534982
990,-0.7536470103515884,0.8066952186888225,0.34733311756698315,7.391079349450173,1.5713545355712615,11.828765060226862
1000,-0.7802510219955875,0.6736407706446746,0.4088494816800487,-2.1300128659949955,1.495768335140002,0.808009469991512
1010,-0.7705374859675302,0.6776168522159175,0.4344476665327274,-1.5971483591932345,0.9269675118999848,-0.06627255481495109
1020,-0.7469171929119446,0.6974249426271474,0.45389487557801034,-0.2361251013592347,0.016520767204556863,-0.8359267112124218
1030,-0.7687231199272062,0.6777264496258705,0.4218972617251883,1.4576466743261351,0.8710556245267753,0.949671952078879
1040,-0.7715559127634776,0.6789340494929678,0.421521592162709,0.6141560847920788,-0.2664485043938323,-0.04991184791326542
1050,-0.7297679491950956,0.7228690698318125,0.46752872119341105,-0.3612899855584879,-1.693458382608996,-0.7995009974011091
1060,-0.7347350676152523,0.7192699976452165,0.4715449609001615,-1.2482784153503603,-1.9084248316926204,-1.3227573882145236
1070,-0.7582936749465771,0.6941974234379323,0.4399719677405791,1.7881785330541247,1.4550958958229474,2.063959097094951
1080,-0.7822064554473785,0.6727564307214773,0.41963237116966445,0.9770818073028561,0.20106380105015093,0.5601580072331042
1090,-0.7649953988706408,0.6864058074188536,0.43696450985228696,1.2499492229396967,-0.24916382979987362,-0.10601547619207935
1100,-0.7264727157543598,0.7253218763449478,0.4751526555517162,1.6904435539982778,0.4147920800918241,0.6810677504790459
1110,-0.7449601342594097,0.7084151193917616,0.462332087631643,-0.8591245378133174,-2.5167242575676134,-2.2071000836791947
1120,-0.8005411376785454,0.646337059690485,0.40767969580919544,-1.0017841134592316,-2.0504844567113945,-2.1748797995629783
1130,-0.7644226657828582,0.6772903969386773,0.441084368043134,-3.3053860641651696,-3.700119008099943,-3.7536133646280057
1140,-0.7651463453170531,0.6842440531135471,0.4418632990850066,-0.7005596047679166,-1.0910186470798178,-0.5040680191266185
1150,-0.7647907922620837,0.6767371065429515,0.43391320254711824,-1.0358258810411305,-1.7270662964825458,-0.9817581694560717
1160,-0.7681909989187845,0.6786119026989534,0.440485506666955,0.2564186326169069,-0.602289966118889,0.38110533375434635
1170,-0.7591906850989374,0.685965793170993,0.44683838777857554,2.07414832234966,0.2493606686712434,1.3052650012177842
1180,-0.780473855867418,0.6649295250124582,0.4246294657884346,0.5429718791209925,0.9347642429949954,0.08935813708071683
1190,-0.7344597622878379,0.7106711475910145,0.4652362455460222,1.2406296842498266,1.301469193539579,0.8667871444789949
1200,-0.7566689801686061,0.683028764259136,0.444890024183948,2.2179880691442535,2.2298508065964557,2.145636603471087
1210,-0.7458284776660148,0.6958620316619132,0.46011118753196745,-0.02950665089736186,-1.0919935961725145,-0.25852868074571145
1220,-0.7597281366463509,0.6825380969458954,0.4375338937902497,0.9273704180575307,-1.2440199041422426,0.18603184555156926
1230,-0.7584406846643071,0.6917208630575234,0.45114716511742925,-0.48756201317253134,-2.193259746563111,-1.0598030582719447
1240,-0.7437212489435971,0.7004987188714396,0.4690301941220449,-1.8829271453141767,-1.535251153447312,-1.384098003182873
1250,-0.7931947520657807,0.6504343496171345,0.4156720629543932,0.26285447769931314,0.022207780954789813,0.6184062440095834
1260,-0.7182113228243904,0.721579927610448,0.4846194116667872,1.4448670918342619,1.199853825737955,1.393716504842192
1270,-0.7667687198374804,0.6848787413042722,0.4389171819228351,0.6092799162089717,0.005633017228103554,-0.6572791440663812
1280,-0.7567954944762584,0.6868224458412425,0.4473243952800197,-0.3447088739836652,-1.5815515227468908,-2.787551178077362
1290,-0.7366718913777942,0.7069845941689336,0.47389065145264775,-0.6821908638879466,-1.0142715550417136,-2.520785811115516
1300,-0.7783197906838807,0.668455631894673,0.43835664112919104,1.4703643387479906,1.448559824744543,2.5871189709026767
1310,-0.7528637311815394,0.6947646150853808,0.4522684571009015,-2.295189737831934,-2.208637744416549,-0.8853378723790304
1320,-0.7702970236810336,0.6728200959664119,0.4280607819101573,1.6429987071221013,2.554455345130985,3.2161727869984236
1330,-0.766792296391878,0.6835244710926139,0.4450478024777671,-2.3944910355846076,-1.1052302351258736,-1.446353484349506
1340,-0.7571752978952888,0.6854778754858845,0.4537967304306105,1.7454276193822698,2.8472834693123046,1.9436508214364219
1350,-0.7631893554856591,0.6774516600617493,0.4468857882451682,-1.7055589816847607,-1.387325090131701,-1.9779243811348222
1360,-0.7593048931568983,0.6761595362677518,0.4397277605933138,0.000874695175598128,0.3620841665070288,0.3363798455005307
1370,-0.7716138019617858,0.6725257545094812,0.43414132712707953,-2.688605905407334,-2.427070017537216,-2.744377542686774
1380,-0.7857343904636447,0.6546037820435703,0.4236025036801909,-0.017761167230511077,0.011924992090974779,-0.24176803339629924
1390,-0.7450723020443475,0.6979887167475637,0.4605616397881091,1.2466474444964688,0.6818285387268379,0.176264252511522
