time_ms,ax,ay,az,gx,gy,gz
0,-0.7175038630592371,0.44443475102566987,0.7888710405414174,0.7221025848951842,-0.3945372367294522,0.48303195305407426
10,-0.7072089128589357,0.45535376577933717,0.7951177009859487,-0.6161023232044389,-1.9886172983865533,-2.5290302803987728
20,-0.6945614321292045,0.4732163343565368,0.8160377352189774,1.2417646510994325,2.1780312619986657,0.23962953282362065
30,-0.6831747179071883,0.482516886164654,0.8158877012943403,1.3429822237447673,2.1965470967318987,0.42660194920640127
40,-0.7100594505000732,0.46005673397072094,0.7981596896627804,1.5087886678717046,0.8171314723527796,1.1357613808925766
50,-0.6943332106105122,0.4700959707013525,0.8112058560300656,-0.3902774031664548,-0.5837599440283668,-0.462191658290178
60,-0.6935279717890935,0.4724608285396763,0.8156822445697655,1.158342983232649,0.7045652864659965,1.100044744595427
70,-0.6982238229853879,0.46970373024722545,0.8097653186994322,0.7692588175004269,0.14642495379703765,0.6702159613857908
80,-0.7183513217418908,0.44851047068998345,0.7860967594458623,2.1576273794291874,0.9733690729321414,1.8320991946024088
90,-0.6997407875047467,0.4634673315675074,0.8008679131789469,2.7372562754154552,0.5219582317193419,1.4857807717492149
100,-0.684049942089645,0.48129226871967057,0.8198555393973634,6.087291374013391,1.4994193899234398,1.733291108253284
110,-0.6712935516878453,0.4998111446561667,0.8342684141073109,5.652359266658797,0.1531214771463092,-0.3034682199966747
120,-0.7233777201379651,0.45401489922192406,0.788024466314315,6.732641811257332,0.600750888111468,-0.1383241445670937
130,-0.6889304119489312,0.49263407887652294,0.8256035760005573,4.78100293490085,-1.2146602210404462,-0.8744961034453141
140,-0.6428450386944036,0.5292045750452041,0.8625080674105468,5.392351485363292,-0.8198846633048233,2.316545962628064
150,-0.7265899836841211,0.44520737818045664,0.7747402485371381,1.388552501107103,-2.653269850333166,3.8495439899764827
160,-0.6815509312655526,0.4777559259288629,0.8274316643756633,-1.5014659756796385,0.8818181794888271,6.417837783506426
170,-0.7300744808958461,0.36701945857617985,0.8882576477049187,-6.6523819950189935,-4.008740108315189,-1.6183984903024589
180,-0.7900719677962061,0.39223450977085367,0.9554155128525205,-9.921622040654684,-21.255879995691235,-13.614270514913144
190,-0.7359352917176347,0.6311687368972705,0.9252499301508997,1.3243712951064803,-35.83003649452402,-3.8922742004639472
200,-0.6685257066218578,0.5166108845274929,0.8602635378041193,0.33244105044760186,-40.88279076445024,10.169137515497352
210,-0.5982295825827247,0.4344379684570925,0.8074539280017411,9.31071373696399,-44.421203023642164,12.746739764480711
220,-0.5093961906826143,0.4480508620470699,0.8354090037756815,20.545599333725647,-38.69186846979438,10.125100431463794
230,-0.5369929705440403,0.4215286458277724,0.8540007341690686,16.347588881058243,-31.106155082516555,-0.5742534634385307
240,-0.5764502707955443,0.41239515649343983,0.8319737035066752,16.052888862753484,-25.03668913273646,-11.96737697143158
250,-0.5690192066564234,0.4725297569790667,0.8135151361196611,16.363291436522506,-13.320100613146497,-18.701522247797456
260,-0.5562817448892969,0.533811827983774,0.787461138652472,8.686910068078998,-2.130223280804153,-25.041396029806418
270,-0.6584243562799778,0.5640817037294102,0.9232850288963884,-7.022972736424844,19.011979597957993,-25.53085330463351
280,-0.697327300018323,0.5150437631409521,0.6996462608440467,-4.357182236027195,-16.47140070679164,-28.099648980072658
290,-0.7377848582000016,0.5411810476713308,0.7533496581693125,-4.597587647547293,-22.33357679812204,-15.724823495348947
300,-0.7255972129320278,0.5981419467407789,0.8660008916801945,-22.720130729698123,-16.232655046014102,-9.938683352531843
310,-0.729713390518918,0.6118374679940647,0.8325541631117953,-41.0952976094251,-20.407606683626963,10.350343349109462
320,-0.7056141068586653,0.6814247621564338,0.8291790438279992,-41.55651053701402,-25.595635157212165,18.81446994237126
330,-0.8745124972750238,0.17450113810417592,1.314613103547932,-53.850092431750234,20.80486385630858,39.713531177221114
340,-0.8338985388965345,0.28294573340147505,1.1957062671101901,-77.54028087810184,42.80699919295738,63.107185671141586
350,-0.7529090161483616,0.6632586926441911,0.5379413031806923,-19.336382077137873,53.05559225992132,61.150206801886355
360,-0.6925593526515451,0.13757462046548588,0.2101903042012788,10.337673464731793,61.17503785730631,54.28879908868146
370,-0.6429182903090227,0.2971800142507939,0.5040489610281488,40.817360793084234,75.76742147727448,46.98061524597817
380,-0.52248032268747,0.32556277661451277,0.9222003875055195,40.203997208168914,71.82753576296032,49.097092621060156
390,-0.7612963398659227,0.2614877249883051,0.5220219089286261,33.73244336504675,36.377074833441554,10.831404364252275
400,-0.5473654776558238,-0.013389206119156135,0.4523052189408425,37.59169191529344,36.27160085071636,-12.714839617309892
410,-0.7314734456288441,0.43810840836446074,0.6949481404793504,64.58418163661271,25.440834352518973,-22.473430407374313
420,-0.3670336722158865,0.21646630455557636,0.9166652463809223,28.67177239850919,23.45916965812567,-49.4484390773121
430,-0.5970260378238097,0.7317845022069206,1.039863163166822,-15.720687700879825,2.7938096012344573,-52.331195463282434
440,-0.5230138458310796,0.8237993391942428,1.0389105909730938,2.2622664507367896,-13.148348727307727,-38.795285718102605
450,-0.7168704780902703,0.5237461814046799,0.7900584072838981,-0.7276043637222966,-0.43032267415059994,-4.685299405610461
460,-0.7106385867722815,0.5090825192963028,0.7853810851896291,2.863964241099955,-0.3341632726173709,-0.8872622031962578
470,-0.7040559509950451,0.49919444551465575,0.7972619488604189,4.704580713692581,0.5048682949977836,1.5701797143978353
480,-0.7126524584201739,0.48987296941945,0.7930075887782504,4.186773222529685,-1.3650275892257446,1.4810664348150244
490,-0.7128891351445378,0.4976925868307995,0.7927559838000751,3.275888443953269,-0.2405397661337184,2.0077425864921827
500,-0.6955583850886797,0.5148330190192134,0.8072395853960156,-1.6127633889089656,-1.4145527072672222,-1.3551887816981725
510,-0.7081682665139587,0.5011431258520184,0.8039654676287691,-4.282711926861723,2.409137292133504,-1.7404968439301278
520,-0.7086634028086033,0.503768316277467,0.7949634657420513,1.0891928503767736,4.735225243077816,1.586220281814783
530,-0.7077923411456245,0.5097717572539721,0.7938230697280912,-5.480253389106087,0.06130584509199544,-3.2224789107766054
540,-0.7061268165211224,0.5079864459791292,0.7956184860391319,-2.575648519605362,1.8514612581342107,-0.5436719743489866
550,-0.7147826363388505,0.4994420035624226,0.7850128719566131,-2.75486072515036,0.3534094642983793,-0.37631696817816024
560,-0.7078549896023116,0.5078794781428119,0.7925125001282722,-3.7763999527985823,-2.2956702248858694,-2.3072335412520646
570,-0.7010898778256119,0.5045159185879942,0.8014403115861505,1.319252437259533,1.576971751976881,1.423157424529446
580,-0.70435008598675,0.4975067690702127,0.8007031238707273,2.4887123953446486,0.5676126238430068,1.2318868119377768
590,-0.7139489358057958,0.4949604235486369,0.7903603396325071,5.637436809823088,3.7800823665032905,4.887795088248172
600,-0.6820110365181201,0.5310181942843686,0.8210163338121537,-0.2208079126382798,-1.5071136338078803,-1.1351423965554828
610,-0.6941513699994895,0.5210537703652073,0.8100094846165392,-1.2356713087345559,-1.5265967351780758,-2.4093314641021752
620,-0.7284862032947129,0.48575431718051687,0.7778675342567798,-2.0779418417812616,-2.025912527763176,-3.1507231033897973
630,-0.7396444457114829,0.47392888267205924,0.7651713596473887,-0.24989190284203333,-0.9394270097696187,-1.3626439938761274
640,-0.7081993639520232,0.5054167042107426,0.7965279007964216,0.9588357022937606,0.4052681487216532,-0.4777221685713763
650,-0.6958816745085827,0.5178552371684908,0.8089160515913613,1.6212727121367108,1.700692849877038,0.3710609043750597
660,-0.7471950814302761,0.4665252299135149,0.7614748441855729,-1.6818012623229859,-0.05293545902035496,-2.0608614592011953
670,-0.6847611623227852,0.5213158387570768,0.820853547806778,-0.3543163704608494,2.168690600868694,-0.5391247242909061
680,-0.7110189660408177,0.4903197504605201,0.7928160611546895,2.255396146197266,2.4587988464137753,2.1969202194264152
690,-0.7141551245327554,0.48939438374469024,0.7907245297633452,3.7625793514656922,1.001883312016511,2.711141175659562
700,-0.7015687105858609,0.5142284551919699,0.8003766160606114,4.522436989815802,2.4885044536698957,2.315703644346852
710,-0.7051274118735144,0.5127340422395713,0.7982186157316693,-0.7799998324980911,1.0130224448284206,-2.0823277376411875
720,-0.7272516718548037,0.48752284005766616,0.7799213489032272,0.4449473517185769,4.299547943028068,0.03307109866989011
730,-0.7123740030050936,0.49403437223235613,0.7899956248314229,-2.7774476800051544,0.7769833770237073,-2.5974326925089577
740,-0.7006580369654264,0.49932977199213174,0.7982342831935976,-0.2697759407973441,-2.240462227237127,-0.9836846126424156
750,-0.702090427691718,0.5046986331602225,0.796075091744075,2.9306508744812723,-1.216549414244632,1.2829833961967192
760,-0.7040977703190168,0.5140179111008094,0.7968749841930364,-0.7127024741807488,-1.0247833946075524,-1.869767397232547
770,-0.70404912623782,0.5044517365923165,0.8025437986569086,-2.540233098342831,1.0936238091013812,-2.2996077694718844
780,-0.689293512245648,0.5129898665567357,0.8172557895330882,-4.8535618167804415,-1.4852498770950222,-4.123134896255122
790,-0.7022149163204956,0.4979081324877306,0.8033076243972025,-1.311707964894429,-0.1742451089640647,-0.7463504810941128
800,-0.7149749956009374,0.48848488634581055,0.7933083082600857,1.977625143299052,2.346014391460196,2.8520355520382816
810,-0.6836386135945584,0.5208841048173962,0.8207428736746042,-0.9344134733819307,1.0885501808600646,0.44583789625342857
820,-0.7145408473031782,0.4972647652332235,0.7930381080466038,-4.097510130869839,-1.2499585709217214,-3.31287179989478
830,-0.677059549951371,0.5293973794439923,0.8220325514834591,-1.8288505978032519,1.27657097870402,-1.5365393544735921
840,-0.7114881836805176,0.4888621423982855,0.7912422659415186,-4.283262623951998,-1.1164409623757934,-3.365107518113292
850,-0.7169738237891126,0.4773779001155825,0.78252272583712,-2.096128101840494,-0.8189394507119501,-1.246963400086886
860,-0.7039860666715905,0.500741463214593,0.7999570815535729,1.9462286444301249,2.874569657055309,1.7589005113959013
870,-0.7209988181963686,0.4781355437436122,0.7770462648445255,-2.9270953458806392,-2.5524042125409654,-3.5613518093382917
880,-0.6939717787942038,0.49707598007133486,0.8078148056658642,0.27501821070948895,1.375600929362063,-0.4748606322893796
890,-0.707956824389821,0.48467899137204773,0.7947475518655798,-1.7979125950088253,-2.3768413421239454,-1.938658483153803
900,-0.695206479865239,0.49796395894552514,0.8088767874446827,3.066822353349523,1.9149736998449836,1.7650221834765154
910,-0.7185003851547374,0.4812274861251182,0.7823065226983056,4.5897458705280965,2.337602141260372,2.6251862442686926
920,-0.7013992088529802,0.5051513188054282,0.8009888345919809,0.9535244374540781,2.6778345364341263,0.078421602639547
930,-0.6974207753984103,0.5033757050913994,0.8041712358865373,-1.8281556624941737,-0.514043192047164,-1.876930486580217
940,-0.6917340390515236,0.5090781429430494,0.8165498824876751,0.5292751982138986,0.29819706321408157,0.5051357921585826
950,-0.7019857839983941,0.4990836632319193,0.8019789430040133,3.71354437783432,2.478315676466279,4.322097398967369
960,-0.7042155167545765,0.5027421641490588,0.794591066708618,-1.2234423513171382,-1.5905720109322963,-1.311137023888706
970,-0.6961632964638412,0.5091838912395199,0.8178055848011485,-3.3257838595289018,0.3486763967395674,-1.7478292094371242
980,-0.6877601384950943,0.5052911810615038,0.8146639223765881,0.2323391258879155,-0.8248260379123047,-0.3586031610357725
990,-0.7046161170182803,0.4940431445956,0.7945510037364336,4.8418997211289625,2.8488371032080617,4.057923873721438
1000,-0.6978372677192157,0.5075016210068297,0.8014170840095913,0.42555711438629895,1.1833861221048716,1.4999131457187667
1010,-0.6982577709859771,0.5137159002669931,0.8067073256956946,-3.978627876228269,-0.9542235879095348,-1.8599588410228285
1020,-0.7076549520403705,0.4908585389718558,0.7971642794992994,-3.2443652408020895,0.7411160456054102,-1.3111123054967044
1030,-0.7026553605934656,0.49301487130835203,0.797947744478129,-1.5266511851087277,-0.1771775630453988,-1.3062534178281688
1040,-0.7044037978099406,0.49013313545708714,0.7945716748760538,5.05644889414361,0.6333956914815706,2.067915592100621
1050,-0.6965057116271095,0.5056120082123732,0.8041595439712736,4.840308530845826,1.0799558054138074,1.9926846431682528
1060,-0.7017940299458911,0.5056464399632572,0.7985945521763584,2.624626362586212,1.2099001039540527,0.6816541887449488
1070,-0.7000238340355077,0.4994198549552755,0.8032069655599992,-2.6387254195006014,-1.7937015015459639,-2.959827283378926
1080,-0.7161798490273854,0.4782533827041454,0.7852872796966301,2.6631950797507105,3.6246143510602633,3.3096789656533496
1090,-0.7088605679088056,0.4896057321524748,0.7915384179488741,-1.0933166830645002,0.3104365119670035,-0.2763076774382547
1100,-0.6911747841044413,0.5106789014503091,0.8107276780530793,-3.6985926737833674,-2.028196953515214,-3.305536485148245
1110,-0.6842826198738373,0.5155610746109827,0.8185993593763407,-0.08716852859932223,1.429359382206432,0.7966811173916022
1120,-0.712256821063628,0.48896042639802717,0.7894917915004509,-0.45783706198773816,0.06920171577062872,0.5527802237031554
1130,-0.7165113297770057,0.4821236225701919,0.7808799972608197,2.5655669556388307,1.6971689580365776,2.9317422018037504
1140,-0.7091628724522112,0.49447585112155146,0.7893016885931858,2.2513131308002414,0.4736490855901567,2.3379046747640815
1150,-0.7338391984517457,0.4707240483128484,0.7695758988529742,0.5615174576502024,-0.7121423883261457,-0.4386525398638689
1160,-0.6951995662495933,0.49945963043677255,0.8065754510158087,1.618740346739452,0.3971501239418522,-0.46222616224100976
1170,-0.7019193739011388,0.4964576609049773,0.7985762980800059,0.7103958520491005,-1.8118344285550945,-1.2578504607763685
1180,-0.710902492231506,0.49149926459854465,0.7880385925998602,0.6071304517911011,-1.9046078373973891,-0.6376017547784636
1190,-0.7360397900385355,0.4658828914280859,0.7633459057580833,2.4356289979023,0.4516506868473994,1.8464479711200656
1200,-0.6901464033249103,0.5134589020564454,0.8096466658406465,0.529374244749093,0.4486894348777489,1.0208145587535642
1210,-0.7012515953140327,0.5091846104653176,0.802264295583242,0.98785507257994,1.0089486922020565,1.1922744903022378
1220,-0.6903842736257271,0.5182403770766514,0.807886159960137,-0.587897045193534,-1.0954000047221994,-1.0569827526536375
1230,-0.7338318375496149,0.47169084755164586,0.7693027393144662,-0.042343702141926676,0.06254488005673703,0.1071523718374523
1240,-0.7170852900749851,0.48878295175268066,0.7866156159194808,-1.6827660299841878,-0.24798212815750156,-0.43878522808282394
1250,-0.6823623396008843,0.5187054143251744,0.816169891916428,-4.608984096495952,-2.2686620140141818,-2.527676216502253
1260,-0.6864053020785945,0.5137529651540758,0.8134338759601463,0.14505551729337274,1.4785552647594942,1.4954937796454066
1270,-0.7177180121007122,0.48112544643115596,0.7822677064287487,0.207181330766857,-0.05134723505055577,0.8208375754228785
1280,-0.7176334697622454,0.4841183867076964,0.7809546295484672,0.536755159432738,-0.40030670120685385,-0.24187169100146053
1290,-0.6782413378699078,0.528960685575101,0.829715906785719,-3.3911411305873678,-2.330958353887735,-2.9376978282444393
1300,-0.6999883423588857,0.5024055322139362,0.8083197748650776,-3.9554874038295917,-2.193751694069651,-2.879911408166375
1310,-0.6849710865860581,0.5186275548712156,0.8191707028760188,-1.925495678406223,-0.7238985828768473,-1.1792458721961196
1320,-0.7228057657373791,0.4755807575622713,0.7816515531302985,-0.4946654525821671,0.8247852886327063,0.5993201663485461
1330,-0.7203440283930327,0.48267635660088004,0.7866075020329489,2.3657174356334085,1.3195428794208177,1.9359255673741995
1340,-0.7153809217729423,0.4926416483095769,0.783670326370283,2.737921960183299,1.6699897642197703,1.666554834900337
1350,-0.7018464255630688,0.5104084933547526,0.8056296190094867,-0.5601410807407178,0.9698701986550278,-1.636150007011334
1360,-0.720719669559191,0.47674361149430144,0.7827548364562984,0.4069708999230206,1.3153279153296005,-0.13288020325374328
