time_ms,ax,ay,az,gx,gy,gz
0,-0.9267060790131683,1.143942702804602,0.5363127890487226,1.5108749903209588,1.6173638311076406,2.374322518289791
10,-0.9200650541688363,1.152610275738966,0.5305515862949501,1.2310130940623663,0.969543036805061,0.9135600549467299
20,-0.9091839877353936,1.159903153078706,0.5412814721870218,-1.5745720616667604,-1.5240487039086714,-2.3646891774373877
30,-0.9074660342839617,1.166147375349789,0.5449117101925174,-0.1414618656701411,-0.19505035163515902,-0.667111496370738
40,-0.916638881044338,1.150829420117744,0.5368118245102279,-0.6634074781927574,-1.054450647292953,-0.48007482004408897
50,-0.9210504977522321,1.1632779984854755,0.5410105719451068,-0.3080127625049303,-0.5344363312215094,0.46157722707542226
60,-0.9102033382864926,1.1646919384017513,0.5476739961499809,-0.9175289720648309,-1.0752392665119535,-1.4698406001725781
70,-0.9199614318301497,1.1577296099995134,0.5424718126314119,0.675038063935574,0.5931909634445194,0.42277690606442375
80,-0.9186369582989357,1.156794973047904,0.5362547083526623,-0.30303165787239267,-0.5030961769711266,-0.5286323085520661
90,-0.9155826352228839,1.1564711375746253,0.5461257178563372,2.3717756013212825,2.067317566416021,1.1692270741211057
100,-0.9072080201459496,1.1680903955324937,0.5464504608438844,-2.3710082108174526,-2.123047622693089,-4.118729159618532
110,-0.9242372543782719,1.1528572693432695,0.5385314273963491,-0.28269978158846454,-0.7198835557510488,-1.6652959381750079
120,-0.889972808776551,1.1872521891260683,0.5683983689893511,1.1995262927901915,0.023469521281383465,1.12810002876317
130,-0.9039556908095518,1.2231871108587524,0.519437152274198,-1.8996555788833862,-0.18861283898081904,1.0491047173906631
140,-1.0126393905058493,1.376034938932578,0.7879956286932558,4.3818740972267,-3.2946838644393046,20.92256360716863
150,-1.1934136759296528,1.3254434563727016,0.8767813356871486,-11.769331024048187,-41.86554579617386,61.95243940714566
160,-1.0495712163267936,1.0112863476443363,0.8513754563868682,-21.461351431544426,-79.70476911822838,62.46166889985396
170,-0.5748498192677232,0.8268139128096644,0.7504976991353354,-30.785707258294885,-88.53052709293264,16.34587970424201
180,-1.5156588743006774,1.7042228253419043,0.853254883131206,-45.98874518886484,-23.071752687820613,-29.367962033056152
190,-1.0135396094509175,1.4575023930238589,-0.13719533999639752,-74.49986436347051,-8.052826840065741,-36.00760649453471
200,-1.0608455959928407,1.2025885023872307,0.029366458230624417,-68.9108896164054,1.5031399700941317,-34.00209651822909
210,-0.9509309119369883,1.1022632278774764,0.0956744945257814,-90.19718702492902,2.0182764393764603,-23.498879916764515
220,-0.45050002744645007,1.3758503552811703,-0.3402681149455058,-60.99318987351113,71.7100744885268,73.33396476122394
230,-0.8244601921034136,1.0212640492985086,0.9579086335282357,12.463518981749678,70.97563290574695,52.61719927775244
240,-0.9638300309239345,0.6091592830624982,0.8048147104660504,-0.7709166209436233,30.347587599310867,-3.620756827061066
250,-0.8664121813658218,1.06149455281915,0.645744781038273,57.360073962810574,14.205965608883997,-19.185666416019597
260,-0.9543171074024777,1.250919973755485,0.8628024159829748,117.62265007413075,-30.525774303974874,-45.08921909038931
270,-0.5384661130550977,2.010199187683407,0.2800544906796077,123.55107177164369,-44.73331256970947,-59.55415510760175
280,-0.7343298270936562,1.4943754193081393,0.3349386243383802,47.16647118773061,-10.730525311954068,-18.036402047827313
290,-0.91793289462542,1.177680167920772,0.5421379400250486,12.555482222103528,10.975599915906233,6.824931920468581
300,-0.9043035072232535,1.169274358128882,0.5455983784624566,-0.17287550118739503,4.372675360940961,3.9340923061882096
310,-0.9035845268158139,1.1491971836217896,0.5714490617526888,0.03302240001531542,6.452527431163034,11.28763303788971
320,-0.9203816039105557,1.1501669102894354,0.5446909687770563,-3.75609584969409,1.4534397607723344,6.419804074231692
330,-0.9337658960424188,1.1294362158178037,0.5401499475486297,-1.1054218029395262,-2.0123802244610296,-2.928328188974532
340,-0.9247638184835534,1.1235599898582087,0.5771723241818081,4.609104365353681,0.7294904750357452,-0.11848123073495476
350,-0.9171985642490558,1.1186300478208935,0.5808409965648913,4.237735426428932,1.4348263926064628,3.9851842806284234
360,-0.9225307053364511,1.1316451793879543,0.570004718559433,6.253874506447355,2.874094971125812,6.434178770965538
370,-0.9344998090044943,1.1306155962801385,0.5424247366213983,9.405155244283423,4.580889068298277,8.044156878520978
380,-0.930624624626639,1.1476749956543713,0.5408978754180619,6.520323865711703,0.3585208271236293,2.3443293167886115
390,-0.9147452815215766,1.1396811390347221,0.5530309542939963,10.885993950302328,1.4126796545142897,5.661046834458984
400,-0.9211923831186271,1.1437592862920156,0.5407956177798026,7.353300106572624,-0.7089272035535821,4.274288814045002
410,-0.9245083007335302,1.1496043467491803,0.5446789557954601,10.273955577202106,5.451455901814258,7.896886280959582
420,-0.937708207979131,1.129288849348101,0.5213689964794773,4.570859400044297,1.60438243988772,3.962483809256697
430,-0.9091222251142022,1.1700121893764366,0.5508858224428146,7.275214133505671,3.662811312589505,5.412570345473234
440,-0.9164922994435003,1.1594959335183916,0.5301871210263547,3.0125174579702643,1.1290133665311965,1.8412493931433642
450,-0.9101426300704896,1.1537651466943641,0.539599765285549,5.632826598361448,-0.37436768408894916,2.1975416421377223
460,-0.9221441357525931,1.1526647895567415,0.5356278766548437,3.2943729668566104,-0.4247871158890374,2.0194698305023686
470,-0.918074136370096,1.1620726281539218,0.5426439994436446,2.991628562159965,0.475433487796018,1.0332338747116157
480,-0.9238230337263128,1.154251364323417,0.5285033894843324,2.0862605519435675,0.8181032600568041,1.2345457140006995
490,-0.9129910232144182,1.1667734107771062,0.5372518772980914,3.459926154124293,1.073740521154825,1.315943205734547
500,-0.8827651508829837,1.188891961577057,0.5633356144471773,3.969754952424212,1.3792452425344404,2.55873739644982
510,-0.9350180094230249,1.1454951704143561,0.5107268363122828,3.7791636331732397,1.9154901980563828,3.241744296015887
520,-0.9079778378244339,1.1696179324187528,0.5383115695427325,2.615339972260241,1.3233186956620844,2.0940264518625153
530,-0.9298004965223682,1.1448952806052506,0.5197484280782692,-0.5579169042217094,-1.8176822721417203,-1.1669099566695025
540,-0.8859032036923649,1.2003710037915765,0.5646087088585928,1.545822177847138,0.5230757479871899,1.2792057767648022
550,-0.912329199413074,1.1646132530631021,0.5231481115206777,3.96077368227351,2.17927897640528,2.05586318119926
560,-0.9106349949719365,1.172747956862773,0.5381534661152271,3.1069115349842633,0.4679989317408994,1.4006986184438366
570,-0.9119119453400214,1.174268560992843,0.5339602222960159,3.2514516463934244,0.9061529812063971,1.2621969630045091
580,-0.8950374454665637,1.1878186328376217,0.544635868670457,3.789259150352441,2.8681205293195284,4.3097795783600645
590,-0.9285754933436217,1.15053178268823,0.5095424014001775,3.502233904474138,3.2228507406935494,4.411568726092339
600,-0.9239166424494691,1.1623010284672173,0.5206291745005347,0.09703148722104663,0.19234892395409298,0.44186895977883944
610,-0.9308743627178663,1.1571045916939595,0.5136245409555105,-1.2647576630194521,-1.1282225730493933,-1.6304778095538632
620,-0.8991197087668795,1.1798247802726032,0.5414299086148606,-1.8878583751064435,-1.3382073624872302,-2.440885971059844
630,-0.9013485675228117,1.1825439046346062,0.5379934603702422,0.24429962696783925,-0.04846085403672373,-0.17755209578756126
640,-0.9085145267500246,1.1777885468315579,0.5367344000411324,-0.414585666446368,-0.8885171564554029,-1.4805100231967026
650,-0.881826233022293,1.2009994244492852,0.5661789761588684,-2.3405787312563424,-2.735306147077189,-3.6096943049833516
660,-0.9093911291111301,1.170644832336595,0.5402537810632797,1.2080861394392106,0.9708802617273172,0.892545746714422
670,-0.9324236216482368,1.1499509715316933,0.5101094132656109,-1.9119245500404332,-2.3175360175179742,-1.5517820689964243
680,-0.9145688395936349,1.1671574965186866,0.5247864143221663,1.8212191422589807,2.2059298211808875,4.166613818684686
690,-0.8889294048877521,1.1929801060995286,0.5504620413175919,-2.1338760593762975,-0.22630865159532387,1.528549109172371
700,-0.9044919101475999,1.1789450594548483,0.5377611329870217,-1.0318381377964205,0.28347161437410995,1.262922041785511
710,-0.9191504985572717,1.1662413925139263,0.5288174593374056,0.37274451296171196,2.7204941531626585,1.9858361986640911
720,-0.9241174545828086,1.1617923705411421,0.5206787400235263,-5.298452957260802,-2.604812939445691,-5.380001339910027
730,-0.9190712160879482,1.1507697261811205,0.528633057187027,-4.289913102303983,-2.77421507559479,-5.019667024014522
740,-0.916174404554832,1.16189990325374,0.5249507974494043,-3.9669796962976656,-3.532284948551652,-4.285575041769828
750,-0.9273778134048392,1.1498513298313677,0.5121186365959298,-2.7093527206318786,-2.541445646040039,-2.9541535893054
760,-0.9309829299737975,1.1510471225159171,0.5057772393889508,0.5376482120076318,1.3563145448267353,-1.9377756972120244
770,-0.9222240314615401,1.1621426015007126,0.5221262034369996,-1.290083403845102,-0.18456833438180592,-4.972334778025432
780,-0.9264511955265634,1.1517032441666475,0.5210773377170587,1.2902233539649306,0.28231218427214794,0.20174061952370997
790,-0.8974673517444222,1.1745608328617947,0.5433906924088189,4.5235305901309815,3.9218520271705266,5.677036017106669
800,-0.9067049079458788,1.1769793183443789,0.5423155322849512,4.720461891337574,3.315903803006249,5.469438767397664
810,-0.9160314091148108,1.1671929465305313,0.5344861511436318,3.351816009879071,1.6085947358722354,2.624206019376136
820,-0.9022506608867991,1.1825616661744514,0.5451535961942733,5.013136932884912,3.0973355789009838,3.732015502405144
830,-0.9005959670883698,1.188250466317978,0.545491049814365,-0.5510024844255348,-0.6103551306913251,0.3681168630595757
840,-0.9139259110146468,1.1685395127400402,0.5308705939866888,-0.6999401613697649,-0.592376803856068,0.19618508616853636
850,-0.9244245100028322,1.1566487581303162,0.5209065464145014,2.687934211240957,2.109075483977866,3.3536475972157334
860,-0.9322997525934053,1.1490788313778408,0.5132517869875202,0.7066008123321867,0.5017319410981628,1.1440009116715588
870,-0.9186080513455236,1.1704225187057111,0.5268638760319431,-0.49936530602560736,-0.7506236555684141,-0.6483751147769838
880,-0.8928293641297663,1.1891817546511603,0.5614604798525431,2.4163764487197175,2.320201738372208,3.0420417342254265
890,-0.9313278686724881,1.154612070596715,0.5067135338157848,3.411198507505391,2.611903868112444,4.873194498705104
900,-0.9098961130014744,1.1762391756407975,0.5360674822206437,-0.4795516719573557,-1.0454760323006886,0.2513650259971788
910,-0.9188562774341128,1.172731199268657,0.5317543112176092,1.7331388707875988,1.7855505085468026,0.9235407135295107
920,-0.9049349443727481,1.1816638759861582,0.5420765050652823,-1.4984738946377862,-1.508123078529847,-2.303024413695101
930,-0.9318503224202972,1.1549901934261468,0.5152105322452727,-0.9199281780686407,-1.1814803071636437,-0.43661779094508657
940,-0.890352215909044,1.1885906535442634,0.5624282657072613,0.0709800957590801,0.11174734297917838,1.203294651918346
950,-0.9144830227918879,1.1681716292937385,0.5229215609358808,-1.4263741436972164,-1.783935626175315,-1.3643662414074411
960,-0.9254207506585694,1.1610619400465594,0.5138295423501666,2.3321548783958486,1.9879567881529518,0.18425098301076837
970,-0.8997353695091935,1.1831336323357873,0.5467707092648897,0.09189741860667094,0.08079481653341253,-2.3222528007818273
980,-0.9139993478571278,1.1696774537464065,0.5256295093340336,0.48074137548992446,-0.02409311129101263,1.0926896738713852
990,-0.9493245409512063,1.1359890321912938,0.48575648417786715,1.4250894300859929,0.968858221142431,1.7520832102987143
1000,-0.9353867678648,1.1546581354572916,0.5079063296489537,-0.9538020709573887,-1.0416055842595187,-1.933997989636555
1010,-0.9080344141933673,1.1822640075034798,0.5351447748615614,0.7494945896606995,0.6016231988823635,-0.866487721404032
1020,-0.9271764376809768,1.147294960787404,0.5185160848063018,0.10768914643130933,-0.398830111577405,-0.4092359137302562
1030,-0.9193090572453183,1.165209257903213,0.5232483844402552,-2.4078729490667063,0.11447162372562475,0.8187542947112076
1040,-0.8887497567449072,1.1786656688275658,0.5594453411770091,-0.28276043281753815,1.4014732210665313,3.675809984201726
1050,-0.899882133059571,1.1762523648538643,0.5466841605198755,-1.004173090660175,0.2559672719983228,1.5951749194465508
1060,-0.8960627578668329,1.1744515736735857,0.5414268254061542,0.10108281131150765,0.08723259773189551,1.4243425859091143
1070,-0.9376677754107124,1.1560338291817915,0.506068642232363,3.1198096427669393,0.9957747726999264,3.4579739415484285
1080,-0.9101332231532016,1.1794902731327368,0.5407104794939636,-2.1105151742351014,-1.9043565344324827,-1.9656702599826645
1090,-0.9035259257167599,1.1798893113018418,0.5442518202120107,-2.379008506772935,-1.83865757857936,-1.644663670379143
1100,-0.8911142868762484,1.1903255656773513,0.5555357231044343,3.292101447774524,1.809129016379029,3.54214751022721
1110,-0.9166695660237066,1.1807363272331854,0.5279861019925567,2.766807945154543,1.819592015252235,1.994460751229964
1120,-0.9213944055200094,1.1695725362728737,0.5181089727067039,3.435441285919227,3.7532239240076355,2.2998170094643875
1130,-0.9294092307570065,1.1533024405869094,0.513812476797393,0.7987124745185521,0.9607218636588637,0.48185859635883277
1140,-0.9099002702504929,1.1900349698905828,0.5295634795272092,-0.9413968603989029,-0.460390521576978,-0.8747676318644055
1150,-0.8995483951855773,1.1823253994689746,0.5336337018777869,0.19351265084864744,0.6751786180255512,-0.4824672963069699
1160,-0.8914149085438059,1.1897677274462277,0.5485429271685551,3.1164287847725345,3.309946595736731,3.1934297248418857
1170,-0.9047399401738532,1.1848179827972543,0.5374336327617389,0.11972305478813805,0.5316815936277706,-0.11390661356577136
1180,-0.9230233729413396,1.1930461094077376,0.5362388333179865,-1.4861304769681816,-2.2460259174007304,-2.854413711602347
1190,-0.8948266974486446,1.186968587733747,0.5363876214535193,-1.2058278927346942,-1.0624472920545467,-1.0678451669496338
1200,-0.9089343083307523,1.1780319094719043,0.5309483257598283,2.1101509658342876,2.6018173986745623,2.8267724068919167
1210,-0.8856484007449331,1.199534789925748,0.5535320449891611,-2.13651758345553,-1.753452263767512,-1.4255705655737017
1220,-0.9108827139352047,1.18283937107827,0.5233911046609709,0.33766013444493004,0.609549129066103,-0.5140424210907435
1230,-0.9000911690100789,1.1842711539046396,0.5327752675581313,-0.6729703594428796,-1.3977192252255208,-1.5938453383078546
1240,-0.8833885608702623,1.1975105707318776,0.5462154413913759,-3.3700999314083715,-3.0147711182774533,-3.132049325654085
1250,-0.9109018926941203,1.1805743471379497,0.5298523293206846,1.5648804052762193,1.3189331340979853,1.484098516048822
1260,-0.930928984693469,1.163746496135635,0.5155353597089798,1.3748302893872049,1.05922256928678,0.43235296927707284
1270,-0.8948533818540984,1.1977369001343536,0.5429293797120112,0.37834216611117144,-0.18907921188307322,-1.4020085440943404
1280,-0.9146755277917837,1.1768399493601902,0.524740690162913,1.3630873255559879,1.7692287024826323,2.254738659270475
1290,-0.9027253119428114,1.1881044303392096,0.531551110423197,-1.3096561695847933,-0.26682393868390836,-0.8292508429968073
1300,-0.8849543205143067,1.199845116364669,0.5555811372557086,-0.6059619489140179,-0.21348977858953494,-1.8703853861531021
1310,-0.9165279673456833,1.1646243005299837,0.5177034832256534,-1.3607371655023761,-1.6177382330752001,-3.4261839719550773
1320,-0.9071682472344585,1.1802415232832792,0.5362748936310172,-1.127513517796386,-1.002554568474119,-2.5899362859306208
1330,-0.9183472123376902,1.1709666918758972,0.522494849432014,2.201551303129019,1.8319085812626026,2.459413564753843
1340,-0.8914478020334979,1.194439010114185,0.5493659427894316,-2.572191415989603,-1.3480837866572917,-3.0911406437511344
1350,-0.9200417795093815,1.1621063345843294,0.523303122863729,-0.0673788938412545,1.210935231825418,-0.569538180536064
1360,-0.9373748655496632,1.1454698636970133,0.5027473654756455,-1.3213313320094873,-0.4342701392870041,-1.1166656184582053
1370,-0.8815010493759593,1.1985627634966738,0.5542908160573901,-0.8693316543678271,-0.37762440987243157,-0.5311247298966424
1380,-0.9134029352610658,1.1649502187729743,0.5277283654265501,2.0380937173843354,1.8624805883419282,1.0973801781753212
1390,-0.9229455536066594,1.1602557851885358,0.5301046532844897,-1.4124922547700114,-0.9061147330308118,-2.8709153063292683
1400,-0.8936482266723003,1.1863542214512057,0.5569841869793645,-0.40316716814168607,-0.2858218981344619,-1.8610303469920138
1410,-0.8966146895438076,1.1843334453938605,0.5489541854095343,1.6802124825191425,1.3756360594873622,0.5141466151963717
1420,-0.9644705099132435,1.1184939240994387,0.48052552603151333,-2.089753683259933,-2.0174214669124932,-2.609780915655647
1430,-0.9309499248038959,1.1318189586924907,0.5039961995718414,-1.3085549006289858,-2.2626259584097452,-2.999768214367311
