time_ms,ax,ay,az,gx,gy,gz
0,-0.8689901455638201,0.811795203929903,0.622170455634553,-0.21642572553667982,-0.6548565597470664,-0.5822439294450761
10,-0.8366856567423854,0.848237225061345,0.6547106425848905,2.0425729898689466,0.5432608943256544,1.64538045180926
20,-0.8643770972833582,0.8171941832219363,0.6162617804274231,-0.7440143887305535,-1.1329140147120538,-1.5132652367958892
30,-0.836542171660153,0.8399854215607807,0.6432076472318345,-1.1086279392160225,-1.178396458525139,-1.477522061432387
40,-0.8501345088111752,0.8279938968799029,0.6386371017204457,1.7980983659684198,1.5780161760045779,1.689891410391247
50,-0.8474081796295548,0.8373211866228236,0.6458186641306559,-1.6091473928898723,-1.9749245881243849,-2.4216021338718425
60,-0.8438053923288991,0.8384928823970884,0.6462159830853771,1.6518693071011263,1.4159083180798195,0.17574343249246016
70,-0.8565058876849453,0.8198808503346264,0.6282272227682706,-0.37245912523966684,-0.9207535538552942,-1.5330568809137088
80,-0.8621789897711155,0.8179313531945244,0.6169888968992593,-0.7514255228641613,-1.8117645954000814,-1.183755450836245
90,-0.8514607274940272,0.8341626433968619,0.6281867230002208,0.5666079538678316,-0.011284779547734047,0.5673329214422942
100,-0.838147087570037,0.8422087546866681,0.6551367739191337,1.6222739521179428,1.7943192363045697,2.0523573890308056
110,-0.84597957950372,0.8351840148887357,0.6425147556228556,-0.27041146083893286,-0.3051717505501599,-0.013211785501502926
120,-0.8746281440725006,0.8042645084521429,0.6132091581544356,0.8969939000227403,1.561703558033671,1.5896826089108893
130,-0.8498275124531496,0.8325253563999607,0.642208794845484,-2.122132077928509,-1.5185138409201981,-1.6174771147997213
140,-0.866821676857882,0.811102993868769,0.6167263245264201,3.9204222179595707,3.410322589054394,4.306632395408619
150,-0.8854453041955993,0.8005645616736238,0.603624547032372,1.8607222535154988,1.2220886353681963,2.0835370830897935
160,-0.8521337407891586,0.8295778024629861,0.6330284900626757,-2.135524040895211,-2.716835220753542,-2.432938890319443
170,-0.8441818499436263,0.867008645455953,0.6628878315896745,-10.84950640686257,-0.5638841059220723,-3.4186918253018446
180,-0.8467660443321897,0.8626136701920573,0.6734342324210696,-21.312060618599677,-0.3354634902336959,-1.7011824367626225
190,-0.8488917882231037,0.8887332574433944,0.6753226242490239,-21.145143036352543,1.0728553500697542,8.03177374519693
200,-0.9161914091721308,0.9722254326479375,0.6042231761982916,-23.473665991184088,4.737168323751241,47.938509211130096
210,-0.9807669659660557,1.02280333349431,0.6376562512325656,-38.16642429266449,3.4218497515899458,85.22008291408056
220,-1.049721463007093,0.8618989928080972,0.8944689491981727,-49.97084497504874,-11.251078423178498,58.51203099894528
230,-1.1122862340602218,0.6615623552790628,0.931519304805407,-61.88402462901208,-41.755972703667624,36.09347847262116
240,-0.49683718133279375,0.5524256618161479,0.5991175952880955,-47.90649435109402,-68.13955402790532,-21.20137994121358
250,-0.31503416371099424,0.5925478092008019,0.532550865769501,-54.91112862746454,-39.224753119615876,-63.92996370394056
260,-0.34608596453187995,0.6945381206498517,0.4714034056326851,-62.274795484377066,-6.163038812208015,-103.7659889058897
270,-0.46987773052043524,0.8383104473062404,0.6627779954109321,-18.05788522530417,20.53289202052374,-121.7213602465683
280,-0.7254324773124013,0.9831628237441656,0.8386037296839307,14.05427653967016,42.41179837336003,-118.85168153206565
290,-1.31923654385517,1.201283555516257,1.0657318842743504,-102.73209179093045,-20.50688365123102,-135.2778895869896
300,-0.9581397390403995,1.610921033052043,0.83168245973023,-116.51728020636412,-26.591250328214464,-87.47676037581775
310,-0.8308605103243047,1.221095099537454,0.44294532119822794,-86.19950213864112,-3.2958327741344,-25.121900875925697
320,-0.9935721118088273,1.1036988328064368,0.20484304949611482,-73.29780123688192,24.110815944834826,66.4466207535352
330,-0.9214816360377456,1.5863917036353024,0.010176006441041007,-6.634099516125186,45.246884905716236,164.40330099464705
340,-0.9385882178882822,1.1513856498262771,0.0661083968048568,95.89293030805146,53.559425019541095,202.28662760125158
350,-0.9275999530543513,0.22201292214555,0.3174445243422661,80.81582575520501,58.92998877670747,197.68648474472937
360,-1.1087729744764037,-0.12187790120986682,0.39258044960705535,107.73862875451574,54.10584413718011,142.48694285974003
370,-0.9230515166090669,0.4994154984897643,1.1625485135562743,78.56121141461931,34.56169112291119,85.48924585103131
380,-0.8695580015087313,-0.17440228251624798,1.0030368662003424,100.54685249173185,12.68993877595561,-7.442463456465401
390,-0.713368903398649,0.5023161798583976,0.5559608596127209,134.84609394637513,-14.759987550688038,-35.95668889281383
400,-1.1274464239489128,0.6934750450401743,0.8019561736089946,53.95685490546243,-25.647174643398227,-70.50285503018335
410,-0.7825831308691551,1.0520828446922803,0.6333716952608393,75.0924514444807,-38.527961591350994,-87.05645933597303
420,-0.848230348697032,0.9142001285327757,0.7390521632246401,6.049623518208763,-30.00213548926306,-99.9479094046609
430,-0.9329716712519257,0.8108763435589508,0.719364464912547,-20.703953369228365,-6.725562669959405,-58.895442105516494
440,-0.8805280474824577,0.8345998546844982,0.57930068174477,-8.499849810046058,-1.4422490445142089,-24.635245031800554
450,-0.8345676318100661,0.854813400749452,0.6142805356276487,-12.750282458037423,-4.491046002272264,-20.55021292527881
460,-0.858838458669233,0.8293976933125782,0.6087759731641539,-10.93004889108784,-2.788910100472653,-11.033703208472701
470,-0.8688903656776812,0.8134371958351295,0.6070261564669964,-12.150822631755458,-5.1541351168884955,-7.11863927944699
480,-0.8380486445695787,0.8412076893091927,0.637305806974252,-15.636259125706305,-9.979536336240812,-7.813693264818415
490,-0.8608765237037821,0.808020769679154,0.6241846245256996,-8.74892543816101,-5.544869589006884,0.20634515434951384
500,-0.8534422778597525,0.826639801291829,0.6222572998900573,4.556026689957564,0.35878333831027076,4.704476657020409
510,-0.8117773226065864,0.8643134504388634,0.6728798768238746,8.76373620832964,3.3908535143085015,7.245154389507082
520,-0.8351995810973613,0.8498383096346417,0.6492950751470371,13.798387566356448,5.898799792714845,11.686483834573623
530,-0.8630668485178382,0.8343190231962206,0.61829199345499,11.461148743597246,2.7000295189516605,9.697001284700072
540,-0.8475561262681818,0.8490809978165269,0.6320900494770929,12.491410747188581,1.4534368540511,10.455345782990019
550,-0.8540128798722179,0.8520826344654887,0.6250033163741942,11.844972871227649,1.0738400974513471,9.200195711303705
560,-0.8555495376402821,0.861546346837983,0.626929550511581,8.826737225015659,3.355755920032049,6.030720821867905
570,-0.8484201848433452,0.8641943194779448,0.6332066948247793,-0.7139494575502415,-1.0976040459924583,-2.2192022366330577
580,-0.8599127581310207,0.8418251456155861,0.6171750496587808,-3.5086022386024123,-3.3986230354688556,-3.166138139462977
590,-0.8654631679391354,0.8377985693145299,0.6152831987389785,2.9504621677452176,0.8998590157257754,3.136013660588043
600,-0.8687228945410982,0.8458808327085368,0.6128785480297775,4.2518742246076675,1.1011602583166438,2.8473168864707326
610,-0.8362933166048075,0.8809287898845387,0.6404965063958373,-5.079067055678826,-1.0602440329665146,-5.424832460899477
620,-0.8503246761909696,0.8512646047181116,0.6318988989109104,0.23788215561743842,2.8263152206792252,-1.3971398459874846
630,-0.8306395598920313,0.8732627586224128,0.6479336012790152,-1.717642775760335,-2.687446194276437,-1.2929452818585168
640,-0.8360862473721627,0.8643321457141468,0.6391259786713357,-1.6945264874627703,-0.004913126591082256,-0.05743922635696208
650,-0.8209260800932027,0.878734260817858,0.6556917410056585,2.207417794251085,1.8093341648426686,2.6627620419031905
660,-0.8385762997964911,0.8631582257488442,0.6389799257908653,2.018808588948658,2.093353531153528,2.3747206656493063
670,-0.8580023256345988,0.8477182270974581,0.6225541586980946,-0.4151049474710147,-1.1638341694556535,-0.3435433885465815
680,-0.8554755081987331,0.8525520716347486,0.6252535727022155,2.9284369472456167,1.0811973990839685,2.81478271401455
690,-0.8667873704897537,0.836861515200809,0.6136248663958216,2.0988240273552856,-0.133655421650807,0.8771717863190289
700,-0.8590589555108281,0.837750742208853,0.6207999479735563,0.2022343628842962,-1.9967943881568655,-1.723690937413037
710,-0.8567097125488313,0.8408091381336893,0.619210667276523,0.8802508403437448,-0.5090966198770766,0.3846670183918546
720,-0.8668487326786066,0.8378994621085868,0.6069271926054176,1.2002739781085283,0.7334228079648105,1.6790685006484605
730,-0.8294530784754661,0.8778427037821143,0.6468554207464372,1.2973053722641312,0.09521048076834776,2.2656738305088813
740,-0.8352663838101794,0.8718167105313844,0.6472594816419136,-0.5514913527519134,-1.7161930196053528,0.14278008233999984
750,-0.863473840113982,0.8343562358973974,0.6167201880368106,0.5354835329202312,1.424510333454435,0.859614766636788
760,-0.8534801365589577,0.8531619144528506,0.6232795662927171,4.714139121335538,1.8074324460540685,4.044985729201739
770,-0.8562855134172523,0.8507783332148463,0.6197163361822285,4.822434732876406,0.9753986972945873,4.3354952987768955
780,-0.8570944483705168,0.8549605283399226,0.6165751605855143,3.923209480428513,0.1563545180715995,3.0532992102704326
790,-0.8233029711519694,0.8979490636054797,0.6478841903686994,0.18793545658062039,-2.830236500638925,-1.1995247695856257
800,-0.8418131061421086,0.8790060613979077,0.6352765424163762,-4.020794771486176,-4.572519471652707,-5.556784197295659
810,-0.8369522345713062,0.879489763435451,0.6394855869800617,-5.9370597237340945,-2.2363979033651535,-5.900410466724466
820,-0.8329601757190311,0.8738930647439925,0.6425384048231974,-7.1888878741532345,-3.610164239839509,-6.227262687921023
830,-0.8699973955531686,0.8276803775375556,0.6113915107726563,1.5732719094441392,-0.17867845117262166,1.2381020237621545
840,-0.8552679956480135,0.8500942951652407,0.6251390859364838,3.1983334022342027,-0.43033923658716444,2.4141082520537847
850,-0.8515572025138644,0.8594832555256987,0.6293812097916466,2.1235245563322542,0.8215434900208491,2.342778775946117
860,-0.8601002172486857,0.8404263880109232,0.614908501376434,-0.6770408283472942,-0.7829212746425107,-0.31753861875055817
870,-0.8312146429888366,0.8658446657385072,0.6444211049821824,-2.922818425225928,-2.378128976151602,-2.727046726045446
880,-0.8389439511392637,0.8538634794934178,0.6416920704667887,6.253396331781585,1.6634736444158134,5.475148975196696
890,-0.8455961896860429,0.8674506751191824,0.630119552102427,5.281361366854897,1.245535445680009,2.7849726316115535
900,-0.8308919720384079,0.8762387992676685,0.6442805788376076,1.7482481379960308,-0.4171385121453113,-0.18972996779139306
910,-0.8726133608928102,0.8315353915296739,0.6023433600539604,5.351540217021471,2.1336904917834985,3.4858950082935523
920,-0.8446236921673994,0.8617882646221877,0.6276139127102136,4.668616633934375,1.2121747893158807,2.9215414427366784
930,-0.8611724550218236,0.8501518226278355,0.6104445333872114,4.217630067888979,1.161433915318153,2.610120612315298
940,-0.8514798770307772,0.8620401523156059,0.6206990801473523,4.705684978494331,2.6534124284856224,3.6215595713154167
950,-0.85683991588891,0.8545628113475883,0.6192876735856955,2.701705663899385,2.3766931442549404,2.522934984791973
960,-0.8320929152308877,0.8809329646654088,0.6495324609453239,-2.49247370136705,-1.303785145446247,-2.23843480096251
970,-0.8312793186245528,0.8879450296057363,0.6451300269560841,-2.0366037561542014,0.1012455457188767,-2.1068863344706026
980,-0.8505787934772429,0.8597438271718748,0.6232196894802555,-0.09116629787431862,1.0945294424859802,-0.9758026644672549
990,-0.87749409294237,0.8333581071278481,0.5991092052078699,4.228420106927694,1.9657889362158343,2.7216436549153524
1000,-0.8463247221494742,0.8615338186638747,0.6278555027226421,1.6728594695707169,-0.35418786644895,1.8428077148097914
1010,-0.8293387558969894,0.8810839774991248,0.6485060429426146,3.2172997652165063,1.5593968103188112,3.876060171158702
1020,-0.8740006609524289,0.8390505016373898,0.6002922820369955,-0.5982165255041765,-1.7241849677197536,-2.28178433494992
1030,-0.8519407047964513,0.8652824307432622,0.6247931112556142,1.5034600125743929,0.12246671696082234,0.06445473306893967
1040,-0.8423975822596094,0.8720418782162943,0.6291938662786374,2.6453136881727577,1.043303526362397,2.214376780909625
1050,-0.8589360348337771,0.8536679651210043,0.6122553869842186,2.180073376854226,1.3239011727434034,2.4754540998014347
1060,-0.8734088368076645,0.841055559995611,0.5989582525828047,0.7382455670292991,0.6824168187693554,0.9487348394854325
1070,-0.8724325499335951,0.8453995787990664,0.5963309445226724,-1.3866563973560124,-0.7771884711287004,-1.9110386634144716
1080,-0.8283799418706331,0.8883408175981591,0.6411735138044125,-2.1690016688291984,-0.7463837312286675,-2.7293642617778433
1090,-0.8657105732909192,0.8444518317471837,0.6122627254570767,-3.845099266091558,-2.7382595441223687,-3.531374565022287
1100,-0.8311001015208284,0.8802354141935436,0.6449670647789394,-1.7749725992835133,-2.308318053910723,-1.7018440878404109
1110,-0.8324203065468472,0.8729192849895676,0.6393058556692731,-0.9737974930753235,-0.09302556247752511,0.33554047547371274
1120,-0.8700595408351749,0.8433254207209061,0.5984107199722635,-0.5767115287006603,0.5193664945361498,0.9009840396857993
1130,-0.8601631058579131,0.8508334801593731,0.6054574219420666,1.5620561394803012,1.3133027932313373,1.8012273535366572
1140,-0.8600508755031863,0.8576805442714841,0.6129988052513544,1.0551004225803704,0.6721453144448715,0.3681388637673399
1150,-0.8541557305421855,0.8668067776861302,0.628826848830977,-0.5629454826909888,0.5552208831889873,-0.7466970886607671
1160,-0.8475668633701715,0.8677174493085974,0.6321395149765447,-5.041988463377737,-3.40422314902758,-4.64250387716142
1170,-0.8429344540231017,0.868397109284368,0.6329029541734155,-4.643366274807192,-2.760290630459142,-3.3976052832447836
1180,-0.8490725357130477,0.8577675883123799,0.6276571627046932,-0.12921192263030512,0.6149867203849436,1.2600277103747788
1190,-0.8769950881260447,0.8326915998158403,0.6041419518475354,1.9511088537646295,2.1858159931497143,3.0735430501133205
1200,-0.8372635483704848,0.8781605421629575,0.6440367087869369,-2.7381408080558547,-0.9953819187112245,-1.7828565862923762
1210,-0.8531830270297022,0.8579985418397985,0.6222056429317294,0.21337818949596854,2.6235373037956684,0.9012881857580122
1220,-0.8463459042461112,0.8629501257597029,0.6283856758616322,0.19298307936832704,0.9783344349200731,0.7628074093430663
1230,-0.8554769811094993,0.8532446020546952,0.6154934588757636,-0.9742974051404791,-0.9065478937285916,-0.9289384796429911
1240,-0.8297568800498174,0.8826034798443965,0.640844079191717,-1.7615140493093573,-0.4667642279051365,-0.9578576516245454
1250,-0.8572598498305786,0.8552417636280606,0.6218411957378025,-0.8855934165066215,-0.046711290392788984,-0.7155029716398094
1260,-0.8798376680969549,0.8271606191442885,0.5918782359619437,-1.6475612910962567,-1.136570505345265,-0.5844291152187124
1270,-0.8549057568888474,0.8554035605776736,0.617642450143658,2.4403434303167613,2.80274025888383,3.248741017521601
1280,-0.8673126729673297,0.8495236152980625,0.6064889144814117,-2.1144231064728984,-2.4904538900908975,-2.590031310353704
1290,-0.8566841467023972,0.8547497316472201,0.6164854418796852,0.8733552183595784,0.4838365884070034,0.1585897447830722
1300,-0.8671360130391481,0.8405203349195172,0.6080309788692078,0.7124611389385307,0.5376499162166384,0.4317958815697829
1310,-0.8708186067870742,0.8379831601828663,0.6055398219143253,-2.0682499540960184,-2.264561949370105,-1.9804485268794085
1320,-0.8275607940424178,0.8838297048064413,0.6464702879270061,-1.019774940208433,-1.3638549216165652,-0.9406105074161586
1330,-0.8397737381024829,0.8745134116855156,0.6354474178393562,0.79140484375914,0.43449925050609867,0.4942458664342478
1340,-0.8375118945405433,0.8763971914066497,0.6443280983722047,1.4181877614306455,1.2438801005215485,0.8412657776450154
1350,-0.853254649328943,0.8561935526317713,0.626109354351086,-1.9208131135318351,-2.1522135642057014,-2.3502449903077647
1360,-0.8380157376448542,0.8677232342831743,0.6391940949558469,3.6063563231123874,3.0052955678887843,2.8394968029432768
1370,-0.8484278384135502,0.8681427557276279,0.6366969175388191,-0.5646681958280675,-1.6121749284996982,-1.7604283478834768
