time_ms,ax,ay,az,gx,gy,gz
0,-0.7738414858015017,0.5833984849061987,0.5269727745346656,0.7073118575255413,1.1304720085026463,-0.43563422440327504
10,-0.730535088434922,0.6195640496004549,0.5653614413667964,-2.1133356840814557,-0.505238730084882,-2.579943747352649
20,-0.7507004093643352,0.59622427528944,0.5450088356965886,0.7555075242646008,1.8839355418292876,1.0066702194884023
30,-0.7254646132900057,0.6237678463122509,0.5689336347638257,1.064373579017213,0.8096670088265651,1.0628104863927674
40,-0.7376841957847774,0.6152165560986467,0.5544985604174408,1.107165604736912,0.8169947082158913,1.1344427248356221
50,-0.7301651521356417,0.6182980150442017,0.5658228918881277,-1.9957863309004988,-1.4484743204625632,-2.4261564311754986
60,-0.7380863522936901,0.6078819477808152,0.5594109502348851,-0.38286117737070635,-0.24824620801379316,-0.910055611987983
70,-0.7381460164287488,0.6068999711046532,0.5549435589393034,-2.3353880113412764,-2.695592061362154,-2.318376031993095
80,-0.7552843563613951,0.5999152932187144,0.5369920792129378,-0.15605275798879892,-0.5369628173715468,-0.31274260604032955
90,-0.7220231993900408,0.6295866223335812,0.5750908734001691,1.0988138899893312,0.8233169468755686,0.3630208183847571
100,-0.723343375530465,0.6258384893929444,0.5724547559397644,-2.207431448302818,-2.2003190188945116,-3.1471797074870684
110,-0.7492338627808462,0.6050181788505699,0.552587732745201,-2.476160883263198,-1.6174965326732038,-2.432860127385787
120,-0.7039970361484463,0.6542468987425039,0.6026872320224556,-4.699505136787859,-0.5910175206391113,-0.42752057233311636
130,-0.8589684274426281,0.43795874802118673,0.7431155199906224,-7.189824968017579,-15.13897147750373,2.2092776587812724
140,-0.8536460644633403,0.529637220817376,0.6626380662499964,34.098848320527836,-49.323715797767264,11.067115296867234
150,-0.7303154506735047,0.47077564949912143,0.6309444189298132,56.56653943348877,-53.74467129602119,21.3512863148939
160,-0.6373758743982069,0.5462110370463423,0.6536002235261598,68.01435336087602,-63.93121450030466,12.199092878636222
170,-0.6024959249801539,0.6567412674131359,0.6255174379240204,63.1626506277139,-60.410640582378655,2.7989837632502024
180,-0.6102499307956817,0.742182706522296,0.4815162552851392,7.203742855424757,-11.917894344264617,-26.394258187597547
190,-0.6076636926301687,0.7929567293086549,0.552804397598901,-21.380954577062138,3.7178567601293864,-42.29929517143434
200,-0.669601250458479,0.7635830870560965,0.5740550300724433,-26.377536581661694,16.20297362311139,-42.71186120375333
210,-0.6921296701929395,0.6855267778497784,0.6028030662852134,-27.84000894344791,25.246442098499266,-38.750749828761414
220,-0.729664440443147,0.616882582190409,0.6524451689635248,-16.663312236601037,15.540136070710227,-34.994674872266785
230,-0.7351287522742282,0.5616438451952668,0.6015761656601464,16.285321245392314,3.3893271881887133,-8.835683653208086
240,-0.6955097545636537,0.6091241828394957,0.5904154391211072,6.383577307704115,-8.41085454557345,-2.963849735424996
250,-0.7439289552523978,0.5691330704720254,0.5800225664968247,5.440458722406245,-6.89726191902932,6.1126913402366645
260,-0.7069084471105043,0.6287637600473266,0.6380534481034043,-2.6358698977824178,-5.579044751898143,-0.0460564075062177
270,-0.723630307229325,0.6202639921391423,0.6222966024946248,-5.714712237164679,-9.679128172203962,-3.2867631129564585
280,-0.6750614743893334,0.721052121118141,0.5929472491463119,-6.751017822330584,-10.757403207839998,12.597316780862394
290,-0.7072254005593146,0.689274310204583,0.5985089746627907,-5.4844449343499395,-3.739659348309802,9.566197717802098
300,-0.787990327785172,0.35976118446365174,0.49812072518623474,-30.055165097211223,-4.109020921058815,-3.2037434329860766
310,-0.6745332635806371,0.6003728465775292,0.6262801398552593,-6.543923834651901,-4.1090052401272485,9.462163787747295
320,-0.7119921262783533,0.5907775492621151,0.5803234855256834,1.363447918964757,-1.1815059043280312,4.3580140917417864
330,-0.699484962653375,0.7403986870007322,0.6263297845674742,5.857776629663139,-0.5348303762857824,9.224483791652816
340,-0.7755369701418613,0.7167885981078073,0.3987615522263535,8.326135115861266,-0.6422805593002302,18.380910157328376
350,-0.6935095321219604,0.7249006852593388,0.4983238172045832,3.8070781199853543,3.62546343697153,19.356916477569182
360,-0.6880425650685508,0.6711718001351319,0.5402859384441305,2.57568288329887,0.2938098215199952,16.949641844209353
370,-0.7227992979574351,0.3988607532832298,0.6509168837796829,-14.092172588745468,-0.269443237893749,0.7918432294149045
380,-0.7242426351185616,0.6097488511377362,0.6262327000831874,-10.643403781249088,0.5116706632480648,8.455428769478615
390,-0.7494361820210831,0.5788797286453264,0.5972766227816132,-3.447509661807929,12.934029014118023,22.273221826125074
400,-0.7105192136483955,0.61373225808305,0.6096946427557042,-4.030828312914126,4.035174760106854,13.394627230705257
410,-0.7058245657968427,0.5419879873861633,0.6673605740658217,-11.27351363837886,4.309666971342924,10.01271780773301
420,-0.7260259674692378,0.8593088919014863,0.40905634194950724,11.734432358882072,13.984587867913643,21.266982430107326
430,-0.7311043886931365,0.5184396828016121,0.6152000897073443,-4.032043763269915,4.590081628201997,-0.6215729661030898
440,-0.7268659272245303,0.5935881212968287,0.573860035899298,-4.977098893977659,5.255161837355327,1.1694403259621926
450,-0.6938261264690114,0.6540518882187184,0.6014733097039077,-4.055098901186922,4.850822685932913,1.892763696199428
460,-0.707503415324836,0.4766191694813,0.8948708452538477,-13.82416026050587,11.587216608955778,10.351653472938022
470,-0.7320069523139605,0.7130089549417236,0.5179612755937262,4.440940778372779,10.71416496027788,9.408089670136343
480,-0.7170535680868355,0.7383473615359077,0.43853239415410994,2.502358933471738,13.698227158672813,11.12206888300218
490,-0.6975594699213579,0.6101699337189161,0.6790259950427285,-8.495082217597762,6.729238391726554,4.259665527436319
500,-0.6945295336968236,0.5392727347563397,0.7906166657533394,-5.605902048522484,4.248167612283574,1.7399126516889964
510,-0.7048592917601031,0.6804191287810504,0.6920002091282148,-0.9816598803921042,13.078643676568852,6.336879244017659
520,-0.7536219264440978,0.6453725427783594,0.5690218097039212,-8.763576061353207,7.217083669099341,1.5436298441361616
530,-0.7190687927052388,0.6391521082792074,0.5672939662852378,-9.328399778774976,13.167933793396923,-0.2781340661944266
540,-0.7194326930010291,0.6177481161696208,0.5747758620008994,-17.33254175533249,1.2541237863265549,-6.000506680015832
550,-0.725120956623276,0.6444167712097186,0.5889385481220067,-5.497261608434459,8.348172215762824,3.273213700562743
560,-0.7186649125453173,0.6497132903982143,0.5517749118341903,-6.740676505036924,14.176726940954739,1.0607299192372295
570,-0.7483855363225186,0.6155437694264684,0.5324096200791674,-7.463599629545021,11.815023558104214,-0.17280500808410904
580,-0.7357932005365518,0.6243177975027534,0.5901369113198756,-6.694477200878109,9.475982666282615,3.197932811150605
590,-0.749997973684492,0.6349136767542075,0.5271667867413634,2.0511729109485786,12.174901895995772,5.6686704597677355
600,-0.7170876122895204,0.6303717916057953,0.6436061025544724,1.536925466926003,11.211165133707249,6.122776166546625
610,-0.7422984170955452,0.6634388743413313,0.5392751836680362,5.4148689691031,12.689563179675902,4.3688557798133765
620,-0.7274004009345658,0.6330249620134341,0.5723801494823835,0.8666916673089142,4.500308890294001,2.672606594955173
630,-0.7682469311934126,0.6219404271995397,0.4744844221191526,-2.265010165257472,8.461249796125594,3.1401150367258546
640,-0.7139665600493519,0.6185523853956342,0.5923043807538543,-5.923821875420187,3.958245346347754,-0.5053287627063565
650,-0.7282808451884033,0.6153158835319922,0.572138467566062,1.8051504979132218,8.732671546920017,-0.7293920728642255
660,-0.7317431666469514,0.6274693874780088,0.5785211643387549,-1.4726498687063656,3.345291833638149,-0.8009382159956026
670,-0.7495160198052195,0.6167317289313847,0.5391823942479725,1.5653970638911763,6.4644599673159355,-1.3957816463848256
680,-0.760583970065039,0.6182825911463589,0.48673508816953626,2.526557354031917,11.287082831855216,-0.6389505287142183
690,-0.7305062973202177,0.6525847512696121,0.5842484212745704,-1.9568767424693048,4.505506149388864,-0.04826201568745811
700,-0.7176225979645844,0.6588444688480269,0.6214177837675126,-4.669872408133273,0.5329033489251127,-0.07151246259084465
710,-0.7482761188977712,0.5922234207173602,0.4970759546849763,-0.8505148222858709,9.866913767906235,-3.2762971988574927
720,-0.7416939809144003,0.6224720186114903,0.5580334625522515,-2.4813584339524195,2.5131744547624875,0.13918425330935325
730,-0.7156231892943676,0.663127711925039,0.5925069805570135,0.6710033607307677,2.5825601646945966,-0.6094605997770547
740,-0.7272081619137717,0.6512634221351438,0.5658955717801103,0.5921910780048534,2.505061933733164,0.7415192481418735
750,-0.7674287511709065,0.6030390714311019,0.48312392254080866,-0.027477043482446617,6.312701476968529,-3.2459880738070175
760,-0.7725394457735405,0.6032738967808574,0.5282733705046279,1.125668365417884,3.883947534368653,2.343703459456616
770,-0.7671741500719109,0.6010039043752187,0.5280664508112777,0.3849583589829555,2.206667147879032,-0.8779627814972097
780,-0.7354592621155492,0.6434298302663102,0.5593939978135132,1.4777972703016322,1.8508833566193745,0.6011914283609776
790,-0.7436574503059905,0.6294839010100433,0.5484926902291255,0.6574802328581758,1.7307337223271722,0.6328166710947285
800,-0.78875880820874,0.5780177110539503,0.5057506185223573,-2.574132973387001,-0.3488413938068504,-3.3467970194760737
810,-0.7248639303594995,0.6475780469799883,0.5671271449630116,0.5384035977623185,2.9587145799787704,-0.3549702212946772
820,-0.7131039041508904,0.6739068048315344,0.5864403534394356,-2.5254069642594046,-1.1367129786843089,-0.7526210261749502
830,-0.7371717299779096,0.647268590033046,0.555653832751888,-0.4769720141450602,0.7483198958037784,0.6338664419412041
840,-0.7254310211989751,0.65415550254532,0.571084950269244,-0.40606257305450094,1.6839065306807715,0.47335140547174737
850,-0.7604990962939245,0.6129089709264149,0.5359929282720968,1.1580569529415174,1.856006655360332,0.29241831731312473
860,-0.7534307303249281,0.6134951970532698,0.5436492731061913,-0.5417888935261663,0.23808319988589433,-2.689508064384512
870,-0.72596233296654,0.6622160322727105,0.5655467833531639,1.4674815045799487,2.1768100649977815,-0.8863380561552472
880,-0.7460290905942961,0.6125741129496378,0.538529452058492,0.6419572519638768,4.08007118949977,-2.5951084433774896
890,-0.7153796075071912,0.6715854084855442,0.5811732423720796,1.789827878466883,3.594999413663966,-3.105951320206079
900,-0.7184594641381826,0.6768501730145616,0.5779579500880916,-1.5433474060837795,1.3189394140616857,-2.7787808019850395
910,-0.7259054928153318,0.6545064377824154,0.5631231882634267,1.19565514383001,3.080020497564527,0.519709699939082
920,-0.7385791209883324,0.6486303835137017,0.5574340479537152,1.5414503240256425,1.4156376956048775,-0.4108287747297886
930,-0.728648966303187,0.6563918016162411,0.5631463125807371,1.5342163961423632,1.9474798208668074,1.2215140472865749
940,-0.7397518311640218,0.6378826204925887,0.5510432106415921,-1.5225990769768147,-1.1653112218383912,-2.2856633193678535
950,-0.7270117573460297,0.6470597810544052,0.5604151827009632,-2.0722595001827893,-0.9242069736326892,-1.4021388642084354
960,-0.7311676176462647,0.6419951860890531,0.559462479300499,1.2954143883529583,1.313302079573564,2.1830126658864843
970,-0.7402950206461566,0.6372058119685402,0.5501206792310005,-3.115289503338335,-2.8616556970381932,-2.4360442281597665
980,-0.7340633043045288,0.6410433519661819,0.5559888935458037,0.8998120083115386,1.613982840885412,1.9461016890634164
990,-0.7621254820635457,0.6132664563381592,0.5230513226571131,0.6635471562117385,0.6834446971620982,1.9012605591608687
1000,-0.7575163040093577,0.6235104451056914,0.5292661962351942,-0.9482993201320606,-1.501117278729665,-0.43224701705725543
1010,-0.7570967121897498,0.6204368993276509,0.5277045941937452,1.5622448023667639,1.7178615382432085,1.8400871098480325
1020,-0.7203058109867668,0.6593448384491651,0.5711715492872569,-1.3177275197385419,-0.6177833074601067,-0.4691471419029144
1030,-0.7499085386441694,0.6258651666627537,0.5401849910129923,-1.4754924309375452,-1.0194035106314676,-1.2102496197419574
1040,-0.7151278003158091,0.6628866728470417,0.5679359669261262,1.3883959928275287,1.0422959033493715,0.47010961125978645
1050,-0.7410287994531942,0.6390302921260151,0.5519144736145031,2.367308580734795,1.96632676758693,2.4347134466820686
1060,-0.7458173166908683,0.6342906246904745,0.5453630770236297,0.6702740955504991,0.5808810392502863,1.0389953359152284
1070,-0.749553772334147,0.6334564797656878,0.5385468501271087,-1.5857036847449937,-0.8277374470972627,-0.8236989468311625
1080,-0.7183803652729984,0.6639575569889686,0.5692268924765177,-3.1441230867300467,-1.3964495048376615,-2.3636633263374414
1090,-0.7432905420471289,0.6364256386239693,0.5386730803360192,1.0233485795991137,1.540152234033507,0.6898243571281366
1100,-0.7469762161351612,0.631857971545511,0.5434588890808711,1.191932757593291,0.9410930893451357,0.27279178539120186
1110,-0.7116759987876039,0.6643414940999225,0.5749834889316421,1.9481064560080374,1.9141818021061219,1.0247988131819574
1120,-0.7136986567822667,0.6584812176745996,0.5718022393344984,0.7556374619389309,1.071773375888142,-0.1582521780142786
1130,-0.7540310725446292,0.6200047133791267,0.5359343899561435,3.8731398311706964,4.659844934921598,3.7072750019340948
1140,-0.7476292307526989,0.6321788015625639,0.5405589402741006,0.38803297790975577,0.7051324661056835,0.50582882338889
1150,-0.7351902527161023,0.6446344449068726,0.5526905171904013,1.0211970067441543,1.2801117106398172,0.059527179153888055
1160,-0.7330326095042884,0.6418860812795825,0.5538131141174673,1.436385656580917,1.3635001950950658,0.34345105292947653
1170,-0.7506267922207759,0.6214960058449802,0.5310827759361605,-0.4483167073293784,-0.7836315932155579,-0.990502904664807
1180,-0.7725218852844971,0.6063788929275596,0.5159324812554679,2.128698996871568,1.828406728131285,2.278537962584846
1190,-0.7387876184374202,0.6367662832639306,0.5516811888899895,-1.1861275544224639,-1.1302139982130917,-1.4709097681884329
1200,-0.7489103041974771,0.6330574296973082,0.5425037828463782,1.7913080730702435,2.2090937544834532,1.2327937518166372
1210,-0.7474480807533797,0.6303297249588097,0.539463267600584,-0.7482760676238219,0.0059389230163958,-0.5263475043057395
