time_ms,ax,ay,az,gx,gy,gz
0,-0.5226669068221365,0.5674033866603843,0.6494745826154263,-1.7858988802907123,-1.7461629759259532,-2.63914485360453
10,-0.5567036484184824,0.5302073351289578,0.6141550060489909,-1.1557106995180488,-0.8024270994010636,-1.2586188400791976
20,-0.5333569948412252,0.5489899798049046,0.6386487011766931,3.6807873226128125,3.286384633306554,3.48532954448677
30,-0.520745112550199,0.562480910104917,0.6487562089495189,1.3268424850828926,1.025323467518403,1.3339799744437417
40,-0.5129423800233265,0.5763339165734821,0.6612973001095116,-0.19623203214156137,0.058011426059944804,-0.07349935913140893
50,-0.5613936993392421,0.5296666220388637,0.6127076506298273,-1.3075027085087632,-0.8142853045552324,-1.4241605450168164
60,-0.5247176111414054,0.5676639307414223,0.6466923300619344,-0.6070588990344147,0.19534832316850204,-0.7589273690672531
70,-0.5075846022109914,0.5855247958220169,0.6639086487924087,-0.7083626998333405,0.39974730494402355,-0.634774836757722
80,-0.553665411946866,0.5319540721162338,0.6164299171159429,0.009967833551898453,0.5747627620949027,-0.059075297187821785
90,-0.536195450720355,0.5460724344933122,0.636747151913648,0.4825249974009421,0.20583078029401664,0.17293098516665828
100,-0.533341643771107,0.5566058917681497,0.642089378262998,2.0370580834443572,0.8851583361632559,1.4570126185373704
110,-0.5178605517862098,0.5690417673864675,0.6575879177906899,0.6395085843837112,0.3872732233039178,0.7477123641709327
120,-0.5259676761718666,0.5619266386685977,0.6468512968813808,2.5094892181560633,2.7152086623668765,3.039169053129109
130,-0.5300387811028525,0.5574456196349147,0.645865643778348,2.727487699235467,4.107306168703919,3.66367491343616
140,-0.5405009251365742,0.544232543731491,0.6365439927979266,-2.90263558016875,-1.7089636494245404,-2.7896263547755824
150,-0.5435877212756566,0.5401500013446351,0.6302922140781598,1.592564838089573,1.9566999466029935,1.221672667583419
160,-0.5282559360774743,0.5589096732647473,0.642816219357269,-0.7246285207257553,-1.132732682182548,-0.9115145644392115
170,-0.5332731966392595,0.5565570030298667,0.6368590963198033,0.1375929130607596,-0.6180382719515155,0.3484164025096441
180,-0.5156668477390075,0.5722150016128987,0.6543149488049298,-0.007800513208210735,-0.7066262657271434,0.44332991117684273
190,-0.5244940472635796,0.5632821853596887,0.6476065227895963,0.3463505269903714,-0.42804920414362396,0.4025808566506036
200,-0.5330858416086632,0.556846141760224,0.6389260886645364,-0.7210699373793243,-1.1186172895382933,-0.9744771655439244
210,-0.5192958309880281,0.5681024641564166,0.65620576055155,-4.048433316094308,-1.5485027102621651,0.22350586985030518
220,-0.5211682732585684,0.5777264468384943,0.6615569325816395,-9.315820918372749,-3.1874206868391184,-0.2640525071992206
230,-0.5411843445292699,0.5451724843380589,0.6296428749227753,-9.134259611395066,-0.8519182561678331,3.23225617491999
240,-0.5622088066393337,0.527803256417267,0.6244558471021274,-12.503551866605147,-4.124852804538751,1.3749867160288038
250,-0.5239535026777832,0.572894787959218,0.6806643170602407,-13.634579561918521,-4.293014290324999,1.2664527623391737
260,-0.5745200735165498,0.5570340269704722,0.7087453669133389,-13.019360069636152,-11.952183329863342,2.7463406276439852
270,-0.5502637137739796,0.5462420674887036,0.7126791167363474,-5.3737383194230555,-23.531370378637693,2.077501562067057
280,-0.47141071074442636,0.5218485686447427,0.6556272789682014,5.515308277542395,-27.229636706665357,-0.7298410340567836
290,-0.4500816963422133,0.531954199955759,0.6690557239590379,9.726454367362077,-21.991278390598897,0.3160999234042896
300,-0.46592759330957756,0.5196029073746211,0.6385439517695205,11.108198286912275,-19.978462700543126,-2.555689952650582
310,-0.4717430356199789,0.5322289922089687,0.6544270748918752,8.524793974545092,-18.864447474862875,-7.477322681880741
320,-0.4625921582112884,0.5610335366729868,0.6787259419840755,5.234102460622157,-16.394574143779117,-11.542023594077607
330,-0.462235558358413,0.5725762986725367,0.6943059111938483,4.388250854940949,-15.652459252215829,-14.11737783708642
340,-0.465500367546841,0.5670721744057007,0.6820625557729347,4.330519741235214,-6.032477368402128,-11.949690348646431
350,-0.5154088466055882,0.5229656354707852,0.6336795441369383,0.4270002853248187,-5.275452009438923,-15.041087655586624
360,-0.5166670799765994,0.5226901242426687,0.6470800968537003,-1.498442001539164,-5.460249191526716,-17.43523158697544
370,-0.5174620994235268,0.5201906824606733,0.65888376260103,2.468597214650977,-1.824639964416763,-15.104984484631778
380,-0.5007077758517183,0.5328724364246525,0.6722226807977094,2.5442908902938446,-1.7599893449367108,-16.397677483036325
390,-0.48782955367422226,0.539968856948603,0.6734990595430145,0.31525650888146284,-0.016461205458685346,-17.77632200972135
400,-0.49809529442180406,0.5474542321885146,0.6707983356869697,-2.3329339326188263,0.5641334047594695,-19.623354942347188
410,-0.51695174482544,0.5623110070657344,0.6722439630811405,-0.2806736624399288,1.0793371731585237,-19.325872275377957
420,-0.5541524164352297,0.5751495795994953,0.7319248391934039,1.9559818447402602,0.24748940204058287,-15.484798505176894
430,-0.5995660377988868,0.5644985019434706,0.7372158448454749,0.4785941748122523,-4.8992773503973925,-14.23327598094946
440,-0.6311728020757338,0.5526832297235021,0.6270419428060184,5.959934633085198,-4.480020140317043,-7.526752751116163
450,-0.5089400555524216,0.5506485152026395,0.6832798549363328,1.4467356109013219,-8.342058703721024,-9.282842411901463
460,-0.547588460835141,0.47089847148941544,0.6260191574025046,-2.082480670127585,-6.750717424937404,-8.695180593684961
470,-0.5660172168463627,0.47522648115479416,0.6222637140138317,-13.465566366183776,-9.792893384455242,-8.9106553403096
480,-0.5290660712928441,0.5011820716609792,0.6794598729135682,-18.40507144255357,-5.794987561138354,-0.218350317988107
490,-0.6059629456287627,0.4733114261547846,0.6337124941020773,-21.638194036001188,-4.313851837210718,2.622994752533428
500,-0.685952517722404,0.5741197064111712,0.580323091108557,-15.83971653312457,-1.6154181774821978,7.065137211298133
510,-0.5027005152038668,0.7000920314893957,0.6489297234772615,-7.138694014924067,-1.5214515354178737,12.404454625038616
520,-0.4853537520942797,0.653907358607349,0.6823437093170595,-6.608544629860425,-3.071106618040498,13.651019856832603
530,-0.49404646055545104,0.3790675559938442,0.7301832599637444,-20.03843114477199,-4.465646799928381,16.03131171659734
540,-0.5092762163302393,0.3238308006893411,0.6415166998194977,-25.820668120982262,-8.57870399003189,-15.755534638422837
550,-0.6812929720706049,0.5752451553636855,0.27942957159313236,-10.94862561025058,7.042719052166719,11.18175148975409
560,-0.6794550772436335,0.541972216915118,0.38533945780934364,-13.568110339095494,5.6175893460337365,11.76065853119735
570,-0.6479132551767972,0.5272647013950987,0.46102501256002165,-7.920994141311423,17.779534394765573,22.851036355441423
580,-0.5929576299367468,0.5379266681556121,0.5326426259643007,-13.695696145257639,20.502946826339397,22.597704781481653
590,-0.498776246210103,0.4816931620127261,0.6781503266349433,-19.023027582038544,15.415298459480532,10.64607813898884
600,-0.48720123503765816,0.4950609826462933,0.6075538935030363,-7.6464637560066855,17.36214833221331,11.07104218749369
610,-0.5488538997111182,0.41789865204863785,0.587134187523643,-1.2764945601458058,18.04597686098512,11.246440802430463
620,-0.4560022160294934,0.5598971728808141,0.7574298594609434,-5.037586021359373,10.655243007913121,13.94068414342036
630,-0.5013567960628297,0.5160667773389715,0.8805507462008001,-5.98350223632174,13.843521921401107,17.973288396793237
640,-0.47187373830634066,0.4092211784239499,0.910298778866872,-15.277068612274306,11.881287208598618,9.287934450189805
650,-0.3655852417476676,0.4629672468205448,1.1080937672566225,-2.6623865807438762,13.329037817674,2.5267128050909933
660,-0.3836434594641493,0.5944404594976961,1.0074389097684917,16.56961191117853,11.823659518671723,7.502951411806628
670,-0.3738230537719646,0.6203485884649227,0.9883355217907818,28.699172633825782,10.278370818501308,8.822925110852129
680,-0.4126269274738092,0.554084601630943,0.8528471266036733,23.435516439600324,7.609540359142447,6.8804956743516765
690,-0.5143358477708715,0.4826358784267217,0.6305229662848117,16.760785402208402,9.547938241328886,6.40762826570647
700,-0.48069471833217764,0.5574073429961636,0.7713081740004571,26.371417809103228,12.37194399122391,1.8841623757066344
710,-0.41943430422068456,0.6935200022359278,0.989925686160077,40.30758554409695,7.027705801594481,-0.17432434222132764
720,-0.5806437779626011,0.44984246150173174,0.5772518332211306,18.31020831284899,4.181899681118402,5.357513368758998
730,-0.5362836594758575,0.5416092182937784,0.6595431594659302,3.178530479902794,-0.649392658951629,9.702181301279095
740,-0.4747707585938457,0.5621377754448895,0.7059838244531714,10.8655811620153,4.097001347354885,-7.289495471406213
750,-0.4881704447151426,0.558784011659214,0.6801637746046817,6.660980774254231,0.5695364589615619,4.3321937965899195
760,-0.5196955058200201,0.5449372243617746,0.6579681005857627,3.8797666630352596,-2.0315844979879105,1.9956090251097898
770,-0.5375733202668194,0.5289782462487992,0.644553023659888,3.7788915732952453,0.994606140521805,-0.698269441081393
780,-0.5163678225619454,0.5424629316527406,0.6622366427380901,4.379332454356053,4.6934507564130366,-0.7158898451612301
790,-0.5083742378514912,0.5437171666997151,0.6663112397229656,0.6124065048033256,1.4835558041456196,-4.406567573673456
800,-0.5468459415843864,0.504557469786894,0.6274401333699815,0.30314507171576777,-0.31498523979630555,-3.1405271075874266
810,-0.5187886068627318,0.5368032262112864,0.6583257776003604,1.8561903733216765,-0.7189563450686633,1.3491446689616446
820,-0.5485839748397633,0.5068049285931908,0.630784532364773,0.5274798822040847,-2.1936935817215852,0.963824564487783
830,-0.5203703648270867,0.5322703999502086,0.6569878857188372,1.0653416819822104,-1.5461633902703595,1.6843088190193747
840,-0.5445468518290231,0.5125017331673135,0.6264768469816849,0.46727899864216527,-3.3302592238331252,-0.3474612439386686
850,-0.5179051493636079,0.5385406131383041,0.6603030634512262,-1.6934144543393133,-1.628446956281007,0.16239890497360082
860,-0.5213318933360359,0.5343794059991307,0.6577629788045094,-0.4927155225186244,1.0138018243460376,1.410483165464931
870,-0.5174074490338413,0.5360335080159639,0.6620670859089286,-0.6011119824886664,-1.2410096234533934,-0.9349866192785063
880,-0.5450498084588191,0.5041989087294879,0.6298720076088442,5.43640590952957,2.009175370025508,3.0449770445992073
890,-0.5238637524974001,0.5293398719853083,0.6521281013724457,7.279619915048439,2.2766753999523646,3.8606061065037127
900,-0.5332137599878767,0.5279281050958441,0.647833663165768,6.016650424461588,0.61962849383242,2.260373885962166
910,-0.5163009800429754,0.5455540739635604,0.6612046056976839,5.207431455547982,0.25459604997851626,1.6420213291558179
920,-0.5181914188394585,0.5445479672462837,0.6554989928852364,4.887851115669005,1.2810071362417226,2.080003857684317
930,-0.5488696174026761,0.5084422291233059,0.6244922507760864,-0.22590247221777915,-2.3647233815229654,-2.187299611759487
940,-0.5330650387771001,0.5285900471781828,0.6425181481986243,1.605761871577281,-2.8041710820907424,-1.1782524144529987
950,-0.5132645853582136,0.5455703669094524,0.6624158477992095,1.3547707963068452,-1.9723483342979784,-0.02162850413892392
960,-0.5168990494337549,0.5423002182100186,0.6574688409919052,2.105453039985216,-0.6895049364866945,1.0768869948075783
970,-0.5188553467447113,0.5441506092698357,0.6549246604353232,-0.8163361926483336,-1.8671539866818332,-0.11615632650935448
980,-0.5460800521578527,0.5167908464977972,0.6284918152394352,-2.021115278660835,-1.4863941896201802,-0.38213013724032857
990,-0.5147010269055998,0.5467836678058715,0.6602454053218502,-4.021503341460963,-2.961072297630679,-2.5796522464141654
1000,-0.5303634771535527,0.529783712576023,0.6463970083049466,-0.03779534866319234,0.6888662691990008,0.6466640681810293
1010,-0.5241705162871291,0.5333779205851922,0.6545037115202353,-4.238592995079605,-3.8787745566827674,-4.10035513435656
1020,-0.5176262094741207,0.5383735463548914,0.658434185654328,0.8145183080453026,1.094295855998036,1.1056943282789968
1030,-0.5250285872981331,0.531474076116218,0.6530006799025023,-0.08177223760735944,-0.6339237880396691,-0.3933961708719139
1040,-0.5263921335536947,0.5307751078751122,0.6524881943867507,1.532987466323978,1.4871543195311936,1.769893098061623
1050,-0.5600840620883726,0.4982724749036005,0.6174905272418185,2.732038547149037,1.3365242174744945,1.9333558943917595
1060,-0.5431818504392119,0.5166286391263379,0.6354254701334994,4.2171385648223545,2.955430643904291,3.321422060852164
1070,-0.5261542331986291,0.5339359225889839,0.6570679971837908,-0.26431327696887574,0.45012454874207825,-0.043920514329156245
1080,-0.5301358743710266,0.5271071836291222,0.6474407536236273,-1.6070785097279203,-0.8230417252691539,-1.1466480882897048
1090,-0.5350189517169281,0.523926316455701,0.6387688837368447,-2.640621379575337,-2.3822390450716235,-2.5079725534383526
1100,-0.5160894530242158,0.5445857844836289,0.6590674849633755,-0.13481674521864084,-0.7612101382661052,-0.8521229315536782
1110,-0.529014821257282,0.5305843947008531,0.6459820660238524,0.6459938853564553,-1.3359041239482403,-1.0789391512374729
1120,-0.5441767650473446,0.5167909944867825,0.6299751788231884,0.7504009176585928,-1.251036260031553,-0.666051089235693
1130,-0.5301780554847768,0.5304260880924151,0.64853659077618,1.1791519563522765,1.138539035254537,1.6609676826170325
1140,-0.5456197352103171,0.5114947329324964,0.6304581259932523,-1.7145705387131585,-2.1804689126395487,-1.0204422936264215
1150,-0.5236109950654321,0.5397644136047641,0.6516363651640319,0.9483403734382072,0.08181568830238051,0.22272732844261905
1160,-0.5446834805194648,0.5184513852914645,0.6322786757288861,2.5006943586678116,1.7391990209087484,0.9932378249674262
1170,-0.5428375317287931,0.5182803645303611,0.6348121244285229,0.6368957184962707,0.7054182118470518,-0.2440334544228393
1180,-0.5151230883083854,0.5449572538065078,0.6626223525097524,-0.8877432957294368,-0.4391007482376091,-1.2350560083118394
1190,-0.5526276864474565,0.5074735856375419,0.6253858298095416,0.3794123821759423,0.4572185232450664,-0.16006520978559008
1200,-0.5440136901105513,0.5162368782253624,0.6327392326775005,1.6812189937789983,0.8468619565887886,0.9685515316051188
1210,-0.5381948915541533,0.5230528577849737,0.6384131121986342,-0.3370223234731995,-1.4249667755868494,-0.758284175268707
1220,-0.5148548861115979,0.5483815002652951,0.6620904162561122,-1.0809035388033832,-1.2564676519002327,-1.2299682300609955
1230,-0.5102663762620372,0.5531334448841826,0.6630621591183484,-0.43015278165006354,0.18982406675614139,-0.5717066918833257
1240,-0.5480031023848349,0.5128147860078178,0.6336306236933413,-4.739383363571645,-3.4606281538947106,-4.294085020258716
1250,-0.5447184158078138,0.5138710422308391,0.6316717819674914,0.4180865126912996,1.5925926818674883,0.863298294837283
1260,-0.529045201745311,0.5284970118771042,0.6493256763179387,-1.7020698876874383,-1.7649853334303944,-1.6239965262366973
1270,-0.5329914787355935,0.5295400423319027,0.6452669160828105,-0.5251055673328613,-0.5430036126046538,-0.48919322924141617
1280,-0.5085981335299897,0.5566741304070008,0.6706792837708031,-0.041319477808216265,0.5865436162084728,0.04090703404137758
1290,-0.5328500107290867,0.5303007231459425,0.6481043080510646,-1.3586778744469994,-0.06169405329768074,-1.1823482119835118
1300,-0.5223076491607604,0.537271316457426,0.6569878495897457,-1.3711054692849785,-0.3142602229876883,-1.1983384210057024
1310,-0.5213822998665809,0.5363174973069558,0.6545200189200095,-0.07287084783716824,-0.06037968130631255,-0.2472438692078795
1320,-0.5520403794073454,0.5080061062660622,0.6246450709652243,-0.4477335402943716,-1.2125797658059305,-1.1131227747203751
1330,-0.5146714874108802,0.5498395583982909,0.6675891738100491,0.4965545419975915,-0.15968758099085678,-0.22095358760518635
1340,-0.51661358748563,0.5449286795330708,0.6683597855830948,2.9016960121178865,2.7551166625036525,3.0038263708277086
1350,-0.5222346418941016,0.5431950721705601,0.6640005834853198,-1.9251213142404475,-0.8377886395755554,1.44357695770643
1360,-0.5114508342261027,0.5474526908129252,0.670999141066174,1.436991470626067,1.1888592659828006,5.7861024142050415
1370,-0.522262130582265,0.5204176944229612,0.662413966198061,5.539476008853963,6.109148507898196,11.437971224260526
1380,-0.4955996962971273,0.44486616559403774,0.8012723151829222,-6.646956356134284,-3.8022030964285176,3.6263437756293815
1390,-0.5450605034738237,0.5131706592516032,0.7942099147089395,2.7173382868557105,-13.497541608586378,4.028263029161796
1400,-0.5391838200570899,0.522556067630663,0.7178607820685852,15.830889148269765,-28.573444267826943,10.89947399928503
1410,-0.4763196766863007,0.52534183355625,0.6830683212765767,25.36107367497607,-35.64017759411509,17.32310609188223
1420,-0.43319277561524494,0.5593800551564476,0.6770240877660583,25.269844195901882,-36.74538399614579,14.22247460603695
1430,-0.4606588709929848,0.5093447942694904,0.6176097411398421,22.161095186836445,-33.75273925580852,10.850437821062059
1440,-0.46322204213368484,0.5259430795775863,0.6038014020195672,21.015081446983086,-25.203194883904228,7.9225139836951906
1450,-0.4252194758459124,0.593649474559975,0.6703328248677191,13.611090427476705,-21.972169130912384,-0.4297297163811933
1460,-0.45025030993817405,0.5860683175845719,0.6664166521469888,9.869380352405855,-17.739714010442814,-5.866791681975275
1470,-0.4836230186080237,0.5908602661359303,0.6598698826951623,-2.178062085554582,-8.807161291512838,-11.002796472252957
1480,-0.5093302220124943,0.5599968323249571,0.6269165114901325,-6.301723872502084,-4.655145395555859,-12.546646841174839
1490,-0.48533993526421776,0.5737552942629504,0.6693288105048584,-5.8327644260344895,-0.3476454362875422,-11.783144066677256
1500,-0.4701406554913766,0.5755279609932609,0.6922121962826147,-9.92882762735089,0.03687510095649538,-14.114257732520922
1510,-0.4634709707039596,0.5700345951449354,0.6989215503255808,-12.244674590313117,1.0175108696068764,-15.666010320141954
1520,-0.4708997104315294,0.5635058102362817,0.6994596044791792,-9.227691736131893,5.141941852679523,-13.868834269671867
1530,-0.5061203949873889,0.5388082346528624,0.6793705041703874,-8.245881931564922,4.385499988805078,-14.99538137124801
1540,-0.48554133201564226,0.5586127231802644,0.7070771292446507,-3.981658396223538,3.9200553349519596,-13.28683656601158
1550,-0.46860249018593403,0.560737645373899,0.7015811554825532,-3.40001582349476,3.949568299962222,-13.343178658620278
1560,-0.47204903919289526,0.544376224319068,0.6895632946758781,-2.550043841109117,4.53323209652714,-14.543666465644966
1570,-0.4925106046520224,0.5436006883193435,0.6785099251125123,-4.762793420866415,4.689686484683576,-15.443628710924257
1580,-0.4872546710599199,0.5537323732822564,0.6934971215427342,-7.0588694747587075,5.432449963876383,-16.816019950000097
1590,-0.5020670243680689,0.5440697721743397,0.6727856768561764,-10.017524943111557,3.7107881109593475,-19.375296473427976
1600,-0.5355186194861771,0.5414640207100941,0.7643810279295719,-11.924499251600263,-3.7674110458648555,-15.283779908939044
1610,-0.5129328662856445,0.5519502807500148,0.754335467191426,-8.386462049013591,-9.824265174712583,-11.477976622534687
1620,-0.44187843701041246,0.5495866648722475,0.6876707185814446,-5.943760316105795,-12.208343148859967,-9.406343738947182
1630,-0.4051091674226147,0.5336904559076754,0.7031172173087644,-5.0353491609607675,-10.857868052133108,-3.5410918015530797
1640,-0.43397573196980527,0.5272583419741631,0.7492869343811366,-2.4378294954206203,-9.819102195216486,1.3643060196426942
1650,-0.4407131983525738,0.5485861428940733,0.768639344294621,-7.343491499022817,-12.141829281117717,-1.0624745280642511
1660,-0.6542957653509115,0.4066820174133987,0.543050683354536,-34.290464181531334,-7.188074779684731,6.734427963510916
1670,-0.5553210696035067,0.562156839642775,0.7178094220304464,-33.003740179583225,-4.8832149911669305,8.794745433347352
1680,-0.6575956273807732,0.3215136746470585,0.6943228828031773,-53.93256493666458,3.0354455593482728,15.575601938264633
1690,-0.5918943512599748,0.44774264703819605,0.6924813986027892,-26.4431159249291,4.779752697581495,10.536774260642856
1700,-0.47973869534749,0.5407702525432656,0.5691081634342307,-10.174811961042185,9.898463109785615,17.143094555104966
1710,-0.4677278239224868,0.5285030635651488,0.7690446255401356,-17.20669314867076,12.7059383989778,25.88238289354917
1720,-0.5327992360697634,0.46973164406422735,0.7838721794395224,-14.843435484370332,16.004635728696684,25.212249623810678
1730,-0.5862413661312232,0.5279304742635353,0.5320400618010026,2.606847773158045,21.201238559323595,24.19678959013209
1740,-0.5433191654247673,0.6931475426915227,0.5399528498347352,10.570036902684071,25.611304677539387,32.8437712231047
1750,-0.5289101937073941,0.5535323531244404,0.6108196413893315,-1.5800428859595859,20.05310035039768,28.849522396804552
1760,-0.40353009193569883,0.5213211843980459,0.571113572450334,11.471648987015243,22.293644652226916,19.15693987777384
1770,-0.5357142888646548,0.46152565562619485,0.590641837474997,-8.467484083703756,15.458086280225944,2.7176757474317847
1780,-0.4420265097421411,0.5472613128435719,0.7626629394316411,-9.841135306813841,16.254038464855707,3.808912863854408
1790,-0.4689711940567597,0.5115399177689401,0.597365563675711,12.381709168276794,24.47653393426856,2.453871023507383
1800,-0.5577270217221979,0.6265590793403276,0.6021988106087991,14.289430999939489,15.12057550599977,7.854731242363518
1810,-0.5736463846665535,0.5316589512787561,0.6594026685932768,20.22702716265074,12.679717342945088,0.47022402089998244
1820,-0.49014851341089744,0.5098704903506994,0.8168443038663658,23.08765204087884,5.4787951025336605,-1.0663435558905476
1830,-0.4771764247042427,0.429322986117119,0.7235903514848921,6.585662732829393,3.699065942870217,-7.749859392256848
1840,-0.5013082805513511,0.4101398916170808,0.6078603777813594,-0.41056740417598414,10.834824127891363,-13.518333639850152
1850,-0.49454085021506067,0.6752646001462773,0.8485467470323359,20.707594254137305,0.7989349472051857,-0.1967172047393072
1860,-0.44166207343366715,0.6517141620106961,0.7307713235327948,16.40601496970445,0.5209551197501965,-1.2618203750237766
1870,-0.5448693454250643,0.5084514045398257,0.6337913996186781,-0.1709699750333491,-0.12534363689792372,-3.538025187921149
1880,-0.5231319585781904,0.5344154346192115,0.6599178309034668,3.276369814972763,4.620114633433148,-1.3626776636363611
1890,-0.518345373001434,0.539816510317559,0.6592042370292849,-3.4412982008806168,-0.4354841582664215,-6.321765645726886
1900,-0.5173953046744729,0.5333184977997902,0.6629885904752891,-2.45835589476373,1.3563782892204224,-3.653851595957824
1910,-0.49877782208543014,0.5447159555179188,0.6795218852437324,-2.6965015091146904,-0.3331913149222754,-3.275512142746863
1920,-0.538247655748449,0.5057063137787894,0.6380375552086431,2.4117938880283494,2.521612923279486,1.9730113975596881
1930,-0.5338368036606862,0.517579210674346,0.6429336592619831,0.29884520905047074,-1.6169410227592491,-0.23103670983909064
1940,-0.5296102670019518,0.5271484838180195,0.6486950893740021,-0.16132742886321605,-2.482560939190439,-0.6205729859151885
1950,-0.5364535646816586,0.518950417172672,0.6422881648399874,3.212326579114328,2.1137684810475657,2.883219722769846
1960,-0.5471373103193159,0.5065388916044623,0.6304874518230641,-1.107487751601373,-2.177928503169682,-2.278872888981261
1970,-0.5503504849086011,0.49816338738688665,0.6338542177223826,-2.75870601001556,-4.111727613708294,-4.350277287903584
1980,-0.5234303848238365,0.5311512736335261,0.6517486657361902,-0.8389904671907868,-2.231805019439393,-2.0999303028447676
1990,-0.5431839423040465,0.5058457672259802,0.6290491186780348,1.4381432245637642,1.391311596395994,0.9627837846778379
2000,-0.5364077190717481,0.5097031521695542,0.6337242398370091,3.045799835350401,1.7582697894053485,1.516074004037388
2010,-0.5269095550458978,0.5231239166887478,0.64623691293714,2.438987730705506,0.04708872346651344,0.03782005244731823
2020,-0.5247819522182913,0.5295600336985912,0.651356881572116,2.7607075457909214,-0.21590118139292658,-0.33691774779916916
2030,-0.5317310610467259,0.5233186374202904,0.6434552809081195,0.6377291809564469,-1.8709830736332838,-1.751671183066008
2040,-0.5367817382622698,0.5175768993100232,0.6365227233500722,2.1543057722920556,0.78882960114153,1.3351041355307147
2050,-0.536513800627111,0.5189654074476315,0.6393566043543341,-0.05301173707421447,-0.4020146755002103,0.3055994349530756
2060,-0.5203193792017324,0.5363326159698933,0.6602138316880977,0.8267492819204358,0.875484609525164,1.7647923642253116
2070,-0.5178458999780541,0.5356141129546952,0.6591206266570202,2.047752909113525,1.0444833658631913,1.9037340510341236
2080,-0.5157841211328377,0.536320006573783,0.6615196568642366,1.0521306721791837,-0.7453838505413087,-0.39467853571674794
2090,-0.5014560678578577,0.5507866970533004,0.6790665620164288,-0.5117329061048741,-3.1561404970913625,-2.788864417580801
2100,-0.5143535735298969,0.5390220311073675,0.6610479315286351,5.397184931283821,1.6226856300111023,2.2775460450395624
2110,-0.5317576357782994,0.5245042937589973,0.6456732575797176,1.6289624233023239,-1.5937467717021498,-1.2778782369918982
2120,-0.5243708544704535,0.5313066018762098,0.6517384919024289,0.640711604218724,-1.336574483908863,-0.8428475953323555
2130,-0.5363901582681172,0.5211592054228772,0.6396295336430905,2.214251903229518,0.11406612021422141,0.6139262334613588
2140,-0.5294448165673427,0.5317352427474057,0.6476659472254153,3.546856023036694,1.9921667633063866,2.027378648650052
2150,-0.5368832765094037,0.5232617471877535,0.6399396618084308,0.738173304511835,0.5695747037298031,0.17154290507129655
2160,-0.5093650419274948,0.5467142290843724,0.6677319962276556,-0.505508493143706,-0.9786698813612942,-1.322472836443557
2170,-0.5130556945486375,0.5449625806142465,0.6655807922712582,1.0297841874516167,-0.12725597463992971,0.04928851897002284
2180,-0.5470275015549515,0.507225754322485,0.6294150470332789,1.4523264369624787,0.10823317848626263,0.8876285492466653
2190,-0.4995283091514961,0.5555012783350546,0.6737430706312866,4.128201000276098,1.9636866546381744,3.14423100369145
2200,-0.5191218006728467,0.542875784644329,0.6565817754597815,2.3849478181759594,1.267341911237422,2.4216526936741065
2210,-0.5285675185532352,0.5359144443309879,0.6507562880463131,0.7882560515302242,0.367975719621516,1.0240174291317712
2220,-0.5328999054351946,0.5285668942287416,0.6459875988182886,2.917032046783905,2.7919756262077335,3.5961379067108648
2230,-0.5057726524196696,0.5537281628465555,0.671872728036184,-1.0743810017760569,-2.374799358344089,-0.8967821362132251
2240,-0.5203461386553071,0.5400411170960813,0.6572191996097208,2.5607900689688012,-0.04399870957453478,1.7372142706810534
2250,-0.5182207113036228,0.5432274771771254,0.6566874553890535,1.6108593636680557,-1.1324654636273426,0.4110591308239562
2260,-0.5129325015224344,0.5485412276528094,0.6584373920430671,2.0389262738379523,0.5527117063937139,1.4038068178345777
2270,-0.5315361946664543,0.5300516956454998,0.643798201604775,0.9167258792542091,1.1567674448115526,1.0230976740341755
2280,-0.511368156375722,0.54830029993,0.6671705430370869,0.36791777822220184,-0.43128628758632503,0.08300073068259439
2290,-0.5137598928001712,0.5462582455536403,0.6642142841941409,0.5173624119579048,-0.20942969547310986,0.34952070167696125
