time_ms,ax,ay,az,gx,gy,gz
0,-0.6375808411487441,0.7430751240163963,0.6738861636402367,1.0471613666313884,-2.566126018975332,-0.6482995477370084
10,-0.6215015769243353,0.7649859183881148,0.6828245926464374,0.23490468063990924,0.2045138456242389,-0.221608788044237
20,-0.6378152401719777,0.7510047904570434,0.6710965164673695,-1.1192795504631243,1.152375115521714,-0.15344695705763312
30,-0.6271782023131012,0.7562601649103107,0.6774391165540385,0.8134201431265746,2.5469029283687106,1.5582369170244266
40,-0.6403906853185054,0.7400601578489074,0.6612279811244433,0.14635243861806901,1.5298397349187034,1.1233943772724029
50,-0.6299562893954278,0.7467139227347454,0.6720455086304248,0.9483705780741224,1.2661570186399103,1.7318721448821486
60,-0.6344450564967424,0.7470681879356169,0.6666723654861608,0.749667737391396,0.1161062366805899,1.1292325971448025
70,-0.58404283506063,0.7980099073385529,0.720171158416051,-1.0912710579467322,1.4155120784832997,1.0567066550428499
80,-0.6359569200665586,0.7444324027623999,0.6629836652722966,-2.9303251413131184,-0.7101683734018783,-0.9549305151225499
90,-0.6289355125600772,0.7513834012334271,0.6778369536796646,-2.0014743474938865,0.6251308294872442,0.5050117313922649
100,-0.6268089564574477,0.7542121692884279,0.679571103060664,-2.272809674754183,-0.48076186011783356,0.06359396924194005
110,-0.6149293251813858,0.7658724429701473,0.6875438743118704,-0.5440705464962549,-0.08633655186420608,1.1485765664575467
120,-0.6316512937613761,0.7624928042968145,0.6855697035314972,-3.754367443247086,0.9860018329339115,1.007036189501851
130,-0.6461529035111763,0.7632950038198616,0.6998387854892725,-2.5383702437394127,-2.1739045176916045,1.905614318014063
140,-0.6822904739630402,0.7463237302761782,0.6911947916832478,4.998951510159772,-7.722570918763807,4.897714280383935
150,-0.6773931178618139,0.7324963621277343,0.7146774642768696,7.698904632297664,-14.071779713732626,9.02505924518141
160,-0.6894150559406775,0.7120654769076722,0.750345078784219,1.961137216497271,-21.968084014592442,4.8156282218381055
170,-0.6061769951222037,0.7437246215365146,0.8568222742504281,21.329815429917858,-49.86161346084849,14.054820241448782
180,-0.4297600210096847,0.7088155968460341,0.9176017843123215,52.87617930904,-69.22157118525945,12.027220354358048
190,-0.3645403560549967,0.5562396288153028,0.8395360408292772,63.75967278340112,-75.63622498940961,-18.889414816218135
200,-0.3757733657265028,0.6477804838253874,0.7022994829431309,8.30324826892957,-71.33656765162986,-56.6120785619769
210,-0.47687439932804243,0.7256046697012357,0.678352261716787,-7.332640815153861,-57.9287216331179,-78.46229350773696
220,-0.6080643036513887,0.6686567309800394,0.6890844978867856,-53.04153264075851,-42.50822531839714,-104.24141601694156
230,-0.6796044796134899,0.6498845125950968,0.7068187810372587,-26.40252872288165,-2.223212759790925,-108.19699719815993
240,-0.6504530313912052,0.6796528966403621,0.6802703723331868,10.832269962568084,-0.19439135045273004,-88.94316024440225
250,-0.5894083372037845,0.7592474845509399,0.6842251217568642,17.94296233605564,10.743557271605722,-68.92550794607237
260,-0.6314437353118852,0.8077467787603698,0.7736825157351019,8.053588328798662,13.493541699836362,-53.670181051514874
270,-0.6286029941804222,0.8507472387303235,0.7910338168636958,-6.702561422984525,12.376089874222869,-36.81715657959932
280,-0.648010640670271,0.6874123759628452,0.7408109173094145,-37.095645832050636,1.021486605542068,-24.428859264628688
290,-0.5426147549106729,0.7198743077310613,0.8071803730007038,-30.996501754909342,0.6935970862996261,-9.117163003599192
300,-0.5994225755854572,0.7252942941893183,0.6909408432793461,-14.893789661963561,-7.044857880481787,0.7088433768534994
310,-0.570300702083809,0.6355968718943481,0.9655128018201657,-12.955106190121317,-16.575523292432386,9.534766671788475
320,-0.6159928139280539,0.7323488547571275,0.6172601649598906,-19.01200230427508,-7.545406339032999,22.669492488875612
330,-0.6061093506088522,0.32950305703153376,0.7689486226552619,-38.086327750893645,-4.515374910054606,23.383164314186047
340,-0.5366228876234747,0.27710146811195513,0.8066452227421573,-37.64363687075273,-7.983819755189764,16.636941165526807
350,-0.6358308545010479,0.24008381518442104,0.6277712135039094,-58.689002520174576,-8.779107676561198,6.249922741678324
360,-0.6751893579912083,0.43395170424884716,0.9282647819613588,-68.67977826435332,-1.9186542264411246,30.923729835553306
370,-0.6062186365352861,0.25964554322967587,0.48574352770182777,-38.749078828476854,-3.878095680842521,32.3084071109224
380,-0.6172935217012803,0.6839943603783856,0.7717761924652831,-48.55489242714251,-4.306832091580427,38.31011336358128
390,-0.7201752546604577,0.8754926090493593,0.9918124419436832,-23.619245262731432,-1.7865998092572888,46.064529748275106
400,-0.5469085822272836,0.6258336773620815,0.7326306462130241,28.15380761879074,0.06113907749013134,65.79965286678873
410,-0.3857715507190985,0.19949046629175765,0.7282646275503981,-0.0740909667939757,13.10759332140696,71.81272400873021
420,-0.6387909593126908,1.0327422043190164,0.4111715444934524,1.7051976971503213,13.726736309716571,65.91333567534807
430,-0.7929490521120234,1.1770668281189336,0.22470592934045103,31.175088699997787,21.036903700910283,71.78557879861712
440,-0.6504177730032676,0.8420345965284617,0.4291142992664318,41.39632913622463,24.879992151173752,57.29872318376548
450,-0.5999485391917236,0.742572657011012,0.34557628147599256,23.88412315372124,26.02022112705055,46.20470729306929
460,-0.7514631944377432,0.7823138933565772,-0.009014770055795086,13.22593753202582,27.904836607922984,48.99573286077472
470,-0.7051118860529604,0.731243997185815,0.46142839071188413,13.788943863482237,24.442998884906842,35.36822101128019
480,-0.8058424701121872,0.6718552813970631,0.18894856333044788,-0.12389047015584476,15.582863210608572,21.183459691514248
490,-0.6939158088322522,0.34843403523750194,0.5555185785984433,15.73469160910057,22.74297258155554,42.048227091910256
500,-0.5320129356504798,0.6450961837241982,0.7325775617784396,55.590372838529184,26.591130285507777,16.604647743878733
510,-0.557685017370875,0.6996839501640301,0.9387333159359965,23.402274456763685,29.927624909928106,12.341860032769583
520,-0.49238366919480575,0.6679150265876931,0.902900862947356,33.2579286129836,45.39081599180598,6.022259354266719
530,-0.5209766074741706,0.8356392959040139,0.9462612097074288,39.625205538084145,38.622247539438575,2.3943067433613034
540,-0.5599099672437521,0.9027447492934931,0.9027625467178826,67.39546108844839,23.357074174146394,4.1074606242773575
550,-0.5595537563868136,0.85686696239772,0.7669878567248454,39.78211228910529,17.42351929641281,-10.218946604327675
560,-0.49857434039591303,0.9522317706273595,1.090834613073436,12.199741974593767,16.306201387198648,-0.5450455116146777
570,-0.6760881851943268,0.7385050856095173,0.7524058490889397,67.34289738504494,3.9264434780910755,5.929344497793375
580,-0.5849351664236125,0.4605642672124429,0.49043334693235885,-9.242642783116983,8.484803950230793,-29.334829563963698
590,-0.6640082164210158,0.6920625283142863,0.686949512234955,37.44183555949094,6.696435980674764,-9.910791590276297
600,-0.6803909671006053,0.8899463795117407,0.677120563878082,49.89366253069432,-8.367940536368794,-8.478971122958615
610,-0.6182039877137495,0.5983817228203065,0.6988391425235154,5.227583099006083,-6.915275470804397,-15.465115039812387
620,-0.7490451437643182,0.8359005876992555,0.5138136869392362,24.50301135439965,-15.867185359389845,-29.655965499054957
630,-0.7041053534915894,1.1471650822242592,0.6347039818082469,-7.23856332841194,-11.739437503855598,-28.763069943832637
640,-0.7271200861123038,0.9940815067613814,0.7573561876539039,49.22917572899248,-9.474017396729446,-15.451208867721842
650,-0.6688099641510862,0.7976660663231908,0.6056625433374574,-11.29509226561549,-11.062749706882506,-17.60127685400281
660,-0.6220783608897189,1.0057910504050906,0.5999208152933198,-0.44755009219112774,-5.062148766737549,-8.180732234679807
670,-0.6669050565336037,0.9806835224841444,0.5135312671136166,31.30940515192965,-8.235454632608878,-10.019580530404939
680,-0.6622706971503439,0.8624168518890794,0.5961805520064049,14.710191968807193,2.361487598191031,-0.6029019673551769
690,-0.6334885317897031,0.7789788143715609,0.6689797889817746,-1.6251427743230331,4.266920460963668,-6.725257446940262
700,-0.6314355018245987,0.7753161021691449,0.690187769819375,-12.756192654581813,4.748504963145038,-12.479755017805218
710,-0.6302649981772119,0.7489151929604916,0.6813884599106461,-9.185559449585915,2.167356451431056,-8.96810839373737
720,-0.5942867307278417,0.7645858255666405,0.7017827093062194,-1.4438132445685055,-2.6458159494883002,1.8466668384650802
730,-0.627544298617268,0.7451408690354437,0.6778845176326939,-4.457461014394857,-2.1223051922024734,1.7919706262036301
740,-0.6200418401027302,0.743478149721035,0.6892333376882157,-10.466431645536098,-4.194407703641681,-2.057506476808138
750,-0.6469261367190949,0.7153932595216467,0.6595480473718229,-6.315394451478661,-0.731434109152677,1.3016745449979306
760,-0.6289514103953214,0.7417001502911132,0.676804641453622,-8.624634310792587,-2.0668565339765332,0.5909292781206267
770,-0.6261154395012941,0.7371418085405645,0.6808058936134611,-7.865138626437701,-2.7280552864554215,2.133768528380364
780,-0.6369931093456108,0.7178573226059903,0.6765637576448263,-3.083185410935659,-3.2882225674393233,3.362203415444453
790,-0.6122171114458851,0.7550867557900346,0.6940757517337863,-5.918404785478239,-4.133234173201066,2.121454258713355
800,-0.607124634241674,0.7561018032209453,0.7070087113312057,-7.300325128487387,-4.336502122418475,1.4980799521013743
810,-0.631551317820959,0.7354133094667251,0.6825249487083002,-7.530072675974637,-4.731022709106377,-0.4300093169677668
820,-0.6266748299352608,0.7406541430834771,0.6887632705463592,1.6989067502527768,0.12877052191319205,2.020785049106785
830,-0.6627026876834322,0.6979766696622761,0.6502148635401881,8.0268172178063,1.6836641126837268,2.646676722267073
840,-0.6287423590636166,0.7423010034768991,0.6814311834923741,5.942717026280318,0.06632014550608495,1.5204853522648594
850,-0.61359789542161,0.7635000132894962,0.7003557719655156,-1.8036903241133682,-1.7608546182778766,-1.188924240106695
860,-0.6041774328981684,0.7719998377160221,0.7121292459471735,-5.862725143037955,-1.2950491425193549,-0.21013596604177184
870,-0.6098052225512003,0.7572326974890182,0.6989245836717188,-6.6895927708809335,0.7839958235077031,3.8123791560831775
880,-0.6555041048323096,0.7025735256557111,0.6560782748545158,-0.5182221297414442,0.2577709805787113,5.816865597947586
890,-0.6120854498213657,0.7384334602620458,0.6889683212234066,-0.37774394369419395,-1.45515812198613,2.458780888192046
900,-0.6299585746175906,0.7547214254853127,0.6896019503552708,-2.1875827401647534,3.5760933937857637,2.066236097378779
910,-0.6235576952667553,0.7431973297769213,0.6963870067953142,-1.8642642784757673,2.5377809801937583,0.038589236200130994
920,-0.614730360841141,0.7465309084627676,0.6962399454794856,-1.5774318758171506,0.918597229988732,-0.9631009951439973
930,-0.6410485936483552,0.7122847298671187,0.6733874679101997,5.4267337137416565,2.037913322595025,4.143181560648513
940,-0.6258945216693445,0.7347878796705636,0.6940373198707286,3.1223185561935773,-1.0269292446025533,3.323078208181533
950,-0.6180720213745733,0.748696855508006,0.6988250039006192,2.2366151679450774,-1.0893459211194478,2.4790554758514225
960,-0.6222156200464596,0.7389307413818915,0.6884494102911908,4.296932358512887,-0.6709800238528282,2.5766010835037108
970,-0.6274359076646555,0.7387470094462122,0.6873970885466635,9.267273309789717,1.1217243026323884,4.046045358507426
980,-0.6254302100980822,0.7546660211117455,0.6831636605491366,3.27419362671412,0.4551729381219067,1.2939349023828253
990,-0.6260076704841879,0.732621065370338,0.686331278136837,-0.7191617170608793,3.0043318157193224,2.3107647476948174
1000,-0.6305289864107678,0.7359112974461617,0.6945022349854713,0.8278296190190557,0.49913343477256966,3.070155775151661
1010,-0.6556832375092987,0.7060791547466865,0.6608671155217956,3.104068539868808,0.5669084446606567,5.628949767334577
1020,-0.6300356655031348,0.7333420729796906,0.6839846298961468,2.3618950738545266,-3.5334891783768296,3.5630369526440466
1030,-0.6026045139943196,0.7671085976048857,0.7062705128609749,3.0501966421903846,-2.038987929447524,4.94697041535885
1040,-0.6176371082571485,0.7571262227841308,0.688409657737435,-3.4540027259777104,-2.9145359759174108,-0.3276299401612306
1050,-0.616599011729933,0.758042046097899,0.696017886524487,-3.4549870328162786,-2.0956595481208096,-1.8701961026024911
1060,-0.6438403238113861,0.7242091098343035,0.6661379353362381,-0.36829835968931657,-1.650862327593836,-0.37600950263388
1070,-0.6476519825756454,0.7272349276132457,0.6672019870785827,0.273942475624406,-1.6535686174042434,0.06469404666281253
1080,-0.6414291960552406,0.7350128833277951,0.6724717514732399,2.954344787388613,0.3390738896301302,2.2437962135909983
1090,-0.600005054725447,0.7626530300171117,0.7027230093924209,-1.6591785476469378,-2.0487925195080163,0.6506187992019734
1100,-0.6260655217459482,0.745565554450151,0.6817323721536082,-3.1016312622691267,-2.438165484381539,1.089491183595087
1110,-0.6114238959820628,0.7623560168146313,0.7045188167981339,-2.8836555393307077,-1.5182200166307804,0.4513889060643175
1120,-0.6123772742581451,0.7617916979425193,0.7016273958988775,0.6618212861257807,1.10255632209553,3.367909505020315
1130,-0.6386386668504573,0.7368173984560813,0.6712531258247695,2.241493055565857,2.047737279431969,3.765735463639645
1140,-0.6181298917499379,0.7599099786962478,0.6955110490186545,-1.717096596465514,-0.15365655820866153,-0.1922624805256654
1150,-0.629083027011071,0.7465391541645446,0.6900878309117385,-2.850190095069318,-0.23981764161859637,-0.22792407104109974
1160,-0.6188051311194056,0.7493697833421346,0.6903194732424066,-2.7230478138733387,-1.6285107015241218,0.4767428561027771
1170,-0.6340079372629388,0.7292075755729893,0.6774386162611367,1.8375818873222278,0.5242457235660003,3.9024277577744204
1180,-0.6310205124023561,0.7399461185893949,0.6798553746125201,4.279827260645924,2.6344808110003797,6.281254507823132
1190,-0.606590016814667,0.758801254183469,0.7025126638466941,1.459714973400872,-0.021376114434358995,2.8753077535180607
1200,-0.6383994161208248,0.738799896426582,0.6725902706034695,3.062206357412073,2.053145447870154,3.4318115789278005
1210,-0.5849343682333427,0.7857793970841381,0.7292495065680726,-0.23366103762689305,1.0633021205556428,0.6108637224786216
1220,-0.6447749816429452,0.734617918612129,0.6797621365156835,0.445334826336243,0.6558736351696915,1.0708278832638807
1230,-0.6190819692629596,0.7519147406109996,0.6982101771511963,0.5779349621039871,-0.21364805836055611,1.0801273879005195
1240,-0.6147606733979862,0.7529101266824249,0.6962297708822369,2.8015887749365396,1.3214162848525992,3.351433459500246
1250,-0.6121447291477791,0.7584738293678873,0.693735106472778,3.2110632000009387,1.3795675848558089,3.7202534673362475
1260,-0.6136488545904554,0.7587527969715173,0.6955655582902398,-1.8441247598433683,-1.8102274807653287,-1.0555376290964493
1270,-0.590011292679125,0.7764031645499576,0.7106749423583989,0.46183766659044573,0.6812438894031173,0.8032944369439009
1280,-0.6232393577799179,0.7562194508576783,0.6993791504212246,-1.544055115912554,-3.417756105651391,-2.9466785658688868
1290,-0.629097397957261,0.7443773927826455,0.6918556491781154,-2.1150116351507173,-3.297947476240065,-3.1866775665557014
1300,-0.6181869092800785,0.7559309618367114,0.6916046075250626,1.1959182168660498,1.5828648851155798,1.5468561940881116
1310,-0.6209868094071725,0.7526183537580655,0.6922279629565512,-0.28838025565511094,0.0687106098916214,-0.10026641486133946
1320,-0.6362037378920078,0.7444874448274054,0.6855046506267777,0.1956342442969214,0.6822725119781131,0.16440363215027531
1330,-0.6202737388513169,0.7577579178983845,0.6927747658566659,-2.9987988464124307,-0.8278446296043822,-1.4330561426069215
1340,-0.6241607853897368,0.7528214864574652,0.6877832110264146,-1.979479984192363,0.6148209778562533,0.5433774574655059
1350,-0.6355314982851965,0.7434809397981418,0.6836491772189883,-5.09207879081521,-2.5407499472063853,-2.9007794412247914
1360,-0.6430293065366194,0.7276056030731,0.672578276422901,-1.2205942686302902,0.6691225129163556,0.7291728499818451
1370,-0.6177289197391768,0.7512718239521765,0.6972235443517708,-3.9182438007303095,-1.1075554688734293,-0.6357879668553245
1380,-0.6213245248632522,0.7511630251566461,0.6929662112502679,0.763512904355717,2.3803209091653557,3.325143703798725
1390,-0.6250007363221218,0.7498621180476808,0.6874053012143931,-2.0671923432692254,-1.85203554792162,-1.4834197044321207
