time_ms,ax,ay,az,gx,gy,gz
0,-0.7586993553779622,1.1754627389895829,0.745484738477585,4.064896029422212,3.7410352445350377,4.090468621373967
10,-0.7749714113999228,1.1579029609561526,0.7341485082030293,2.433562581863735,1.1321839949540276,3.174040456351504
20,-0.7848903396228739,1.149530371530275,0.7236765675345941,3.335158141664972,2.5138606842307265,4.231830631617695
30,-0.7580372232722699,1.177462299631223,0.746678339886083,0.10620169173871474,-0.4439684984121198,0.14687698391139148
40,-0.7653158756810988,1.1633804581264742,0.7353145240978002,-0.07441726168837487,0.004954998056671156,-0.5502762800290115
50,-0.777368188718213,1.1457383323905914,0.7267709860920429,-1.5235285144778852,-1.1593835297030188,-2.0509531940895354
60,-0.7826736839909905,1.1429445369628635,0.7294659483763686,1.10696924550257,0.918807441297725,0.822122341104176
70,-0.7640300593014052,1.1646336373924095,0.746763916841129,2.959707632565369,2.3439906665764196,3.3874729113048447
80,-0.7587188522394811,1.1718124500700104,0.7479232073985953,-0.5061369513961438,-1.0742901799813072,-0.23923990470014966
90,-0.7570647901625487,1.1775926177752642,0.7480105283135993,-1.9022076344049563,-1.966059552021348,-2.5824096089227524
100,-0.746103342021131,1.1897594869431658,0.7632197887051033,-0.6901327925874107,0.14611641172420525,-1.3770954298679414
110,-0.7832107253321955,1.1744065759636944,0.7379654959293566,0.23417161762503916,0.18399488392682692,-0.6603303890919653
120,-0.7637425836303291,1.1918132285231953,0.7637966909898599,-0.04575823802807197,-0.8578159588096441,-1.4452647433095445
130,-0.7926177788463987,1.1560803068200365,0.7400346137814671,0.01520406510620248,-1.1074145439676837,-1.2283992982531127
140,-0.7684214881933213,1.1751234672412576,0.766648600924878,3.0435974060801567,1.910867881135195,1.8467536789563055
150,-0.7877584007261366,1.1392111087997414,0.7427329134634265,1.8784279766073013,1.4446856576970013,-0.7448513427050997
160,-0.7749261427688274,1.1732165956293594,0.7893490663868715,4.9266073733223825,5.744510112520511,1.9398581568972402
170,-0.7805245500334883,1.3232826094897119,1.0961353609338056,8.40260433450378,5.40822073058687,12.786947775664673
180,-0.7011985359410283,1.1229442017832767,0.8891677473988994,18.599384991099406,-65.04551031001087,42.4460429910585
190,-0.4427748052736648,0.8896850659486067,0.7322007181814121,25.727979233873647,-70.39222255901817,38.86341505568709
200,-0.2745010407882416,0.8501742671230381,0.7319486188600659,29.85746727007381,-59.55402847598542,12.964180924575565
210,-0.3340978548744978,0.9153950864956782,0.6898792610397977,32.76661087417851,-47.111487071437345,-14.247432144027835
220,-0.3937510069317815,1.1091895430044556,0.7169818720797434,20.626431588162315,-39.74670255554785,-37.96587605430157
230,-0.5552763041783184,1.1750529266953456,0.6450362047749412,-8.9417528151308,-40.72406765107355,-61.837799967098505
240,-0.6463788643816919,1.2577472226310886,0.6047384717234723,-30.224400108311286,-39.617352161233704,-74.97264179315052
250,-0.2751623513220307,1.3764571869371673,1.194066364969301,-52.37271129993451,-15.712767228457025,-29.416355141432174
260,-0.7687685649936791,1.2601379054068922,0.7542642157437807,-46.53525631157544,-13.344885858401494,-27.268957128795467
270,-0.6207680288716847,1.7206803994707123,0.7688188200972227,-44.039625764214094,-9.986547058985149,-0.5028650560827641
280,-0.6237776761796501,1.6047488009819477,0.9708658689208883,-62.530087500043486,-0.5937483651148852,14.935769828295488
290,-1.0199406405055014,1.4493701232650107,0.8469701955541938,-72.09108335508655,14.318619580181307,31.54362088524286
300,-1.0835886895762932,1.028281039412917,0.5820678914688654,-73.51258352445355,35.41014049719143,51.0436024306734
310,-0.6392155916651143,0.7787413623135404,0.5256405389113888,-67.63587555244575,55.88027678095049,66.26516055976523
320,-0.9492520874909578,1.2513364679457484,0.4382698528113217,-32.224706318414704,72.73977315948606,78.98349082708798
330,-1.4734791259430715,0.3815532037920617,1.1915619089997842,-24.255804880139227,71.14552044358248,49.43352681815921
340,-0.7634183537888939,0.45428645195008643,-0.5421420003549794,16.16531654087762,60.49154623970914,63.06569953998425
350,-0.8893435777601785,0.3194188595137488,0.679658364067164,50.7712280358975,64.67892072815904,57.91278423123739
360,-0.8904635310727965,0.48659303509062757,1.4958032221915065,83.68186781260275,61.98979942071785,45.3959430830276
370,-0.8124939280246761,0.9020599386583723,1.1792681431864012,73.1025825231499,49.51432095702972,27.931273115533823
380,-0.9394945241988086,0.6833196209998976,1.0797678230933156,75.15571645623459,10.879997729879378,-23.679526861546996
390,-0.9811722961409635,0.491256595145737,1.4106582025306678,84.10161989090696,-33.039472672157636,-77.82250314577915
400,-0.6441306764794417,1.291904726479805,1.1066030818509103,57.198171574920174,-38.010457751498585,-73.80941876798101
410,-0.6838105092439304,1.1719886344764308,0.679140483253922,66.49668035722804,-32.05193953230384,-69.43542507976807
420,-0.20158746339086206,1.9189493293014968,1.0895056589386536,73.21225909633068,-22.643076600112167,-45.55152215287489
430,-0.5912498702654551,1.496539373871346,0.8920330102522127,31.773518417561153,2.614942254538354,-11.602069105109244
440,-0.7605180316474124,1.3069923018899536,0.7881498269898674,28.200341728301485,9.244492931988974,-12.631591154491622
450,-0.8244866586405635,1.1789278413522988,0.7109454559123246,4.25870047624716,0.25498927165508123,-7.7731281606702645
460,-0.81883616791507,1.1147012479572906,0.6890525401045625,-11.848194233965216,-7.3949638549062175,-1.36492047583223
470,-0.7945030964469725,1.1184177996645868,0.7050113975364015,-4.956807993066882,-3.405625989359722,5.78110712890758
480,-0.7466084646542205,1.1834537051899074,0.7582791399716964,-3.799535480913824,-3.463169953455237,6.4042912577940445
490,-0.760373370733351,1.1591745261053306,0.7404853118149964,-1.8477810976153872,-2.2164905177114984,6.252004684438129
500,-0.7713728820409027,1.172223345133994,0.7401983704820309,0.7037163847353499,-0.1137133301151172,3.3118867417102287
510,-0.7562507395348724,1.1863219880163207,0.7409367149343606,0.7067277725470646,1.068899785334057,0.00922973187609144
520,-0.7870458956948229,1.156576778963896,0.7146192633511783,2.5838848890194637,0.5992391547135276,0.7268364638467267
530,-0.7903823001608619,1.1550709842336313,0.708612129867188,4.088353874850376,1.0422685860817191,2.9359725110966055
540,-0.7569746363031713,1.1964796896454388,0.7375047041077047,2.480923019123992,-0.3845894750669329,2.3438385686121057
550,-0.7831952486591732,1.1758058046342206,0.7116499811488646,3.1500702378323044,1.711072339939615,3.48918492831954
560,-0.757786594842871,1.194100233085117,0.7385792342893206,2.1259025968715655,2.3974186306973126,2.1972021314565
570,-0.7642073175852367,1.1737097223009008,0.7291992964062107,-0.5119957311100061,-0.24604746849136938,-1.2157994282534794
580,-0.7756219281715864,1.16384163545864,0.7239680322842225,-0.4991334539893957,-0.7271236264676646,-1.1607925902634109
590,-0.7961425989879475,1.1605769962790327,0.7012895954726165,1.0956751480138323,-0.2384553878838055,1.9429752694653004
600,-0.7607487093844215,1.1918433187330206,0.7278315647174658,-0.11334767583547017,-0.42450810677738965,0.4626929467212414
610,-0.7829188159502183,1.1619860852409782,0.7066078431790529,0.4852064459166742,0.2643570439146467,0.7451007008466375
620,-0.748650475676748,1.1917664962735408,0.7389653348332202,1.5380861622569069,0.748913114443372,1.9206739904465837
630,-0.7950705837849088,1.153019474892649,0.6907718287893971,-0.8920715604430327,-1.5435544951598386,-0.1250872059792958
640,-0.7819115495296645,1.1744098044732416,0.7065056495337421,0.248529038294647,0.29962743498509115,1.1029681374011218
650,-0.762561403997862,1.186298972867094,0.7288801885340099,-2.4880065235677526,-2.3538001097130006,-2.1337328321812827
660,-0.7691056885022161,1.1759161142119883,0.7222196378173263,-1.1725328821749699,-1.120732251130451,-1.2929800055848872
670,-0.770070636677009,1.1734915672720199,0.7231606947092855,-0.08707553397511847,-0.045394879804424026,-0.09886615319041425
680,-0.7784678358660625,1.173513740057275,0.7185905836633589,-0.22777938642994344,-0.0911507320274092,-0.556045774351646
690,-0.7645320686060367,1.187465720145759,0.7337322681335396,-2.009496737503701,-1.9829513118266007,-2.390377230031392
700,-0.7528216124067268,1.1981648901415427,0.7369272907646375,1.2479516855171953,0.9182611969349788,0.9289027991183652
710,-0.7809853264072875,1.1711490367206292,0.7073805649020931,4.235033031248728,3.5543438601274917,3.9324063293438134
720,-0.7779935900578617,1.1732251629053458,0.7139135121810153,-1.0597355078001978,-1.4178414275267937,-1.226121781542886
730,-0.7647975964918604,1.1817157329705277,0.7257415649902359,-1.8302590099252334,-1.335024647008853,-1.7645518471063621
740,-0.7748844983675224,1.1710091669522802,0.7184828873480293,-3.219578230339736,-2.761446156524645,-3.310499329143269
750,-0.7626762595154555,1.187207270643299,0.731628046015216,-0.08656058033570957,0.16426218157642813,-0.08196721694644393
760,-0.7777572322680261,1.1718235847099638,0.7155367899588012,-0.9452247882234746,-0.9197527434450743,-0.037635724591504216
770,-0.748259261972053,1.2004587808151859,0.7386031123212111,-0.7314892350639932,-0.536262933546988,-0.3776066034802855
780,-0.7718005044706104,1.1780345759686355,0.7204839845316374,-2.603817215959112,-2.1962979906659683,-3.0141996841690117
790,-0.7586263369448859,1.1902897491720394,0.7392048324193813,-0.35675468726555093,-0.39522565740522225,-0.5504169493674526
800,-0.7801955354158364,1.169102593802381,0.7187890896562736,-0.2566787369006529,-0.8739809347931237,-0.18363853594058233
810,-0.7666701245725314,1.1862023468882277,0.7284756291720595,0.3079466543417324,-0.2837398282334016,-0.08915950619805357
820,-0.7482059849010863,1.204075525709706,0.7376193159619353,-0.10164985669915316,-0.32145591192029804,-0.8779008507011236
830,-0.7632967962201306,1.1770985053684306,0.7232418566768671,-0.9653594216949879,-1.4553986113806952,-1.8321594191681407
840,-0.759614484733542,1.1826025335781436,0.7321047806854138,-1.0267192417266706,-2.8039541547295084,-2.0757026393544615
850,-0.8022012094670247,1.1390136552240424,0.6812151862251308,2.4323892615553993,0.9718537965821209,1.79819389739071
860,-0.7976220535218598,1.1515126386644776,0.6979404019240223,-2.4487508412238537,-2.0816767601910477,-3.159362257584082
870,-0.795457463482021,1.1476924160084534,0.6961805268442661,0.08069397953265472,0.946038149882714,-0.3841984195566798
880,-0.7673573925011231,1.1703877635860924,0.7194829051063314,1.955237301779464,2.3012024032798184,2.1256601031952593
890,-0.7778744497340387,1.165604806118441,0.7119129922260176,0.14449046986259695,-0.02913206510380495,0.8102798771356894
900,-0.7520187674248957,1.1995060030494724,0.7362490661108005,2.62027321199747,2.229042114317652,3.239378332242911
910,-0.7661543039827288,1.1940533915022724,0.7298360284048041,1.5888293776297444,1.7808090558100453,1.8531093377262948
920,-0.7823756013807437,1.1777442354930934,0.7140321221952839,-0.24944858956989588,0.10161454447660317,-0.03798179466765898
930,-0.7726906161924235,1.180438286544164,0.7194321230581101,-0.2228844543523063,0.17046006340151304,0.001417972716892535
940,-0.7849995045387808,1.1615995820272214,0.7094946298491036,-2.2215563856528093,-1.9839466398465457,-1.7864580656220888
950,-0.766742973203195,1.1840481431385688,0.7317022346544986,0.7070284558170694,0.6815950368936754,1.2413901402292105
960,-0.7803755023024782,1.1712258123376322,0.7149104322190383,-0.7654534554956927,-0.648644788389909,-0.5363577750108246
970,-0.7732058998169438,1.1750456110565428,0.7173496649615417,-0.14845609819717742,0.338558216821315,-0.6262491738713054
980,-0.7463737111156634,1.2025221555021846,0.7475182840284572,-2.7901096083468846,-2.140974730415479,-3.849375054616652
990,-0.7575455814302443,1.1915910176518185,0.7440398044671864,0.6348421841181858,1.3264373335304653,-0.06452234141368773
1000,-0.7666406164088083,1.180042670985125,0.7406949501253907,-0.6252718044148461,-0.42498267576985294,-0.16355188911023572
