time_ms,ax,ay,az,gx,gy,gz
0,-0.6446733196935559,0.9935773306762191,0.9193832970556448,2.0648571323160954,1.0405379738560419,0.3228825171939558
10,-0.6185972534735678,1.0271015747177399,0.9493461393651619,-1.2086214197082956,-1.215047120483718,-1.0989380662001103
20,-0.6424090271212399,0.9997403040375282,0.9229892963159991,0.3793175448713894,0.41684684501273295,0.8301527389113584
30,-0.6375303241954744,1.0061730005700023,0.929217157226324,2.4087746624522985,1.9214163186419138,2.668885025473403
40,-0.659146452409254,0.9905355436474046,0.910421355885182,-0.3844228933689242,-1.6736103737367354,-0.5853449970923379
50,-0.6289761273266359,1.0222774029675752,0.9405513942698399,4.664790652155228,3.137673510709903,4.184764569689545
60,-0.6440936839848372,0.9983409807341893,0.9218191621276564,-2.701714117268666,-3.138796157901724,-2.7586434633375956
70,-0.6251450898669161,1.0162721249684676,0.9338163642434489,1.7226275653194878,0.7516125595488609,1.0457494466543071
80,-0.6284410951700476,1.0125050081315252,0.9363489741665729,0.22368037900971782,0.7256498913489848,0.5460620076046592
90,-0.65765995144726,0.9902196031170186,0.9073620554372546,-1.3650209753623066,-1.2822722363898242,-1.4111939016780748
100,-0.6380601873469585,1.0078365239060447,0.9289113203814731,0.13627678579216834,-0.1084603191232047,-0.10455000431984796
110,-0.6216915739528779,1.0176198862966104,0.9480278151088388,0.6033035395338511,0.3148173536159181,0.5984290500539057
120,-0.6341939393670216,1.0049011611695156,0.9345508721049799,-0.6627358457241732,-0.986095648518415,-0.43747446626446274
130,-0.6391305810241655,1.0060553953259337,0.924650441617767,-0.5932338918697231,-0.050240905950358655,-0.1618718679356895
140,-0.6295170421251671,1.0154326700221763,0.9339702513168348,-3.550613737750975,-1.670117763548882,-2.3173085965424765
150,-0.65294884713163,0.9935140285475716,0.9213318914306308,-6.726496133150837,0.7303571364059587,-0.459014620300106
160,-0.6757718365865937,0.9909591969355489,0.9108136437501447,-16.044997835566935,-1.9153724143984368,-5.346076595801801
170,-0.6445450883386463,1.0306953925996696,0.944680132985332,-24.57457126608749,-3.716596000984654,-9.245285402348767
180,-0.6452724561016001,1.0241201543500642,0.954466657751004,-27.12675717444572,-0.6278518803617807,-7.516303552313444
190,-0.6746076814381777,1.0772983738526805,1.1124714582222004,-23.916773987802607,-2.464075490269939,1.1388313504897107
200,-0.7934784739759466,1.4014599172866433,1.8175515268742066,-13.372772410852704,-36.49325833869927,29.04617888154738
210,-0.8651503746478364,1.0333651533187178,1.7502025588115935,-9.511638372432937,-94.04606830559874,43.41365548087301
220,-0.17258013536785732,0.7290410997679256,0.8539725979492774,-6.082544422036533,-109.14252912679949,3.5858523080032274
230,0.1549598342234198,0.541937580968514,0.4770257803493704,40.204212604580114,-90.09180266378945,-34.355006484287614
240,0.023541064673003046,0.6581023166573207,0.34894299347362556,40.80760945184794,-53.536959179333415,-56.30565176353388
250,-0.29481220825064025,0.98213431807003,0.19723474934067708,-28.04299388811368,-8.079044949074238,-64.13672013685019
260,-0.5669067071085446,1.0848949731545112,0.2656270413923799,-83.77510808519087,39.30696005785194,-67.47700058055977
270,-0.5122770982873215,0.89287417886748,0.7860117965711239,-64.76939582131475,67.28359503606652,-66.79829337633899
280,-0.9873226034487089,1.0066406589428094,1.3210804435237251,-62.726588715109344,45.228739798153825,-72.57639714296377
290,-0.8798179784855814,1.0181128090159983,0.8873380359142152,-52.85884325675341,-2.5405953784706496,-27.564558166879593
300,-0.4625181615923237,1.1387762098094223,0.98813200468029,-42.04062315528712,-23.82600214542085,9.570496770534692
310,-0.2728373215934214,1.5856781134365445,1.1286991605471344,-34.280779049812445,-20.050316572700023,31.610023273032702
320,-0.3342094714908554,2.3232823779897767,0.9031793634660958,-23.438220624298047,-9.9634872094482,56.025150499745685
330,-0.2371170726329929,2.5506426082223563,1.1649136849996355,-14.35283352510329,-8.726702871388358,73.17289365275782
340,-0.3493273129759257,1.4266036911898208,1.1850568222416449,-48.95557995385519,9.48548711431187,80.02917737384813
350,-0.2969368830229288,1.314492751744353,1.4000544231370389,-53.54600484700738,19.072739112053902,93.72335622278882
360,-0.7345640354085299,0.5987953642891064,1.5874329445834767,-75.0350588412526,29.94840465338484,72.97081774899121
370,-1.0196087603566113,0.6711750731040136,1.090647968933289,-27.066193682462117,53.480000788128656,71.41642789033843
380,-0.949561122231483,0.7805148314548651,0.6279859412176036,62.41690704182781,67.04557908421006,72.92640407980012
390,-0.8935299334554851,-0.17349281848060902,1.0309475397843273,113.10900218839119,71.38495217530748,62.64703364269433
400,-0.728232111692674,0.8447026372054488,1.6545779086014336,66.55420835158046,82.53576959266636,74.65976884411442
410,-0.6407733273494308,0.7316135311774314,2.0315674912532575,90.06982778283636,83.07149944135378,29.119526952304312
420,-0.5546779375807044,0.15328660640330205,1.8628549624076154,95.73140543052106,67.3617542451743,6.116533994698399
430,-0.46144773016817964,0.24205045995662575,1.9116136815987639,96.46870313677908,24.526434008721466,-40.206463846650244
440,-0.512189088116637,0.808432073318736,1.4379327882051363,90.15142175900189,-2.5230423254523737,-73.73245782818665
450,-0.5210066576787716,1.1840221933157775,0.8524021438005833,61.25429747555431,-11.48313040218846,-80.1253715835036
460,-0.23979348021730795,1.0066124928081395,1.3822480991168944,13.24894677423237,-32.39336001988154,-76.28312519742767
470,-0.7291486084350012,1.336454146052274,1.108755155660737,37.215677565845375,-15.51404287005387,-35.807985609096725
480,-0.6385233154839298,1.1812356903348944,1.1146944396457945,7.692343318132965,-5.352511249861971,-25.248491673375877
490,-0.5734597363516136,1.434128834934251,0.9287613583666736,5.498402605508465,5.3512256864381,-3.8069036933804616
500,-0.6293143195100743,1.2450232353388146,0.8545723710970952,-3.063144076410533,0.434625663946979,-2.4887181903393185
510,-0.6617770145768989,0.9790834146929632,0.9050324679270823,-2.195104628133569,-0.14552990667113308,1.7765518929334134
520,-0.6620884136462866,0.9805892210873266,0.8976059836296864,-0.5875703119193718,-3.763127890127628,5.365139784144754
530,-0.6271195338509385,1.0358556298961548,0.9251531274959872,-1.0712677393644643,-5.5743624063722095,5.185700327524742
540,-0.6450046597506969,0.9869745844231502,0.9233047221813695,-1.0797385128662598,-4.468209164149554,2.131817286782997
550,-0.6184449965135451,1.0197736879014712,0.9474285110292048,0.2706852444024028,-2.0139554709712253,-1.5517528387235273
560,-0.6294480092719449,1.0085471252805063,0.9334149408049726,1.9863174691983616,-0.04832599035246954,-3.5762418068830484
570,-0.6391605919062646,1.0019869641941193,0.9234933733696523,2.951147642335741,-0.23479690272303122,-1.9918378168279585
580,-0.6473526121859675,1.004338027708853,0.9165796035854423,4.773533846278385,1.3536423864103206,3.1088770585686865
590,-0.6109728035881546,1.0492827654921992,0.9544332934768736,1.697751914921442,0.6464864288034378,2.134506295712929
600,-0.642333974883636,1.0076332059905644,0.9272538444889886,-2.1204258920185204,-1.7332191143385907,-1.9327544946259219
610,-0.6569302221007621,0.9908631812807659,0.9084854863823302,-0.9004918410494418,0.35648770876861396,-0.13452539629945393
620,-0.6101731199176342,1.0402965032980533,0.9561301272028335,-2.1160511153912123,-0.2163401209852614,-0.5871243943407578
630,-0.6266776926423011,1.0274131358145997,0.9349671564295332,-2.255795216195747,-0.37765329764013533,-0.5709881294520448
640,-0.6097732320255392,1.0459407853208074,0.9490411720513117,-3.0321897889647165,-2.721299305476793,-2.9998358785616053
650,-0.619632421929128,1.0403895201667084,0.9421696142834474,2.38132220583966,1.18901304887466,0.29046270784454675
660,-0.6426149123981612,1.0257739068559728,0.9236262882466186,-0.7780494387647816,-0.9009602356950498,-2.7935173919031464
670,-0.6618349096883394,0.9846627176373188,0.9044564546745814,-0.12275995337343049,0.552324691370444,-1.2253594366672167
680,-0.6311359807194484,1.010887530070253,0.9342345045442777,-2.2186971190276887,-2.6890445614590988,-2.921892897882781
690,-0.6200929709160967,1.0161370654466966,0.9441226727397104,-1.5214270305326174,-2.9583927933287733,-1.9902004813488263
700,-0.6415774388235045,1.000787938273871,0.9231344017048582,0.8153390896827416,-0.9140845737095947,-0.0026514867423953203
710,-0.651323231101256,0.9979718794578233,0.9144981919538749,1.328747662948469,0.37252638250580944,0.5161782102807634
720,-0.6694879926052224,0.9793626141750159,0.8967474397912574,0.5672324673493129,0.9147942877721578,0.5063443844769866
730,-0.6578707034540398,0.9915048916329608,0.9076503407103104,0.4145142135872574,1.089461068436119,0.7662547371855639
740,-0.6347766180086805,1.008534120561439,0.9246689846030695,-0.5633934409880541,-0.7959522955015137,-0.8855180345299286
750,-0.6506973755123172,0.9976813966361368,0.9116949883425964,-1.5464854282059728,-2.2025209567584367,-2.317316706522046
760,-0.633636363127114,1.0144169980258997,0.9315043923979526,-1.7047461989696309,-2.2870488139855443,-2.332747977622443
770,-0.5928204059147598,1.0506352331064606,0.9687028783706108,0.7991380480406923,0.19127370579809488,0.29335289320930813
780,-0.6460173910508367,0.995985435967993,0.9133760920334603,-0.431535410060832,-0.9495810363006448,-1.2389473919750467
790,-0.6402290338395954,1.0063478733449878,0.9247947484585858,1.4001386719561526,1.098348227916094,0.15184620708950355
800,-0.6277421482675056,1.019102723738984,0.93783764107927,2.5009829450609793,1.2487992265405041,1.7231795845167723
810,-0.6229687557207041,1.0249433260332885,0.9438851365710648,1.1359331738324219,-0.13642176807554118,0.36861963987707197
820,-0.6536455506148566,0.9978468230250199,0.9085825049826015,0.7743144807225293,-0.01771408366751892,0.16464845720891397
830,-0.6066082513642043,1.044235322275297,0.9567992000754957,0.07873924747223837,-0.21546178576826958,-0.5239071788622406
840,-0.6351025486099495,1.007789098183123,0.9284700659218275,-1.4798679536696806,-1.8949287915038504,-2.4677434486145953
850,-0.6599562696475377,0.9767949101042934,0.9021263629512285,3.7056780873732063,2.8716346128664165,2.3503679344622688
860,-0.6205177022177367,1.0227467113436763,0.9440862020382278,0.06563240745910792,-0.6625563960201495,-1.0296739275488929
870,-0.6316211099106999,1.016271425590592,0.9354043483081754,1.2386475216504123,0.7579425480623412,0.5126260583971394
880,-0.6316783511563551,1.0166783096867573,0.9289340024287892,0.5464905108433008,0.6913132776606008,0.5584182450308377
890,-0.6359437128158634,1.0090712934541701,0.9305250647373919,-4.887209236901654,-4.3039621931720955,-4.283949019636503
900,-0.624517851365679,1.021321122692991,0.9416440782270814,-1.1880886201338017,-1.093433418726213,-1.055293291270147
910,-0.6328569584083755,1.0124165027370349,0.9286792593233023,1.351000212267564,0.7623612276627546,0.9685235721587272
920,-0.632144667705505,1.0089236988145853,0.928270010552436,2.329509201481575,1.8092078884472158,2.1082973140416548
930,-0.6167038005857155,1.0243370338386868,0.9488831163340891,-0.7888301083367493,-0.29967572369282564,-0.7407867435596746
940,-0.6367507124029189,1.0113730739125064,0.9330321546337653,-1.7780628515370376,-0.606753319393117,-1.5373973913124073
950,-0.6451804233527463,1.0000992188126623,0.9232473515857768,-2.7576609079136594,-1.6108863360378058,-2.4295526436793837
960,-0.6194694543050929,1.0277385740488774,0.9433376073964147,0.8914835431942536,1.5029778189666596,1.3234145297761226
970,-0.6510699882838181,0.9972958803257462,0.9112064089647707,1.204179446514472,1.5741256166188586,1.5395220812184156
980,-0.6580768122207434,0.9879881961918863,0.9081808745801617,-2.031548774088188,-1.6540199229629475,-1.9925796257076358
990,-0.6601352031023434,0.9849116604817604,0.909266025475862,-0.821612184465071,-0.4713450355036947,-0.8365980139365836
1000,-0.6226001103925748,1.0326402087660362,0.9471505146911281,1.6995615684345513,2.2405683301316746,2.5881614713535437
1010,-0.6474641180076847,0.9987810688597555,0.9206769056128805,-1.8654381757114624,-0.9778500258094874,-1.7405906099476174
1020,-0.6492030135015666,0.9929407416316242,0.9157942397811928,-1.3852365893936152,-0.7126330073936349,-1.6497061318569417
1030,-0.6265991095581396,1.01846493779055,0.936161094517809,1.258356402688905,1.5957277160172256,0.5845689308617388
1040,-0.6336780180488463,1.010088596754995,0.9308662183245784,-0.6726253084738743,-0.8966171801959794,-1.6335555398107986
1050,-0.6247763381869891,1.0159495923701753,0.9427953672835728,0.9100921986530819,0.1767556549558264,-0.047489850281344115
1060,-0.6515281401587144,0.994125390345218,0.9149742885872117,0.7795260620903323,0.16918357527120798,0.1607344490285379
1070,-0.6071511961640528,1.0424553916841237,0.955813789242103,1.968443929360085,2.385389772509382,1.9296483299710976
