time_ms,ax,ay,az,gx,gy,gz
0,-0.7543450334488243,0.5158789071016665,0.5307155025342883,1.3772398890708084,1.7051728146162506,0.6361274283255585
10,-0.7373530419513032,0.5348305130650977,0.5555254843316669,-0.4494106647729528,-0.8614033567858792,-2.4385489186142557
20,-0.7328745055745175,0.5355298437880831,0.5510347221665701,0.8575529378502176,0.999117069529489,-0.7530406546921947
30,-0.7356300308613819,0.5298753056234248,0.5470622179336723,-3.3628228728331977,-3.0409626138769834,-4.7939085185555275
40,-0.7530774756617609,0.5142310075090827,0.531656292889951,-1.8524297299451762,-1.6687163641032006,-2.5593861306626167
50,-0.7470407170830199,0.5239316769086996,0.5406100789183709,-2.8241946338201736,-2.7849805137344386,-3.0624388334510795
60,-0.7852667919772397,0.48651793100969065,0.5060806726035469,-1.5499790797839634,-1.2975552441715226,-2.2178684015600405
70,-0.7733710333198475,0.4959770363218057,0.51582897378079,0.8768993721477849,2.084256955140199,0.7275363113867435
80,-0.7387588098500102,0.5243539701420047,0.5481668122931114,-1.8584487725925127,-0.5411190724448978,-2.3998137208275336
90,-0.7315884495978852,0.5349750798864423,0.560820278358813,-1.6014454258047446,-0.45318946194535337,-2.4586993569697198
100,-0.7607660651196331,0.5107825353097528,0.5244732360677271,-0.7537070704224069,0.48966136956595185,-0.6794842034412789
110,-0.7557474009849102,0.5121253509208652,0.5298300750342243,-0.9153522848425211,0.29752891022525196,-0.7834681122426936
120,-0.7618888978967711,0.5047781717040821,0.5254960453535029,-2.578013057224392,-1.6581579011616778,-2.9576878612745854
130,-0.7533909658274713,0.515828111994155,0.532050167938874,-1.467612220255095,-0.9714183136591253,-2.240678889926642
140,-0.7845528950600767,0.4812018405828822,0.5006136938381814,-2.287635351525359,-2.020712976394606,-3.2165453305051734
150,-0.7414540174554309,0.518390005810336,0.5487495714063637,-0.5214881331159402,0.05947800399404218,-1.285644180564955
160,-0.7340926656906603,0.5298295590611363,0.5498848658405628,-1.4611176463784012,-0.5463228638495615,-1.5474171408663306
170,-0.7443455968628895,0.5139066819712896,0.546449197583881,-1.4175551301932001,-1.2981306314378585,-1.7247494519930764
180,-0.7432973546151097,0.52056907015077,0.5438657710009939,1.1676478645470705,1.2389861588919566,1.2661066693904837
190,-0.7526282588366678,0.5153707421384304,0.5306007908384541,1.8001264566834267,2.163889241304851,2.128965632241086
200,-0.7426893025896073,0.5242366043676939,0.5392617482089698,-0.9593486774303658,-0.28045898165488276,-0.6287927791012244
210,-0.7599149332793252,0.5064084331599855,0.5248766093376332,0.30424953201345195,0.9118696810906726,0.47255922705517617
220,-0.7601962495070493,0.5089269656110664,0.5310530252659266,-2.1831039682274667,-2.1563384392739953,-2.3552993476059143
230,-0.7458224118791552,0.5148472359311905,0.5361591963831828,0.8679085367232164,1.4033034795966983,1.2419470264392496
240,-0.7358481403167467,0.5287148760615882,0.5553923164766832,2.0736513520910043,2.233453771012789,2.4948977568337454
250,-0.7454483614571434,0.5229330739362832,0.5374874338584756,-0.7584179419897685,-0.757842238387315,-0.1333731244570837
260,-0.7603343278771929,0.5100288856274652,0.5205509897002674,1.646675255710384,1.753919850659613,2.6503309142070393
270,-0.7517570226880236,0.5045952800649742,0.534215350336013,-0.5696407606462539,0.18601416433677453,2.2492711267541337
280,-0.758149269048839,0.4911266853780952,0.538534412416402,-2.01653793938712,-0.9193883912401728,3.075147208483274
290,-0.7346605715340632,0.527082194539243,0.5702211887145775,-0.48598614367931914,-0.8691433941572142,5.422476793679022
300,-0.7488820500521487,0.5133576073887496,0.5498016761535862,2.263340811513804,-2.537883319232834,6.634367242089064
310,-0.7837040892264537,0.47533202037407385,0.5191633409741442,10.082769786514264,-2.024440251584564,9.717446201588258
320,-0.8603375720722554,0.7181412428235476,0.4859768435130231,1.9568749347800756,-53.26455676884623,-1.9204689210650168
330,-0.9575193449764365,0.6108058991108438,0.8028318271014101,-0.47011627442329074,-74.77572978180302,5.822907636690346
340,-0.8762854134349148,0.5541758065332563,0.7740453081872296,-4.151799216035652,-90.07911568046026,19.17405378510858
350,-0.6822200069510246,0.6048074948399261,0.708166052345392,-15.241941642050794,-108.26245012607485,20.00029469411167
360,-0.614921870265671,0.5551840409826633,0.644332336569569,-17.35443336267419,-112.93307643342379,21.35539890310844
370,-0.5691435206062064,0.49947592555273346,0.6185311291666014,-8.130522378573096,-106.17741773064787,25.930781548122326
380,-0.5655847517237524,0.4281177103152906,0.6233031551228725,5.503935664391569,-100.47349927441505,19.19806404417664
390,-0.5531592566721518,0.4964833209705771,0.5932503155742034,17.578062914240146,-71.23159854065939,-8.732520983612712
400,-0.5471947827995883,0.49017471726298234,0.6234787757961829,19.516955953480057,-52.94912587929085,-12.95578278026582
410,-0.5619059837460975,0.5182735656167328,0.6075755181629592,17.27529701210773,-37.41528031931644,-18.937107055947138
420,-0.5972731594424431,0.5439675193574898,0.5695480443910009,20.037746769472136,-21.611486229104322,-22.625041305394074
430,-0.6121608627720889,0.5672442882841112,0.6023839596125348,13.816639115248275,-7.672231967653966,-28.047003168713573
440,-0.6411135771770209,0.5547789879934681,0.684755306223034,9.095559852090332,5.143694188529533,-37.50317017365779
450,-0.6821610444643397,0.5611092058208579,0.73557100913925,12.28946503006079,2.3185869376321477,-44.57147209525318
460,-0.6266446203883274,0.7467586884123816,0.6912234773124474,-17.42954733911852,-31.095333126533113,-0.474166872209963
470,-0.5413161931614008,0.6187004955237276,0.821491255696665,-23.124307637150853,-26.146672495177732,-1.6926663990981898
480,-0.636842135662855,0.6542574885397883,0.7264203222609157,-28.992707900717782,-25.037420821297562,7.1857545756432035
490,-1.1672506564532483,0.26566919747495304,0.6230172173141769,-61.26761186484478,-27.38541181915382,19.184469918000065
500,-0.858929453478209,0.48428604440647527,0.6943614406611885,-46.035740008580916,-20.45385900302396,26.01947908797461
510,-0.43465134841803665,0.7773968294332385,0.8392904860666773,-36.8015409827525,-20.87740565394339,25.414336644023887
520,-0.6694044347139325,0.42581847811877876,0.7120802194470344,-50.49041179278631,-5.55445310248681,40.28298761628022
530,-0.6171086490330762,0.2826192364985121,0.5857363016936213,-38.34190151970388,39.79047000203024,56.46675070004836
540,-0.7259924219370502,0.8997057402055292,1.171480470947551,-23.478165562180667,60.766860789846675,51.40096093349555
550,-0.8291518082410592,-0.31322958129018036,0.749489863498427,-36.58506021771911,47.31491389695767,43.741168391024566
560,-0.8158005140167098,-0.02439437543943439,0.8402958749121896,-54.3570459769399,58.6393400198536,47.44595439221413
570,-0.7217985930609202,-0.054740877492647784,1.6545694582984554,-47.635043103644335,71.08282808327496,26.457588763844043
580,-0.7696403806543222,0.09242419277180237,1.1502888551836448,-28.41086425656534,75.87541829925674,15.872459935875531
590,-0.7980542920933122,0.20739572903854467,0.6926371479882385,-3.873295149125947,81.69036135427642,13.681643126902982
600,-0.6988070530310917,0.06000057982314585,1.2032831685598446,24.824463171967434,86.74843621497708,6.008045955521184
610,-0.7540145563608037,0.5453078734913883,-0.48348819456046627,41.264226440455424,72.59378132960792,16.87275694833504
620,-0.5024643619560055,0.5765593979211118,-1.307703283052837,-44.66236525203995,82.15693235311495,12.061709043236998
630,-0.5581345839915756,0.7639800507223302,0.5395323148791068,32.49186628178611,75.99851272979751,-2.8304650238820046
640,-0.860500847836993,0.5258392663271517,0.77431293613457,46.43094378743654,69.3742303031394,-19.290562056730558
650,-0.623797967446798,0.3498700424198047,0.6921225844004183,46.458507831181436,61.19443173068823,-36.23448731522461
660,-0.2731548182053419,0.19454398776435944,0.520749611803698,46.26521960249976,36.57825394220619,-48.84932176174315
670,-0.3702041682732134,0.18366544858941403,0.1414612228613899,40.38647240673177,6.0244306495874795,-45.53249838746854
680,-0.8242989158575125,0.3825378226304981,-0.17190642244831458,30.2983995475241,-4.433499851747042,-22.155959115177463
690,-0.5054427049983726,0.5690388404669805,0.6345590213783043,24.84168845159848,-6.859112812426486,-13.68723319945206
700,-0.6924856931069056,1.1075553761771855,0.5267781628260457,60.50677253734317,-3.0013233873609715,-36.26237470372915
710,-1.0574179321074637,1.1301075967422307,0.9493730369529706,58.71199879001177,-8.461181546367508,-47.37081182974777
720,-0.7450028854405567,0.44835930432581705,0.6209691006886977,23.68598449263979,2.4317668373609638,-23.855238408348438
730,-0.6683591500084252,0.5108182803778,0.4804987591963894,3.141332209796481,1.122006287579789,-5.787662352509013
740,-0.7584510866186985,0.6975745550423931,0.5351142270467799,-0.9420854761860872,-0.35297950786700827,-0.9674663576618857
750,-0.7614128622974621,0.50174207204268,0.5305388424089517,-6.018287836600419,1.1688259267807206,-5.673337934403885
760,-0.7537289938054419,0.5060068123401669,0.5487187765115082,-5.936414164602085,-0.12672676210065648,-6.775879515538427
770,-0.7263860713741417,0.5205704035787546,0.5722669579954118,-7.734638295888805,-4.035660883093794,-8.599322127471838
780,-0.7562140682951766,0.49572341877174514,0.5390106307697725,-6.024219519962437,-3.5215895216405126,-5.588470290760729
790,-0.7598358728335172,0.4955263408288446,0.5402078658655548,-4.027099650721286,-2.5295163805900236,-2.9859042704336076
800,-0.7407871418406632,0.5030190071120724,0.5609291725256743,-2.3649733863241247,-0.030437321421645958,-2.1842864852384407
810,-0.7485587496484747,0.490834662539316,0.5546758183228223,0.8986584785941805,4.148910505546516,0.05839812230598973
820,-0.7362650381885488,0.5077530488943913,0.5678974678005738,-2.195026343865787,1.7835259950335745,-3.3306355382924626
830,-0.7506626545044327,0.49545232791740873,0.5527274246977109,-4.435863639476038,0.37789753923559566,-5.4041360064324895
840,-0.7460276003127221,0.4965187521746105,0.5559009554357909,-1.944256581622234,2.719923661347397,-3.572394939127701
850,-0.7213722075421533,0.5260589706245595,0.5705149878870819,0.319030793008773,1.3906270287225686,-4.526172838107977
860,-0.7249437600242247,0.5133382097242835,0.5721212835116732,-2.80476678889508,1.7333540457691783,-4.409669959848266
870,-0.7487386390574974,0.4869825916697675,0.5522475206676689,4.670461100869803,3.1501887343955732,4.271118278660201
880,-0.7186112987359063,0.5175702786575679,0.5827224560281404,1.026138880649753,-1.9236835233568772,1.444460468691568
890,-0.7422669536602227,0.4932403635681803,0.5585282573144883,-0.040437057842342305,-1.4660902383144838,0.8620450142785905
900,-0.7218267221790053,0.5123720594291632,0.579600045978371,-0.3073717542421921,0.222846582581741,0.9059245389653507
910,-0.7289259855253498,0.5070551664407469,0.5724204028671688,-1.14685919344236,1.059904739899516,-0.4991232795092658
920,-0.7387847541527193,0.5028573964975391,0.5578171843877479,-1.5030239666053493,0.1334958791186498,-4.216182120642477
930,-0.7414405440863646,0.4962278990828053,0.5566410635842209,-2.592541609144683,-0.6352324875078658,-5.511360014599375
940,-0.7235337163669631,0.5047412239201338,0.5686570356947651,2.7233111760815407,1.9796777289215126,1.3734585222057838
950,-0.7377940020256157,0.4942956048260105,0.5579625168709518,2.264112730623059,1.4780480326295393,2.3800565505255697
960,-0.7413245829677698,0.49578269375698025,0.5567611388526169,2.3007769716945248,1.8466148696860603,2.627107022692649
970,-0.734474018969142,0.5057271144691319,0.5648126121633187,-0.06498926859303306,0.20229988277916605,0.03429346870110561
980,-0.7475845877785122,0.4919158470702679,0.55282445380292,-0.2607890956630512,1.1706442447744783,-0.24797893745510424
990,-0.7265020944613769,0.5064184088067012,0.5730316337652103,-1.2129046973664028,1.0840596847299127,-1.2935081933021189
1000,-0.7373790122548279,0.487982736507838,0.5601267956388245,-2.8831014156090577,-0.2290022063101128,-2.715562263230248
1010,-0.7544964951706938,0.47259460181632595,0.5463359156846131,-0.08014064390640152,0.9509888723437272,-0.5112862866486425
1020,-0.7584837899301229,0.4743917290214359,0.5432165274295665,-1.583208661200788,-0.5884280384377127,-2.375327186667973
1030,-0.734161688038292,0.49936456593410516,0.5665633087917099,-1.872069162799024,-0.022960572345239405,-2.5737381645994484
1040,-0.7413340070604125,0.48917232272301153,0.5561760674997994,-2.0905748675427493,0.8226135311260168,-1.784194333205067
1050,-0.7373972421993525,0.4867381031648335,0.5584019422215644,-2.0005120447206064,0.7387648062506444,-1.113274830118856
1060,-0.7399125536805093,0.4826062020372527,0.5573277622176526,0.4108294478817668,1.9357295745362544,1.0909741212042001
1070,-0.7152723588721098,0.5181723465840464,0.5826912738843559,0.09376737889921144,1.2483657730671642,0.8877933329867681
1080,-0.7397444397305537,0.48841483304239874,0.5540699366746001,-2.53854797428603,-1.642084076208649,-3.1094296014636362
1090,-0.7392772813272543,0.49218791510651766,0.5591171719483435,0.9150073971372183,4.663325282790525,1.5829564086936259
1100,-0.7072546248728473,0.5167330308760263,0.5911953465981349,-5.300642987555757,-1.1176932501769539,-4.551297479705943
1110,-0.7203532598167539,0.5047966737874072,0.5761591210262796,-3.247561227707335,1.2229936396041612,-2.1332819633894107
1120,-0.7256249643296702,0.5010762206051249,0.5689284647049924,-2.3712788946851617,1.8100240106135461,-0.5928707850120378
1130,-0.7310322944017105,0.49300400475418243,0.5626166709110638,-2.5387637794185642,0.3284844793499554,-0.7311737155167501
1140,-0.7320523376861836,0.4901009336464967,0.5620475987098462,-0.05001795440698753,1.0429074407396888,0.6775833470882249
1150,-0.7304609393041558,0.49675935263150056,0.5647900978841981,0.3727347390986518,0.5976568377003647,-0.05467662503468479
1160,-0.7522673904856181,0.4761009601256495,0.5412996891152212,0.576284286385898,1.4351421818261456,0.6139647710463232
1170,-0.7321336367132115,0.49457949330594364,0.5612916735961629,-3.2098269678592763,-2.478422117809862,-4.44609792897321
1180,-0.7381175921138747,0.48249701890395713,0.5570960281607882,0.12429740182484261,1.2242520853668042,-1.2725218714718391
1190,-0.7424468924666663,0.4787313907598828,0.5501018257539957,-1.9476812257943361,-0.41230208077342834,-2.692814033105131
1200,-0.7551703460465475,0.46798290245315266,0.5383785447033109,1.2877142695552515,2.6418766773808073,1.3746968679021396
1210,-0.7758442407424136,0.45085127152905674,0.5188856815837007,-0.30658126092877996,0.4155323602130165,-0.3771319739424095
1220,-0.7110309392975646,0.5210116912355391,0.5782412677283023,-0.2771247880270205,0.19345003903279256,-1.5596687997072447
1230,-0.7205603796694722,0.5043361291807291,0.569010067380005,1.155122667628231,2.1895910389439557,0.10405394200062501
1240,-0.7383533355191746,0.48584926009780743,0.5513213401877428,-0.5730505478131951,0.9078555973627411,-1.1508531412516014
1250,-0.7438351424880767,0.4832474613914603,0.553487673433249,-3.190966332518073,-1.2399191759798585,-2.980807030494539
1260,-0.770719394026279,0.4480295345091183,0.5277704872501198,-1.6607430561119236,-0.2110324435521224,-0.909686113026676
1270,-0.7433552198316342,0.4726995312190304,0.5525162285534714,0.17908452496617028,0.3624535477252744,0.5508445189689866
1280,-0.7489601010068955,0.47425926112901906,0.5453267456544236,0.6718601326797711,0.4835644949385819,0.7584526095781674
1290,-0.74748576046244,0.4819503627397626,0.5472911525290856,-1.8259160613422796,-1.286542254272723,-1.537199512359198
1300,-0.7453823770159735,0.4787730448366396,0.5486731508867664,-0.862670841633598,0.1745839905370723,-0.6074753419492249
1310,-0.7365825782676683,0.48374098354836587,0.5530268231048637,-1.9479408168972971,-0.2938132050309731,-1.759816656920212
1320,-0.7346753550550092,0.48754246764042874,0.558373746889842,1.2059426501725354,1.8956911518358175,0.7118886415927531
1330,-0.7192134084455536,0.503234468916185,0.5727029557745886,-0.1775697615108659,-0.056943849884204756,-0.27406819912164965
1340,-0.7351584028282206,0.48598047229744895,0.5594763137694255,-0.7879723455157472,-0.6681855580379823,-0.5644647064626529
1350,-0.7231834101802118,0.500415438924642,0.5718920579754543,1.2255332907878553,1.7948461773777555,1.6121134223215945
1360,-0.747922617835239,0.47792608650310636,0.5473827636933968,-1.910543967771053,-1.0964905644700573,-1.6437064640135506
1370,-0.7108407184022457,0.5133498046615571,0.5861590212867762,1.0004302016764366,1.627148786128922,1.055124724776617
1380,-0.7545198507553144,0.46908096880188865,0.5403366556154473,-4.013260038785543,-3.4021718035519215,-3.81115440809134
1390,-0.7231869713056015,0.5069578706358325,0.5675263095121752,-1.834203661635871,-0.943240728636076,-1.9448682995439044
