time_ms,ax,ay,az,gx,gy,gz
0,-0.6837329808914717,0.634569288015487,0.6231682701414812,-3.628756861069249,-3.4049061606965623,-5.0650649257181675
10,-0.6835743463999734,0.630084892001811,0.6236833789597415,0.7876439092328058,0.775145689860462,-0.12609938261353248
20,-0.6933559108477829,0.6287906733997743,0.6101326778282024,-2.7107418383340565,-2.7992261295608434,-3.586240517979938
30,-0.6945574984531332,0.6225940938009957,0.6099864699930408,-2.698132733626361,-1.5941898989046133,-3.5120939004319425
40,-0.7134331549132906,0.6000185529226383,0.5963094531257757,0.7324068362946727,2.5220588931917445,0.04266313353015638
50,-0.6803567557149119,0.629807170511917,0.6246908256022341,-0.45113805844097793,-0.0739098383529988,-1.8563673350121233
60,-0.6875139058099912,0.6247857295850596,0.6212930553955422,2.4358760372177772,2.4779486893875684,1.6605808963128936
70,-0.7081117421926182,0.6069615321238967,0.5945094412984743,-0.5190208073501714,0.599570484784672,-0.23244443693178718
80,-0.678029669604767,0.6330053053001484,0.6230766964837852,-1.6966145324023387,-0.25738314467128587,-1.4400394787615758
90,-0.7149678360244374,0.5896894813773311,0.5860110315307088,0.31372107423822304,0.5196299359277544,-0.22986269576684126
100,-0.7077163962169983,0.6031063246260666,0.5972510300226332,2.054779234916779,2.688042225601702,1.7603553910254508
110,-0.7073264205091778,0.6033795535211542,0.597283517507037,-2.8611965040146927,-2.500866478941052,-3.15696370687378
120,-0.6970654054302952,0.6118691301855499,0.6097521499862593,-0.9919654839295623,-0.3553285987301205,-1.2999023498071853
130,-0.6817142658364572,0.6258674744546302,0.6201151628420297,1.1744267063786333,1.4657182339145345,0.7577137825261953
140,-0.692763384323445,0.61082943172689,0.6113445079235161,0.5107950049215657,0.7001914962963005,0.02434157323564451
150,-0.7238771429232088,0.588438087086672,0.583348845309717,4.033260740605232,3.878648804526893,3.366124769530609
160,-0.6920150036931876,0.6239932190748216,0.6127266770239616,3.4797907370057555,2.810722195709519,1.9956282516023247
170,-0.7128457112154385,0.6191679514911079,0.6152050866225811,2.5695198747249455,-2.8002142939350017,0.6466795617738518
180,-0.6923595414215732,0.634196787660316,0.6284578667427001,2.5719242145411405,-8.229297037938512,0.7396711764165675
190,-0.6896364031509772,0.6315924735261692,0.6322288467372752,-0.2826411846161079,-7.058386788926254,6.501480358453465
200,-0.8351822232587593,0.6645991082388965,0.9185295990111462,3.501967106363074,-19.21349830249784,24.710645710352242
210,-0.8714245908302273,0.5332533141726982,0.821576097107663,23.868233412797302,-58.28973580270492,25.763801654884368
220,-0.4115977865033667,0.5974394992938032,0.5297744934769727,21.282163778461253,-69.5555764556201,10.975149029004953
230,-0.5606655722328553,0.6337523826864538,0.6464368622408708,24.797961408443676,-51.6271042845368,-0.024634888603472016
240,-0.5425424907516835,0.7044774597599912,0.7123470192993159,22.475763659038467,-42.18608004491653,-9.634152046333707
250,-0.5329725635378165,0.7082151103653417,0.6359162796961055,13.86901477665247,-33.13662150163976,-12.706412338431775
260,-0.529215275385901,0.6991709620768539,0.630689897575917,9.77416731759158,-12.778057410493739,-14.059328940454284
270,-0.6627018155747898,0.6863939183085442,0.7746819840843178,-25.318988141550687,-9.28822180445684,-12.237424554382995
280,-0.7005894564397801,0.7412188758673244,0.7629825719154967,-46.56595717735222,-40.34466654555684,-1.2465076854338604
290,-0.8437286630481722,0.7308023771938155,0.5122043222254034,-38.10470138238611,-21.924725318717062,17.746434686789378
300,-0.9671656998917786,0.6262142411772816,1.0020065628428807,-58.65112230799482,-15.356169273536068,46.305598393310554
310,-0.37397101520020504,0.9565527680173055,0.5177877292533937,-5.755578934453299,-13.344722838124332,26.634447658879896
320,-0.7866385036489264,0.561763449248433,0.45859447427161737,-46.14198956257047,45.670871155583335,33.282950469913715
330,-0.8038642659200353,0.48154666340822944,1.0381078522507958,-31.856094156160943,54.108671884882966,35.04306706922804
340,-0.9569673838779726,0.44466411710495074,0.6705078082985427,-38.218722882869216,70.4778361321663,37.49595393835657
350,-0.7712578256819472,1.358524253675124,-0.3911958758724538,16.745522257919223,79.41540069332163,58.85666042799983
360,-0.7959143299924532,0.4649883190283564,0.569117123685332,7.763638587612604,50.951487572586146,18.378690059446654
370,-0.8014693306472839,0.48150364640462784,0.30219892842951523,28.853187684458355,35.970898551368066,2.8953438914591976
380,-0.8164345529100471,0.7970361112506007,0.03104333607516016,27.175158873673556,28.06428511076372,-1.6098167252859519
390,-0.8437261509973835,0.27643759780317706,-0.029541727484822006,-33.27413186981508,27.91580140133776,10.936870331159108
400,-0.7966686423912297,0.20628088841516515,-0.032649017937062486,17.791173343575288,32.29891965674402,-25.6020226395713
410,-0.6713796374714882,0.7003030394393497,0.8032874601727703,57.06466343651621,17.178886194688506,-39.33427438495387
420,-0.8774593507996439,1.3522746243852561,0.5073594393580788,99.79348621128263,-6.622798767518106,-47.85404071226416
430,-0.7133548146728822,0.8271632256808943,0.9045123289471855,77.64031575786441,-11.047820834748585,-58.051043550673235
440,-0.6826107852551881,0.763475452329697,0.4934135851506947,43.37936492620548,-14.800398616931378,-18.7694084617828
450,-0.6914228069781352,0.7511909892301182,0.5914769150110232,20.359739624585714,-17.594290167197983,-31.2112046445808
460,-0.6195427120042992,1.3061099222983226,0.465488224379048,27.067084505639585,-5.467104720210456,-14.198587619463106
470,-0.708427768134334,1.0672548618138384,0.34663548112970993,7.165624415576285,4.017983363640431,-5.220628046736284
480,-0.704612112897232,0.5818831744291848,0.5326945726923544,-1.695114651424298,-4.753272249711216,-16.011019536120138
490,-0.719800302038889,0.6545478532239515,0.5712297865328394,-0.8049048703622184,-1.0414913996836175,-3.308248936826545
500,-0.7071299231534762,0.6777437786237576,0.5859468924905991,-6.371366743051199,-4.0676303679125745,-2.522664467530905
510,-0.7081948752912561,0.6494728914108542,0.5884492606360989,-2.2144775699562973,-0.5573899073663999,-0.5827450776371768
520,-0.7118827608140216,0.629175393831303,0.5852035537485452,0.7664102863141649,0.9276282385040096,-0.4236418224667706
530,-0.7302825456650743,0.6143973563890966,0.5737061891839581,-1.3315005800279809,0.020988392139831946,-3.3331999717601377
540,-0.6765413614321372,0.664464727318041,0.624856802627188,-3.2653326648949097,-0.7694145343191101,-4.474876191851482
550,-0.6774596440992761,0.66317651043487,0.6174079884625396,-3.6607413883029727,-1.1583607425156548,-3.7171551403294356
560,-0.7093741703116346,0.6264050122535926,0.5888898152925212,0.2352722935264473,0.5462279664171833,0.8006001402108877
570,-0.6992954714104731,0.6392477434991126,0.5979996009138178,-1.0204127130054113,-1.8751626648138808,-1.7249927784897332
580,-0.6763706013698668,0.6602559278354346,0.6212415232301679,1.2206603460763947,-0.10382495448756546,-1.2302148329638163
590,-0.7010423253385598,0.6427295262077294,0.594120525340455,-0.6509135899804761,-1.63308658937666,-3.5098429974569867
600,-0.7203963755605358,0.6144881078547327,0.57443180066846,-0.02539024434214565,-0.5393585375779745,-2.6561234281180646
610,-0.6754888254295663,0.6703768555252078,0.618201892352059,0.8621073619300039,0.6841208619576369,1.508271135272003
620,-0.6982283874875665,0.6525546013675972,0.6020468663718465,-6.826805008710313,-4.885032130180441,-5.452984129848921
630,-0.6717870932749741,0.6709784022642042,0.6293683180246992,-2.0752209475828822,1.1058815570590534,-0.39181035896263827
640,-0.6596392646580114,0.6731001903799355,0.6379318324711796,-1.1569744443533636,1.1567234315255317,-0.4087181139119551
650,-0.6991718545789009,0.6345994963786452,0.6004546381444319,-2.486146090342265,-1.6295423098139912,-3.1092234871456506
660,-0.7062084586398422,0.6375827310066001,0.5939706395328296,-0.6639732251456365,1.5358356877767272,-0.3205048919440583
670,-0.6937350252115149,0.6486000678684842,0.606456811652184,-1.9659968456122072,0.21829984897429894,-2.094966068523643
680,-0.700913704365083,0.6326122613319264,0.5994712251100414,-0.1753042787180097,2.130734413578255,0.036734646824621464
690,-0.7224099133415414,0.6085309788717495,0.5700451741928327,-3.800991382706374,-2.7847482557869796,-3.8633597148673005
700,-0.7012408581530298,0.6380000378932037,0.6046875149107067,-3.234539493592699,-1.034434551818732,-2.8140787197718042
710,-0.71685137488608,0.6199151252050988,0.5838976960786094,-3.8669870740068646,-1.7588184239311886,-4.060718451736481
720,-0.7083001148499598,0.62354334876934,0.5951042458292117,1.7518814969512433,3.185971483354272,0.30439822098587266
730,-0.7018476432232668,0.6286687115042692,0.5959869111608397,0.8811467967112508,1.2234508760109495,-0.9210247487116058
740,-0.707424369035037,0.6289625319396179,0.5926856278378537,0.766873256490207,1.0699486095205177,-0.40290680000047485
750,-0.7221817459911868,0.6103997961207174,0.5754356571225263,-2.632510753176501,-2.0118936790507758,-3.4756187363511204
760,-0.7128470070806878,0.6159067526897535,0.5860688555120321,-0.902504203276842,0.7695489601463347,-1.6026265127376962
770,-0.7019566215607406,0.6274161085825554,0.5952594242154535,1.2935966999804334,2.1896666439133714,1.3769835394138452
780,-0.7276032055659756,0.6048574857376193,0.5690274560192287,2.3559046892029403,1.7881664109958593,2.646367542968312
790,-0.7036940847941723,0.6328360062779356,0.5948905923801181,0.4463730907462239,0.8788680788863417,0.42250831198252703
800,-0.6894594050189068,0.6386965999400108,0.6066381227819754,1.7068091621806065,2.128234463704349,1.517531066043351
810,-0.6697335592777198,0.6580450945663051,0.6308480942449822,0.9472445731232226,1.9274881533650947,1.2274726493282158
820,-0.7188172850831315,0.6109766630086602,0.5803085087980236,1.7938234943721016,2.4410452034507815,1.9468182977777508
830,-0.685394243924783,0.6428638837329848,0.6144832075578284,1.0616018528627182,1.0352144603901725,0.8471337868292479
840,-0.7014377943781217,0.634700019965537,0.5966522055482847,-0.5297115054270503,-1.0137441995363063,-0.9066101712185828
850,-0.714485839676299,0.6115478976021687,0.5798778198018493,-0.5548615531323097,0.1751149497054561,-1.2862198919177272
860,-0.7127634083374934,0.6129048740495843,0.5862459748554176,-1.6357369034441356,-1.9680181307345357,-3.484298465870843
870,-0.6910867288630148,0.6334461188223779,0.599901750457107,-2.2240184635587426,-2.164149126180093,-3.5083286778346006
880,-0.6825585415625834,0.6524572152035334,0.6158911629078653,-2.083373275453517,-1.180810092206452,-1.8590415559049842
890,-0.7032789710714775,0.6284688072599233,0.5962783444125719,-3.7751091979228546,-2.7548060838489703,-3.314183879715945
900,-0.691143912139728,0.6383632623740337,0.6020446681094779,3.0263882313998245,2.4655100425081713,2.7283113239280934
910,-0.7039807428601125,0.6248853135522019,0.5899631399910424,-2.4867432076132427,-2.103879725056311,-2.391596607957257
920,-0.7331609248897291,0.5990884331227373,0.5586598340429902,2.9614586886628294,3.767019758259239,2.662306891748949
930,-0.7475055992412705,0.5882832530710559,0.5508227511026268,-3.0801290113944546,-2.694083293835267,-4.893702192314483
940,-0.7128664196749546,0.6187585977290028,0.5898812130372236,-1.0049108934634685,-0.22408097080205575,-3.1403397628188405
950,-0.6910243351270842,0.6359781258710824,0.6100954516977811,0.3105802073167564,1.0152175194086608,0.35799695053951786
