time_ms,ax,ay,az,gx,gy,gz
0,-0.6139848663424022,0.8356013540876563,0.9448539896103197,0.08954933961048872,-1.7510794421868625,-1.2148671346379034
10,-0.6320346485424915,0.8025166632268013,0.916400063662804,2.8741878366829203,1.1404992605951123,1.429093421127976
20,-0.6077266923697415,0.8275675579185159,0.9443771420034133,-2.0340805808284714,-2.0861060615046103,-1.6508648319317183
30,-0.6102745831777666,0.8262136630842529,0.9438326587849407,0.19834722859552978,-0.5254673710570609,0.253233692215163
40,-0.5987814208350882,0.8377786255310085,0.954736556124492,2.3527938180701184,1.1572794644160154,1.7912408622814693
50,-0.5820723658092293,0.8554727420195287,0.9694098687976181,2.1467804841978273,1.1223183940930959,1.4122142614118434
60,-0.6065659135590136,0.832899781896715,0.9462438898471708,0.2697790524154361,-0.10133704550844813,-0.026602192695587723
70,-0.5992227984154004,0.8411063736622921,0.9576413177672929,-1.532310965540776,-1.2535764353684813,-1.1332581747267185
80,-0.588520737681612,0.85079389650264,0.9651696005798435,3.973607974421531,3.719420271413418,4.224381492721518
90,-0.6049722359165299,0.8330576171190403,0.9469693333455544,0.4791764390767399,0.9428018836709101,1.1757057978100152
100,-0.5773065673123953,0.8497422585735637,0.9736146984345265,0.21433026642985453,-1.6598507044181559,0.43408974460885164
110,-0.6089139257091828,0.8284545242828333,0.9405552610210929,0.23639489662572322,-1.1544835120510486,1.0379691298249891
120,-0.6057366224140076,0.8387517292755471,0.9463893423800592,3.7299983253352913,2.3043281168296303,3.347888320372396
130,-0.6060556206220603,0.8373599236275087,0.945037191570734,-0.045342379725735515,-0.9679912253836608,-0.7395910572147706
140,-0.5996790448446004,0.8409958113889514,0.9549495694586814,2.053347415498612,1.7365093850527429,1.4464402829247003
150,-0.6164696228746508,0.8261241157432436,0.9423382447004547,0.5341640478469251,0.21286363337460878,0.09497364524888177
160,-0.6238075487824479,0.820690167500224,0.9334815750429466,1.0613189603601842,0.5375535846812636,0.9390212014055772
170,-0.6043667708861795,0.8356212989725629,0.9503745349918059,2.1815804002760157,1.7639209891652183,1.8771422678127831
180,-0.5957687404786712,0.8464018598655775,0.9572702385547025,-0.5519150308864895,-2.0046687686188998,-1.9188524416018873
190,-0.597966943143571,0.8410181158943606,0.9565649201797728,2.020481116189073,1.3077330800247104,1.273049524065014
200,-0.5864846882950951,0.8535321015448126,0.9701732194009732,1.6247748189746751,0.8148377509623089,0.980738073458957
210,-0.6130419961416744,0.8316544748645693,0.9440458977598472,-0.9987012703175788,-2.33915547022225,-2.4486223242046465
220,-0.6077246074626678,0.8414594777312707,0.9514563201671953,-0.924646603968411,-2.0526095725794744,-1.9355710279973024
230,-0.6065079131314962,0.8938401462461598,0.9622815066237146,-20.51791281217835,-1.8198589666837641,1.2406309729224572
240,-0.5928563690111743,1.098997720107702,0.9216452656893761,-27.745343128662867,-1.0218308910867648,23.117693177528526
250,-0.621911514570383,1.0806960850205978,0.9005605293183877,-13.944018530730999,7.1207856343888505,63.43948767784452
260,-0.6350260045548992,0.7735783926051336,1.1185024425817358,-21.187432307426317,4.466187063899323,81.1660053651356
270,-0.7433278647318714,0.7825713619370702,1.2847068388753018,-27.51849573774871,-15.938472282060923,73.92951460443372
280,-0.8259206698353799,0.6974114412114688,1.4183626088053138,-24.818053493947172,-61.32839583608656,55.51754488234175
290,-0.5814255412015484,0.6832354376927576,1.1245704868973647,-31.742649622659226,-75.40341414515085,51.19801647763288
300,-0.38252003256505435,0.7067773592054033,0.849913935419732,-49.2476483349874,-53.611955952933776,-6.7607830769487975
310,-0.3835291640658388,0.7856800066630504,0.8052120554889252,-67.19782793093252,-30.47700009178684,-25.24473827043279
320,-0.42853426822384266,0.8218281590681559,0.803903008829236,-21.589031471098554,-11.808529266378466,-33.12897259402731
330,-0.4399580272594155,0.8030554080324019,0.7798945262410579,-6.657524586134696,4.630484537877471,-41.09040848588194
340,-0.4056706811044858,0.8248424303654373,0.7786612976543267,-28.611624846032367,24.797192704299636,-47.659463903031124
350,-0.4335345808627827,0.8241971795844805,0.7734866354058737,-41.79893467984211,41.49416496991326,-59.87359674391213
360,-0.512474145533331,0.8049960245680328,0.8303671215476378,-53.20819708514805,46.1513216616212,-61.68842736189954
370,-0.7073435688357481,0.890529504369476,0.8585106984197163,-72.16353412320103,0.7421722004032438,-40.49015216396192
380,-0.6196966065018475,0.9127688728033823,1.0545309242565535,-80.19902711526497,-2.8690328013323128,-12.13149037950862
390,-0.7770554626638801,1.0224864934292643,0.8937013224276755,-62.03283067928595,0.6986164302130695,19.569334372818954
400,-0.6391565970643317,1.210782344297171,0.7087370551788431,-66.03972807804651,10.444173544642213,64.89445562545663
410,-0.5748890113905243,1.1611070748139687,0.6841177357866538,-54.080660873623714,32.737220960751785,124.9285786295239
420,-0.7228016221622319,0.9925607050014486,-0.04771442291061434,-16.483939872563347,56.146060471240446,155.8118014435396
430,-0.7549341569537334,0.3798879278619737,0.02292952256779288,27.065128901444698,59.448969283913875,112.83491995609337
440,-0.5780358361277426,-0.13410631400499787,1.0879897055641172,59.57128995449824,37.67903085777232,32.92052047486336
450,-0.502672574889063,-0.0060374017748211425,1.230229379800868,71.29219350278287,22.85565778773846,-12.631347614275137
460,-0.5145499294581138,-0.43219913295795537,0.7690028025510812,18.23122840070635,15.652962323321665,-83.09847067234506
470,-0.36530330827732094,1.4993785975649183,0.8433500986707856,66.19289838319399,-8.212201318632227,-103.29370208613729
480,-0.36318582584778997,0.993929567243033,0.7428146183297369,56.226185432492905,-13.027736729570396,-125.23557498946451
490,-0.05023823697358835,0.9283363679439341,1.4447226102660846,69.7403641957731,-16.415935778659854,-129.79920658089438
500,-0.43590889890863516,0.8817550501041982,1.1649659398796575,6.077922428498912,-4.803382850746393,-73.56934122688962
510,-0.6354907635523152,0.8070663187282728,0.9382379696859545,-28.81295233384214,-0.709214800302139,-43.96594216160362
520,-0.6061216068256782,0.778149025224685,0.9376273057820886,-31.771979427036317,-6.951422280303616,-37.177606805775255
530,-0.6663020864697364,0.6886208770573891,0.8796255726529527,-20.554372294549825,-9.313725082214416,-23.131637981585158
540,-0.6662802524908911,0.661294584392022,0.8971395045933893,-0.5555774162236657,-6.796939541403641,-4.266007051840119
550,-0.6426376067517716,0.6854667420973403,0.9114489670340286,9.334848798265268,-10.304113803717376,8.782078945672483
560,-0.6176801691167418,0.7268036281764213,0.9410722202145723,10.549323522838362,-9.130356120995748,18.43255915010906
570,-0.6086340641982803,0.7734741429252552,0.9481100627225748,8.175244853047944,-3.0550688240586914,12.706951890622564
580,-0.5954638184501732,0.7882107763542227,0.9680332683599965,12.808705198915746,2.5066897326491584,11.184824573574364
590,-0.5839576731362979,0.7978663437024379,0.9681909723346855,19.153795025210403,5.5950271339677204,10.927586167219408
600,-0.6223195808283329,0.7619735266441765,0.9295074908957809,22.570083720827522,4.40504628518372,8.004464607944177
610,-0.6256197704760386,0.7694972787964199,0.9245532209984233,25.348143471284107,3.7442585145465044,6.634910639883337
620,-0.5833418236508079,0.827988977665923,0.9683529106108667,26.36039760199459,4.567040009978882,6.51660922109569
630,-0.5881519782455094,0.840009539067881,0.9706203045494469,23.444757374698337,4.493740614548269,5.205366134213428
640,-0.6087104913041175,0.8289672872637055,0.9496705009284176,16.055926356091454,0.9287160358342326,1.173880321156748
650,-0.6179265091802272,0.8071695791667709,0.9425709989633952,10.830221472220467,-0.3510167390181855,-0.9170471336159144
660,-0.5866734808752031,0.8312250062255774,0.9739109432522749,13.77741393440002,3.416252454159915,4.417774183430508
670,-0.6082566538622538,0.8174931253889485,0.9407922750302543,11.836026916941282,1.034973024284043,2.8030518782676817
680,-0.6139116076470067,0.8089806620863758,0.9444655249937312,5.31348195124262,-1.6243620400187286,-0.3664699480330649
690,-0.5836662574186636,0.8361961440779208,0.9716759719837456,4.409225477746668,-0.05157681636779676,1.4759756169653315
700,-0.6137554432570472,0.8099359119924014,0.9333866596744931,5.242723486505806,2.0933644893840873,3.0798704925335985
710,-0.5663632259121717,0.8594806245837316,0.981668823313911,3.625934761702185,1.3862304981661127,2.0591861454746248
720,-0.6055178376303335,0.8227918360954098,0.948505611128437,3.6560982496951304,1.9271687535601965,2.8376901168660487
730,-0.6329770985360229,0.8005664862656667,0.9201308570963196,1.279223405391315,-0.7516674695197985,-0.08042807028147703
740,-0.6155395340353145,0.811804167360637,0.9326714208810921,8.147471035786012,4.96864050765973,5.3350960536341745
750,-0.6117555205745346,0.8232318901119101,0.9323755472249164,3.01617541031378,-0.5952859659842871,-0.1837537872027032
760,-0.6240080301552439,0.8049798441735825,0.9253469380635168,2.1657054969958183,1.3511697399787712,1.087357335318432
770,-0.6213975847028831,0.8030241611591162,0.9294908078525327,-1.9132845293199532,0.10867056375769316,-0.3409483035684227
780,-0.6277310024658739,0.8013583514949062,0.9234920052126641,-1.943572998759683,-0.3962886621880052,0.40209990012857455
790,-0.6292042100261189,0.8078422490985524,0.9258899180065788,-2.153487502624186,-1.6405153619520874,-0.536693901492568
800,-0.6171360818773524,0.815709262590216,0.9368484190039224,2.5018834503369054,3.5659842653439875,3.9121928920139264
810,-0.6194710559748658,0.8038227015855649,0.9315440944183118,-7.466256352908985,-5.198956076204752,-5.635587908861493
820,-0.6027190468441858,0.8179108994617469,0.9492828208948416,-5.127586730872476,-2.2647616960278945,-2.985854132377941
830,-0.6010354461109184,0.8220781799472306,0.9507659466159177,-3.4317630531560748,-0.7982908959849023,-1.5035792754398647
840,-0.6187160804356568,0.8142145955138724,0.9302414436840709,-1.7404381410824517,-2.1338340583852298,-2.3416074720821136
850,-0.5807028168348068,0.8491645484201382,0.9696377157983065,-1.4373182619925389,-2.247925839428792,-2.1789790744106368
860,-0.6200424009838982,0.8093555772643068,0.933328249868787,1.466109948107914,0.8240631153664961,1.0194588984332582
870,-0.6006016059911925,0.8338123968273123,0.9480922879825469,0.5892640212121056,0.7770001953790617,0.3836690413564388
880,-0.5972368154313018,0.833314078189881,0.9499485310705904,-1.0589459710574856,0.1579846150687864,-1.0496953054016074
890,-0.6026064570413436,0.8247040472017554,0.9497410722589962,-2.1661234353151126,-1.448463546406802,-2.3245641245006685
900,-0.6276370461498637,0.7991307491554067,0.9286322332901448,-2.9794634360164416,-2.706612466556078,-2.4284482338678326
910,-0.6058926345945782,0.8204747201975436,0.9475919041318923,-0.8385867704105813,-0.18097346801250452,0.9063583705947559
920,-0.6083718750903918,0.8183327023298756,0.9403023699483347,0.2668352431229375,0.8729322365324581,1.7286464350351616
930,-0.6147660989838337,0.812816215506921,0.9337620377521582,-2.0338288005995238,-1.5249918864124097,-1.7793519713849553
940,-0.596017314257338,0.825496978919783,0.9518536751175868,-1.9022931186224974,-0.7356960791619164,-1.5189622904680171
950,-0.6197836215239281,0.8084101697432667,0.9353884100589521,-0.7087163097304437,-0.5074537380316988,-0.8552824155146982
960,-0.6360224940601917,0.7942178735187129,0.9145206559209503,-0.5424095814850838,0.31157200483109254,0.5447626918303307
970,-0.5990935492655525,0.832391534618671,0.9534952146225819,-2.2098823564771846,-0.8459922423138186,-0.504502946681391
980,-0.6136008116484842,0.8174081140098719,0.9379923135874987,-5.783577325228529,-3.1874825886686406,-3.3527313019436558
990,-0.5761585534056972,0.8524095287073199,0.9792049192511935,-2.7614373668988397,-0.16932777449288183,-0.48513542553146516
1000,-0.6150008701633748,0.8108268059216661,0.9433769036820262,-3.1812019660982322,-1.3091651089558085,-1.0598126704303523
1010,-0.6089576516639148,0.8158143223461848,0.9454229113578636,-4.981642679997675,-3.038047884271269,-2.11174647593565
1020,-0.6045910973892638,0.8212156315289861,0.9505889973651154,-2.7551910090023513,-1.0020608681877532,-0.07464645773235186
1030,-0.6068062656500167,0.8208919706146268,0.9469914251475343,-1.5797078264325897,-0.2470429987711064,-0.38200637905579654
1040,-0.5990915480882488,0.8269647350942925,0.9599755645155406,2.6132985202955736,2.3179099135416537,2.7648252399184177
1050,-0.5962388454026852,0.8308859858409837,0.9603001939752086,-0.8270466108861914,-2.4095511206534335,-1.9898070858831922
1060,-0.6102347929507148,0.8129611394021881,0.9416826020292555,1.821768279064187,0.5814721719499094,1.390178857828377
1070,-0.5863629871916973,0.8367585384623604,0.9626561060754055,2.78768698254005,1.3877848161622823,2.1438701518488488
1080,-0.6035298109964539,0.8183245328756357,0.9439461072553034,2.756030528741282,0.8030438707647101,1.3689598017595954
1090,-0.6303274788240483,0.7936556419597809,0.9192017437547382,3.9806506333269134,2.1514796544980594,2.3902855146186672
1100,-0.6040626517205114,0.8243225123220584,0.9491594962591384,3.1018665151583917,2.478685637743463,2.2400792143540857
1110,-0.624892184421716,0.8009668678069368,0.928336649519961,1.6860064913162467,2.1264877383333216,1.6608567725780652
1120,-0.6027345478865217,0.8205319149063616,0.9495727210208007,0.018212455621737456,-0.31689617861378666,-0.5397693032858277
1130,-0.6031974292109376,0.815836194112954,0.9458178651264019,-1.873562606868847,-0.800808658484965,-0.7257142873598246
