time_ms,ax,ay,az,gx,gy,gz
0,-0.7987483833644147,0.8591946406972993,0.722661100885577,-0.13021941997468112,-2.8657453787069835,-1.1228616569939152
10,-0.7462209836469819,0.9179313350968333,0.7670125103757434,-0.3511638972123401,-0.6296008297438994,-0.83936209012234
20,-0.7767234871791144,0.8924609317932604,0.7427395385363417,-3.0687946158086943,-1.3497153034107303,-2.5034780784854083
30,-0.7951374386320154,0.8643887843180883,0.7184395105855984,-3.80407620950253,-2.2299154743538576,-3.322789464752927
40,-0.7759075015905189,0.889239726014249,0.7388568580843945,1.7369511261935382,2.495365353189043,2.0318823669051254
50,-0.7764012440704832,0.8702072217763355,0.727450428334937,-0.8113867614786034,0.7064794914579587,0.3143448430385884
60,-0.7723245966441077,0.8870092416116242,0.7443810121413196,-0.2623474979565157,-1.0291275637779578,-0.03437227798785636
70,-0.7760315311624341,0.8817541232409564,0.7296965749061558,-1.5992164399506117,-1.765823571485815,-1.0517525943577022
80,-0.793737564706468,0.8665467072350178,0.7226352161891944,-2.9945308379799966,-0.4855489640204318,-1.2291412563368413
90,-0.7837211716702284,0.8729216675858468,0.7218780115247879,-3.5991170680940687,-1.9544222039904415,-2.217848204772989
100,-0.7811254825340823,0.8763693114986807,0.7347382319690177,0.3928448786775285,2.456818434931784,2.2235730377109886
110,-0.7839722064133565,0.8742851834492207,0.7321800888958409,-1.6990883588175896,-0.13357374792991855,0.1131531654532287
120,-0.7586302746937708,0.8978965143324373,0.751959488922832,-0.16572443573081372,0.07340196539599278,1.0956746251570992
130,-0.8017923385798174,0.866270564152643,0.7183638837861224,-1.8031386068860877,1.421201279205533,1.0080958785372536
140,-0.8153999883259764,0.8675185318206623,0.7280805523756556,-4.621155728593079,-1.4522135978567077,-0.5727175599727453
150,-0.8130955154945221,0.8895350825475576,0.7664810614525681,-1.6633635515632508,-5.6051684158391,0.339649355656785
160,-0.8256366135748477,0.8980335518472772,0.7706988412597844,7.538638792858312,-6.068844216697203,7.363752682079029
170,-0.8444269721881512,0.8342204813707731,0.7803261807588582,6.5267695440607945,-10.678416951227092,10.129527196040154
180,-0.8758783969616565,0.8181882900792844,0.8053889208516303,1.1005602563948909,-17.79516521419604,3.4020620556673884
190,-0.7535943311518242,0.8794080472828344,0.9604967160246903,14.989392154984131,-43.077808763899085,10.547765541498991
200,-0.612818390735062,0.8025565483762905,0.9958710070747804,35.649111761653394,-58.33170396176354,8.901588292196479
210,-0.5004076971258087,0.6803036236953215,0.960194275408898,50.37786252216667,-59.427642644591934,-6.744882064856201
220,-0.4781866767152004,0.7296760770012262,0.8370658032107571,22.53624254637937,-57.18723850360165,-34.72610792739033
230,-0.5733992419675241,0.8091686865243339,0.7430487182875466,5.021327904590268,-50.0220125929118,-55.64459375431699
240,-0.6916359512737661,0.8022463952006292,0.7417237461484043,-25.38783120241421,-43.422866251807015,-75.9027671969449
250,-0.8247811163604513,0.757777351283582,0.7467095787231692,-31.401796688227037,-16.529555093666957,-91.32855266990674
260,-0.8422183846954953,0.7423665726006191,0.7494794677881053,-2.5701568524801006,-1.7640871272442442,-81.34471511025846
270,-0.8055561718455073,0.8093427764077457,0.7140532608647668,19.518123487725624,3.8535979702527756,-63.36634832185067
280,-0.7614842452151827,0.8548595881557055,0.7170335504047732,15.781597287114625,7.948571809204171,-53.865465065858984
290,-0.7797434949698986,0.957511981417538,0.863594141554439,7.641822767664412,8.801905034145555,-43.923754065946966
300,-0.7843836133047647,1.0027544661792795,0.8849905348692632,-2.8984235102812224,8.535233578648572,-32.171859380538756
310,-0.79689834031152,0.8563166860730537,0.8202876414808725,-22.486877157795256,3.1416406519750852,-22.813350767547092
320,-0.7582275934173724,0.7887671600689998,0.8346515794011291,-26.421478990457125,0.6388573734823328,-12.444114394067157
330,-0.7430377980657737,0.824003383298721,0.7858404479998355,-16.265816157791413,-2.3031129391896954,-3.1295189462897612
340,-0.7452046294778409,0.7677828255151548,0.9595913498260411,-8.702061821406268,-7.688846985533798,5.467685529157711
350,-0.7442281081796788,0.8518798332515458,0.8619767904804709,-8.612859536328152,-6.9699324981834465,15.20244943510555
360,-0.7526593894169145,0.7205324849124591,0.7346000395519047,-23.55399263339618,-6.5030026654093325,14.270673184438174
370,-0.6747005785441733,0.41259030776690125,0.9614483689900127,-31.686264651736483,-3.3176969352074206,17.72003564200154
380,-0.7163802084094815,0.31020507378289774,0.8352728441155436,-32.679150442866835,-9.440253589758658,6.370592352981388
390,-0.7885349456453709,0.281304184362657,0.6686366794051101,-47.198016732077754,-8.521478119504488,-0.02962049987288773
400,-0.8744797954192037,0.4096836233999187,0.913872859735739,-59.16293130236342,-3.193915952373971,15.844432628478689
410,-0.7617087494110647,0.4670251966222236,0.7890922967225364,-41.414718070493734,-4.402100861548295,23.061217542498476
420,-0.7573160129291555,0.4929140706143069,0.5588213236138174,-33.739221901976705,-3.50443506544367,24.91153043804683
430,-0.8716790818133356,0.9545877512655405,1.0087794402531598,-31.00933868695334,-0.14585251187995832,34.2313667945006
440,-0.8242479007232574,0.9098648700503844,0.9765016352389152,-2.902439210082565,-0.7586536117967961,43.53755320806403
450,-0.6179930631070092,0.46490231828220624,0.8103987023849537,7.113627646140229,1.8327368639476815,53.01178328810323
460,-0.5737000239667933,0.5130798303710604,0.7315759090875126,-2.1404189794505104,13.359780544681751,57.65556805903347
470,-0.8203423276962031,1.255318803185437,0.3204886342251638,-0.8242222894538966,9.87475958554618,52.555443591088064
480,-0.9342443001684975,1.34557570300011,0.2247467866479173,19.449969427266417,14.86588475337201,55.89043364780983
490,-0.8099900157222447,0.9911009132612885,0.466307722695633,28.392959791844742,18.24240016964516,46.69179488991199
500,-0.6735687926971299,0.8718471714557616,0.32029877843763926,21.368258051023002,22.57088522052135,42.309747293181864
510,-0.8755144721532594,0.8628984783663308,0.1443241331467508,4.236273824113864,18.324154315048844,33.00790707206122
520,-0.8193158510531161,0.9546754103866646,0.06463164973414653,10.266883662887635,23.383231803752675,39.14022039383383
530,-0.8918928201644915,0.7935843910191669,0.5336810156888749,4.2695371425759046,15.029714888720338,19.99212862296009
540,-0.9101340873861095,0.6740591367216584,0.22704826598536537,-0.08282616446363489,12.403969913949265,20.465024268881272
550,-0.8257186078982911,0.4525482385213409,0.6381982583218607,23.601804662729485,22.34870968109947,33.107782381521545
560,-0.717638379690147,0.7424520679133437,0.8369468143392427,35.990084241847455,20.961223905671,14.99223777116669
570,-0.7285004003766619,0.7818757364673784,1.0127821906952557,19.67796258228289,26.16235875661691,11.04865029432181
580,-0.6375223221405798,0.7881257715227464,1.0140235495393455,25.558875182565096,35.43086978911484,5.904622195303007
590,-0.6597536897290164,0.9759211404207508,1.062612642073621,29.570779369469104,31.805341151937625,3.8563043856103794
600,-0.7437556147143235,1.0306327924975722,1.0275506523296039,47.58061993535611,20.531322701469094,6.751168005414242
610,-0.7317650397461425,1.0101015035465435,0.8408138788391286,52.25281864825994,12.039778414603765,1.2510376925658877
620,-0.651547720611385,1.043574394118749,0.9877055182666366,5.619707189558926,15.491170208889274,-10.3545764108581
630,-0.7182582254687085,1.0887066738049882,1.2687405014793338,23.03622615464877,8.761430350443792,8.661972606819623
640,-0.8855140240733644,0.686465312632543,0.5650023417426336,51.146627008883094,1.0358281293560507,1.2506975878416506
650,-0.7226813379306964,0.5309273203184183,0.5250997840627217,-8.515162006076803,9.719652579133161,-23.48992112103922
660,-0.833865329468928,0.8603038038843794,0.7534821852803896,33.65453963063289,2.468982425677921,-5.046089109823665
670,-0.7975151915789982,1.0372810936506673,0.7733105791682796,36.22924345339439,-6.322264337137311,-4.438362218023718
680,-0.7445594662713472,0.7185953986313931,0.7912539916615009,10.153452447115576,0.6993848827261351,-5.726931708970887
690,-0.9311480933750678,0.893381317266368,0.5143080162503271,29.352980429157483,-14.727533394035744,-22.292044288935088
700,-0.786133780158796,1.413108646494986,0.6729327529114489,-30.30433505554154,-14.714981433871284,-33.32149513191798
710,-1.0019963503789326,1.1777953384361908,0.7630876266484131,50.61987100411109,-7.393004447844728,-9.086909229747011
720,-0.8018587764574011,1.0561382138939266,0.8234867011834031,20.419343439696224,-6.843057869516331,-9.383021788408922
730,-0.8209183758404327,0.8579594922083732,0.5148026963422444,-28.35814094570553,-6.4424465019421415,-14.621036970607053
740,-0.8610110065050003,1.2184252121485193,0.5802123755486396,15.330616104533906,-5.322982486600524,-4.607250490737044
750,-0.7812383374604045,1.1266097545123697,0.5504281697734958,25.301198810631885,-9.708856827467637,-9.488233712060284
760,-0.8129157593192735,0.9887387938999919,0.6652402692105353,6.702655974310714,1.694077229986083,-0.30779260486596416
770,-0.8100169146356069,0.8783490828529501,0.7022618459292669,-2.33232255271996,2.511844272331951,-6.69678118764881
780,-0.7838513875174953,0.9060090455497466,0.7492218356207581,-9.338809745668094,3.8372716184541646,-10.7378112509897
790,-0.7621617043530974,0.8998283781631741,0.7625397985281005,-4.813536940948391,5.365539620069767,-6.400581452702576
800,-0.7963319053421982,0.8306090011488443,0.7072953550970488,-4.73370975506122,-5.515150887443242,-2.4950685564806396
810,-0.7766870715575428,0.8745033831603699,0.7320824497549978,-2.4868971378244877,-2.4126644324663413,1.0697526665713166
820,-0.7711200158231123,0.8713901060591985,0.7535687408592014,-5.815692465384268,-0.88232692844852,0.8448992252619048
830,-0.7506113950976948,0.8841922589157353,0.7629994674377917,-6.194368711179025,-1.4959204385110199,-0.709888523523388
840,-0.778546354866143,0.8598222803158831,0.7399141335829781,-3.13708108589193,1.2222157854667373,2.7750823247590812
850,-0.7892075162787657,0.8596567185492022,0.7239499815287971,-6.252832346551009,-0.6403655917572701,1.0026769182160578
860,-0.7844554857667083,0.8514618148185511,0.7334221720313527,-8.054525130324862,-4.203662603910116,-0.547461647256962
870,-0.7577243665092916,0.8710115705915951,0.7677822557378792,-2.599652018022508,-2.7322890604671874,2.3254939403693404
880,-0.7757249335712598,0.8657541562441992,0.7419561607474956,-7.332741326447179,-6.0161421660848955,-1.3430424007645343
890,-0.7767221714727515,0.8624080750146451,0.7478134183443264,-4.1829881419694,-1.8495063903230897,2.499838298003639
900,-0.7754474590262962,0.8661906648210081,0.7500835163966211,-7.612789257436256,-4.834410241524012,-1.3275097147523531
910,-0.7750778374771337,0.870260390602706,0.7520473591841556,-1.8903194148448057,-1.6457921131048239,0.5236736932177968
920,-0.7866486862250227,0.85103159127842,0.7404216969409666,4.591575860341233,1.5613117889907095,2.33240570665271
930,-0.7799554816442389,0.8553466755013993,0.7415305617198948,5.927830608210575,-0.6090777027170808,1.3216906527559205
940,-0.7767432438590783,0.8794162246010422,0.7453972624249903,0.7764690990921013,-1.9238577416837728,-1.0262872936340477
950,-0.7912910275125324,0.8604183553321347,0.7351419749758801,-2.6408360139570757,-2.069736941287726,-1.7198941676526198
960,-0.7965202658001119,0.8576659025921011,0.7315922224466411,-5.152426299753658,-1.1935172497888793,-0.649912779726409
970,-0.7901386653045569,0.8527505813547088,0.7294523302974228,-5.776590743149352,0.21258400019155377,2.071940941756062
980,-0.7985227884703326,0.8347803760411956,0.7233618701774516,-1.389821140794707,0.30491408038895773,4.307500667633727
990,-0.7506198024590228,0.874952839826522,0.7638951579280503,-1.2336577083998566,-1.7250578821478668,1.7792569603918174
1000,-0.7784683937490289,0.8745729359591392,0.7476167025129902,-2.4132285857173708,0.636710371131137,0.4911722530693632
1010,-0.7581224927982737,0.8921078290913542,0.7759476638781229,-5.238137820537364,-1.4940603266810946,-3.4689857919874365
1020,-0.7822600032748163,0.858148792028921,0.7435899682366952,-1.896686992804536,1.314655307644223,-1.0425681599428087
1030,-0.7502219265898135,0.8815224340162776,0.7723823685267275,-2.9461097683231867,-3.0770822830919915,-3.571775492581266
1040,-0.7947666796198608,0.8315019738768407,0.7342045188080607,4.774860448989049,1.4533211547075626,4.342427974527213
1050,-0.7854204420104555,0.8543106545647708,0.7471385597391558,1.2720860726313539,-1.3704836349368144,2.10768836570713
1060,-0.7583616391426176,0.8841340521063236,0.7708322104773541,0.08334644612139908,-2.4102954591895585,0.6007388868067642
1070,-0.7734912210293466,0.8630716312330217,0.7493680224249264,2.040292379025758,-1.6363637230811048,1.2367237930840158
1080,-0.7963581582585795,0.844398532262317,0.729518364098698,5.963162231458127,0.1343188653636918,2.9340973733948865
1090,-0.78767113914859,0.8660431590464713,0.7350687239016307,1.1135445672918936,-2.593558481145946,-1.1603200188113865
1100,-0.757468263327391,0.8864638649466637,0.7640798124880209,-3.4197265243710206,-2.27116852237347,-2.5085338926417946
1110,-0.7878667230160701,0.8508867304328318,0.7452496430734775,-2.934351492043074,-1.6198075744754252,-0.868681003230767
1120,-0.7648599685604408,0.8751928794000573,0.7695992177001183,-0.7286047250846712,-1.4587946044405184,1.5183398495285845
1130,-0.7709567060802349,0.8664456495059613,0.756834371148903,0.4093572875048761,-2.276557025428822,2.500751360421167
1140,-0.7611935706500216,0.879182505229056,0.7655193520292365,5.229886090161237,0.5207031222698979,6.76742883352329
1150,-0.7832569992005739,0.8642834726780816,0.7347088112319858,0.5591744305174542,-2.4441456877978514,2.925653666500517
1160,-0.7827726029215712,0.8692030879422619,0.7349528729304173,0.5424695966236291,1.180066420063628,3.063425914277574
1170,-0.7964417556969043,0.8556058351056571,0.7285222509554186,-0.7373669947363215,0.48012953122072727,0.5356481731800247
1180,-0.7751332572364574,0.871449175262109,0.7471436535429431,2.2515134328139514,1.7083366298932599,2.555882385167657
1190,-0.7689274790719804,0.8785772879502394,0.7554592733981039,1.7818453652721022,0.2705741671266126,1.7245908090791997
1200,-0.783117453084275,0.8716539869407074,0.7441485235538885,2.9128557039111613,1.2434065134938843,2.821783306665008
1210,-0.7704719142346442,0.876359620629102,0.7500057248529794,0.689445302409325,-0.5126351719481341,1.378698865055784
1220,-0.7494432965782164,0.8928129402098594,0.7664359342159734,-0.11038094940577692,0.09432988035238066,2.54091019926933
1230,-0.79407533405839,0.8554830290723006,0.7288765507797873,-1.4798400437183599,-0.5395856957840408,1.7352662046268503
1240,-0.8161626373740668,0.8350824442453518,0.7124322554879913,-2.004805683015639,-0.9098687138482804,0.6623356095703237
1250,-0.7763607327224349,0.8754291523277986,0.7494646804188667,-0.19217489767177254,0.17830724658056724,1.9412355458744421
1260,-0.7953886085915589,0.8575174634953153,0.7262598460781828,-0.9700113106691788,-1.0386013198579334,0.3292336356324398
1270,-0.7936031612279502,0.8617006961603428,0.7310393400114646,0.694456314159161,1.673778533285839,1.7598346364133723
1280,-0.7963299612879279,0.8594796767933578,0.7357453679333386,-1.9419071260657235,0.24027716485630018,-0.24759037479732926
1290,-0.7715880197861382,0.874952717201913,0.7546059590779104,-1.3945096723708965,0.00018904448411777297,0.9891417241118391
1300,-0.7782289316682723,0.86257005618484,0.7403845643876817,-0.984411264860876,-1.0290075681767605,1.3164324815310433
1310,-0.7792728773060419,0.8621868817573979,0.7457247510642351,0.23887758183957342,-0.9642547785888425,1.9634166884040753
1320,-0.7881700104554792,0.8586063958389101,0.7339268501466458,-0.1835069776572269,-1.2356349370764532,1.5708890438481893
1330,-0.7723461267942612,0.8731801701462794,0.7494014958042036,3.2622594106914633,2.3030400820572074,4.385540789237713
1340,-0.7813903517844889,0.8715972805452543,0.7417780900745534,1.5331320578223853,1.2028204290901736,2.020916840522658
1350,-0.7625747317146065,0.886299082793514,0.7656462972225371,0.1049693845390689,1.0455377896160458,0.6501153560011748
1360,-0.798866742370805,0.8595530543779681,0.7401166029392838,-2.5333140626500072,-2.318472048153177,-2.042271405815874
1370,-0.8027411457280018,0.8482724588764284,0.7305333492849381,0.24579320759733203,-0.24280634745820154,0.7241010348385167
1380,-0.7606311309313784,0.8803975031507014,0.7620997328908868,1.6382500066074979,0.6978705951179852,2.2460570309081094
1390,-0.7709335452387228,0.8783919466548707,0.7515245852570023,0.7844410596664988,-0.49441103598104164,1.4772357421898439
1400,-0.7858467157289477,0.8604737605763582,0.7285314588494053,0.8937044139645411,-0.08435437095668158,1.461537561848997
1410,-0.777982173469943,0.8712366459495974,0.7439231763507465,0.3352036660291098,0.9068950921867033,0.9032296931754857
1420,-0.7956430307306548,0.8477016127195068,0.7176310209812062,0.5802159306037946,0.35319336496464837,0.5440185625321362
1430,-0.8042909770996772,0.8546110472331191,0.7348067781604276,4.3103720473932965,2.7970699403596178,3.280059426150559
1440,-0.7949563381754327,0.8562452831399052,0.7378215896658457,0.32189241796835477,-0.4079769168380271,-0.26240854399153113
1450,-0.7944255787727996,0.857176057925881,0.7278218258286634,0.5825872717539958,0.911044920655393,0.8800085949358123
1460,-0.7626524122373695,0.8875461218110978,0.7620257192024713,0.7772225881147293,1.0746770575398472,0.9489616981077188
1470,-0.7906790774248066,0.869666843953123,0.7470483662566514,-0.5429562222768796,-0.3428544202706819,-0.7327067095661898
1480,-0.7691615049240945,0.8874330081840508,0.7577826553175497,-2.4641220873771115,-1.3216163977654782,-1.8956257829920096
1490,-0.7915718796648105,0.8634427340438742,0.7310166831885263,0.5319103031028911,3.1654831155609933,2.556679834079451
1500,-0.8106672984862161,0.8443875840239666,0.7163060290469405,-0.9095036631680355,0.48970598381001973,0.6675876226131124
1510,-0.7794272189011036,0.8790939936868604,0.7567931326404127,-2.9799615717126064,-0.5745172840146564,-1.389218057190759
1520,-0.7738784303787416,0.8690743858146786,0.7515224980201719,-1.794735535286672,-0.6327106423599972,-0.32167986584852704
1530,-0.7842842896022845,0.8621960632022494,0.7438251058375173,-3.1278224643049737,-0.6225021546937621,-0.4292742500968023
1540,-0.7742246221142227,0.8758975812403961,0.7524785676989212,0.9120800168997532,2.1003364861158045,2.802120791387876
1550,-0.7869017656485048,0.8654297390151,0.7376618406249672,-0.8859994938092155,-0.7009926867753885,-0.42808847308384657
