time_ms,ax,ay,az,gx,gy,gz
0,-0.4706746543036589,0.838791765584978,0.852894390079087,0.3052978290034985,0.40165087059259685,0.6912493474575483
10,-0.4551516878087861,0.8566245961318174,0.8684173927315895,-0.8367410754857252,-1.0109813210588132,0.037927812535081484
20,-0.48514731092397473,0.8219577718412151,0.8355465822702972,0.3187226332773063,-0.9973522087125748,-0.9578265605548415
30,-0.46577258808767596,0.840662030525953,0.8519426040787526,1.433509622895081,0.14682699926352066,-0.2174353177155607
40,-0.47467333194619693,0.8307851914649316,0.8420742228390989,2.6220477572575183,0.7901721416265058,0.19785960313454554
50,-0.4713923287235871,0.8336867814278656,0.845359993213569,3.5600891820526184,0.9993307370117909,0.761491423706376
60,-0.5106863056134199,0.7976901587780275,0.8056945870332302,0.49186010158883586,-0.8692435453382359,-0.5490742110201868
70,-0.46607737746094796,0.846047079994764,0.852046523758503,-4.246981320572,-2.2528848316398373,-3.1776020730059678
80,-0.4975265602155134,0.8134018027461097,0.8322062007645548,-2.8086929772400198,-0.6106051337646806,-2.2339415836239906
90,-0.46490733421354563,0.8317894389219672,0.8535122332388442,-2.202485313891008,-2.601270499516215,-2.564464758074236
100,-0.47163900724027935,0.8304100062914663,0.84727846082979,4.627092330431921,2.3494534396463185,3.5910043903040627
110,-0.4646090578392981,0.8383373303390096,0.8553417908204372,0.07982841217029679,-1.494678384399188,-0.7787082943543298
120,-0.48024232766308733,0.823183320911305,0.8378764499935817,3.132959341450766,3.521532141736369,3.064573969265534
130,-0.49772088095848677,0.811751480777835,0.8228647778905667,-1.123371101610696,0.11450043703723561,-0.898896564621825
140,-0.5093239826475485,0.8040027361804344,0.8151189935032214,0.3649936869943019,1.3642801742162,0.42457185374392636
150,-0.4714834792439524,0.8310349025224912,0.8452171065138364,-1.376757331443211,0.022735643030601493,-0.9301325871135079
160,-0.4980468812727372,0.8098800839206698,0.8408191297704499,3.4678329753300767,-0.9823957211719048,0.19201219644033063
170,-0.5108547933841942,0.8048605801209202,0.8362658669443663,4.9158308246352025,-2.736390582510232,-1.0160678747150687
180,-0.5047146188656554,0.8458639688113911,0.8617662577288977,2.96994002951222,-3.266525654294989,-2.735217054141415
190,-0.4909503070333482,0.8788123946891595,0.8945316538265066,-1.084620248388463,-5.057604305043898,-4.526122581945744
200,-0.5006979233690113,0.9166746763475659,0.960795367980829,-17.459619463643033,-13.223898051593906,-1.4405164332237796
210,-0.5039382284296379,0.9714919190846057,1.0512425321611778,-32.476006866816014,-27.772252009687406,5.552182202062754
220,-0.49683475555169915,0.9436821520292333,1.0366375750050472,-35.618005601283755,-45.11734645088697,11.558341911315853
230,-0.40047343890233666,0.8553765796702096,0.9260559802452235,-51.23078728378073,-66.06280855493002,7.418677550682297
240,-0.3640693795645258,0.8645705017376061,0.8601574517135885,-76.68109666782367,-67.07956047912877,2.659166230136627
250,-0.31167634728661886,0.7741991845172296,0.706984988739127,-64.04877075646607,-53.2515584397,5.2610908465312365
260,-0.2563070216793327,0.8038668931623416,0.708857933543746,-42.187613987980605,-32.04805837027001,8.075964195951622
270,-0.25147814822367603,0.841564951155126,0.6970922213981202,-55.92464451806051,-18.054714999605117,5.198559984526363
280,-0.26775806557109144,0.8397328151920613,0.7214953074160672,-63.048785420071454,-2.5637931333431063,5.43407817433544
290,-0.3989096166727254,0.7090231849509749,0.7732944034708261,-53.836744846510484,12.22653429789098,-1.619367762021037
300,-0.5184066096323617,0.5875055453269462,0.8989230693548539,-33.903063174448185,29.165618103166963,-10.404409642144188
310,-0.5031209873880601,0.5860712709244156,0.9738509750881,-26.455913981426455,27.630600427833468,-22.142346341650438
320,-0.5322215911806016,0.719559696739779,1.0143979254266433,-26.33333620072165,19.614533398669153,-28.756535943319328
330,-0.5767515849452409,0.7650621723623866,1.0947668991833568,-2.500603331196364,11.41902693208322,-19.883883436437
340,-0.5302348648231034,0.8373110335532116,0.9706682618801602,16.888267108254773,5.544763075747234,-13.729609816984942
350,-0.4359182107412372,0.7542785723380534,0.959148302699167,16.5858933153503,1.3460299262357545,-18.705871069317947
360,-0.4557622697692257,0.7499559525168094,0.916449622669265,-6.720539920266072,-4.749814929673842,-20.231032831349843
370,-0.4682265032226102,0.8255727661037694,0.8771883141675049,-27.124867442380253,-6.9128317473320156,-13.955266301144636
380,-0.44911850872611897,0.8211107249576459,0.8472642065860534,-44.27022728395922,-12.917897152912552,-15.58625405480804
390,-0.5044314858592159,0.8795374401158306,0.8016337397305934,-64.57965959676186,-13.95315584362437,-10.790371048174187
400,-0.5297225280299936,0.8705573273238679,0.8324461124925386,-65.19444780341189,-14.52947623973112,-10.480514879922234
410,-0.30442950412570896,0.9696117200062755,0.9635262965803881,-29.61110991617483,-32.118289262644964,-13.23265708954059
420,-0.4448448957369581,0.9661850738313368,0.8680242168297637,-65.06397002458665,-37.754376205376545,-3.433954412796621
430,-0.6170123267991557,1.2407726053931585,0.5770824407879448,-41.50849052065609,-6.9144362804926995,52.609255848445876
440,-0.5941732852119542,0.6751936981255212,0.6537021397573698,66.37554645047032,21.519979668292333,88.34693286516786
450,-0.5213260061175413,-0.26324055349364855,1.178976176107992,127.65876730233677,49.44583608277216,101.33758183804532
460,-0.6265835606216492,-0.3249892411455325,1.3697845048673716,84.73542055745344,77.62779050725912,110.28984131241799
470,-0.5641591873948532,0.7594944521550633,0.7285967399485459,87.01090677501251,77.91137967405633,98.63627953554823
480,-0.5999733835711963,0.4608782933709379,0.5998602563962561,89.35023268621458,77.40918791667166,76.1130478315163
490,-0.6200890383994109,0.7685516981194203,0.3272070740295506,33.44490470695798,63.984686097325664,66.5669337630415
500,-0.3603063322207639,1.045787032334402,1.2052289636756406,84.19076574962531,19.779136734201728,-2.3506647645662824
510,-0.6315556490392004,0.887121672931791,1.2460947991385818,84.2044926264417,-3.9638562677176226,-29.463303349558437
520,-0.757903695357211,0.8183205677869642,0.8273685774767711,91.59193951065743,-16.87200829855605,-55.324163301722166
530,-0.583160148431904,1.2047358514898188,0.6003635967236685,113.46690345845586,-19.26908630291234,-69.90232888176519
540,-0.43877046748020665,1.6346304687767166,0.7298446013378705,96.15882650728882,-15.299448627345186,-56.305307268647034
550,-0.5843054759760826,1.1571962734251207,0.7920206965504408,40.69511748709469,-5.878613574475448,-34.17666503351702
560,-0.4562756416498969,0.9305797519294626,0.8333545143101555,-29.832063241794714,0.028082295142769498,-8.38349482156844
570,-0.49202601098237375,0.8333856005420395,0.838516322877868,-13.18392134342164,-5.8174129033895925,-9.038894704405172
580,-0.5126940546099797,0.8148013354967906,0.8190709564282694,-9.468727778728674,-6.162101063757782,-5.691140604284506
590,-0.4833020931743765,0.8123625116844778,0.8384171081071596,-5.186415541178181,-3.367987996955124,0.3145741791831562
600,-0.4677277617181622,0.8076718925534986,0.8634885263046403,-0.49613060740797776,-4.703337600186748,1.8381556244620334
610,-0.46520441765467996,0.8167371068904196,0.8770042705596414,7.106772317746341,-1.258490764946436,7.233708591484851
620,-0.49494850549396197,0.7911110595158807,0.8345100954280343,2.4854561678524996,-4.3567934658885585,4.37336790686441
630,-0.4619670516209475,0.8116560372142075,0.85000984619731,2.518024692535172,-2.744758017889303,3.1728142951922274
640,-0.47595564208337204,0.8178952715538196,0.8551285706695361,-17.934012526309612,-4.085211160612371,-7.854201151227315
650,-0.47110209600429864,0.8041022544726055,0.8595543442535224,-16.881761640644367,-0.577644267115613,-6.442398106878365
660,-0.4779014850755226,0.7851118157883965,0.8441248842609116,-13.661024541521481,0.8377558474577924,-4.785926461968542
670,-0.47172706514752893,0.7858846811739724,0.8456339739504714,-7.194369372536276,0.46913296706956165,-3.6917807599327968
680,-0.49408057348768447,0.772380435886839,0.8247697722185442,-3.0243115872713116,-0.2450775093640104,-3.862663606365346
690,-0.4414893919444748,0.8319561649378735,0.8821060445686385,0.5520333637838364,0.3036609354564401,-2.766874824021342
700,-0.48578255704037426,0.7842413810347479,0.8439202373693534,-0.8789253723645385,-0.05779057893560502,-1.7746975211128646
710,-0.4768971757128951,0.7975761373676444,0.8589320813585165,-18.37305982914335,-5.516007509385652,-7.015695753946199
720,-0.4821817406162285,0.7832842871119134,0.8442414751585483,-14.249309812998364,-3.0654891617520255,-4.405681253617251
730,-0.48682067624271563,0.7713906064965511,0.8365114568522212,-9.7557980656447,-0.013838353236359291,-0.972432940719933
740,-0.45444978992399965,0.7932123280961438,0.8740775081156308,-5.627309958951509,-0.8213189566813894,-2.0891483760915737
750,-0.4430092651552847,0.8082166481007501,0.8821589777766068,-1.0446763784045119,0.2306215964894492,-1.6949024438222917
760,-0.47547309521680997,0.7819922850362417,0.8507430931944873,4.84760492112315,2.183256567091319,0.2226330789329911
770,-0.45669619514669135,0.8067514809128226,0.8738940215226578,4.298883536743848,0.3581115616568756,0.44682508188656894
780,-0.4467064305752548,0.8209519876489388,0.8818403699633732,1.071777952829072,-0.6270320282730141,2.5460708523228197
790,-0.4712912655574121,0.7885253382433186,0.8502369397271826,1.1444172435057034,-1.5854120998237962,2.017060062781497
800,-0.4452955788076685,0.8036308548998434,0.8764297011412554,1.6179039177169288,-3.2321016021839917,0.2937092239450698
810,-0.4848060560553321,0.7646971404063324,0.8308353246838529,8.753293018890739,-0.9583356771933959,2.087124008760462
820,-0.4786681129872325,0.7926242313493195,0.8443350716231323,11.2524507075235,2.250925538448751,4.292839777778594
830,-0.4567360774836122,0.8210673731916497,0.8693631222504746,5.489940947502174,-0.11324282880493619,0.6978907304658231
840,-0.47364627310671137,0.8072246576558959,0.8518939001571277,0.808023960649156,-0.5069254617624716,-0.16901456760251524
850,-0.4650307035120362,0.8144413412521658,0.8607114252062569,-4.093939713363022,-2.45617130029302,-1.9299789648887615
860,-0.458463049391158,0.81324222909804,0.8699896891234391,-1.898801129064016,0.030373872000197144,1.002989958676629
870,-0.45720406205398956,0.8144318097745371,0.8730856075922963,-1.6808644087184863,-1.142574827151587,0.4988982395781704
880,-0.47202572848203905,0.7906895362384585,0.8482338120184207,-0.8473375587176458,-1.3750410231237167,-0.575751445355445
890,-0.47737189546135744,0.7794996415586813,0.8502861708122251,7.551000569531629,3.65214409056788,3.582037761595333
900,-0.463412896333335,0.8127175692087947,0.8593833538903124,4.583703707255454,1.6241544270867578,1.1951908843148993
910,-0.47300108762862214,0.7990088152756504,0.8485270143484588,4.433562607236974,4.81750316844942,4.292905947633797
920,-0.48278093797082733,0.7836104336775471,0.8410302750723818,1.5014619555842554,1.7379533006446022,1.1741195623296292
930,-0.48783185102827287,0.7765917856087186,0.8378676884111969,2.6531671194047015,0.23971641358565907,-0.32962638583456655
940,-0.471060181023647,0.7901041532596792,0.8545828550845956,2.6024911321711377,-2.1185087539302607,-2.6386836110559613
950,-0.4401883482797158,0.8271241983116274,0.8853186925283845,8.415811711636918,0.8501384244383483,0.4375640078022275
960,-0.4657013271745375,0.8136838808078267,0.8610229779877497,7.343319771397855,1.0031995098743838,1.1260597132090675
970,-0.49153964082876367,0.7837295675796381,0.8299881615565277,5.2402700291911435,2.2638526518089046,1.1257977790704774
980,-0.4576959374031638,0.8102798604723552,0.866077747939496,1.6412283912822534,0.691084102831216,-0.3100305106046343
990,-0.46843418601732023,0.7949495021086631,0.856241501970828,0.3906228318311824,-1.192968173714726,-0.973511104598322
1000,-0.5007673069776902,0.7634154920714966,0.8205634414047746,3.2521895408020898,-1.4997880813442412,0.2791635552362757
1010,-0.4540162559603002,0.8117516694649212,0.8656324237484069,8.158807844544913,0.7369113707870626,3.5314889088486474
1020,-0.42717924003434893,0.844172087861155,0.8963309042828527,6.379156085514507,-0.8941440953987418,1.8493493507439258
1030,-0.4640818823158424,0.8262621472404889,0.8636617085955578,6.58179737622959,1.4706118319124553,3.1054945895641164
1040,-0.48323967501855547,0.8008159245526862,0.8492721399679366,-1.7854624554224976,-1.5585857160612935,-2.2341067145498243
1050,-0.48438988275157613,0.7790727446360972,0.836052906172196,2.949785135383175,1.4359253735527306,1.2408140444527014
1060,-0.4598338920993387,0.8116800107432862,0.8678203729476365,2.4306653983574407,-1.3775779759225368,-0.3167513521335408
1070,-0.47131229272851793,0.8023098045521732,0.8563607000111024,3.706371128182531,-1.9435759767798944,-0.400024596496813
1080,-0.45721089083486727,0.8203550816282361,0.8690057314679873,2.998388882469037,-0.19114778067406946,1.7551611860568312
1090,-0.4858962386308545,0.7965320733601825,0.838977014732313,-2.3048556471256605,-2.3981387003776113,-0.4424724403367888
1100,-0.516332888793161,0.7656235151494012,0.8075539065194667,-0.06976221088882029,0.9556616690769592,2.1554075076643877
1110,-0.48760257283365815,0.7913867182275086,0.84097684362314,-3.228083310884916,1.04334146104216,1.6920918081101657
1120,-0.45942438334452124,0.8081716214892487,0.8645179752009592,-1.589133119758999,-0.189866377537243,0.5332980051307872
1130,-0.4857112201053733,0.7793958267552646,0.8389217494695596,2.607107309660257,1.3770859972184206,2.5208472920872182
1140,-0.4818648228505294,0.7894128146904932,0.8468132884823917,5.768843286537925,0.4433533829659446,1.616104784733126
1150,-0.4536861840920012,0.8220712689884655,0.8717038215505074,7.316397814320645,0.39959728709524583,1.841881984841067
1160,-0.46168033607668785,0.8169876133424349,0.8562868638110893,4.120415134258696,0.18214153754624726,1.4907087826373286
1170,-0.48894137074165517,0.7921825905027854,0.8317503788217081,1.2338164000499914,-0.6236436567885189,0.14646292742642208
1180,-0.47444401630051325,0.8076617621799168,0.857842270906384,2.698747599147411,-0.33224867356979426,-0.5853585113633708
1190,-0.4534308073004375,0.8261632622327073,0.8754635247848882,4.374543939347344,2.9343182354688144,0.8204615573868224
1200,-0.4630752835080755,0.8108047370639638,0.8570719114980175,3.6717172893393517,-0.7873535850556133,-2.727040191263195
1210,-0.44671571142049354,0.8397874624346925,0.8779699860859377,6.7502058372537155,1.3553469622419374,0.41015595266956945
1220,-0.48287590200127367,0.8106558942939995,0.842993860253722,5.410368306333493,0.045543582666370264,-0.4567415829756046
1230,-0.4900895938969248,0.8027855231507361,0.8353006855104951,4.639204734958298,1.5097790887230627,1.4342406220149326
1240,-0.4636490202024488,0.8215110757752331,0.8621165052182114,-0.49577303734964917,0.15809523464823538,-0.23417906321095516
1250,-0.46006734678505623,0.8206366581586093,0.8631143914120201,-3.887180125253697,-1.5150168412046343,-1.3379594408257285
1260,-0.4302751373438677,0.8538360584704467,0.8903796682063984,-4.473369154245978,-3.0400502909831806,-1.3144381140207202
1270,-0.44893601095188373,0.8359377037670371,0.8796952966455521,-1.9167504829998863,0.2595808871007651,1.2244957858558894
1280,-0.4692507868971438,0.8131046351317672,0.8508963667859439,-1.1564795247924782,-0.5409359206430124,0.44764661775981185
1290,-0.4895186402214955,0.7975126409670634,0.8296750638977747,0.6551147842157898,-1.2483755475216132,-0.5854201176762598
1300,-0.46891243377091063,0.8170079763804101,0.855697614316218,-2.607380843468591,-2.333255497943679,-1.8915238203552744
1310,-0.47279741491377275,0.8087555830195681,0.8558242963954349,0.7701536072967778,3.2801436236080606,3.2243925035290544
1320,-0.4493947288694324,0.8306931446636142,0.8739089459448633,-3.655035781755296,-1.375681220320754,-1.7578254670575828
1330,-0.4861727641250635,0.7932877204490232,0.828726383043567,-2.5843672793062415,0.3335130082244377,-0.11839698337081664
1340,-0.4676580582969441,0.8085343069393495,0.8454135577439501,-5.3163119281984,0.29675110116498354,-0.326120408829607
1350,-0.4656535715169801,0.8084321206655631,0.8525203406463602,-4.520066442622743,0.5374023586907793,-0.43180567195379627
1360,-0.46983153876873296,0.8081949884206597,0.8597864799826511,-5.909961379039885,-1.7290340087207445,-1.774647028324706
1370,-0.4711166725233634,0.7986107632538769,0.8500168668950043,-1.6518363287579196,0.5943784578487078,0.9226239056984207
1380,-0.4612511600083088,0.8115573131584399,0.8570634991109065,2.622510075330489,2.1480712973010077,2.9191513373710647
1390,-0.4801402965316313,0.79562122162331,0.839000881105792,-0.5684187996042176,-1.1219271771967685,-0.22891536795402345
1400,-0.46650420224097633,0.812794572341859,0.8555968299280049,-0.3323644391104775,0.340345101078527,1.0732029529713014
1410,-0.48435153267136044,0.7968058330468024,0.8400471496266104,-2.280014042530571,-1.319330225638116,-1.0956425935142953
1420,-0.46405286507006127,0.8157318658420858,0.8607921727851224,1.8385913857843246,2.3186391540239537,1.9553800041241194
1430,-0.4884789837494181,0.7905082675595747,0.8368404495481888,-0.42211108442223044,0.83380574352127,0.5647491504532387
1440,-0.4568201040203015,0.8188044273664495,0.867874048226332,-0.47218781947124766,-1.0809572117091966,-0.7456991945845426
1450,-0.4664159602053462,0.8101258881057426,0.8594291501609914,-1.5445728133218573,-2.7195076752634697,-2.972539227711505
1460,-0.47856762473060416,0.7973609107571968,0.8485418636479466,0.04034652881997891,2.3999939554214276,2.026660763894106
1470,-0.47130552228215755,0.8097543989190982,0.854315046891341,0.4521469190416343,2.8043909255214126,3.135002371612375
1480,-0.46760838510770986,0.8145997265417312,0.8573119044328487,-2.5273872474335195,-1.8149589493984737,-0.835760793220417
1490,-0.43876676536240955,0.8432270275253767,0.8858902207599723,-0.2471378874187716,-0.0035140381160474188,0.8900449690905288
1500,-0.4816606922368074,0.8021574559862641,0.8424232965437904,-0.6839123868477841,0.04183563399191779,0.020086734549222246
1510,-0.4540376136650293,0.8259730844802351,0.8718125014604496,-2.056751807527518,-2.0756489622420555,-3.3735628322970355
1520,-0.4660873032243645,0.814241566660768,0.8604858167375827,0.12448336678372235,0.29014315878715086,-1.3807052390029313
1530,-0.4703364946894595,0.8089838358947645,0.8492326465619513,1.1359062850317212,0.30722620294162584,0.40200367525858227
1540,-0.48146799073151114,0.7995402800868524,0.8437528406667352,-0.0374192251064287,1.1859236314022268,1.8730833446442907
1550,-0.45539044004826346,0.8239754120956151,0.8721184916791254,-1.4679857162343388,-0.5792051671562368,0.6309317659490113
1560,-0.465690821509476,0.8174960655861426,0.8617662500695297,-0.8201043250050987,-0.7361293363308781,0.15813185694762238
1570,-0.45898903534206154,0.8226887061750665,0.8660624668506522,-0.5458288120285217,-0.5611428564313713,-0.4964038948435979
1580,-0.44385968705997886,0.8277024404211608,0.8777154510944931,0.12375842848633717,0.05796639754316413,-0.48304272138644533
1590,-0.44616048382779,0.8288908790218349,0.877321977015123,1.3859530826363904,1.0460311762535914,0.23738669830299003
1600,-0.4695043597811166,0.8085283137415339,0.8594374785307871,-3.29921744460223,-2.1892412056036292,-1.526778920317264
1610,-0.4471544650241983,0.8313381651074165,0.8793207761909839,-1.6507253124957852,-1.1585668820846253,-0.36124850865172065
1620,-0.4646608641757906,0.8133063668656689,0.8602777294966067,0.37153474146071536,0.44833608794543367,1.5313861186026618
1630,-0.4802768140610746,0.7938927829175678,0.8445957109841215,1.0701463204498851,0.06869941691962356,0.8510168795607879
1640,-0.4632186857926414,0.8139304935052832,0.8617009425798297,0.9212321631599796,0.9911769958405989,1.0480755889160744
1650,-0.47746044828906914,0.8040638192743125,0.8489441121083222,-0.9090053891541925,0.6605329847645169,-0.13077868376940482
1660,-0.4739872725124144,0.8039125763944407,0.8519477112481705,0.0999549948566193,1.2683048988689958,0.3161337630461458
1670,-0.47996065237832697,0.7921630430624302,0.83719851391123,-2.773184777308944,-2.1457577063473927,-1.8108403420066679
1680,-0.468286788854137,0.8127467671480013,0.8545292634602976,-0.9426319811409873,-1.0431751689668245,-0.7989376527044222
1690,-0.4825683057207759,0.8086059616040238,0.8423188565294196,-1.3086174173439078,-0.2931047513623917,-0.8173543419423528
1700,-0.44295796191170084,0.8433716707932715,0.8785324832304385,-2.702138087896489,2.5176776879660583,0.7820553397788497
1710,-0.4555652378647681,0.8230105597364341,0.8679361314589388,-6.991746331004293,-1.7686357284482006,-3.5234996007949926
1720,-0.45226019675965184,0.8224192181344806,0.8709875532454932,-0.35386650699324607,2.7267785034059497,1.055473887605676
1730,-0.49492427911810966,0.7841079458964784,0.8303108072473356,-2.8353052638536904,0.3248619299889335,-1.2459486660187618
1740,-0.46177307748173996,0.8218259599365503,0.867892406173217,-4.273361333936624,0.8311438355034055,-0.22883438326444394
1750,-0.44806928802933105,0.8250897264325369,0.8744222833606016,-4.23504128792955,-0.9859592904712793,-1.59476180403913
1760,-0.48165212654352996,0.7924680321913052,0.8440947021767394,0.6635752883533248,-0.38170481439025866,-0.6599904109256471
1770,-0.47030981471885436,0.8003789988093506,0.8501423173897376,1.749297991973207,0.20915584489334124,-0.7816741340842759
1780,-0.45403956120051087,0.8171670597472109,0.864585360033637,3.924827768105017,0.44580365577486497,-0.1366387080481436
1790,-0.4464815749858818,0.8323629302704394,0.8777528241887033,1.1514992012309668,-1.3674943317375612,-1.6420102592768657
1800,-0.461262961455258,0.8196070904565563,0.8668516765088476,4.21358032058029,2.599293906804778,2.553364909604625
1810,-0.4631896740905571,0.8157630428335505,0.8663246553563139,1.8556937219428093,0.28910179952625215,0.2636227779121356
1820,-0.4700700214301529,0.8102385062716321,0.8623289315244037,2.2753680285531988,1.0436046102088061,0.8272035021912759
1830,-0.4474476667243827,0.8339891173209828,0.8864220097762769,1.1832491165630603,0.7299236314095838,0.6007521003065613
1840,-0.47270874589195466,0.8034925220525891,0.8493545622922011,0.06645222394602124,1.273305590431172,1.3745089692756505
1850,-0.4616950956310006,0.8153910423855988,0.8617825154140417,0.5244058955909728,1.3800040807926244,1.3612841593650205
1860,-0.4552827409607272,0.824791403706351,0.8676365047821546,-2.237980262013026,-2.02668278400078,-2.402243536575102
1870,-0.4795966475814404,0.7960299795964825,0.8434209314612667,0.7364944032152159,0.3528809476393761,0.5343372366252006
1880,-0.4623074943200351,0.8094660395925946,0.856392575291974,3.1419796158135456,2.618555830911082,3.248594399589952
1890,-0.45960628581164914,0.8097772742790732,0.8572006385984826,0.5531366771385877,0.3653270400916824,0.7186584626048889
1900,-0.4608910321524074,0.8086275283228168,0.8625351526358086,0.3648981572694787,0.04265921249843624,-0.16962969138409026
1910,-0.49582836394759944,0.7820661027451626,0.8331132625839013,-0.37540623784460037,-2.4890954519052215,-2.7130035355281312
1920,-0.46884586185309995,0.8026250770528325,0.8519399962226754,2.8156778977918755,-0.7095708740199956,-0.4465958760519592
1930,-0.45760560452985083,0.8230994752226101,0.8602862816880432,-2.3750320616465364,-2.9672173937340944,-3.081072677187564
1940,-0.4484058663019909,0.8294851736103025,0.8752454536972678,-4.254123882895469,-1.6386855692051414,-1.6923304215685364
1950,-0.47604005848612263,0.798490328686221,0.8495751908403177,-3.5414362116775076,-0.6358601789131922,-0.8450476825874094
1960,-0.447266456892585,0.8224827094857711,0.8786683719067292,-1.758983946979645,-0.26763002808754544,-0.2489834679218174
1970,-0.4880752623844472,0.7817237402687726,0.8373898089899118,1.0218242619430533,0.7255652345391954,1.2571008765323408
1980,-0.4666285917831294,0.8098384748485639,0.8581130356978283,5.784424500900306,3.920151454890979,4.817405627236393
1990,-0.4742811713846236,0.8039045236400407,0.8515924695776145,2.093660446100706,-0.6923261741267157,0.27185139579389384
2000,-0.4891837571560187,0.7884487026700531,0.8302120160559708,3.8511296324590223,1.0453532684216924,0.710132136953249
2010,-0.44832889318163144,0.8324991879200135,0.8756706040362854,-0.8233026129773212,-0.5518694118898532,-0.5424142294672221
2020,-0.47221494964721394,0.7990150528470846,0.8492849988063915,1.4379649790485445,1.3843866377358476,1.82903112690145
2030,-0.47741237973534295,0.7981003571193751,0.8468171128222388,1.746868007166466,0.7579580595754574,1.1029946905093384
2040,-0.47329124098485076,0.8061114887190141,0.8528127465625985,3.346544423274003,2.3283357552076307,2.736309642507693
2050,-0.4554134964910217,0.8238817058424016,0.8682665607191645,4.405994898702225,3.335046908608013,3.6098572377300244
2060,-0.456726835192889,0.8239754361030516,0.8646797743892813,1.5994571293013804,-0.01527383745500871,-0.42922516356627904
2070,-0.4535094234099137,0.827675361597388,0.8710210500622891,-1.648241456684014,-2.449517229627122,-3.1249722802661655
2080,-0.45801110273394663,0.8174092154502431,0.8651049232468505,0.7223766867685466,1.9246353561688399,2.225706628510296
2090,-0.46886507276898254,0.8033683602658509,0.8531323527414967,-4.33145813835592,-3.126286169432579,-2.38063162003429
2100,-0.4688397030866054,0.8072535688006746,0.8555631626757733,-0.2871141007576187,-0.9047016652368904,0.24839920821692885
2110,-0.4743055362243166,0.8084432123927928,0.8483926647951684,0.9136314012145916,0.1092566445195712,1.2926527218541062
2120,-0.4668065733984277,0.8143566211817017,0.8567417701181622,-0.40812569289380257,-0.515403420289725,-0.38231124026826413
2130,-0.47958820196625945,0.7973163736508189,0.8463888028818237,2.976358004553239,3.145053903848853,2.2501260674294143
2140,-0.4607350333012482,0.8160787603856658,0.8627948821144863,-2.808154929508555,-2.8417853352387548,-3.388014589270216
2150,-0.431124025694718,0.8434916502821979,0.8855981953723295,-2.963756574090434,-2.6507234097503076,-2.0064763035028133
2160,-0.45997801112737,0.8171592432104693,0.8619727449473915,-0.9050459608377802,0.18386450508264307,0.8473700238245636
