time_ms,ax,ay,az,gx,gy,gz
0,-0.7146810865241189,0.7362734113789522,0.49274120805715577,1.310347953895724,0.7461689874358315,2.447949259371843
10,-0.7183408798489065,0.7338090396358934,0.48313105203178425,2.2620524409033136,1.6400440714053155,3.7087921362560126
20,-0.6887234444425424,0.7637268452382039,0.5163685889842442,3.8524759019358776,4.35092577162935,3.0958418990450114
30,-0.7178904477897278,0.7434717679151819,0.48549462113585273,-0.3275885155177982,-2.7834097357688727,-3.4431363358425386
40,-0.6992840403106346,0.7426451493486488,0.4975566383994731,1.1363917870819902,0.39131410766508334,-0.5315915032729339
50,-0.7094337870660893,0.7391536891957288,0.4942072450851445,-3.2611744315653013,-0.10367258515374256,-1.584926883248388
60,-0.6910451570345939,0.7606726911120781,0.5101660461527696,-0.6275924764039615,1.3127243575694247,0.14911602996083095
70,-0.7311902609822589,0.7170665911890919,0.4635256442546327,-5.581507415231638,-3.3526204519977547,-6.050694759782031
80,-0.6999749049302065,0.7445771942837033,0.5017181594763931,-1.1334123145908284,1.9676164658697632,-1.1857315201855574
90,-0.6982646575310822,0.7497954819241665,0.5054725616106783,-0.24035903998839658,1.5879587444038756,-0.19147075553573578
100,-0.719809660462164,0.7213879433646693,0.4827022522355111,-4.366538582702943,-3.8460977006019004,-3.554470353447624
110,-0.7079167268126115,0.7363129415814517,0.48752365195312125,-0.3535449547923617,0.15251800607657673,0.2908199083292905
120,-0.6984529829140941,0.7467991178181841,0.5064477532263352,-3.3198002490568683,-2.5852825273063575,-4.228384610577324
130,-0.7197583511539879,0.7265734167780611,0.4841498474327302,-4.215057572413945,-2.9021342721791976,-4.836063292407118
140,-0.6882881856998274,0.7489403910271211,0.5103621472539634,0.7545492978922783,1.7524514216133316,0.4040091393395284
150,-0.7366293444852539,0.709668763965377,0.46481750243821357,-1.5250396748247539,-1.61631957678997,-1.795603467681081
160,-0.7298667992666926,0.7129651796065697,0.4744769272229866,0.6604778018319215,1.050957454023192,2.7000326075791383
170,-0.7172448213497656,0.726198124310818,0.4914507398009659,1.5515048662540687,-0.19309659896365272,2.229527001198732
180,-0.753699307854114,0.7148690508801564,0.4827388469707401,8.319015168327622,-2.0717744247918723,6.375749935370566
190,-0.7455847217921648,0.7324322585559403,0.5159431361369872,21.86029289437074,-0.9223234593654626,18.741923257514017
200,-0.8228477025137786,0.6774631693267998,0.5071094003219976,34.79733304120036,-5.743431416831942,27.78959827401153
210,-0.6803837326809903,0.6275975082526165,0.5337261192936413,4.565790203932619,-45.10927968525313,-24.969356992355912
220,-0.5449861068895402,0.5916346982303803,0.4710991030548179,7.27008507210311,-40.32043010050224,-32.937035695242685
230,-0.48161028791148025,0.7075779955044819,0.4309713359781229,10.178985175654907,-25.737855182550827,-34.3812496990883
240,-0.4124389210132998,0.7443429190161758,0.459310470612062,4.21771171141433,-5.23412716386229,-34.14182549702235
250,-0.503782646498177,0.799416257050672,0.5022613954180348,-3.4093548049646047,9.536590369871236,-37.23261598988554
260,-0.7896168577006992,0.9362614607450032,0.5378669366614425,-21.336983659797795,2.6897173617908363,-26.615931383962387
270,-0.7366196035873656,0.886625616316106,0.5350588039839417,-39.761007228001844,-4.417826521489911,-40.29988029578695
280,-0.6579940776365732,0.8157336248354282,0.5817626103841197,-62.754745484104,-6.196995058622154,-48.7934455960722
290,-0.7449662124860961,0.6115350563417138,0.3781206737452473,-74.99780082443812,-5.058579724565767,-38.3530950000402
300,-0.7178507160020239,0.5500138190120247,0.15183712744592706,1.3750122982063997,15.214626245005922,39.4654326173306
310,-0.7407567251810047,0.31131653995365327,0.35920156663598823,56.89407933127469,36.990819460706604,71.29916634370474
320,-0.7385537150736332,0.21716193075241144,0.6294206641707648,63.60291107488261,41.3950839694546,41.34544475232446
330,-0.5361954704176607,0.31995655584511024,0.27408261066668466,52.85959524536232,35.82449565904123,7.840272691248577
340,-0.7059940167719045,0.6501533106324793,0.8433664931019382,67.29723053958362,14.14043877991857,10.260156114632151
350,-0.6528061061856612,0.9211378912870724,0.6090677520486015,44.55249875822112,3.80850453556443,17.41656819364324
360,-0.7072696531131496,0.9013265590507904,0.5059419302258389,12.239013033835503,0.2726693609425377,6.328125328676872
370,-0.6945503465112427,0.8143541583846411,0.488439781774072,-5.214952821565074,-0.7261031476376563,-13.036773727750733
380,-0.7018929772536183,0.7690555073981362,0.48585150410372935,-14.284918374994959,-4.83981746036031,-21.6138516884173
390,-0.7109335049819087,0.7174728688612589,0.4817150134198418,-20.456528910226023,-3.3316786145557686,-16.820455819312965
400,-0.7036429165866042,0.739117031962071,0.4943040176672487,-11.155314392066478,4.220154845284728,14.793543465360456
410,-0.7346041987994635,0.7255449809078557,0.4527823350140088,-10.688523944591855,3.392613062570885,13.164041320381639
420,-0.7230123772295411,0.7500932143529494,0.4851501579361004,-19.56995107168719,4.083968561585914,3.0063389266794918
430,-0.6967378215777394,0.7700920009349435,0.4968612056520189,-17.79002541617663,3.056073472907006,-0.5366896190748576
440,-0.7455600901668572,0.7062961189756505,0.44718852464208286,-21.575984711036824,-0.47502326166941145,-6.983038712293018
450,-0.6936066362215607,0.7509735411013609,0.4983903168604085,-10.677448167266029,-4.065802321382322,-8.612519159881018
460,-0.7122069169840091,0.7512360573666014,0.49068101168099093,-14.492171226723624,-1.465259951328802,-18.235244554032565
470,-0.7265036790429836,0.7163302465646719,0.4791419252131889,-14.339444525034912,1.1252284977200553,-18.91563041914528
480,-0.7114940325366222,0.7081678051226326,0.486558813627085,-15.198790561365314,-0.05939412533133004,-14.356354613345252
490,-0.7189844523250734,0.6807661037652996,0.46771552660136967,-3.67528050018249,2.3373287251833155,1.7331988277818995
500,-0.7194352537215173,0.7204602460445602,0.48270727376285844,-6.225762505058947,-1.1682022440580855,-4.392647787509805
510,-0.695058741045186,0.7434212058390848,0.5086898327345735,-4.097560093057206,1.1367354903436093,-5.6051495269518234
520,-0.7182904708758527,0.7000970796562355,0.4890472328197729,-3.5397082763478327,-0.014867502719223158,-6.2221061027762055
530,-0.6863426865841822,0.7128368174366635,0.5055626166932509,1.3472690858258796,2.39618160845902,-0.15919017636383148
540,-0.7283905664453307,0.6888759753298216,0.47363177645893784,3.9231069241277363,1.5218829158845568,4.046248051397482
550,-0.70957933413403,0.7161546189184704,0.490557725457508,2.2544570516551037,0.5941173972335618,2.3999998385295913
560,-0.7148429041873983,0.7084822932121374,0.4824157562234558,1.1310008841990475,-2.2321969883629666,0.8721974613886885
570,-0.6918260845843255,0.7218505659117477,0.4987047294133426,6.193234865213545,0.46613543550125014,7.208022814580752
580,-0.7193314581261674,0.7096470268321494,0.4808146192669686,7.684944560192879,1.2900489134437123,9.41264128711197
590,-0.7331742036065194,0.6985889497843587,0.4669946079835186,4.211224985270123,2.25960566560552,5.419061235368103
600,-0.7298246888728472,0.7080185209249307,0.47889512370076515,0.40812927413661004,-0.03276539931577449,-0.24538721756302195
610,-0.715266325275895,0.7159057532331403,0.4837400990682302,0.4845100576092355,-1.5143705420871598,0.45565406368140515
620,-0.7230228597270808,0.7065584403585449,0.4699471521767024,5.739883561675837,1.424133114827826,5.46959678202667
630,-0.7012148642507101,0.7288460681005587,0.49647808967168106,3.8408334223067144,1.0150652610345778,4.1792954981090435
640,-0.705079559212623,0.7306649738908829,0.4999813994854019,-2.182715763201098,-0.9658748596613299,-2.4319979131694183
650,-0.7003302018687166,0.7348988377872349,0.5030063970313551,-1.0785220276143948,-1.672999255180543,-2.4860136283462317
660,-0.7041949295623013,0.7210883748230376,0.4922615063120887,2.072175068214096,0.7408741179119882,1.0061564647938392
670,-0.7111500288052676,0.7348074238864672,0.501621626705028,5.6669665261691335,1.9312838477748966,2.2726892748422944
680,-0.7149666225779131,0.7260912500661922,0.4838873811004343,2.814794407108986,-0.33903020663499106,-2.0740979746405888
690,-0.7035547180697816,0.73037255484012,0.5015425832401561,0.6672839677663558,-0.13245090017558048,0.012061959820813373
700,-0.7115222563182584,0.7183444110714701,0.4871840499928976,0.1560265722198131,1.392922731903146,2.3848013924821925
710,-0.7212618461728711,0.7125562670854371,0.4801275086724409,-1.8513009783883536,-0.8813388007345991,0.6811591500687694
720,-0.7165957187290252,0.7168976027763355,0.4885681564076973,-0.5983057140088981,0.6331375128127057,1.3551288493174536
730,-0.7330379283301993,0.6943661065206803,0.46986418680270353,-1.705147078435207,0.2551058259258538,0.12098216528984795
740,-0.7023162485492176,0.7317282911253484,0.4983050026307337,6.27620073352518,2.485119857373015,7.7208005964565825
750,-0.6938181639290116,0.7444754112433195,0.5079221796675596,3.6453856625489047,0.2126014487319119,4.552547919287782
760,-0.7208109208200831,0.7238432014049837,0.48105722600006756,1.3139449729674006,-1.1757492824644435,1.7284972588026157
770,-0.6996064234880708,0.7467873216264155,0.506724122400593,-2.0327201226262153,-1.2437457715695808,-1.2628162710802733
780,-0.6831892765620208,0.7604206546933509,0.5195397938030573,-3.5753157285909327,-3.0299886524692257,-3.688532994246156
790,-0.7094467513307343,0.7290023872103452,0.4930621524039133,4.897280287757127,1.1829222232882117,4.297261405306784
800,-0.7192224321363779,0.7213022923040593,0.48121548076037535,1.0217231619204057,-0.7461048835718367,1.8295981145742992
810,-0.7172203913750697,0.7264229843905138,0.48757771992466353,2.1246234017424905,0.6491496330315434,2.708688440319578
820,-0.7082784288328999,0.7362293614457959,0.4920073205276752,1.3023139113846454,1.8629374655010014,2.4420757102563577
830,-0.7246341317145535,0.7185982374039382,0.4806900441120667,-2.011947539898025,-1.2639222469742908,-0.47230644072745986
840,-0.724033177962675,0.7200536362579102,0.47572524226223484,-7.565374648580081,-0.3392962859712543,-3.3611930145702864
850,-0.7001217723447757,0.7344502441711532,0.5008734261380086,-5.353614079881414,-0.5867707167591816,-4.467944860865653
860,-0.7014554148463087,0.7205006652104293,0.4894689112351012,-2.7085227167613044,-1.2274876193347675,-3.466703864836759
870,-0.7078154912701013,0.7179399270602912,0.4913711792721185,2.388325031368294,0.4260997193334886,0.8166220257601321
880,-0.7256017067080753,0.7153590740239312,0.47700141101180416,4.344775148019469,0.07219604787951245,3.982380590480029
890,-0.7058752085240821,0.7325127622166868,0.49909941690623094,7.636959026219212,2.1066901886951213,6.113770576754691
900,-0.6923639480522847,0.7541073817718877,0.5182030633174577,2.19287698357269,-0.57544749820805,2.0839514696974675
910,-0.7089170406548567,0.7378081700444622,0.49317555842727634,2.5810965716737004,0.010776560842843452,2.0808207849131057
920,-0.7150574491175067,0.7269301056051642,0.48250999067345673,3.3527890981424586,2.1831129040704185,2.8446499038339654
930,-0.6892586518767708,0.750176589501424,0.5094058037512297,-0.3881944796163912,-0.9543105627139233,-0.08558451017123936
940,-0.7202550769322316,0.723826039941795,0.4838129748511409,3.069893896943256,0.8514406503318641,3.4282342208731613
950,-0.7027599779934768,0.7394592256433908,0.4986657802851797,2.0214586375364814,0.25420768049916337,2.2464849780741494
960,-0.7133391308904844,0.7272534667859656,0.48369345619515114,2.360496953051371,2.1872383267441937,2.58143820118512
970,-0.7074628763292065,0.7346737195850289,0.49461547600365374,-1.8896599997602266,-0.5430930668801877,-1.6450457569377086
980,-0.7359174824875291,0.7110188711635669,0.47187363593431003,3.759245590909362,1.242627713787034,3.383455092425916
990,-0.7025602000109114,0.7481867383878702,0.5035568931861101,1.6022394435558267,0.32014426172111843,1.7292060597055956
1000,-0.6992697498249585,0.7499054884749997,0.502179020018006,-2.0288772448815027,-0.738972876581,-1.6685812688875088
1010,-0.6897845513576676,0.754659533476259,0.5073689346491148,-4.062650044493849,0.16247890299947426,-2.511835478044821
1020,-0.7138271175496773,0.727407793166627,0.49274218949578596,-6.079909367721768,-0.9330671442452552,-4.1164250487336815
1030,-0.7225941361388917,0.7149288605665605,0.47982783529862016,0.10666946112580789,2.5703216596262473,0.20229881708464648
1040,-0.715416925027968,0.718016145345045,0.48433972333624997,2.159632489059738,3.4161354583744132,1.481411972275182
1050,-0.7047751228380218,0.7364921001409362,0.491686684018051,0.07198535794087707,1.0460684981609516,-1.255229084627355
1060,-0.7052336722275524,0.7347289627323041,0.4975912753097558,0.8560687291988205,-0.07165775659986079,-1.1041232260352958
1070,-0.7027795746492,0.7353765772628961,0.502182452664205,-0.453123745708119,-1.5553388536584816,-2.393655386214676
1080,-0.7177418895643193,0.7212677315952382,0.48109862940471865,-0.7515736535615749,-2.035748759416993,-2.114190565127807
1090,-0.7394299131349008,0.6983456396927858,0.46147524370009957,0.271323431749669,-0.36207562784441466,0.7146580051944329
1100,-0.7018985530249311,0.7385988410649158,0.5027930031489244,-2.015260053334652,-3.271661154542505,-1.0766363993906813
1110,-0.7310535618072121,0.7146264292045569,0.47581448398153836,-2.9699248464340586,-4.245435529230711,-2.1129927629291885
1120,-0.712463943857809,0.7249152479169266,0.483297554689954,-2.0867657629226244,0.4313424691144754,-0.5565416877283946
1130,-0.7049098646623886,0.735372420670577,0.498029804371796,-8.33379386032954,-0.21837995166166202,-4.788678313784199
1140,-0.7251603777182926,0.7095364913805589,0.4799873178154379,0.41419566036858013,2.7034247193346927,1.0353145360943785
1150,-0.7203005729197087,0.7112774689558027,0.4811723056814161,4.620859794760541,1.8631269302963749,3.4728867873656544
1160,-0.6982737869947618,0.7359514317728497,0.5034438291508427,6.1967387733270485,3.7989398589903027,5.286299089903256
1170,-0.6863353533442913,0.75450803179063,0.5126072326503566,2.3759320788799214,0.7860579720051831,0.8162553458008863
1180,-0.7071548445974236,0.7354138800308612,0.496852405999341,2.783219601187767,-0.2969214979924076,0.8451415192771677
1190,-0.7225513647244017,0.7215473027902866,0.4763101703323061,3.138764991507465,1.4301129685422138,2.236649036627827
1200,-0.7218315487237584,0.7221341874218179,0.47987479510451125,2.8351858128683514,0.6200432888556519,1.757995748016874
1210,-0.7392447162275652,0.7032668056072617,0.4662518701756543,2.2248921309882395,2.211955046110883,1.8737749451070032
1220,-0.7237482488263455,0.7193350547104196,0.47344752707076343,3.7229259604406195,2.377795306060583,2.3783125540412082
1230,-0.6895002962858131,0.7517148454070394,0.5117622797112805,-0.21354927005307223,-1.0978559464484234,-0.6366224685346568
1240,-0.6976669401581662,0.7481615914193825,0.5015055718546424,0.58957507029248,0.4546269067805862,1.1548355829223405
1250,-0.7325122246642846,0.7121727662931925,0.4673235095946144,-2.6652796320092236,-0.611069145264229,-1.5990075531268932
1260,-0.7074811668771731,0.734550510782947,0.4932514616827379,-1.002496108240788,1.359951609289329,-0.1882320555554
1270,-0.7279435346238265,0.7114113572138322,0.4755982060226686,2.053820059574264,0.6789412461492643,2.102407920544213
1280,-0.719153455905128,0.7237209373051124,0.4803938550571377,0.397199081065958,-1.3216466637367323,0.2237292093799519
1290,-0.7404959283589075,0.7077427621827007,0.4653982325130218,1.9016402823860634,-0.28079671309594156,-0.15079148134390483
1300,-0.7206477168338056,0.7285577705147503,0.48447561897271335,0.2761267207904424,0.38394580531332684,-0.8905574020041062
1310,-0.7310230353757251,0.7094169275153734,0.47189876648762574,-1.5352127833438232,-0.10940819334835046,-1.5250227171763882
1320,-0.7244501735159391,0.7172573676685701,0.4768966886462936,-2.266755735901836,-0.6933773192918415,-0.3229421179162474
1330,-0.7101345870700765,0.7298613995284301,0.49122382727178393,-3.845636087756854,-3.218948910276417,-2.8315960028006177
1340,-0.7254037049399651,0.7190141865324211,0.4823534763364914,-2.2651159405130556,-0.4679008953293834,-1.9207065947198552
1350,-0.7130296015895994,0.7262791881082903,0.4880780162834132,-0.981044249597957,-0.5471179308191696,-1.7580339116427446
1360,-0.688309098217762,0.7586059480123362,0.5160706024776386,4.080557363928549,3.4640491314984665,3.2352229065428633
1370,-0.7062538968421337,0.7368598305397893,0.498415882636213,1.1316734418970864,0.960903051532169,0.6886071846212247
1380,-0.7042761993318155,0.7397451391886221,0.4961211938871533,-1.5387849971637835,-0.0911387392408747,-1.234525222792299
1390,-0.6942572301141553,0.7403853456908499,0.49995895974716326,1.8296368485787136,0.23894571240828255,1.4735640108016392
1400,-0.7124295257443505,0.7313404564049932,0.4878843815915193,-1.3064930547092917,-1.3308216143897944,0.1271495539383385
1410,-0.7136415043535113,0.7303672812101003,0.49313405156645024,0.6104466571611303,0.7324519843292797,0.9964089514047726
1420,-0.7170297262608608,0.7258655767793627,0.4787662117397498,1.1641488720911708,0.9789979866643932,0.9977205418950125
1430,-0.7090951168481108,0.7336339357926103,0.4927945698837679,-0.48761318250936314,-0.9115626277153731,-1.1304842844734235
1440,-0.7065542240285946,0.7340854552668648,0.4992984430920118,2.765765056174704,1.4465892162281044,0.5401145997896939
1450,-0.6973015503872491,0.7423515238131142,0.5057254049036419,-1.3095579645459607,-0.9650934005964532,-3.0334973920160127
1460,-0.718911306929933,0.7181223867514537,0.4863225579062201,-0.04000724132976491,0.7202127075336557,2.922959383016453
