time_ms,ax,ay,az,gx,gy,gz
0,-0.5763122800557846,0.5747659185718077,0.6780235144736846,0.37771743165523586,1.6561044243493173,0.534252216462002
10,-0.6025282850456966,0.5553684134969927,0.6507218858415893,-1.9937195602010538,-0.6508258897506275,-0.9004834553855234
20,-0.5728402450902993,0.5815948353258977,0.6766936294421569,-1.0737980872909423,0.6040147052727798,0.1476233493550818
30,-0.6091196073609655,0.5453765972244844,0.6405079655357735,-4.503765873020187,-2.7617969083496723,-3.4488633766991557
40,-0.5558494149596743,0.5962279330055751,0.6951996551255439,-1.775131283433585,-0.5648485030752313,-1.2710343127498802
50,-0.618869858044604,0.529361851922889,0.6317365190744689,-3.8174592992172336,-3.0753330116048443,-4.075212174166691
60,-0.5916579288402495,0.5571787239952557,0.6571625747221861,-0.5423253014583396,0.15146124788071452,-1.3306567025806186
70,-0.598683076421683,0.5523179074539267,0.650442623536458,0.8302852563459366,0.8817534725616893,0.07686418862239291
80,-0.57827828961801,0.5727380683263591,0.6664382336640315,0.060995546162520564,1.2862396502882105,0.3234813050136369
90,-0.5573061141213135,0.5932807530695835,0.6914016130739604,2.114941252941889,2.7261589496670915,1.9166342231502815
100,-0.579836771197469,0.5718342006133585,0.6736589476257134,1.4550389237645605,1.9512023230906101,0.6514983423273633
110,-0.5937405349741646,0.5570098736917549,0.6545406489591103,1.9106249172596945,2.1371057706597805,1.0768536747829685
120,-0.5966035046023033,0.5534168781269737,0.6497101940756671,3.519166310878033,3.7110905675608183,3.1499403161200727
130,-0.5838462256230721,0.564994737774052,0.6664740406867404,-0.5573503211455483,-0.07383262211164797,-0.3978153105436163
140,-0.6170561995200692,0.5282789293069002,0.6311145620991647,-0.21169589194238886,0.24606118673591937,0.04254215994477121
150,-0.5814488007330644,0.5674562089951459,0.6650916871044366,1.0670494558079393,0.9998876100667398,0.4644241512686451
160,-0.5798136868432855,0.572235027012254,0.6610599005309472,0.40386454649940695,0.5829615402488741,-0.6288184546927285
170,-0.5714804270791886,0.5804852016042993,0.6744449670444644,2.398783745489506,2.9371433018698516,1.3327402127635013
180,-0.5944079053091845,0.560309464188903,0.6557793994667929,2.333866345287299,3.0677842388168703,1.7310203205523136
190,-0.585985296808925,0.5663615995984488,0.6652419846851444,-3.4028423693071517,-2.653740781831177,-3.4816624834825087
200,-0.586465927932754,0.5655470917173219,0.6644753174706509,-0.1842768751077145,0.5583092306967922,0.0038383199125260337
210,-0.5827919195652242,0.5739887664425343,0.6691049461327003,-1.25901470414129,-0.23070464238592192,-0.6509849605783549
220,-0.5849079596512988,0.5694843843554459,0.6695797756640831,-2.5435927628437462,-0.4812231050633584,-0.3032070135840396
230,-0.5968276487321431,0.5643404205266372,0.6592442267294896,-3.8324225370558773,0.6395774360133372,1.4078758185940978
240,-0.6169501445207137,0.5457301436957138,0.6416270038531703,-7.271463636324267,-0.07513195184100918,1.4600996677057685
250,-0.6032359919090745,0.5472450985511812,0.64947326760196,-8.242891980714965,0.023978717060374355,2.156493939409959
260,-0.6189275638341166,0.5287629071143716,0.6319162607610602,-7.771230486413505,-0.619106193439349,2.053983882656717
270,-0.5707794361557681,0.5767733964519047,0.6834378332954235,-4.491471523440193,-0.8327642660913582,1.743522478078873
280,-0.5821437136114442,0.5610891772136056,0.6797755136811462,2.4785816131425547,-5.096569075880378,1.0922274306325883
290,-0.5906732900088817,0.548954418155896,0.6741702953076194,10.235375207491499,-13.508821757721567,1.0907442096531375
300,-0.5752236536820985,0.5678772953837151,0.6645152420370913,5.385263434058108,-15.636000538052329,-0.4846808586840174
310,-0.542765573376348,0.5632052657893463,0.6708846178681989,9.486670954931242,-12.451409961578019,0.9946701947234482
320,-0.5487568717071866,0.5758656779769448,0.682568606703237,8.006804151790512,-13.475650768930363,-1.5723822147715185
330,-0.5644980845547424,0.5845566159853576,0.662948804103855,8.485593483794734,-12.341415408078912,-1.9414255098031916
340,-0.5522733774097289,0.6101289201794933,0.6867827765549074,9.305774740606436,-9.574087917583286,-0.5408658256305308
350,-0.5919336561327756,0.5602616251460136,0.6626765403494359,8.721934773093306,-10.27674895721602,-1.7835336003080937
360,-0.5525798870276376,0.5832111368390569,0.6960767167526289,10.096970168372303,-10.543309821976408,-2.112777039959362
370,-0.5640217998647312,0.5797397334563822,0.6630213984404771,8.334676133796307,-10.283751553807294,-2.807081277589235
380,-0.5734167082103844,0.5686480695824782,0.6632715743417156,8.768308344096756,-6.999322456620323,-1.1058016856153343
390,-0.5632792131370418,0.5620452218049443,0.679415963317405,5.712666755967238,-6.899816314804997,-3.2109825587163083
400,-0.5614632281209664,0.5529820865668778,0.6754230923103347,4.464132818971402,-8.273335020721124,-6.285012532803471
410,-0.5635379012667079,0.5479452385533823,0.6730226709696269,6.208400606143615,-6.673910926831716,-6.278091943335056
420,-0.5287891954117846,0.5918452527521412,0.7046922204840398,6.491500907061772,-1.8161997046733416,-6.283117617996112
430,-0.5612362866843674,0.5804401977596411,0.6768818540728012,4.058004657119511,1.1350589473459758,-7.715575308387746
440,-0.5770917935667979,0.5849762900373329,0.6840654846875573,4.4721638181948595,2.960431595001351,-5.68930727109907
450,-0.5730017659255584,0.5891744426397058,0.7098530578786157,-0.685272962116269,-1.5672704917646925,-9.063898939442826
460,-0.5812827845644357,0.5817389242254288,0.681106798916619,-1.0579217314314242,-2.6080597898494355,-9.423427194633168
470,-0.5756086986048777,0.6006264809796862,0.7577146589916126,-1.3088977445268961,-6.371041422427092,-9.490940076054903
480,-0.5729758946414596,0.5935010498949169,0.7177765129248351,3.563214256544919,-5.763124439800439,-5.985239586405338
490,-0.5386420405634124,0.6084395557038055,0.7473505468130337,0.4315445778209095,-8.868652508681535,-3.376736005009083
500,-0.5685253134462739,0.6039006321327164,0.7218414806696114,-0.5377813993382543,-4.249622474460946,3.4315150022168464
510,-0.595398519222634,0.5859096803856773,0.6773341201081756,-11.978357788207854,-8.532374775269478,-1.2474764411581605
520,-0.5969686459003906,0.5266101492783135,0.654770376560064,-10.186380231107254,-3.68326290789622,7.563858608728998
530,-0.6021224669860277,0.6163800971525989,0.6098161486976412,-12.708709583964335,-8.442687719865244,7.301094748063331
540,-0.4808931250182021,0.5991309587264689,0.7517774899519274,-2.0757360209560582,-8.189779203942583,6.540009898450922
550,-0.5064396525128156,0.5660143148874439,0.7875674910973147,-8.389545801193204,-4.657960363867495,7.58960354303299
560,-0.47896192896720896,0.47693626705547465,0.8101749197713708,-16.464704137975225,-3.953175770673097,11.84926908212801
570,-0.5380389743503422,0.3392627541303641,0.7444828892977139,-33.41180783836038,-3.527497347873487,2.5614341026879446
580,-0.5533775501789585,0.32442960218824635,0.8513146377647042,-46.69925840796876,1.9384281060758333,0.8062139678857145
590,-0.5658040828436525,0.48086184094354606,0.8400679998471707,-35.102030841762264,10.520031060370435,14.48151826459568
600,-0.7102826934838563,0.7101478770626243,0.19584142585379596,3.6664560129370747,19.49524581781036,20.618458634467956
610,-0.6536378269833865,0.5439412458619101,0.3149297753077723,-15.32584074503142,25.68374051555161,15.94818771140546
620,-0.6012335820113331,0.6585658479199648,0.4581355803656924,-0.062495933048572705,30.636994163528993,23.278345199638636
630,-0.5592417333909377,0.6081079347781211,0.6482200839125749,3.037759485958631,14.944990878835073,14.604036421637593
640,-0.5227109201717011,0.5369922581631306,0.754966222998645,9.300430472392645,15.063383361968167,10.67024030172794
650,-0.5775862699778778,0.5136825677995629,0.7205210610181905,13.500384096768864,13.860731246085349,1.0769866758223725
660,-0.5733529152069451,0.5091140193197181,0.6559176722653168,16.883902658066457,19.792777008126915,-4.718805585460514
670,-0.5619249997926518,0.37849267448732565,0.5623562229783058,5.670857279921826,23.16629701664036,-6.808266163027005
680,-0.5869064614705987,0.47738709640401006,0.6598334835467308,-1.1541636017501142,10.833811440150896,7.612666066396296
690,-0.492312996673483,0.38009251416873163,0.5462703230682989,2.2572529529639347,18.53864918577534,-13.917258450611662
700,-0.5525720114538266,0.5915172272859149,0.600263813297812,11.54639283339001,12.650666927256252,-8.519769538053115
710,-0.5263526542464347,0.7555303426018771,0.6984617759897128,15.41334859744462,9.576703217123718,0.10004691140785371
720,-0.5326176046026508,0.778651723952298,0.6548483758834185,-1.9762947294401125,6.296284933943358,10.748053715789979
730,-0.5586088780406288,0.7032278534342503,0.6243473613365018,-11.39186413769588,3.2786232914880156,9.909111284348107
740,-0.5832151642626717,0.608095409075615,0.6578841633301914,-0.8993213874706187,5.1660251896117,2.3744599439267153
750,-0.5742901418272266,0.5934950748679074,0.6717318900467343,-1.2103624084628808,2.9827326362383766,-3.851949202592006
760,-0.5911396761059784,0.5679196468370857,0.645066114158988,2.209546778290924,1.9206140444179074,-3.9538210661546116
770,-0.6081740139422589,0.5467389415369286,0.6352094696675117,2.0007995960070484,0.7454134624354591,3.7630869731538645
780,-0.5571318943935387,0.60297004313569,0.6872990674931263,2.2424257728199515,1.2475553161906783,4.425218645149776
790,-0.5532578670684896,0.6104247485209924,0.6921182685360461,2.562361406965052,1.950250709077208,3.6020688044347464
800,-0.5959148148848713,0.5677647449153392,0.648156619664694,0.5006057960752289,0.0843726204998253,0.4731678819317976
810,-0.6107995617340234,0.5501148644655185,0.6325407242989133,-0.7950041147727974,-0.9462574272117811,-1.2837874663368223
820,-0.5879699907562848,0.571888842469715,0.6584455581846116,-1.1808080912360448,-0.9782659868083454,-1.5460030097913258
830,-0.6017950211560479,0.5631050041643777,0.6487656015523449,0.7988100477911112,0.9893627628634702,0.7323418665322663
840,-0.6176140944577704,0.5436917714823827,0.6316424468485324,-1.4526129192556485,-0.9661983694881178,-1.1723971554352102
850,-0.6065010518551829,0.5555044368974482,0.639972390393392,-2.2300796092961646,-2.7377011447624136,-2.9769281044353524
860,-0.5871761729101448,0.5767891896404903,0.6623605430099958,1.5087564704855896,0.7494104786603041,0.6227286576553467
870,-0.5760207516977844,0.5882305359855498,0.6753732848869235,0.44297389389742337,-0.48539962687768157,-0.550031670523883
880,-0.5981660469459076,0.5644992512743088,0.6509977824579312,0.8527185288328895,0.018916288455407382,-0.0318052215028819
890,-0.6124101619246192,0.5487253382556121,0.6322295914990184,0.3091222183150881,-0.3417646432547426,-0.4057996114820514
900,-0.5710077053661046,0.5908751038168878,0.6716348526901373,0.827570812370622,0.34091705933646743,0.2722473986785302
910,-0.6185183530442016,0.5460536204102977,0.6287078836450203,-2.0759766836302544,-1.561636589492842,-1.5136931862189225
920,-0.5687657012360235,0.5905249495373146,0.6814205202320158,-1.0328540429110098,-0.7987204880289998,-0.7708193288579204
930,-0.5551983010828851,0.6058251320738504,0.6943152151661993,1.1430849269064458,1.2566355053451415,1.307230019260768
940,-0.575881314329003,0.5823225712167444,0.6688364676821186,1.9908536845163503,1.6010146758623474,2.0067747410161902
950,-0.5951993084154731,0.5669343154624295,0.6516406983214862,0.6021996071950517,0.09855504806081439,0.9500909774542855
960,-0.5927477617578265,0.5726048384784813,0.6580592032080249,-1.5416572068724248,-1.8631282334746606,-1.135659116876631
970,-0.6097818765879627,0.5527339135324295,0.6385205958193527,1.6839451678825124,1.3706683145774794,1.6276040214694274
980,-0.6073788631314802,0.5532109744784034,0.6330621190276451,2.2231540488545347,1.642304773130275,2.0180259267751093
990,-0.5576030611469045,0.6021457530377388,0.6808986047612449,0.9814933390761027,0.47518501140356806,0.8715069142705243
1000,-0.588836846268012,0.5778401563737013,0.6586012115826343,1.9872778576151118,2.0281597470531016,2.51513894939283
1010,-0.5921646954448281,0.5696987984573697,0.6566300867322031,-0.4415943614575155,-0.44403180663345065,-0.2501152081894974
1020,-0.5743496034580997,0.5894044360167822,0.6760467670738562,1.1084281604855373,0.7338894495652643,0.946781295755503
1030,-0.616631280747681,0.5460913948649683,0.6314466311953001,1.5854348805842933,0.5704604017867471,1.0519147704510385
1040,-0.5745608839409317,0.5859223015359589,0.6712921528835522,-0.2699557918997003,-0.8340095331290127,-0.46017062491408145
1050,-0.5905145776153674,0.572632934556029,0.6579847702591397,-1.1939780150903934,-0.3162485394128879,-0.4936096073327778
1060,-0.6185133372491931,0.5460774897011009,0.631951164131371,2.5134188427559803,2.865903344894859,2.691856725063863
1070,-0.5799797910721484,0.5802247877513148,0.6691173616327342,-0.9784778471559357,-0.5218377078119638,-0.6727869468124562
1080,-0.5635422312799001,0.5988376390481678,0.6846664360290046,-0.2221794040375885,-0.45335822571902545,-0.5217303619724403
1090,-0.5803661143072043,0.5854923785432227,0.6675935721843443,0.45462709144719304,-0.699760758885471,-0.36016128366921785
1100,-0.5926313305501021,0.5725564729482003,0.651532183433421,2.3793565908535115,1.350711339299703,1.8629971231228786
1110,-0.5972396004667982,0.5668391365830677,0.6470751971787531,0.6956593276760312,0.3111570755261126,0.7472110069712173
1120,-0.5843241587676391,0.5799676089896714,0.6624416635036297,-1.3892827841029771,-1.2940014712418026,-1.1278934107468426
1130,-0.5757520280427417,0.5874526410597238,0.6683828057460331,-0.6414775030291725,-0.4567170996951902,-0.6426419054233232
1140,-0.5842979068545883,0.5764158020535696,0.6606980560948443,1.21963415465471,0.8402449055941885,0.7033235808439382
1150,-0.581213348291459,0.5872519575454708,0.6670740969189846,2.762432550932435,2.035421303013864,1.5856484715010142
1160,-0.5733572227305709,0.5881655646986149,0.6727937951659247,1.1208567079550433,-0.01463633561271066,0.139589461043372
1170,-0.5964661426404644,0.5673464865109596,0.6492946348493199,0.5499107391367035,-0.4671566825640663,-0.04837103792054853
1180,-0.586850378227925,0.5787970208301788,0.6593080921400276,-0.4268721323196022,-0.29961987975521365,-0.18934802622884273
1190,-0.5977466193711817,0.568403535913694,0.6493091768546985,0.5386042919699109,1.4525388541834279,1.2623563047286246
1200,-0.5874239512602815,0.5778501684099749,0.6588333480821714,-2.9212871977873505,-2.330003469880087,-2.4543091734333293
1210,-0.5665769679238647,0.5932785578678874,0.6753480978939411,-3.047682210881173,-2.689045844937274,-2.7387434081837037
1220,-0.5807946476487965,0.5858640040610867,0.6664547846316434,-0.2435523424642489,0.4031674043544187,0.291766966930442
