time_ms,ax,ay,az,gx,gy,gz
0,-0.7145261832035086,0.7708848795796703,0.6567321417745539,-9.454736564624913,1.2675570853449192,-8.624154391309709
10,-0.7299982372307394,0.7392262853236389,0.6362660832155117,-9.73561088878137,-2.089412555417165,-9.34481046134302
20,-0.7286115029304272,0.7325901036731155,0.6335605459274719,-1.298362404504497,1.1924357283492588,-0.20582967825383247
30,-0.7162353646195637,0.7598265961595443,0.6429222593364566,-0.5573495622641496,0.668545874153791,1.4384762776459672
40,-0.7462930707920713,0.7254540915273046,0.6121927809053876,-0.07088326142888612,-2.2669953470319717,-1.5698326281545951
50,-0.7222551246607146,0.7435009293625078,0.642696127004652,4.492265745101926,0.2712612218388304,1.3842837365826464
60,-0.7186454177434997,0.758128665450652,0.6506436075351658,7.136593672430329,0.5261201744769297,1.4482751337622795
70,-0.7360275427945476,0.7473653162166756,0.6359811648232897,4.226407262065567,0.6964570772327028,0.9002679013501562
80,-0.6992396370182804,0.7694706749452741,0.6668627145163232,1.126433631325591,-0.5934443081216555,1.1314008489239569
90,-0.7304132468777436,0.734137686928411,0.641772438453349,6.540590570457043,1.1282062759234317,4.560844940570554
100,-0.720301569382725,0.7507069458837639,0.6496438855822868,12.706377762527923,2.800302391541209,7.634572225640751
110,-0.7342287658476693,0.7493821165353196,0.6374343026394776,20.554013491281935,3.497085029573441,8.781089314602339
120,-0.7488524509123847,0.7375470256900918,0.6151690729734244,17.527302841149513,2.579016270807995,3.447700662307776
130,-0.7148217816110769,0.7849836339526196,0.6438846400004442,-0.12706031931154693,4.4515824045634,-17.849999329171393
140,-0.7293822626361438,0.7322635371824404,0.6286067187205782,-7.362385578994364,1.7279168460062915,-16.1667459088513
150,-0.7456399572845964,0.7125060943443106,0.6221778518484654,-5.242921873194814,-0.3617647609708645,-5.846988447747645
160,-0.7265156387634688,0.767884635885755,0.6451497971502056,-2.356929009670726,0.6198531034894199,-3.7482785730792556
170,-0.7050488915089032,0.8188722371963943,0.6832073713667072,-2.8184100781632115,2.638615048319817,-5.9226640338425955
180,-0.7156257136697812,0.7364913445097158,0.6522722501873558,5.798858585761805,0.6725146147449532,-11.769052849484474
190,-0.7327400465712207,0.7195740153056103,0.6440161782921403,9.956100685108128,-0.7722317464592785,-10.017851629638724
200,-0.725910413699142,0.7371170126840475,0.6476359246997595,16.20527132905066,1.4240496263242766,-2.80957934989593
210,-0.7118064692302062,0.7437365214812371,0.6526706831477861,23.36121694652464,1.2602638914396425,6.006726661919668
220,-0.739382485068636,0.7102899060044432,0.6059423643233003,21.320141938920813,-0.7267215401550073,8.461296472542049
230,-0.7048624639708254,0.7205329207653637,0.6698213890657775,18.636581947735408,-0.9793843576154991,-0.35519963962076917
240,-0.7248110867896864,0.7264482313299702,0.642738324540693,19.2225934726856,-4.740280531643008,-1.484612866718068
250,-0.6980266806811594,0.7991766022635971,0.6768871909219253,25.84002908088258,1.933470239773519,6.969019577753624
260,-0.7304214555300628,0.7553768666012145,0.679173191182351,32.615289647681024,-7.831906537453781,4.290083756001929
270,-0.7535944217051339,0.8689223513978714,0.5475374381159578,19.41753591372198,-11.453399189795974,2.5553908132754017
280,-0.7370009580077442,0.8590241605770128,0.6832167049405209,-46.80216350640409,-28.500068827423956,-19.68153846614602
290,-0.7357945753160322,0.8147029687527485,0.5746441948333648,-79.8427574947838,-31.60016784032811,-16.247451164068938
300,-0.6196840152150727,0.9101597301791166,0.2187447593091067,-62.778650667826454,-23.526969505469502,16.352424856031753
310,-0.7539791025835627,0.7843139782628766,0.7609355085401142,-98.70414717089787,-18.496048202252364,16.614585036322335
320,-0.8703388765387174,1.0448770740731201,0.4576933809469196,-49.329581239788304,-9.289506882768496,35.41393621386817
330,-0.8509713116656928,0.7092161571932997,0.5512493496257479,-99.52528040346132,6.653860736047133,26.651815728984523
340,-0.9760771438399779,0.4409225955119786,0.6760907184096767,-47.386089772097144,44.4808844834584,56.166913676698876
350,-0.9352388718537108,0.371979568058854,1.5135373010452269,17.219407791030427,51.99717314555947,67.37142827185588
360,-0.6314836677281807,0.2876212277246,1.0696626149277733,-18.1527166063507,37.00954323726544,39.81238261629865
370,-0.9045801846542016,0.5811438380815562,1.3123229431329706,5.628288410746672,31.159895133622445,26.71690941833469
380,-0.84331472742138,0.3934452313188753,0.9372483693530287,71.58935731342012,31.929102683726775,36.09547572252231
390,-0.5046744515063031,0.25389942642659286,0.2632214364390719,88.17469252961853,14.29871723100953,-35.28037493681568
400,-0.4368184338330288,0.9005335789489727,-0.0949506232326213,91.15039571791198,3.049734691568446,-37.48960983520408
410,-0.847844435259693,0.7186516606204681,0.6889696218869198,59.26339358738851,5.4776985468118715,-17.436159496678147
420,-0.5789236283710368,0.5757782191401238,0.44755249014474774,36.349454793648306,7.436907572779209,-35.95626572422066
430,-0.7398116592514559,0.859177228196125,0.28302680457787943,59.85337672610196,1.8379574810100956,-21.97399404958903
440,-0.7390144888403163,0.8097265428708686,0.6054245779124099,31.237227068683193,-0.01485557186300257,6.962459729623923
450,-0.7464503166138903,0.8353321764189455,0.5900715082273218,28.81669772253553,5.250509934684888,8.873982989598002
460,-0.7353867643473229,0.7932284729379161,0.583201777919021,17.68055031523648,4.748651237314463,5.529221843034219
470,-0.7342654300621851,0.8039895490222198,0.593632013860392,5.198408591556739,2.0726605232370487,3.314651102742788
480,-0.7195341657036547,0.7757913927417805,0.6047475547899123,2.4647519633687187,-0.7058315350746096,7.474365803776497
490,-0.7390480185696936,0.8038739999215851,0.5900934412951817,-11.168441592119938,-1.2178754160741332,12.744345651632369
500,-0.7480022456910159,0.8017965327176126,0.5830797682214119,-14.712867210480868,-3.8771428202150355,6.4882434729023535
510,-0.7163930220083798,0.8203611243938127,0.6001290128437055,-22.687899843888804,-7.396808344425358,-2.5872006822617104
520,-0.7371265595773845,0.7995992068886244,0.5960605376308453,-27.14848569803561,-7.673936649093223,-7.662486889420316
530,-0.7271696769003988,0.800711095102192,0.6181448637990403,-24.563162609346893,-6.091509349311284,-7.286669357214449
540,-0.7468856002685386,0.7608421922284598,0.576977978543135,-8.197826852841253,-2.0328519942821472,6.058946076856729
550,-0.7118407618020977,0.8081999206192172,0.6148015053851995,-2.096559073089582,-1.2246882306233116,12.02826336406815
560,-0.7048234623846065,0.8200822896524073,0.6228375033456577,-5.614438149304914,-1.965243142301098,7.97359408630424
570,-0.722168504163095,0.8168153804756296,0.6194428957400855,-5.048914040689267,0.6061007537296197,5.1042524861577965
580,-0.7520299398409471,0.7729824489462213,0.5817869334468886,-5.041023732609529,-0.6262091549114428,-0.7384695224883628
590,-0.7354202230714469,0.7835345911416559,0.5890955333926973,-0.5086950733848277,-0.9748870685893957,-3.2174090247782674
600,-0.7371099211572855,0.7816049455907508,0.5941944786196799,0.7617654597829213,-1.8572657591908468,-3.217604904367285
610,-0.7181143253055273,0.8004134788848675,0.623470963985526,2.9814315186289777,1.5573111800712467,3.0525271773842144
620,-0.7581854253763872,0.7651251269466933,0.5759412860820737,0.7507536963037591,-1.6157727506456796,1.8997944529827466
630,-0.7273732279283636,0.7986854414882543,0.59995077094146,-4.525019628917202,-4.258593139978711,-1.5727417970409585
640,-0.7131209507990945,0.8079585836665976,0.6194182554316827,-0.20816374463883802,1.6116185150333482,2.4532749207439584
650,-0.7421786142377809,0.7851902650784024,0.595243356102868,2.264847918872922,2.06841363182226,1.8927759673288573
660,-0.735687069743965,0.786320636843397,0.5991314108652842,-0.9511730586870966,-0.6805772632258331,-1.9192344203569829
670,-0.7266855648983215,0.794319116956288,0.6118919944040044,-4.128544585438358,-1.996991338690084,-3.8175871895996063
680,-0.7195479638510954,0.7978249862538753,0.6141726701509774,-2.631287271658243,-0.7637297979082662,-1.862121743146076
690,-0.7180265183475416,0.795319060756016,0.6193220424733055,-2.3908371537171176,-0.37749006627339854,-0.05039974885544649
700,-0.7275323964994623,0.7892944450617664,0.6110504496117378,0.7492032889992015,-2.5049682371709494,2.956152695318656
710,-0.738684557966573,0.7805416445317298,0.5893856275873586,5.843842289586226,0.9935472225721902,6.8377940633419305
720,-0.749711023067693,0.7806936393810217,0.5878114230668369,3.2431350185732875,-0.6154222984404678,3.013537439790672
730,-0.7396915994406364,0.7900879868674758,0.5981292478805184,1.780897162408524,-2.34485396103889,-2.0087847167281256
740,-0.6865013806789306,0.8452504014305724,0.6479593625969335,1.2210724181260786,-0.5757439295268145,-4.03699685190664
750,-0.7362960499829064,0.7798819655836676,0.5967000247446355,-3.163533408282218,1.6856884864254762,0.8196362386017135
760,-0.7129985049389093,0.8048667068003642,0.6246415965444622,-2.4488232861743424,2.1550218907272765,4.224675850604589
770,-0.7023363704909193,0.817139469269815,0.6343011029910917,-1.8735781650478867,-0.5395787706234854,4.210265182129074
780,-0.7017034872124562,0.816654897660209,0.631160816842174,-0.05394530327154318,-0.14494059155658728,4.509825038245168
790,-0.756283433323903,0.7579082645696112,0.5741454246976128,2.8245248732349992,1.9977082104331156,4.179580898385114
800,-0.7453633700781274,0.7780378994862294,0.5960453164267185,0.520484384978444,-0.05492730153070424,-1.0917604627372552
810,-0.7019311598678071,0.8181134959906498,0.6321225164367503,1.0899856410258753,0.5898977228063256,1.488209182516386
820,-0.7422407860679159,0.7775039818002623,0.5959205702355084,1.0430366896970211,-0.6237512414261847,2.3765479441023643
830,-0.7420078758514801,0.7809046860677348,0.5981653239297358,3.5979624667808006,0.30328157521409366,4.691945134921163
840,-0.7311190533624455,0.7928417265851752,0.6086864341356625,7.759565056943777,3.2919704379267793,8.480350209951364
850,-0.7158702594488716,0.8055716849327362,0.6185218075838957,-1.5241817211607662,-0.24056242919701865,-3.5435806693552276
860,-0.7325725348830394,0.7917840852970839,0.606778259352259,-1.0685764618051419,-0.7481669165146216,-3.8275467609693528
870,-0.7411170542295059,0.7779409646065067,0.5924416570333958,0.46132412443452137,-0.11210219722356099,-1.5970538707375166
880,-0.7228424640436318,0.7926752097193485,0.605353115600589,-2.9773991282744445,-1.7094297816599724,-2.2101392697179447
890,-0.7157277074990376,0.8029455066637701,0.6180171481621431,-2.2097736634557004,-0.8262855478701872,-0.844691196659632
900,-0.7183315665858998,0.8043913266848064,0.610758601042958,0.8529411487802863,0.08905333750341887,-0.5597426162008635
910,-0.7356897793161209,0.7802634889593714,0.5882667430947637,-0.05063607129804633,0.6006184128335595,-0.9305738173887773
920,-0.7644288644140579,0.7567204527775456,0.5740852575488677,-1.7008598308450105,1.63148797794867,-0.9486052414606767
930,-0.7383361698759148,0.7886196708456257,0.5968906063620731,0.07404797387843004,1.2685568982324764,-0.2218016677477888
940,-0.721655315196748,0.7967939623774459,0.6143360898935096,2.220759884044055,3.0165401451246376,3.501857030263964
950,-0.7138824945541524,0.8112628814616925,0.6261322160322186,-2.2375364412431944,-0.13229891115898118,0.625037201059195
960,-0.7126611591529306,0.8114398473831281,0.6192743131590989,-5.723813697072538,-2.6254195001968634,-3.472499647227954
970,-0.7647215211566616,0.749156849919094,0.5628701363492431,-6.417466909775174,-4.903816211465857,-6.414198591176624
980,-0.7443545856901653,0.7822326082045759,0.5898540358197739,3.5230733980040325,1.6424254014393407,-0.03376239736877862
990,-0.7086805488586564,0.8150989734221429,0.6305150821852402,0.7180641229775504,-2.06976607021982,-3.5169744377592123
1000,-0.7352595921483619,0.7843588616186589,0.6043223409004095,1.8434957478207652,1.3301311696182099,1.2893189520228527
1010,-0.7322675948981673,0.7868999264035861,0.6052171558167656,3.862341813812164,2.911114339711772,6.063523965292418
1020,-0.7520378028470727,0.7741745079511504,0.5860710039251631,5.549768796785522,2.042057331139446,5.8256525388278595
1030,-0.7458178416143976,0.7821153823893583,0.5861761155920447,5.999753904495482,2.0277679486770235,4.744878606088271
1040,-0.6987022185113234,0.8224202460327492,0.6276825019135727,-3.9496565541345703,-0.6383963640566861,-2.327915474866889
1050,-0.7276234159260526,0.7972220785080961,0.6131994741457436,-2.409717535233689,1.0908842018172538,-1.2727386968438774
1060,-0.723375221753513,0.7962772861990152,0.6087085531444354,1.3095690626860332,-0.16142511430425732,1.8228671264488052
1070,-0.7423958073851612,0.7836104839562086,0.5937660266173889,0.2217699630856277,-0.3530191971726971,1.4832124698558824
1080,-0.7459276938959629,0.7809061537712392,0.598039875608574,-0.5617731113373459,-0.4847167396588542,0.8301383733503488
1090,-0.7357517452840128,0.7846401910238696,0.5996631531676996,-0.45680979903041563,0.43056559809034217,1.9157377575095824
1100,-0.7526591143304291,0.7657364699606556,0.5819234935353997,0.6872816877163779,0.9178466212164468,2.124276808195359
1110,-0.732833629989142,0.7903663470992153,0.5937146735829492,0.9532623913869492,0.6649147762481159,0.9339137378734405
1120,-0.7237673339632528,0.8002105621759589,0.6088955011460977,0.6010684980140584,1.5286573977997437,0.74035260030247
1130,-0.7107245683624939,0.8088617995310712,0.6218704724456658,-1.345015934752876,-0.27478132577421444,-0.11521916708130507
1140,-0.7402813077037861,0.7807773716300811,0.5940527205393666,-4.966030018852582,-3.1120111249880145,-2.3039848141715114
1150,-0.7283534350392024,0.7985950005553571,0.6126041366877965,-3.658018057582477,-2.5150198162728743,-1.258507318175786
1160,-0.7219237812333265,0.8111972319945725,0.6200403525003748,-0.676078439844328,-1.3912153791740145,-1.3282593112853887
1170,-0.7309448152569531,0.7957498509436001,0.6070264738336478,-1.1653902857490044,-2.523961409704306,-3.1710883592309385
1180,-0.7310003836201289,0.7983051761261665,0.6047098297184283,1.7735640895739417,2.599994538172512,1.1992895626626847
1190,-0.694853331049279,0.8276051368268704,0.6426817573513087,-6.488861103485189,-2.5254920633156717,-5.0817532853139475
1200,-0.7409198921170954,0.7782369991392598,0.5961165418041382,-0.9900337323138755,0.3961124006761631,-0.0018427034753534244
1210,-0.6986881566112481,0.8258585656020522,0.6385911026847241,-1.6423983180635517,-0.7180248205834857,-0.2875662061213471
1220,-0.7486902982780379,0.7731687783872981,0.5843972619446006,0.19385851152371258,1.4345442328587052,0.8132423872623245
1230,-0.7315390607311257,0.7911358765991549,0.6038027230381299,-0.9299565745708946,-0.9502514315615841,-0.9713913269098358
1240,-0.7366584409629982,0.7886204500141032,0.5981428502498173,3.883523877915621,2.174894337421765,2.952099137023296
1250,-0.7414045882012718,0.7817160248710036,0.5928756554022211,2.695260197121035,1.1502136786244668,2.008319120568162
1260,-0.6981836622388575,0.8254916172115881,0.639079524452979,2.22129298780421,0.7778519716369677,1.6188300195528948
1270,-0.7308506589824226,0.793451210410724,0.605008788106332,2.444525672783393,1.402653240970209,1.993242876452699
1280,-0.7541977607454857,0.768896479846386,0.5861150857788443,0.5883478653785187,1.0860020753024406,1.0517801745245725
1290,-0.7566300702480305,0.769128718172932,0.5764192336379855,0.03830337398720052,1.138411438664766,1.2456302331051667
1300,-0.7566274357224926,0.7608921879353852,0.5746543156843736,-2.2184987094378963,-1.9040700531147938,-1.811602610932
1310,-0.7104434052018518,0.8084095316896095,0.6236833784110162,2.173482536266443,2.4312812652582294,1.88125092282006
1320,-0.7280490429570385,0.7952123012299305,0.610874228947579,1.5326160345780986,2.910043868784946,1.8020419517304653
1330,-0.7590116769039625,0.7619554469293182,0.5808977598315619,-1.1459962038544589,0.068305880495389,0.0955534855092598
1340,-0.7258893108561983,0.7911837759391359,0.6075337658802903,-2.282363103213708,-2.1949365757846406,-0.2718882120143622
1350,-0.7433162699292155,0.7785875271572751,0.5898459236388065,0.7009922969945106,-1.3242961013166452,0.8388993360931485
1360,-0.7127981381962528,0.8122175214607947,0.6224758312761609,2.8867025629437832,0.475090001474833,1.452053687954327
1370,-0.7485295906660965,0.7736111684333872,0.5901982406054084,-0.09943247142217322,0.204148780836788,-0.9513249590670441
1380,-0.7176357919062484,0.8036265724740951,0.6169364542816096,-0.8568074712411624,0.6244370712728095,0.237441494625618
1390,-0.7457705644298812,0.7728082308743626,0.5881636914597611,1.973945419318997,2.6997434843141894,3.8482406336326602
1400,-0.7455703718344568,0.7764195933233577,0.586223057890804,-0.6962510914560912,-0.06934090925435546,1.3291829193542917
1410,-0.7415312277160054,0.7842643303451052,0.5963414312012508,1.8997164882192097,3.0438992066165644,3.065540095361157
1420,-0.7452096606465026,0.7802053917091105,0.5941305451092418,0.18741391847877886,1.3080001067689824,0.08229702718950627
1430,-0.7241530316328677,0.7999021440855029,0.6147115688583401,-1.358620306942006,-0.6003461250505935,-2.0136044900556604
1440,-0.7212592706119577,0.7990326491085022,0.6144543467850492,-2.105969555597463,0.02477216574246971,-1.8983342332152267
1450,-0.7106681617932031,0.8080969611430847,0.6292251109763025,-3.337427262072853,-1.2816396516700064,-2.975212021801473
1460,-0.7146833341992876,0.8037150315273598,0.6199740765530367,0.4331264292768441,0.8837798294056377,0.547163821080791
1470,-0.7438271613076504,0.7676100754264669,0.5822976228058777,4.555184073992059,1.8241852294884198,3.3953210697060046
1480,-0.7465783538008735,0.7808240174711831,0.5899427036836352,3.213204466723999,3.995690642437195,3.5791244398259
1490,-0.6985714538260598,0.8322030562419239,0.6373867020200655,-0.5436984687649054,0.7011989846277313,-0.9929229680127303
1500,-0.7272841106776333,0.7940331512728247,0.6127299692660894,-1.7475255196026842,0.9923703792901959,-1.3647547559644522
1510,-0.6963845941043907,0.8283566996915854,0.6492671174813903,-2.176016346708678,0.5016064844315151,-0.5981431802371919
1520,-0.7373690388934445,0.7865639354714792,0.6023699752673145,3.7669301625309277,2.8944450471362995,4.570112927111212
1530,-0.7335049975203936,0.7944857928200555,0.6046601541852635,2.3311118439347847,2.0743099252234085,2.1073516315328833
