time_ms,ax,ay,az,gx,gy,gz
0,-0.755197217680594,0.45069333972137154,0.5608082587439276,0.7605331484436347,0.5867585013739173,0.6866163829199227
10,-0.784821672925686,0.42465166384248726,0.5286531634711954,-0.4308024068334195,-0.7348062044307306,0.2171621038921058
20,-0.7607848761723459,0.44498834382481034,0.5522047327298752,0.4772850303005888,0.7438022152733202,0.3987196085731744
30,-0.7564143615156511,0.45092628471447227,0.561140703844825,1.3602562706142138,1.5309603228012687,0.7506851642739587
40,-0.7211234993651269,0.48767093873489825,0.5938998530218945,1.1881471516777204,1.4215375054285788,0.18175166599985715
50,-0.7531046751678543,0.4562961286865356,0.5636534852372251,-0.18045035781282684,0.6492311157542736,-0.6598143400635588
60,-0.7508205472508959,0.4561136902888612,0.565755607149852,0.0017477241590529956,0.5494946135256198,0.032224821764200606
70,-0.7306738333240024,0.4747142966831869,0.5852902499010929,-1.9124670103862491,-1.750141220780941,-1.3483922127395884
80,-0.7775196237747627,0.4322672336350553,0.5404389922581428,0.15091746832291852,0.6488889339168131,0.8414376227301814
90,-0.7554919721362331,0.4557680151366425,0.5616361340850382,-0.0718642625090623,0.6669092898347536,-0.08666096136869128
100,-0.779068785850605,0.42401065214093414,0.5345832602541807,-1.5984894088775459,-1.154831289385679,-2.064991972542195
110,-0.7643494600293788,0.44131425013547404,0.5491229999487457,-1.8502620172279471,-2.030570679525976,-2.8464669018240665
120,-0.7401458839295323,0.463513853393586,0.5727550826096146,-0.8385264277698069,-1.1172306937610612,-1.3261185475010306
130,-0.7817482167303218,0.42658721127208243,0.5323581588652935,0.6461849564409103,-0.3129835653438884,0.5236511484113299
140,-0.7565769281059455,0.4466429402705713,0.5604650542014129,2.0639772126696654,-0.06263257384200405,2.703859987232617
150,-0.7526917309692515,0.461194814640156,0.5886534226455648,18.06624031287506,-1.8373462140248962,16.401042089359276
160,-0.7740596835669993,0.4231147060493574,0.5621965145625952,20.540284394274654,-8.49202588921788,14.959957576222955
170,-0.7947157430832139,0.3860105329973524,0.5880961883615823,27.35969993170667,-8.100972657164466,16.323845963143093
180,-0.8723476526877338,0.43486309051406685,0.5548849605433356,33.21015616282652,-3.3908729954432073,-18.693752233550157
190,-0.9102788439809317,0.4854772880621445,0.6846765924549655,40.29062411870568,-27.507670553089426,-23.304850850291466
200,-0.7954691545910032,0.44902949255780256,0.6106155370424438,39.75435040757769,-49.578589252910135,-11.421379498342008
210,-0.6244480393215526,0.4550938470758028,0.5689499257016108,35.790231637197714,-37.5322127820513,-14.690279476395954
220,-0.7162332777579031,0.40722846944424124,0.6783702032419885,38.12648243622844,-24.03287672516834,-18.190420635093915
230,-0.6855551327860965,0.4836478498929551,0.6721853430350223,42.76179219940573,-30.711381474244696,-17.699722797452218
240,-0.6496757562050317,0.4914425334950121,0.5569923907454759,44.33227231105261,-21.77068669971136,-19.135771702701188
250,-0.6595214541694695,0.5358040322173432,0.571615192257511,41.38098279569278,-9.148600711672184,-18.943781851036864
260,-0.6592453856937717,0.6716982961952973,0.6763587266563527,37.19307697798378,-3.2749643739997687,-15.263990411946848
270,-0.6306268980104672,0.6394655840319685,0.6284386122218306,34.84631854602502,0.7627806946580612,-14.345480940275847
280,-0.7030666832300745,0.5535543656948905,0.6521605784721464,26.462275304073252,15.60348394678052,-6.300210978069563
290,-0.6838875283717294,0.5297857271939616,0.6572875307746587,24.09822403200586,18.218349681266837,-6.393768270931519
300,-0.6596075188067028,0.5450098774901929,0.6374525746327246,21.65548484156476,22.133618297665638,-8.49298883418245
310,-0.6143107562526215,0.6334196371714691,0.586567814038357,18.229359055139877,-15.264059341754404,-11.340803213681365
320,-0.6215384600953867,0.6109347158232769,0.6810290427082158,11.022550016724074,-21.45040434025936,-7.287316531116006
330,-0.745754332821996,0.4954755474893302,0.6187545660541176,8.375504032582826,-3.7809067409305914,1.866399391235448
340,-0.7557423706614576,0.5932294836036842,0.6167160472075764,-7.560275240918159,0.16755782153293652,13.781349268426087
350,-0.8043175407686481,0.6095585451049145,0.654990496645572,-38.1261390696288,-4.387656508409949,21.515180313514804
360,-0.9494645161654368,0.45118308893964076,0.40850338226318617,-41.127015488914694,4.3279280324595755,25.43469806870157
370,-0.7803583068429084,0.6043107484789982,0.4597775380028969,-44.79647430346167,24.50219777698645,31.09019480336044
380,-0.8769062715839232,-0.15536635072968724,0.985001017161546,-76.63582706129614,28.43424937647972,38.90381127611338
390,-0.8748810843398009,-0.05190243235009441,0.5256973586651856,-99.65441526577595,18.332206203062995,31.44150568218947
400,-0.799682379281422,-0.5325697937476196,0.6773088345130431,-75.10787572588897,20.228349839939465,19.443811149972223
410,-0.7200111869516896,-0.13714074121842143,0.695575328172875,-6.214799890291077,39.88540638013711,26.97782534275098
420,-0.8098232738505597,0.3186477314895754,0.5671125708793352,10.798437373432138,54.43653192831741,37.1863028542687
430,-0.7157004163682111,0.41460467122512085,0.18016725296411093,33.5731351183663,45.8157596877418,29.825000225470742
440,-0.7762048660252637,0.5213371652611566,0.45040241865711445,43.7695957911867,38.20882603842923,14.378479003723408
450,-0.7935042722354271,0.3652805862423133,0.4413239267915889,36.178064776221014,35.49721823051582,7.967718876187229
460,-0.792482573565679,0.31253398585301223,0.37043625787608137,33.3288135816438,23.146144388964125,8.35927287753467
470,-0.7460098778731128,0.4110464624343898,0.6869409143094763,42.907395868903876,5.286074306228719,-2.424918239994803
480,-0.7958476176862044,0.47877835205989244,0.7804499353524983,43.549721852324815,-1.9079741891472364,-12.21920680910407
490,-0.8329847780011784,0.7030907198498274,0.5405067287100281,11.930166191588297,-10.686533487267441,-12.564112176578519
500,-0.7149977548915976,0.5013298518281355,0.39380658084795345,1.9757465255760491,-12.353595968334862,-13.147826343538652
510,-0.8407078591668431,0.9670977609119071,0.3464790856196747,42.382066022319066,-5.72480522773971,-4.235617209048518
520,-0.7350106115517796,0.15937392358919758,0.5369921370865743,-9.476850701448434,-5.617325584126341,-15.139981126519396
530,-0.7695793525373223,0.6278744614021904,0.5206158944462542,13.395365331075206,6.28381636635355,4.398047244429567
540,-0.7845544934385187,0.5423787181576106,0.5203306046322722,-3.3086397604005198,1.5355190116271995,0.20562033052738649
550,-0.7824658567697965,0.5362495050426258,0.5295794002320201,-2.7019693846745167,3.5914445917735756,1.6399419253863858
560,-0.763499998079497,0.5532532568043392,0.5412392722044801,-2.027975611966439,3.716009146510976,1.7971615985135487
570,-0.7564998411783561,0.5626070838246615,0.5490981297576506,-1.3019088728101536,3.685630725201956,-0.6839500981487323
580,-0.7661378898254259,0.5568903841946681,0.5401446034684724,-0.1873188251747161,5.515679633006896,-2.0507740182587453
590,-0.7889457085190645,0.5393140949660546,0.5187150083134402,0.9680159130622169,9.361328403970283,-1.956736324048388
600,-0.7836720402313931,0.5407764165207017,0.5234731154660865,-3.6787412388786276,8.775564638847044,-5.086125530882481
610,-0.7708670889516616,0.5416085549155807,0.532102470190876,-7.799194298948137,7.890984354320986,-5.945800605869334
620,-0.7623202126437877,0.5489472723283073,0.5397326089969369,-8.826616826202102,7.638177118689979,-5.54129662186659
630,-0.7859840737197885,0.5318231127946899,0.5127679225868822,-7.92932060025057,8.648253418477616,-4.19568114413519
640,-0.7689241010851001,0.5342831598780433,0.5095437942729629,-7.538282576293389,8.552346649727143,-3.7046599341563224
650,-0.7379154602794703,0.4933574452261271,0.4920333576933232,-4.528023391511392,8.173861102918444,-2.7038685350796667
660,-0.76858369241699,0.47518166860991556,0.47541387703486826,-11.640054274167612,4.111550774997712,-3.9999877239900137
670,-0.7869362106841112,0.5132986524680772,0.4981473251632264,-17.76009492694576,1.0432338129347067,13.659885162265248
680,-0.7680191907632411,0.545080568837718,0.5163451772181602,-20.699764384102696,1.128666910201808,15.805200237850292
690,-0.7617647276934691,0.5666270623107429,0.5284904150795118,-21.50119992756413,5.896706451343279,16.963819823669695
700,-0.7911280861691957,0.544656149850329,0.5032457573570565,-26.061602844619078,7.8002725253164655,12.557326820030639
710,-0.8022326441148138,0.5290198409664321,0.4882594739130598,-32.801343481116405,4.920473959932957,5.389571392544159
720,-0.7674498741831356,0.5523761594570896,0.5159528115805445,-26.951003017134358,7.886875306944794,8.324203109075704
730,-0.7884733383047862,0.5328647509379764,0.49383544673258783,-23.26824549963658,5.139939516500064,7.172842035599846
740,-0.8105864053395124,0.5238608298495001,0.4728038176199646,-22.719759457420544,3.3493273950742326,5.972181048792759
750,-0.7806070995171864,0.5537492256762563,0.4994905415899835,-22.983269003170996,5.868286049476271,9.161708070909937
760,-0.7922383097867708,0.5307366079620877,0.48741860067757037,-27.451041781249593,2.3246219940952604,8.566947164831836
770,-0.8023948179454903,0.5190039804466318,0.47383662428584794,-27.602984442805887,-1.7249632594384479,9.11214622844091
780,-0.8054135046346752,0.5216044056542068,0.47559803127481554,-24.74839044768751,-3.0165986316740554,10.016806809016659
790,-0.7911869548093445,0.5200181860677757,0.46626126802024637,-16.300252915839337,-0.09268262997034382,13.191046002115336
800,-0.7663346993410126,0.5646175188708074,0.5173902025606408,-6.561331613309739,-11.472934453707548,4.3405847633020676
810,-0.7834499531263321,0.5506730437458802,0.49815652401045896,-7.00663087897785,-15.161163569027323,-0.16972794796347213
820,-0.7933909985158145,0.5335606626320961,0.4898824694833949,-6.782225107622728,-17.05946030496303,-0.8871290685637401
830,-0.801331223779551,0.522801775755586,0.48925619654073105,-7.299976170824372,-21.87757434292784,-1.5788689817721653
840,-0.7929251284247528,0.5284640987123224,0.5012643901934288,-4.264764180652032,-23.480140511858362,0.3408651194380449
850,-0.7926027690235447,0.5282470421327404,0.503500318156381,-3.78605279691373,-25.46551739438744,-0.011121826811877344
860,-0.779368696077973,0.548323320425578,0.525321837592858,-5.618693130671296,-24.008261488458764,-6.675509234222005
870,-0.7374444594363738,0.5891344931956793,0.5717285568019961,-6.791119425653072,-16.997813665862466,-15.131845103710198
880,-0.7467572304265102,0.5569336602400337,0.5582401039624226,-10.994748224946008,-15.274564361161266,-23.028989488960743
890,-0.7535557883277321,0.5260897001693755,0.5601545955915422,-8.420367736254452,-13.266766646454755,-23.24727304969077
900,-0.7469748047163137,0.5234097388727281,0.5729526071017446,-4.2121807813597325,-10.941398671839258,-19.2142065129537
910,-0.7477461268436879,0.5164684328712857,0.5701591483521743,-3.2509677130586807,-10.646901534948444,-16.793784836450143
920,-0.7457511731594224,0.5151745835335152,0.578267028494955,-1.21435554136629,-7.703097772205539,-12.53139275709792
930,-0.7666631421007185,0.49258656649227156,0.5479623119190606,1.3068747637653564,-0.1420004955977618,-1.1555034943156692
940,-0.7587201014071759,0.49970083600182685,0.5618170239833058,1.9119456695460615,-0.18197288874274342,1.7897035134834582
950,-0.7496125816964083,0.5208131742169216,0.5719339885742649,3.181981188253971,1.0627012092218164,4.452737027810939
960,-0.75719993417613,0.5190205341503873,0.5605442276576178,2.554571677929182,1.2437929770097087,4.0399439143519595
970,-0.7551162161376723,0.5246061775314179,0.5630880623823378,2.1772710514941913,2.485996840160774,3.4298510538102085
980,-0.7632039321928327,0.5170574436354776,0.5534137953591511,1.9211275903613887,2.8252911746179836,2.451553724643661
990,-0.7760366195469118,0.5017477513908525,0.5396696587240547,-4.66728302356543,-3.7017538146323936,-4.488201395583836
1000,-0.7685016573898752,0.5073391927588055,0.5494480614351676,-4.797245386163477,-3.4316896455479253,-4.489179453768203
1010,-0.73890042561528,0.534966479540355,0.5815212156156784,-6.551789079062452,-4.413350150502746,-6.374808341233913
1020,-0.7671480995405615,0.5001229120557007,0.5557582203024387,-9.792772555717544,-6.378056630067332,-9.756835476270613
1030,-0.7678420135764289,0.49050664859066306,0.5508310188860661,-7.328276273245297,-4.0604971353987604,-7.663884835254759
1040,-0.7924759694014796,0.4640178944451316,0.532843088211325,-7.878588929403805,-5.0261109430354765,-8.436855492268084
1050,-0.7305339619195115,0.5190248715560247,0.5926887190086234,-5.700384819540767,-3.328351669003646,-6.883754792466277
1060,-0.7393407148297415,0.5165085771672238,0.5839393119227134,-3.9007688822221267,-0.602713973144329,-4.9023833871980695
1070,-0.7781573385539208,0.4715076791785907,0.5411774423765213,-7.734006902515833,-1.596294921647498,-7.813538091188721
1080,-0.7550541918181803,0.4955742238413015,0.567135037103993,-7.917870690536425,1.2743968090554332,-6.58665302982895
1090,-0.7397088133796432,0.5040343531485352,0.5841228317579162,-9.852389087217238,-0.860572389008319,-8.633442081903942
1100,-0.7382562827065153,0.4980522442749472,0.58487182516438,-6.207154499103622,0.7769861820153968,-4.86701589340241
1110,-0.7361163009294407,0.49603015253237454,0.5838464482663467,-6.108542209173318,-1.6051686425015497,-4.247736678489382
1120,-0.7466071968401338,0.488050981022742,0.5755459067306867,-3.0374524113828403,-1.1190959403923686,-1.2172813762282604
1130,-0.7332427781243266,0.5060962409507724,0.5951001673266952,1.1331593811955343,1.5445839168044613,2.0314614400175603
1140,-0.7382495488799459,0.5004005057794988,0.5893902092428085,2.1835167500754986,2.590845972376423,1.7397894643719878
1150,-0.7293292044836194,0.5060891713020936,0.5914168405670663,0.678585878772574,1.065258358361994,-0.8949849672842266
1160,-0.7193859248406392,0.5138220335871335,0.5982823207658374,-0.8034536545532445,-0.833869238189554,-2.89537465834567
1170,-0.7619533515794003,0.46989744371544295,0.5557240878845484,4.07813788378309,3.0014032359079916,1.7800646431781542
1180,-0.7932605565001862,0.45349127124547234,0.5262850225141488,-3.597250135245303,-2.442280138603351,-4.438647116010545
1190,-0.7483939495486044,0.4879192849767108,0.5651670763731829,-5.50444738206482,-4.011936808059397,-6.051331419042887
1200,-0.7529249414073774,0.4755137680443058,0.569071690767876,-3.3848642042782497,-3.2126974903291026,-5.002549803865514
1210,-0.7614288282331698,0.468777601841955,0.5590318915186819,-2.8729245829445684,-3.1084069456630656,-5.555611862821308
1220,-0.7552210405992911,0.471524948188863,0.5653175995520858,0.7342205898936621,0.4087731892767842,-2.58290204183303
1230,-0.7493126624985728,0.4808042425931079,0.5771820688101154,1.6668219542014402,0.5210767512051446,-1.7520577226722618
1240,-0.7432417827458127,0.48914826571133635,0.5829060347861821,0.7879632052548429,-0.16138992537011237,-1.9710545489727218
1250,-0.7418504058228002,0.48839932985324985,0.5786556013336528,0.20382044349939116,0.18462698922517484,-1.9323106116872337
1260,-0.7520606180988709,0.47643998413185007,0.5671200959452674,3.312562739090789,3.574015388499079,1.2156237972118729
1270,-0.7379331034471819,0.4863934574851134,0.5826461720891863,-2.3628958032665923,-3.0426017075157192,-4.79664999955062
1280,-0.7941905393932678,0.42348931028340536,0.5235996199299404,-1.516310785072042,-3.411701831252877,-4.334660152436092
1290,-0.7585574337642527,0.4650650314682773,0.5571418412666282,1.6281572304505922,0.47513507867228333,-1.1576745348068358
1300,-0.7232496035448397,0.502930455895209,0.5911749537542312,0.3138352139854221,-0.5621421779276815,-2.409285393191862
1310,-0.7610373028672828,0.45917850431044177,0.5573854247189376,-1.075880076214765,-2.4740191537671032,-3.393009084823019
1320,-0.7288117249031663,0.49459867613356606,0.5927160279127457,-0.4749221037161342,-2.2822351934060987,-0.2908938400889338
1330,-0.7724782768557056,0.44760211145390727,0.5479189284665059,0.49337811478108606,-0.5670449308920543,0.720276667757028
1340,-0.7417513839393917,0.4792310944456916,0.5773796859951139,1.4667955943012578,-0.07347570619401222,1.1849294349739243
1350,-0.7617290389634159,0.4670155080428146,0.5593742970267283,2.2521915654045643,1.1387345414902386,1.586990267201285
1360,-0.7559259990084728,0.4705055071749813,0.5639816657734196,0.23610592301950262,-0.44882391833941837,-0.6548918016380686
1370,-0.7277929802926559,0.4981811880192244,0.5914099963445849,1.2009628158654895,0.07894679092393125,0.1303571941731776
1380,-0.7384463729046586,0.48589929320789765,0.5810660636417005,2.761407024241474,0.651462087280435,1.7701060138062985
1390,-0.7490192673385346,0.4759383594138055,0.5723269135930709,0.0007048301163687931,-2.244187546016785,-0.8410395791543489
1400,-0.7384517573666519,0.49035175604693704,0.5832642829086713,2.24713604921321,1.5268537547879548,1.5411634011098727
1410,-0.7429724901815652,0.4825000847330821,0.5755909881253279,-0.17307661206088842,1.2966515432906318,-0.4986170881375971
1420,-0.7402309025081754,0.48527158513411756,0.5814936612394993,-2.892085517744757,-0.03173764864122094,-2.830019171774889
1430,-0.7684045887975347,0.45092850212794394,0.5530338603436764,-3.493214930117332,-0.4325859232067041,-2.5348773060268632
1440,-0.7469273171926978,0.47492499475897276,0.575909391921142,0.3759918574768847,1.7843771328950204,1.527557297927121
1450,-0.733563121958841,0.49550035853838587,0.5803683760434681,-0.3315971030858918,0.45553947132077555,-0.34054184176200575
1460,-0.7742711061015829,0.4598449015287699,0.5430296707476324,-4.426566570234505,-3.0307264459143965,-5.7848827142223325
1470,-0.7478702146686497,0.47892786537400106,0.5711413988139828,0.365327318789086,2.1884898962028885,-1.3910777974571478
1480,-0.7600385521700556,0.45830933582678646,0.5533253689282616,0.46144490406052197,1.9880420588405254,-1.1614171683945638
1490,-0.7267311530568261,0.4945797716883841,0.593586303485322,-4.721931745420141,-2.7032442006329185,-5.688833492418402
1500,-0.7388443862811646,0.4784820523102468,0.5829290186123026,-2.5746918093586215,-1.503144193340581,-3.3749562428433535
1510,-0.7467016726864842,0.4694150678961609,0.5717181582883737,-1.790069202278083,-1.0321492106243557,-3.2272846392596333
1520,-0.7595474945162546,0.46152560842894375,0.5566215510669112,-3.719475643424426,-1.963043998442814,-5.518973448863282
1530,-0.7629563715228803,0.45838242487655023,0.5517864605136299,0.17111409575445546,1.8375666622935027,-1.6018717924734003
1540,-0.7578079421307381,0.46008529414659216,0.5578445880264763,-0.4175629726878306,0.019241250660110842,-2.3176056194709242
1550,-0.721172178180615,0.494024717185195,0.5941816733254056,0.37636807243759707,0.5186563063752039,-0.7337337220721101
1560,-0.7508724105994482,0.4618250467948969,0.561906701783939,1.2931912210387548,1.4585056066796587,0.8736661910112653
1570,-0.744608903349064,0.463988528220238,0.5724844401321459,-0.3448193261198248,0.920089010676284,-0.6382141871703205
1580,-0.7770468026744457,0.43917620893111314,0.5492807081631644,-0.6998266273682495,-0.7394711709220305,-2.3628082676275666
1590,-0.7600660601076538,0.4574725339498719,0.5574204343973836,2.6792267643445737,2.575475298461513,1.1764261343634201
1600,-0.7447590662195639,0.4707370966085847,0.5707455800238007,-1.4756022202465087,-1.1767116258447512,-2.064431586268249
1610,-0.762140855761533,0.4513874042730244,0.5552806924222955,1.8761798311828275,1.2062280546386097,1.7730307507372682
1620,-0.7458747774749492,0.47051582557580407,0.5723182179202746,-1.2259280374683597,-1.9192017097559921,-0.5627317912756085
1630,-0.7619522957631921,0.45459281990423167,0.5544836164103657,1.2459868691472447,0.5282464040306478,1.9255638214073287
1640,-0.7552648516912974,0.46153262000921147,0.5643256616304213,-1.665604957718726,-2.0563987701874926,-1.6490186146039925
1650,-0.7295510520403494,0.490378339344305,0.5951416163005591,-0.9580633218000003,-0.6810301240562809,-1.432045724690176
1660,-0.7522378958523314,0.46747996748987675,0.5726559087654749,-0.42585038433685696,0.21596923361491271,-0.8349416535361813
1670,-0.7524794529721615,0.4628058276056876,0.5676278524078574,0.8865673134888035,1.9154371984732985,0.9732771499391732
1680,-0.7686656757459315,0.44676272488459373,0.5444994540454832,-3.6712942285909316,-2.070922014804534,-3.0768530161175476
1690,-0.7274044195467086,0.48644731295685034,0.589093791078998,-1.119781511486793,-0.034558945222991466,-0.6550029164558429
1700,-0.7376163559373239,0.4758371964411708,0.5840764625612492,1.3500331186190255,0.8546317074536443,1.8817108505113485
1710,-0.7542310650367968,0.4614225098222629,0.5654506867627337,0.8060875754400126,1.244900968785109,2.5635527003760505
1720,-0.7370012233473848,0.473919288481693,0.5775108442523011,-1.3650347582195772,-0.3120956360465994,-0.07004659120990375
1730,-0.7481030442905672,0.46970862381295503,0.5765112365248346,-0.2927728964162667,0.8764896412109545,0.34509731639653474
1740,-0.7596666995732556,0.4565976326508121,0.5567527831301222,0.9295280966928499,2.634858006184139,1.3391467246184652
1750,-0.7507886347960304,0.46717849818083745,0.5649758003580462,-1.4299165309523625,-0.20612935924289455,-1.4805751864407486
1760,-0.7541547717809414,0.45976658116281227,0.5676394945064409,-0.2857062683435536,-0.21304855196831812,-0.9091932182146991
1770,-0.7531440564313046,0.4604627936133477,0.5700313080316975,-0.5449122635354446,-0.6886695503213461,-1.1458830394559643
1780,-0.7766697097386527,0.4407250951733958,0.5455749753758388,1.5829393282097406,1.6948250608778805,0.9040287901678133
1790,-0.788792919232775,0.42805420143729156,0.5318119456250414,0.34888906082527094,0.3843193341457883,-0.8235267239179844
1800,-0.7459119851383154,0.470040416381429,0.5719505603792222,1.5104878248750084,1.4272606832207537,0.08922668293697877
1810,-0.7727708712097182,0.4472481039739282,0.5492304486818413,0.6215895630991897,0.3452173069478993,-0.8877115806562841
1820,-0.7397965745924204,0.4791734445152397,0.5844241910269218,0.6336970305580217,0.6311120528399807,-0.32191152159899217
1830,-0.7653385495313142,0.44866260871219926,0.5578400592794667,-1.3375261034083596,-1.2337011801069975,-1.7460156722620463
1840,-0.7500597279901398,0.4648291205317807,0.5671616911627476,2.0572175242223096,1.671486662855763,1.4008719558245666
1850,-0.7438819789065515,0.4734530238767018,0.5777103118874755,-0.969906662448599,-0.9048111276011294,-1.670078089332771
1860,-0.7596173973335805,0.4563183278691145,0.5595675530919128,0.013720727440988276,0.005314431503157427,-0.7086378188729962
1870,-0.7532508625778577,0.4601247490652017,0.5642583942513002,1.1422198563510442,1.6823685620027098,1.1028398423388388
1880,-0.7312904356190394,0.4834266370653996,0.5887130913476053,-0.5093131122311776,-0.933845551640959,-0.6438117531734792
1890,-0.7562688489387089,0.45564689122063295,0.5600795005341005,-1.5160701563091938,-2.516906684772821,-2.2198721145255513
1900,-0.7299829419979501,0.48182255672983637,0.5817352363343661,1.7422719135915203,1.0328092135735685,0.4744648113998298
1910,-0.7490011479375682,0.4688401439368555,0.5675441796967142,1.0581087514779444,0.8249878643496189,-0.43738166454715205
1920,-0.7519887850330663,0.46684916196789106,0.5700227470162574,-0.5470211935250012,-0.7050785051462227,-1.7124840133448775
1930,-0.7711106487660235,0.44230129212971725,0.547544717453455,1.0465498140838918,0.6986170010584661,0.42639389607156397
1940,-0.76847481633443,0.4479460123573442,0.5505021537305446,-1.6276413177832894,-1.7247599599049295,-1.9918611176972996
1950,-0.7568349657989117,0.46246098256783946,0.5658381901694773,-1.2940990326648223,-0.9907323092803257,-1.351348308667407
1960,-0.7486112334365727,0.4620963498664567,0.5683413724459581,-1.160192611073016,-0.8858652705203854,-1.7355344040103473
1970,-0.7439665124663019,0.4664547971363912,0.5684568014314404,0.23786493770756834,-0.9078969721143841,-0.0934349644890855
