time_ms,ax,ay,az,gx,gy,gz
0,-0.6521074502655945,0.5945218863641971,0.539259774857457,-1.9602187482821751,-0.9847109020745769,-1.9563947848900125
10,-0.649558147702724,0.6007371227746601,0.5461026103912,-2.7117999963860324,-1.599932348086013,-2.106254526898104
20,-0.678077354001285,0.5701958756740698,0.517209873710634,-4.347135171085898,-2.89270078896063,-3.5607424410459574
30,-0.6543110524264604,0.5951951253608262,0.5417697436066834,1.0224787888580995,2.3002138357964506,1.6659975300487395
40,-0.6302038776383166,0.6165854300529231,0.5613963104887273,-0.2937327600811065,0.722084194160838,-0.31029508243546744
50,-0.6650567416067978,0.5791186861852903,0.5274528370333365,-0.9482199899837046,-0.2141271836248744,-1.6861015351071051
60,-0.6191263893358495,0.6273031122623405,0.5754916252992145,-0.8280268417150625,0.2332441610092486,-0.6639401211903009
70,-0.6384769001926928,0.6078764225014222,0.5537693954569118,2.9540117620836135,4.084233187844594,3.54296242972504
80,-0.6541460201866273,0.5971349871002152,0.5475222413699584,-2.190569147714753,-1.2342264987892955,-1.793780845588921
90,-0.6220965196370573,0.6278710163104717,0.5783266917135196,-1.6594615722820079,-1.0907976003121584,-1.6091497689321057
100,-0.6323039142607569,0.6137453523985635,0.5660043436359915,1.1874620043799708,1.8987896236222688,0.8136740337227121
110,-0.6400524434261055,0.6053003472923856,0.5544883415029568,-0.47123201313064644,-0.21090722045798607,-1.1994221482006406
120,-0.6659231193277376,0.5792749910920197,0.528559541766199,2.1762661789064826,2.277379049228537,1.4617338087030167
130,-0.6413845564073545,0.6077772793191192,0.5556194794668303,0.34134841630612556,0.3982412042562896,0.2136888542459883
140,-0.6841032309610059,0.5633627785004712,0.5112014186463656,-0.7056016056837684,-0.11399956096034951,0.08013700408063991
150,-0.625804920826316,0.6217752774162053,0.572225654560741,0.978970688411968,1.6830366768337182,1.4000487225765736
160,-0.633294934149635,0.6128405610763383,0.5632588111980322,-3.36355659716431,-2.660565108119591,-3.3085890511762326
170,-0.6490373035402405,0.5947064173837748,0.5468506399083957,-0.818965671686657,-0.058214446052402335,-0.9176500418780824
180,-0.6389103139086759,0.6074506790701304,0.5626132307897517,-2.528207891281441,-2.074327504168477,-2.9136789425178424
190,-0.6916329173046798,0.556927752049717,0.5106203257343579,-0.3966069649008296,-0.22725102220543292,-0.8197422038294929
200,-0.6809493455722189,0.5597468415007153,0.5201129962359505,-5.23198844002585,1.4174509720643806,2.753872612626614
210,-0.6311035142463711,0.6025556483337632,0.5624765705024678,-9.691877912449595,-0.8123131354347266,2.7357876132707957
220,-0.6376288652616641,0.5926309587490692,0.5735255031565398,-6.977487905124383,-2.455512463867388,2.701391120550136
230,-0.6466936745921364,0.5310401016971416,0.6408176932057913,-5.448091548882838,-15.01168083473468,-5.83112980248933
240,-0.6969224961088931,0.5361990822151192,0.6481690582229415,3.202729841167222,-27.15762409523705,-6.279150723368644
250,-0.6756749633200677,0.6338152248227285,0.6359481260435179,16.884046517674772,-32.601940912413966,5.297222763807336
260,-0.6533811911130246,0.5865054768516014,0.5673208607691925,18.572373679456536,-37.243554618266586,5.570752766388186
270,-0.6089685159641787,0.5768789128789306,0.5530414927069369,18.45492377451327,-31.834760631944036,2.2267877398209492
280,-0.5850332084510421,0.6162276210300298,0.5629697172338195,14.68844571746117,-29.14009341018316,-5.259033455815082
290,-0.5698195107950697,0.6403369203864707,0.5660503810815267,13.825374888266161,-21.60214928919592,-7.828747955943856
300,-0.5850208168019356,0.6207920252128865,0.5497398118153518,8.733596586839798,-17.027059955626285,-12.912248493708667
310,-0.5958093329224667,0.6077548467082375,0.5468682308548699,3.4919179450763087,-11.255433738087156,-17.439467486376696
320,-0.5849639257742622,0.6226492097311974,0.5841642178859513,0.3213733743417141,-2.0948949819696607,-22.264649033216823
330,-0.6187162858890043,0.6063673233569594,0.5810008063124241,0.17476155001859017,9.249208010726152,-24.790046581430328
340,-0.6283968390310559,0.6082316678032618,0.5830799794865968,-4.862570817799221,9.17270569512573,-25.153750218291783
350,-0.6281183816539674,0.633420247008596,0.6289883811020553,-9.175118685677177,8.643493402705452,-23.929340738064493
360,-0.7392339470793565,0.5957014417228507,0.653981496281305,-8.818891126384049,-0.9474895487589101,-21.94637898289218
370,-0.7852809649312261,0.5386263386075221,0.6313104480630765,-0.8039524632696888,-13.141869841757334,-16.834130262356652
380,-0.6996045889236421,0.5462003155174024,0.5486193333446027,-8.46237270687335,-6.842429898482262,-11.133799332504
390,-0.64212642129317,0.606893379693163,0.6100388502263003,-17.00312763740755,-9.18765490499986,-1.4106080849224938
400,-0.6047287411329583,0.7549843874563799,0.6387288377432604,-2.9994117074864937,-8.037489808273772,10.402077068599562
410,-0.5459010153758239,0.8322989377224257,0.6300940875041956,4.583095913384486,-9.706142652469062,13.470191189255406
420,-0.7231735367566174,0.6722598573563334,0.4625961633703212,-25.111181242374737,-8.8805232663821,6.850872273246178
430,-0.7286034010720771,0.6901851882489037,0.3234223642030112,1.7628308837849251,-2.2987116836308803,9.268695288728129
440,-0.6673340113658563,0.6515279055971381,0.3564561755428686,-18.827093375579494,1.1149842457327122,21.01239399678525
450,-0.6704865728418339,0.7291608585859483,0.2576099408001147,-6.382631870491303,6.723540344082338,21.935103347161373
460,-0.6676915890483545,0.5957606312513352,0.09101894969432334,-8.661752579691003,18.593388503938563,24.013953761821856
470,-0.5814530777780307,0.8205360420337524,0.24327845177976903,16.157910682781804,20.634758122910398,30.740152118941683
480,-0.5992427368732887,0.30365644387465657,1.03117779511002,-20.072549109462848,15.176921007016304,8.584532892477837
490,-0.6141938551857795,0.5635374327355668,0.7609196752672271,1.6812789646535475,26.98497717610026,14.87654149307069
500,-0.6322126940552433,0.5143609431122099,0.4458784290245698,-6.045285813854326,18.696512616778815,3.0024275974106835
510,-0.5333950342192554,0.5625441375282026,0.9015776342602723,19.146112566043236,30.157087035800814,14.287880394680306
520,-0.5686978806168796,0.4477815022810149,0.6600497092352299,3.019892103060522,26.727151762807793,0.1614553838848355
530,-0.6069207503856396,0.45755168998416723,0.7518401179351674,10.565499499631683,19.234282276177023,0.8086148486687479
540,-0.6717360111508,0.644652645200784,0.4802342449508264,35.39408698099014,30.62036136514245,2.87791887942812
550,-0.5704936043247517,0.5623380459509955,0.6183683108678378,14.360230889764082,22.64222103522277,-2.8011129635104695
560,-0.6667383769165349,0.4020588919327214,0.4416741529846647,13.355764641435966,18.68863501301906,-14.905358885768466
570,-0.651169087288833,0.5765858798515844,0.4855878191765885,8.688642236654005,7.651820621528492,-12.240146900520083
580,-0.6354899770732995,0.6846789885146997,0.5491616058241697,-1.3552284255464806,6.389574230134774,-0.06592937647297364
590,-0.6525536787641203,0.7561932080506677,0.5632007764848033,7.301674253926908,6.462080039040307,6.56213862181044
600,-0.6204881942676282,0.6838126993053524,0.5828505480224203,5.273895968913757,6.348608526197285,6.178817593615653
610,-0.6776951368802043,0.5807186890011756,0.5197566019268427,0.378855084999427,3.1951409431319897,-0.016802980480593255
620,-0.6276301879579254,0.6159084056383104,0.5715206109312826,-1.3047871769583437,0.8367146971641417,-2.9900764593282374
630,-0.6301039934560236,0.6088699272836116,0.5686780621628501,1.4499997332245511,0.7230590137945573,2.076389045637403
640,-0.6526275001169993,0.5882867769050544,0.5509497230545486,-0.3286166690056631,-2.2399600497226753,0.8830829937301756
650,-0.6503908585793641,0.5949088462129583,0.5478425423724953,1.2164256190638563,0.047512529143355686,2.2135429297296225
660,-0.6377626966074225,0.6056720560665767,0.5582413721620632,-1.5606012415835693,-1.0856409574561405,-0.3151233078903276
670,-0.6384908439153206,0.6021587183692858,0.5610808811423896,-2.5318724686491634,-0.7904593141485058,-1.6062211529789001
680,-0.6415093629883736,0.5949400830713434,0.5574508969960884,-1.5647337646471018,-0.05543285988721147,-1.055181631703391
690,-0.6729035755689473,0.5643497422985055,0.52550008998395,-0.2947153231604782,0.05470703229767243,0.40831678343693084
700,-0.6264892896096692,0.6154385178607092,0.5720710666375061,0.27680017359654685,0.9756654279133199,1.7007332041082048
710,-0.6512754214569201,0.5914868299593613,0.5553143879247985,-2.9357999785322577,-1.692993358070399,-1.578491779597909
720,-0.6243859544932238,0.6154951367656517,0.5807053795241431,-2.600643690192862,-1.6680859958233156,-2.095998600378675
730,-0.6568313091137438,0.5805966058710268,0.5421223739397664,-0.44441089323983535,0.029755868475063507,-0.6053100057990525
740,-0.6446652796403131,0.592765298748867,0.5558864608675105,-0.03052038363672316,0.0295297877631302,-0.41743130211020263
750,-0.6432474141097022,0.597751085323385,0.5603846914267145,0.7034022304001968,0.6087704067034383,0.6563650444599148
760,-0.640661000325622,0.6014822763729181,0.5625858975715295,2.268033181100056,1.9780972767996658,2.3520189628943116
770,-0.6245064311275712,0.613833346453298,0.5743849209063802,-0.5672852937276226,-1.0368695000065,-0.8670453544552217
780,-0.6579392480452797,0.5796604591919514,0.5391785795591527,-0.7412718468438977,-0.8864782590146693,-1.3303972305698384
790,-0.6524263474948968,0.5853415438321581,0.5455266913914105,-0.7357115698084413,-0.8162407200207304,-1.6224253548131042
800,-0.614186238567217,0.622770229481228,0.5836549329461357,2.408989860933797,2.1305273339518678,1.7143270206457655
810,-0.6412362754795232,0.5974145962258792,0.5556448434405514,2.629375258179132,1.8609349432563005,2.152414369586812
820,-0.6721693741880993,0.5695962908718908,0.5226522208196327,3.915999755088463,2.0233322876515887,2.8211072498591694
830,-0.6670842040422953,0.5817768739837261,0.5300150946039044,2.992686429957685,1.2316175579802107,2.0020325701775903
840,-0.6516887899758801,0.5956927581705315,0.5478092352372899,-1.3450946025991755,-2.475301187563527,-1.9933242193120408
850,-0.65278646825965,0.5919128208519231,0.5492933804509044,1.465727391435579,1.1159279806987843,0.988373446422095
860,-0.6561493590293976,0.5867439956554539,0.5419664086234116,-2.211971418206727,-1.8360111385047138,-1.8423197288699649
870,-0.663515098832101,0.5804851001546018,0.5343205722209268,-2.9621527159233634,-2.4475916346400126,-2.5671900646804544
880,-0.6272226139330672,0.6193770169689904,0.5741498955011952,-0.4332688490715149,0.04831742527679572,-0.3478899795484915
890,-0.6847051478430765,0.5595522487999502,0.514954798537035,-2.437908678707985,-1.4257794004220015,-2.0093505796667106
900,-0.6532980808798337,0.5886344610973403,0.5445616791940384,-1.2485260905186166,-0.967285229364257,-0.6591538669101189
910,-0.6398442932239518,0.6040016861121281,0.5582630337292609,1.1297358519186855,0.6086538864065665,1.0457759540190763
920,-0.6473313908380743,0.5999097402220689,0.5557806612635885,-0.47885627819720167,-0.6871478376201325,-0.04926066418690522
930,-0.6363766968751156,0.6112991487381225,0.5639909150961744,0.03611311214045865,0.3165172417535187,0.6068021459617745
940,-0.6127438888755382,0.6312905723463262,0.58594417759684,1.563389668211236,2.4295915880877583,2.237479103414712
950,-0.6520188943910367,0.5942942970238515,0.5497941151367962,0.6434046748311762,1.7162047874515498,1.3596135428555145
960,-0.6160922609772164,0.6267244349311537,0.5834976882722115,0.4527232328199068,1.3622151486362153,0.7298159748689191
970,-0.6577218366985932,0.5855952081145155,0.5389703336924229,-0.09474671949471024,0.36194647744693037,0.4760322429710868
980,-0.6424046238270366,0.6027632068478281,0.5522023825558495,-0.812351081938881,-0.031857505727686114,-0.19557524276597182
990,-0.6463594061381066,0.5993834059340611,0.5541439465383127,-0.6388635160818519,0.38143817375623207,0.4455034872910687
1000,-0.6283769768900608,0.6085548751522073,0.5644747753663606,1.8632625485319843,1.263087642642011,1.7764863671352449
