time_ms,ax,ay,az,gx,gy,gz
0,-0.759846039208549,0.5883804958118587,0.6555119995322128,-0.5785841383266002,-1.033895389317387,-0.43021909765170296
10,-0.722096113240736,0.6259933910180852,0.6867232624368125,0.5221391618182961,-0.507279588422333,-0.637604411944807
20,-0.7293125656643826,0.6173178078842242,0.6801882745100905,-2.195266282819714,-2.6441536140978807,-4.175550929242774
30,-0.7260027587916029,0.621103289085383,0.6903244782849469,1.3903025146278787,1.2785359604905535,0.01303257688728654
40,-0.7717437712140965,0.5706294216128097,0.6375173881867365,-2.580048102653077,-2.038813008061152,-3.006173829504987
50,-0.7393943707998214,0.6042326740404544,0.6665936133643222,-0.3054971086038252,0.5228751464595072,0.3969944723882092
60,-0.7286025801567407,0.6155123664545827,0.6757619932550305,-0.334452035229285,0.2654918299299557,-0.10945763112087903
70,-0.7445176195945005,0.5987394802921024,0.6607807881277961,-1.5479986572960267,-0.558027433369793,-1.347355240175912
80,-0.7335581397621905,0.6064821985294402,0.6762315448772594,-1.1914949062647129,0.8985021115887275,0.22712975822455028
90,-0.722985045966505,0.6126237101310358,0.6834224695321608,-1.0339941503731522,-0.6362222174157244,-0.22976984764658892
100,-0.7400092150624311,0.6022162398890303,0.670331320739213,0.8823965335984213,1.5113130298838109,1.5363433290901627
110,-0.7558407556327704,0.584117374401208,0.6569154516833173,3.6955163974342202,4.313814746278556,3.8780895687392505
120,-0.7295860238266533,0.6241920527158261,0.6900253600936902,1.3569364698972906,1.6358786822654434,3.2737209423146005
130,-0.7523891276518047,0.5927178995462506,0.6591748069623159,-2.326332140901763,-2.0053640116698066,1.5038603803326098
140,-0.7246655564082679,0.6185591673015551,0.6951388186295226,-3.16124575152903,1.2320509577619707,7.3597525991250246
150,-0.7268575716645984,0.6063389914438225,0.6919380175574222,-0.6605020165665256,1.8760623098809364,15.427222569509741
160,-0.9294482720233626,0.5203730979003238,0.8409625306997955,12.316305045086464,-34.51715938137642,2.841147389071999
170,-0.8141976165522358,0.5328229404067714,0.7588929031376435,36.13337691276304,-64.94265022942331,4.15040771653332
180,-0.5224490981167036,0.6031861823235672,0.6284517240630095,42.63151861457907,-62.228483398768056,2.0834600761997835
190,-0.5289851017117517,0.5647477260349747,0.5368334969150169,38.936717723961316,-39.59743466006384,-2.7772132331154764
200,-0.5963076516327984,0.6325291773043797,0.6107562096995655,35.288966431628324,-21.671555571480912,-9.400473192135465
210,-0.5631155687468281,0.7473739326571245,0.6800287817388353,25.494557695969377,13.50416494457649,-18.567072833210588
220,-0.6458998028802353,0.7256080794716411,0.6730401282631803,14.765900369863136,29.347987336007698,-23.879772521047737
230,-0.7410510381057563,0.7205713514458543,0.7702282100736185,11.369021180471561,31.6088502119953,-19.337324875387566
240,-0.798243597375788,0.674701351482982,0.7583550774207655,10.08690701951577,26.15027752969221,-15.77799318956296
250,-0.734392616410303,0.6106932227642596,0.6876817261384758,12.126718334910125,22.02743687748727,-16.54661929719417
260,-0.7507075841350402,0.6248343355263233,0.6373840379920769,0.11612672189502515,3.213088923981603,2.5026521947906413
270,-0.7508154184831968,0.4847441600529719,0.6653793867766102,-6.041089843299939,-8.639422592489883,-16.63305817392761
280,-0.7286801266965852,0.5601144180650807,0.7178088283425881,-4.801178124648766,-9.260680400455339,1.0714855557503058
290,-0.6941306756770065,0.5853627535478043,0.7596858714801835,-8.591323276988696,-16.046677471318286,-1.1775404878361557
300,-0.645272559095402,0.5336211918893445,0.8365940478440255,-11.481557914214415,-17.87888634100738,-2.2431643393512144
310,-0.03522861140092668,0.5466529466992689,1.3679608076381997,-9.649881451542072,-29.772014556849545,-4.226362107846551
320,-0.47692067008310424,0.5866060741411502,0.9475685210732485,-0.9517838072949951,-35.40778446434936,-8.16919572052387
330,-0.7204009131830367,0.6837129056800447,0.6805589670059483,6.242126546343811,-28.60258632601991,-2.112693002779736
340,-1.1727466160548574,0.6594938698205245,0.23680885957208472,-7.176383602260038,-24.86311623351598,0.27438389959710385
350,-0.8248045340140637,0.6867410566146335,0.6059515802890181,-16.604590791235005,-12.840571004832928,2.8200220388127804
360,-0.5745098701638467,0.45775092424990255,0.6616133811531342,-7.225240057752793,11.330256861697055,41.85759784220792
370,-0.5669600007409091,0.9854407350634167,0.8398391473885124,-8.018608416471093,21.277828315784088,18.05767002865762
380,-0.7760492423782378,0.5961004267445683,0.7703596410950758,-34.58034843239015,31.714503534264743,22.761484858814068
390,-0.7759120112733814,0.06130528858427681,0.6614790847590956,2.5719098395095146,46.838817069122456,28.076639313548224
400,-0.8165140176360155,0.766119592150971,0.29203839714417346,-17.9641220713082,39.25417639515845,18.12391627395523
410,-0.5466528092028751,0.5070122762876761,0.7999636798934479,15.57191973393341,58.99295082986623,6.918385683040421
420,-0.5639467682765854,0.5337153550588418,0.5974285946967202,31.223332414157955,50.9900797576636,1.0807278059217147
430,-0.602904905430384,0.8986065039804013,1.4472011434269554,49.29509061666063,60.47907723434761,-5.223647740108955
440,-0.6690748813548959,0.5307165260433049,0.9177948458779337,7.048895491255443,38.52570103107507,-1.100657243048374
450,-0.7526752305045292,0.5652075886570209,0.8044002195341059,-0.6037030604021978,20.85140808304279,-19.205119588286905
460,-0.7885866383915487,0.18720445266300872,0.6018921209172089,6.567749091153006,16.227702023347625,-20.025255782757313
470,-0.6183973936433377,0.3007363139531207,0.7156601748775806,9.516046850971943,8.370086410155693,-27.16434125316369
480,-0.8611018281152513,0.884936350801935,0.6861947171798183,83.6953121018732,-4.184075766826977,-25.8221536771856
490,-0.8781091037235931,0.7231495121763624,0.6358947613955591,-12.782401335189334,-14.70590842063371,-16.165552615427533
500,-0.6600066545995816,0.6101478692397753,0.8022647463945621,10.024792178510124,-10.337761532096213,-16.547577874974344
510,-0.5114943696207999,0.7967031136897736,0.667464322373259,-11.346871951738049,-8.920633538000276,-4.833474991790155
520,-0.6851355797122196,0.8617633298984001,0.34683659349255574,12.66439916741291,-17.05860596766588,-1.3197720122805114
530,-0.767327169092585,0.5348871334503934,0.6393173124985545,-1.8318466807680505,-3.8298768023343768,-17.223516273724748
540,-0.7536226004025639,0.7755251551488038,0.7006024046851472,6.032810042018879,0.0833054777783091,0.08915387087509119
550,-0.7719680922077485,0.6324515733549215,0.5924330832552972,-3.7665501148893252,-0.19485594574183088,-4.109973784767508
560,-0.7451319534596673,0.6483239440184506,0.636442721695778,-4.208442678689706,-4.698184192268355,-7.144150861785971
570,-0.7232390004587549,0.6577999007771429,0.6583146449723887,-6.254461786928687,-6.030184109356824,-8.082021289305185
580,-0.7697517352701037,0.6084912110830201,0.6095417270723427,-2.29102729035291,-2.5888568204892315,-4.263393616017284
590,-0.7508585729179392,0.621992256897397,0.6353134154996068,-5.036024282829834,-3.45970935054436,-6.440315940042883
600,-0.7468788316194241,0.6219628577159924,0.6426863444397173,-1.1780977781824737,-0.5998240013935265,-1.6345374042515814
610,-0.7542961395658823,0.6159696828377466,0.6308868010126177,2.3693675105124097,1.2929472891198637,1.772485892510847
620,-0.7157128517559889,0.663961660616814,0.668543596459574,-2.471658096739082,-0.2569753381878004,-2.5949551962584048
630,-0.7670938733578646,0.6025403003987547,0.6142842651611167,-0.4273703098735959,-0.1035785106449465,-2.2915562234714786
640,-0.7668684178790292,0.605554669004111,0.6232199809838741,-1.4408262788113015,-3.252764511166328,-5.830941781051605
650,-0.7847774455122409,0.5823581743507121,0.600471317361606,-0.09748921363724472,4.872728894651744,-3.062091556231651
660,-0.7796840850755631,0.5811818738474179,0.6028142551508637,-7.350313512333904,4.832687239152427,-4.280248823149156
670,-0.7907962354322668,0.5691076486768297,0.5978325073803039,-9.577897224870425,3.7680198076011395,1.1346327113923538
680,-0.7446073699541272,0.6162772466714883,0.6374076159479362,-7.238203043684306,4.62802975060934,8.760791414811981
690,-0.7658519501767529,0.6026262082971445,0.6151998150976161,-7.67915192464476,3.0605952122009685,10.00189759182333
700,-0.7607805072512689,0.6041268002389951,0.6094843006462144,-0.5299718181861789,-2.7531798157415075,17.042329192706212
710,-0.757545868234243,0.6190690434174715,0.6177320078493688,-4.794313957793517,-3.3530978951722705,21.647885880551144
720,-0.7666565036755062,0.6201958037843787,0.6133645812518247,-7.7435635200293405,-4.022249272803408,19.492086318864505
730,-0.7742920047952986,0.6191123461104064,0.6066796103995769,-13.243571644431459,-5.216914614167633,16.919491666596425
740,-0.7547176449626205,0.643098987010869,0.6307610979133502,-18.308699750188016,-7.799818024521649,12.208848615730243
750,-0.7533331454277474,0.6189794856215167,0.6280435936921508,-12.969852924806302,-15.100516802200241,10.390279441735265
760,-0.7557295090962209,0.6218793670851559,0.6298636906689126,-11.636664500027754,-20.401092043574998,11.329773473601625
770,-0.7325870317307922,0.654308771221671,0.6679214217593461,-9.099282768655533,-20.351399410321164,6.119428203140593
780,-0.7618877028302088,0.6223891306688545,0.63848246203266,-8.05312750552259,-16.12051023995058,-3.530799865242143
790,-0.7331316571349967,0.6501543710520062,0.6686791027784155,-4.114327445995962,-10.10447744485996,-13.54665941669726
800,-0.7444612110206839,0.5999438105742039,0.6551386442803095,-1.8460814520305187,-2.474068872626158,-20.92294152371474
810,-0.7559280751400536,0.573530349080486,0.6444482805818594,-3.0839742439309674,-4.590700158561498,-15.248599179635402
820,-0.7402133167061472,0.5803074502668628,0.658427170701824,-5.459189508108328,-9.570659749724935,-9.951612539645495
830,-0.7529102901874376,0.5728171886499169,0.6541015582580385,-0.011226256006000968,-7.490473495981792,-0.23964818817310923
840,-0.76434102867228,0.5760065996330298,0.6487560715059322,2.2401974601567454,-3.923532684845746,3.867521077111742
850,-0.7349178575755536,0.5949166669904057,0.6692166194516737,-0.1511228766247399,2.1799313953107653,-5.6242075210107645
860,-0.7285690233599174,0.6021338864383549,0.6803344892961051,-0.61812699975489,0.569117959959758,-6.228535458189514
870,-0.7423827576034057,0.5861981860609314,0.6610339786257001,-3.9774821538818386,-4.258582013620645,-8.180790410057792
880,-0.7309734981135135,0.5945589934197223,0.6681431462067029,0.395491673491456,-1.3375736024372653,-2.129347447863095
890,-0.7295036784631284,0.5987791176929039,0.6735718156076076,-0.6012056002294757,-0.5898306297987004,-0.19216653745364098
900,-0.7404390615625576,0.579969485199279,0.6626168216685437,-1.017386650905407,0.38407005945499983,-0.4707741514649484
910,-0.7344292097806873,0.5876906971420482,0.6715807142964892,1.8148288915264368,2.551862089557381,1.17753368581382
920,-0.7305752761414185,0.6006859983246454,0.6772850118120605,4.446342614416136,3.728717078391357,1.9311838702439608
930,-0.7599620799975824,0.5747341801238093,0.6480653074843674,-2.0155970700485284,-1.6778551452203931,-3.4007882642587357
940,-0.7276864004451313,0.5986452707607137,0.6847358633435255,-0.8999628806787239,0.5920339254468047,-1.8372436761617401
950,-0.744691056765899,0.5680036598848898,0.6637142860197548,-5.0260622942612425,-0.6929932113828485,-4.403736375293651
960,-0.7266497205158715,0.5844996600753593,0.6788103323745256,-1.0833070132847773,0.9524274113492736,0.13849493424798043
970,-0.7334836195078904,0.5850077278443861,0.6736670006212209,-1.8808369169338095,-0.6662203828491124,-0.5929913269813508
980,-0.734129622018378,0.5779116040477476,0.6743446198156403,-1.349164697745502,1.614207553858704,1.722590836768406
990,-0.7322487146602974,0.5852167470922061,0.6766788478262049,-0.9867905634630398,0.9653179188029115,2.3035677578317233
1000,-0.7162779344737875,0.6105511056482108,0.6887727086402287,0.3818015731832536,-0.24916816333150538,0.0030345556626640846
1010,-0.7351003054386137,0.5854768158402005,0.6757383382409492,1.0498804797516375,0.7721477622939213,-1.282836302877882
1020,-0.7212303596355355,0.5982323132111029,0.6834739868550556,3.576911070868185,2.565520254522504,0.9774293146431345
1030,-0.719519130286116,0.5962898034106117,0.6865540231774512,-1.07065040429098,-1.738792707061266,-2.6082630868811187
1040,-0.7358576993334766,0.5766267016558863,0.6678950025580936,1.8047455542822817,2.213585884887026,2.2861160160094762
1050,-0.7492661444214092,0.5674155387826205,0.6590846121075014,-1.3021179832317573,-0.13780558675554563,-0.1852456347186194
1060,-0.736421311694062,0.5834247215128741,0.668177213669056,-2.8192337653951496,-0.7925874764488599,-2.62526922640404
1070,-0.7413799898135359,0.5736036137133369,0.6709564272090381,-2.6790286380518005,-0.14843986116430302,-2.0339815697436108
1080,-0.7111238309622748,0.6039210788652069,0.6965206155802386,-1.5430997910215312,0.025865684447785833,-1.0392514206108578
1090,-0.7366790844640689,0.5765859712998017,0.668508017679115,-0.22020355211360554,0.8851162263451876,-0.6149074638279671
1100,-0.7112031625648212,0.6044288233314131,0.696863408455693,-0.2907143583336771,0.4201484111274448,-1.3862554171113488
1110,-0.7385475179506216,0.5763815844598729,0.6734001538799578,1.1667433119303832,1.3362793186281108,0.06338034198962039
1120,-0.7416907492979585,0.5722173281965488,0.6678756243561235,-2.866695096648859,-0.5148221815221172,-2.6459349264700984
1130,-0.7458623606628122,0.5579625568707045,0.6591225675300721,-1.6454967542372287,-2.4052486466149854,-1.7538911153396002
1140,-0.7374689560342345,0.5723562876726339,0.6667992518411419,-2.010583839332108,-1.3634419631100294,-2.583196924017334
1150,-0.7335956609153255,0.5727990854332085,0.6667332144962738,-1.4738482197386469,1.083117230762505,-2.5532686330727907
1160,-0.7497269032090885,0.5602436389699078,0.6566088545584806,-0.4629601513749615,1.5790409297123553,-1.5009367013147046
1170,-0.7284478447263125,0.575354877479429,0.6776287292919219,-1.003367671483547,0.08706090078279033,-1.6005789356183893
1180,-0.7478376534678263,0.557326987555794,0.6590081157380384,-2.44197187753022,-1.4637767626376303,-1.708591081379602
1190,-0.7448729579058234,0.5579031624850662,0.6630732932816952,-2.624259570210757,-0.5763100906010631,-1.824449480429651
1200,-0.7351575398036567,0.5745088554502994,0.6719618476284258,1.4193081609677407,4.574536854363261,2.7633634705142307
1210,-0.7401708683574063,0.5631028553726485,0.6620667100011902,1.7869219609378215,3.797528983284023,3.1049860270950034
1220,-0.7243003686433056,0.5827308819016002,0.6817404108733575,5.443954142984207,5.043628104582593,5.242148247764858
1230,-0.725118301627943,0.5853286729781696,0.6825102748567979,0.9245487290985301,0.422606754506065,0.07723628937263033
1240,-0.7360762867175532,0.569091905433009,0.6777507761081336,0.14777660382075902,0.08733822054686347,1.3451940606229504
1250,-0.7639610576549808,0.5449779366599851,0.6436033881138582,0.19328366486497695,-0.768163518667847,2.270340357162772
1260,-0.7499639533482203,0.5592332936772679,0.6554406197929241,3.686520438435342,2.408947621699326,5.197309651346534
1270,-0.736244977236355,0.5736540438468933,0.6633152368982526,1.4836296124578805,0.11480428804417697,1.509866729977063
1280,-0.7313595370044811,0.5842975346629479,0.6720028342331247,-0.1912631871718653,0.036953015277298995,-1.2141883137619198
1290,-0.7328145938620763,0.5715690469629716,0.6679341639902039,-3.0852163671581616,-3.175580850237224,-3.670512906589258
