time_ms,ax,ay,az,gx,gy,gz
0,-0.8360358608577094,0.8930503118914891,0.8458115936630598,1.4571841591400525,0.8387007509204639,0.9748017484031077
10,-0.8551144762353221,0.8807004515319384,0.8324972514550675,-0.8067866057446682,-0.7885490471691006,-0.5899111048710217
20,-0.8323696822250592,0.9029906169932879,0.8583412953804211,0.7743477428689158,-0.2810802868571858,0.1078901251972555
30,-0.8454868143674636,0.8905431867288338,0.8410077876758364,0.5384942284298165,-0.7554923125694825,-0.27063739827820266
40,-0.8459586485447417,0.8917156447353187,0.8362383450849943,-0.20675069577254535,-0.775820519703215,-0.7653556212310891
50,-0.8603983423456846,0.8783223005015062,0.8219491594326525,0.13969272947194494,0.31012004306508695,-0.37337901051442224
60,-0.8479955182753738,0.8917195026233146,0.8354367174281027,0.13005053342357914,0.36567266082586597,-0.40549125060090285
70,-0.8190990828413977,0.9234169291343715,0.8617042110359794,-3.3882083164713785,-2.449323779891844,-4.140727817689674
80,-0.8207208620391999,0.8989362644123056,0.8529490444519214,-0.2884322510926822,-0.3550588170444591,-1.4717342493792875
90,-0.8348942518996324,0.8918461291076867,0.8446644007819931,1.0036880424842243,0.37794457131680775,-0.15429108258105978
100,-0.8292994650280209,0.9045855425510563,0.8514534529361806,-1.0155462414957448,-1.719277027375179,-1.7374615427970377
110,-0.847908347045167,0.8853389850371919,0.8350236545209027,1.534096332544416,1.1696543279471063,1.4123351581841697
120,-0.820810854256686,0.9094082692973667,0.8688203075021677,-1.439522273113215,-1.1405139534501716,-0.9846784135156514
130,-0.8550529922304478,0.8749071848826997,0.831897010312064,0.3531026413839983,1.2797175734276551,1.1555923173465499
140,-0.8088990694684771,0.9232902790053914,0.869157417940377,1.107368001672727,0.5807268687599811,0.23297726115449427
150,-0.8372502172543005,0.8991094896572138,0.8495638174556032,3.0607183049322852,2.124459317546098,1.430279160035798
160,-0.8164669230862279,0.9174938763880198,0.8701426143841524,-4.402515367394535,-2.5063233669724023,-3.841313215408818
170,-0.8432994651527683,0.8886303139787837,0.8434633411935684,-6.100452429921031,-2.3858567031487863,-3.9620612695839004
180,-0.8124141859753181,0.9230900110890187,0.8771745007107155,-9.060263991304963,-2.812083634243254,-4.969881028535984
190,-0.8192764055892995,0.9300401254147398,0.8761320153985928,-12.789393682300116,0.12122461331181356,-4.056879595167524
200,-0.8650405322280229,0.9127331154206952,0.8474940990616713,-21.838694542423593,0.7847497811020958,-6.813060299144821
210,-0.8417289204702582,0.9428923793126106,0.8983513008057873,-38.715614291236385,-2.118555561538816,-14.153035004077708
220,-0.833571795434959,0.8716785219242954,0.8658002972346924,-39.73967293866642,-1.8622764984707831,-11.84349570226799
230,-1.01784693058001,0.7445038899735786,1.08156790315103,-26.264799055770844,-49.0363293157571,27.68444131488379
240,-0.9988769523531248,0.6657487493056785,1.1433822226162957,-15.858843728872076,-87.6073158606515,45.2640391117458
250,-0.6977303227382419,0.6896377816562116,0.9438723627587061,-8.868951658911584,-94.57045104688389,29.655811090212946
260,-0.39368221757220667,0.7261287907780792,0.649131941740161,8.373212911407553,-84.38482242978026,13.62766645513706
270,-0.21839284378368706,0.652826149089778,0.4135839610314324,45.400847378928525,-53.48148417307476,13.231953596046859
280,-0.23940165239939531,0.9488100703082099,0.42261861471963064,-6.669734102791384,-25.38577163409776,-16.055200148048517
290,-0.3399483373536239,1.0195141567287191,0.3216558813853608,-12.214720801828776,8.627068617030197,-29.793063978173482
300,-0.9225907544085619,0.7313323063997395,0.3678347830995033,-79.59286906852157,8.771487771937203,-56.69687902095028
310,-1.2133677174782092,0.6484238996048673,0.6104503466258561,-105.30988030870817,-2.2219144134385154,-66.26447464935565
320,-0.9824098492161502,0.958734331636579,0.8388457914139638,-65.54234055268643,2.6845379419724473,-43.76721692979538
330,-0.9237931500891909,1.1683544781770072,0.6874578826437868,-78.70385750311023,-2.8590682107451366,-36.0346266723724
340,-0.9698199835656907,1.3187425631099,0.7875403025353842,-77.33628281735974,8.949578409540452,0.4702434760770251
350,-0.5525868445155572,1.4767520646824042,0.8377002660365642,-3.4441860913126026,15.62478869005906,28.405759527554054
360,-0.7519369114969421,1.0183279716180276,-0.2256279668007141,13.820728442377256,21.56247877205081,52.57780457908518
370,-0.9598269294241638,0.7009020259447135,0.3973689515026323,-7.755126028689607,19.44972598572001,56.42860856481324
380,-0.9901799516113841,0.5031786444927727,1.1122904426578226,2.0844039203284703,19.403821394018824,50.558684920812766
390,-0.8434911224004603,0.3908435298652759,0.817422373979337,50.38763914265601,22.789739415935742,43.011945349896024
400,-0.7142870249265317,0.4585862932657905,0.8590067231521165,80.79000376548338,37.549645587881784,47.866312556279844
410,-0.7702406244718751,0.44099371600785864,0.9821984567539633,65.50129305350586,28.55217875139733,20.30577174791792
420,-0.8628561024803091,0.34062270009656936,1.029209582095899,74.055421754207,24.079925354262606,6.230953819152269
430,-0.8956428169979975,1.1723663031605465,1.2983045387286942,103.32220214119289,16.00104796305169,-14.297825049845798
440,-0.8240518461608888,1.193484083991142,1.607854473308264,73.37060379863196,1.5750179609415136,-41.02431929071505
450,-0.6780494176881207,1.0662915166047473,1.3520604882477556,25.99609397547608,-6.323364921770895,-41.77620224836856
460,-0.5961385595374852,1.4891577538701501,0.6913928541944132,18.35790132055302,-3.8180142779179747,-16.51890186187549
470,-0.8245764164125984,1.0977384895186744,0.9686175534450285,28.035323128140753,-2.6182356797416766,-21.624976093597557
480,-0.7925748849867087,1.035612904389161,1.1157965426301484,14.87854303612096,-5.041638360711517,-25.024186665062974
490,-0.952773534313983,1.0779325079509878,0.5480851167422257,6.875591467522955,-7.54012859175013,-25.69102062500974
500,-0.9107175191857206,0.9827667377455063,0.6372565531334836,-12.907782578902095,-8.585393124505416,-26.54287149060256
510,-0.8343664409061115,0.9159067002637802,0.831137033453795,-19.946703881510576,-7.214429171445769,-12.798573066738202
520,-0.8041521322980765,0.9201721278107695,0.8767357763780176,-15.537576844411952,-5.612554069899692,2.036850127341779
530,-0.8090763117201543,0.9088397185079617,0.8719402905730799,-10.262790254043052,-1.7706934590179113,4.223794805648465
540,-0.8010050821958516,0.9036964198865853,0.8771033735442121,-9.274169765458751,-3.024198936830198,1.6330527418576808
550,-0.8198900854062955,0.8964021530916091,0.8736896614131868,-7.959780701241247,-2.6207496955527327,-0.36244473040600234
560,-0.8383056963199982,0.8706019675426372,0.8517490492051724,-1.3895265984087575,-0.8613415211249309,1.2887267474061963
570,-0.7916185603731608,0.9196911297009114,0.8921516279650791,10.209131863500474,5.327335037804705,8.53622393964375
580,-0.8280938079509528,0.896381009561501,0.8499431991621443,9.334729022335978,2.08376708943592,4.999612207165064
590,-0.7927894026604243,0.9471392511645631,0.8838425959539017,8.245686522332829,0.8664083625226899,2.6695845408098586
600,-0.8173614947892461,0.9311744827631967,0.8620826852077413,13.984297798718027,5.5000054914403504,7.639153334968807
610,-0.8013938890091694,0.9450136031271139,0.8658324766137846,8.336753630993798,-0.7602214577005344,1.7256796176854095
620,-0.8130468992570179,0.9386486191292582,0.8628079032870307,8.055973914190094,0.07734722082967194,3.4456633596051423
630,-0.81630237223525,0.9389441117898014,0.8638961602320704,10.819978206241561,2.8976378543465957,6.690048661275574
640,-0.8365983789778099,0.9144521982547851,0.8423681240605891,9.907801430043902,2.475988488056507,6.445142055559725
650,-0.8059527380993758,0.946677120981904,0.8729127821487144,8.063581860189194,2.502074227205068,5.264234520313368
660,-0.8288235967920317,0.9288981674535723,0.8515160831146334,3.918286218509454,-0.12300824733021187,1.1511163136283824
670,-0.8064690184133079,0.9426358160434843,0.8708655068997264,5.40690692127461,-0.5738256330564264,1.8046264643532628
680,-0.8141709663335803,0.9386589684052868,0.864943853961506,10.903874186287062,1.931383694383341,5.780805640920478
690,-0.7944928298627669,0.9768916938544462,0.888182206103836,15.674123211818037,6.320016489639825,9.434323308877856
700,-0.8409777801973791,0.9301092028325013,0.8291462234988222,11.353135179664655,3.8545639606680697,6.337389553519542
710,-0.8174679083471189,0.9501641838022497,0.8499670374543487,5.060615345402027,0.8355620038796124,2.5108330590505332
720,-0.8339005903801441,0.9396455747043799,0.8379991033988129,5.700576754145121,4.083606268882769,4.600314046015454
730,-0.8154695071685709,0.9678983050484545,0.8580966401230701,-0.006046077814157114,0.4666653446532809,-0.4730536915250503
740,-0.8214732737470624,0.9543648130111871,0.8523640954976517,-6.705665467564527,-2.2689975441073953,-4.44353220158337
750,-0.8064551060370276,0.959039939088479,0.870491155647617,-1.6615929252025279,-0.8289331040230103,-1.2721237167560304
760,-0.8559793132873184,0.9071462327295332,0.8178115715129893,-0.7994403192891577,-0.042132793233726096,-0.35188026224803487
770,-0.8231651727708328,0.9379834879593472,0.844904461851704,2.82519250834941,2.997729990430307,2.595822161879256
780,-0.8120961290037607,0.9544716255858201,0.8564513737811309,-0.9909478460468937,-0.7049232733047563,-1.4979550616900585
790,-0.8102276905831322,0.9590076694139641,0.8609452522821995,1.8853713268212318,1.5815973027389008,1.2551300085925357
800,-0.8228146861770338,0.9398267349854887,0.8481432977478445,3.612853948217504,1.2778392131225242,2.433496325104443
810,-0.8179091442085776,0.9478254467510313,0.8571313858722684,3.673629005245486,1.4488063305683485,2.252067126803462
820,-0.8095923574200147,0.9593126834677528,0.8614493999294631,1.6623962655071838,-0.4594753087992205,-0.5270926005650414
830,-0.8062093543874335,0.9616814053055777,0.8650043678458611,2.352302965891639,0.14983492873253462,-0.5282947559046769
840,-0.8480014557951033,0.9216849097554267,0.827323590871907,3.8996667003255228,2.1311742221322723,2.006557593124631
850,-0.8177548945132116,0.954683915108167,0.8570653279843854,-1.27966158649423,-3.09842145919314,-2.133540193487498
860,-0.818379595433827,0.9562128594027036,0.8551758683888517,-0.4819333021006512,-1.3479660611843403,-0.41988649394804034
870,-0.8431023228357524,0.9310130229155889,0.833915971896975,0.35584971858161607,2.48400668989645,1.646177005098801
880,-0.8200389922401852,0.9446804586381639,0.8487622145583973,0.38543021140211753,2.35171355842738,1.2008175174271003
890,-0.8274760571472075,0.942423211226195,0.8530217799641867,1.8307668467560407,2.5752676549732962,1.7368200017886646
900,-0.8281497812995381,0.9408675480830292,0.8493351547979338,-0.6066547365018311,-0.061416185498392006,-1.010010120412602
910,-0.8080116050829612,0.9614748920494303,0.8634661254684,1.77198242639097,1.6125772747326281,1.0350583563988218
920,-0.8123098709176977,0.9562047193638911,0.8572346760212233,0.3027205905233813,0.17753353555052967,0.023116828578525483
930,-0.8254786989246609,0.9423065658956198,0.846221720491102,-1.2836077368717522,-0.7483112647309922,-0.7986118269984015
940,-0.8119813240245671,0.9594229482140562,0.8608826043426724,-0.7578239772389387,-0.43025893913088853,-0.5830338447973593
950,-0.8369461696973782,0.929435169114707,0.8332121721288763,0.37505631865111355,0.7968141630942436,0.5371849972632035
960,-0.8205546143893169,0.9505666090307511,0.8542867248910301,-1.2749100630483101,-0.6447664474581549,-0.7414495884132262
970,-0.7999573520492957,0.9601816107971317,0.8712802598665195,-0.07272317265874917,0.9693717693175244,0.5506893721523369
980,-0.8142134531935686,0.9497913149790206,0.8590021624530294,-1.9458138410871153,-0.5821932410887147,-1.2759366232171425
990,-0.8188716165727049,0.9516422421774916,0.8553286267223303,-1.8379687131969398,-0.36786190642929506,-1.274992084895385
1000,-0.8111976831637565,0.9575685524084545,0.8608385190664214,-2.065587189001641,-0.8256791683306484,-1.7042075120989486
1010,-0.8215466237924691,0.948184333917774,0.8551866813347441,0.650994514545034,1.4952711771126483,1.1214188918883425
1020,-0.8202472363379885,0.9489609922024228,0.8550075992851738,-1.0532180782743275,1.507373355738372,-0.006431378538511057
1030,-0.8091983513572786,0.9572514574911385,0.8682845869475543,-3.8662690141052853,-2.805163150042189,-3.609524939169537
1040,-0.8081564478965756,0.9540366920530621,0.8696765171374077,-1.93371129161918,-0.6154103258950352,-1.5021631870586136
1050,-0.8456389428910209,0.9092307024251342,0.83176302003318,-2.071659497603159,-0.8457644411638673,-1.4544764034546263
1060,-0.832885558070534,0.9217485663232298,0.8451789927288436,0.17824747567635338,0.519472721672014,0.6173238090121271
1070,-0.863130077999507,0.9018685070979915,0.8179115609323881,1.2355661623899796,1.165471021255588,1.439256279768648
1080,-0.8338429251241516,0.9362399799144453,0.8515399169441079,-1.0284179216750902,0.4410001752364684,-0.6277505975928501
1090,-0.8233220715397688,0.9432451297097793,0.8581071830272885,-2.703726169698448,-1.102465367646422,-2.6118157211047475
1100,-0.809987310194118,0.9528646320220839,0.865746197900199,-2.691429194103484,-1.4265368341334896,-2.842507916495221
1110,-0.8132824751057088,0.9447989080043673,0.8642497091854122,0.941111161413679,1.5654192584704782,0.9181951257686697
1120,-0.8304358491437592,0.9253621095823075,0.8462939182686194,-0.7661146164305823,-0.43012054620878626,-0.41899847737967855
1130,-0.8198372058132124,0.9344177732910196,0.8533390962873034,-1.7508599919269847,-2.129179228139508,-1.3164129864157048
1140,-0.8058447815954338,0.9473764793897651,0.8670486774409073,0.5976532715294745,-0.6224285876343785,0.6429452915992244
1150,-0.806915106917122,0.9559624962026455,0.8684334391763887,-0.874291431240843,1.0973512884213001,-0.8000674467845199
1160,-0.8150194248091378,0.9485676395917864,0.8584378391182945,-3.117049492978091,-1.4900753456974796,-3.045860058128114
1170,-0.8326533222771632,0.9165681169712669,0.8342680912292453,-2.036440122859196,-0.9202786948167266,-1.7459540447948623
1180,-0.7854843970565143,0.9649664485159343,0.8883847326948804,-0.16779699639457463,-0.49273672091335186,-0.12187871522598173
1190,-0.8181989205859443,0.9401892313359529,0.86001452460598,-0.890444346581514,-1.8989813359354923,-0.8765664038043783
1200,-0.8398292873882585,0.9247715354650107,0.8371875856067067,-1.7032848631386002,-2.1731605133605947,-1.4659249555509724
1210,-0.8193821340785437,0.9476819534636683,0.8603455783499309,0.43361694506608367,0.6976585792636611,0.6248639025408806
1220,-0.8345235516514355,0.9220798979062379,0.8420746516134134,-0.7243545401047087,-0.13518012549722724,-0.5462007528516191
