time_ms,ax,ay,az,gx,gy,gz
0,-0.4742926503827073,0.6120380668621809,0.7529336998110571,-1.391496015969844,-0.8008143740600185,-1.4659241869137163
10,-0.4576155815643766,0.634698870362963,0.7745481173927079,1.2453251928881746,1.8143954349988618,0.742525590448657
20,-0.4301296834153626,0.6586299804867702,0.7987883792823044,-0.533506712869357,0.5296633361359306,-0.0639779646986039
30,-0.4704285955924451,0.6189379808906968,0.7571610323912673,-1.2147505530063927,0.10695683732819572,-0.4329444321441267
40,-0.4507222876039598,0.6410717011119257,0.7748743704661751,-2.348245296062683,-1.6605389779114725,-2.0946392628829353
50,-0.44116089431002037,0.6479174461465279,0.7868444427284911,-0.8660556166387039,-0.46676772066421274,-0.6817555706713102
60,-0.4336738569889089,0.6577375521411339,0.7940164746520861,-1.9424417322462708,-0.6925993934101329,-1.0755153145672656
70,-0.45248051839076436,0.6356726287620446,0.7755304667676302,-0.4064248108047749,1.175449920320858,0.6593204702394871
80,-0.47673386593011247,0.6040128466550542,0.744478087617717,-1.245438467269981,0.30963145790565993,0.14670474662895927
90,-0.4891681225692218,0.5992181387080149,0.7351799190890527,1.4646094503540517,2.3180656963541315,2.4303725175931055
100,-0.46226944723728924,0.623770043686436,0.7660710359301954,4.4848772454702175,3.7753007277079527,3.3551848835643376
110,-0.4537401631669834,0.6354191518044732,0.7733741871297328,2.5805002388996554,0.4784083430136148,0.09525262362858583
120,-0.4652726822173495,0.6249719708245212,0.767255892715587,3.8005363686876725,0.7842555760563791,0.4687669687528865
130,-0.47513283203875806,0.6155933958246863,0.750947203586332,1.3509019836602336,-0.0403736992060848,-0.5511136744974643
140,-0.476364535347809,0.6169238084913938,0.7551168304878315,5.854350755268793,4.686595717584913,5.561244117403631
150,-0.46486438494449017,0.6234444764013324,0.7733516493118066,4.412154055937932,2.3186776693362536,4.5239412697498125
160,-0.5264981376892318,0.6662126094072525,0.9055336663644458,16.54337898407624,-35.12663146956547,-2.9097706013780313
170,-0.5088497797246172,0.6062614544395665,0.8252976862665976,22.574153418952935,-42.72885744825129,6.443833295282581
180,-0.47705113204818944,0.5767063626240488,0.7715858512321475,27.67725406514465,-43.11504822433142,7.976717960742765
190,-0.4271975624734346,0.5895091529533494,0.7823654021237106,32.05658675301744,-40.28070593127673,9.743009824956273
200,-0.39523643637243905,0.6129466275381087,0.7780686887582909,30.286733508320943,-42.495080201174304,5.704447231850011
210,-0.39385247143947427,0.6433841663285914,0.7514695494747305,26.81532313802251,-40.49979827097092,0.5514043209954662
220,-0.3590051708214754,0.6919224829816429,0.7809139216962752,25.014465766848865,-24.379390995835777,-13.42952130533033
230,-0.375510201547759,0.7050289986362636,0.7974557275200189,11.843381628615193,-21.583780236406835,-16.330692828172484
240,-0.39994398824368405,0.6771367927742112,0.7710820378606588,2.7193827093707643,-17.72418781574299,-16.959437131174568
250,-0.43310619755145535,0.648763824701669,0.779596051527942,-0.23040516094822294,-8.818056146590274,-12.854743027616328
260,-0.39725911418183985,0.6691765840432312,0.8320259673697826,-7.583396800529766,-10.23022524086827,-15.661740934296226
270,-0.3837272390600904,0.6678106614223993,0.8152079389554467,-10.334275653382235,-11.75736850376833,-18.825330466658293
280,-0.4036731637831167,0.6948415868592214,0.8267089974441368,-16.000758277702612,-4.26293140011806,-16.27821608627013
290,-0.4235002563798584,0.6568472627661829,0.8030675335494858,-12.28221163093833,-0.8594247314010197,-13.013476854410099
300,-0.397574964049072,0.6670589529956015,0.8089591177769657,-11.84199686166528,0.9432094469021444,-12.59191238743066
310,-0.4001515847885093,0.6410178907168604,0.814170876237535,-14.845299431134771,1.2973602351533526,-14.303597499608378
320,-0.36596144923331836,0.6689758136714289,0.8593474994834511,-10.133664681010766,5.227243401918174,-10.037258865323782
330,-0.37178645395131693,0.6871655864984281,0.8235181800359345,-17.381025310324347,3.0379383444368653,-11.29060758700334
340,-0.5468154271883278,0.6373773898454297,0.9378000138527671,-11.78711420672721,-9.505930213569611,-2.4358637394501064
350,-0.3651076123676879,0.6455223984078288,0.8698472395239142,-6.434629524290349,-10.050533414650278,-6.583039901747654
360,-0.3200508752481871,0.7274783763723495,0.9319511173781903,0.1600411780729954,-10.179557114111345,-3.7214098323394684
370,-0.5156939955830133,0.5729017376709059,0.7783076162085181,-9.173976318058342,-5.177711878431106,-4.274436451577079
380,-0.47769619194645724,0.540697297382526,0.7881080138883145,-21.711079820035653,-6.803001753056423,5.729420111968748
390,-0.5117837303606385,0.4601150821807877,0.7676819393845598,-35.9086142448796,-5.248072990075013,2.9625727148857974
400,-0.29665194588930704,0.4677250053678327,1.0810612846059058,-28.42496133133245,-3.456889703814013,14.781183553752717
410,-0.3552234392686074,0.8145397103763325,0.8062986312817101,-0.7430848056475252,-9.576261794017272,13.292461159323274
420,-0.3973075088152603,0.6811029656820936,0.8688915386644698,-21.81983156687356,0.7345280080674128,25.32025559776055
430,-0.5230653991403826,0.43511043823719736,0.7506099826914174,-18.688359383537147,1.6711503692994447,20.337265782945742
440,-0.4717071468318641,0.7811122374055404,0.6097503935396426,-9.686861160527613,19.060699380881747,24.68338333239725
450,-0.406443721205717,0.3762269321948861,0.6894521629335557,-12.630614584704835,12.134823419300007,2.234744097429806
460,-0.43214383320257466,0.6730287756393142,0.7904007139316288,-1.142938959519094,19.94980838879835,17.925979337369256
470,-0.258917687961189,0.9409558996350278,0.9812715381832449,14.84585151825445,26.66928005122986,31.366894270352734
480,-0.3312186583302055,0.5204874712248008,1.1071550602748772,16.91695429951501,44.77477657819625,32.91169115658335
490,-0.47093513143423194,0.6187269820772225,0.4697153564206526,18.539233792511496,34.92934965643723,25.052089789621927
500,-0.25429411917002187,0.6284269654632186,1.056958110501209,3.146293827338596,13.952668162909763,7.685716683078614
510,-0.5520062001362539,0.5094847393683458,0.5855444589853371,20.09894375299731,35.279015304406045,8.111432277077164
520,-0.47700704603383276,0.6240106907408627,0.6509986314470881,1.0406493449694312,39.90977280230581,6.898591851318745
530,-0.550424435428956,0.5610192553881217,0.7408837485904126,-2.994166543000114,22.962074237071953,12.136804807135672
540,-0.33462856924494505,0.6181640664483794,0.929420014595123,3.59494448553556,18.418963980365195,0.8788239043412378
550,-0.31885966634968693,0.8024029729834046,0.837799770311721,16.17961904672188,19.95819259178963,12.008953670038554
560,-0.34721998428838086,0.5005323886719645,0.8835527507729721,5.818528317990873,18.73365017436314,-3.2923566491168144
570,-0.5563812079401294,0.6641845277893548,0.6304348799131542,13.492719405590101,17.388432918411052,-4.883398188346301
580,-0.3502330736306497,0.6282357528349339,0.8964983491046582,20.694584715022053,8.71136563683622,-7.083186764857788
590,-0.3328851139456207,0.7255608189020116,0.9693325539164703,38.52043655381941,10.55468377134853,-18.12329103963786
600,-0.38826096710127017,0.7903972765097137,0.7831318599801481,29.982571712830904,4.253355815952459,-17.41479859622914
610,-0.37033542701394395,0.8145077652808266,0.8483140949034319,34.99630674278996,5.828015643301329,-4.633503369171683
620,-0.42505563646735595,0.7566578396488014,0.8588054162999698,13.234633149009975,7.902165626587244,-1.324911414173155
630,-0.39567731345184975,0.9625633244885162,0.7717712355743499,9.407101419267452,8.088283395726155,-4.9706794122433005
640,-0.4542588122692867,0.8826025713426631,0.8164042133426428,10.17688590607412,-0.36320406388776494,-11.893344203200678
650,-0.4618424810635699,0.6232108226707096,0.7860744483189257,0.2849313073757216,1.2729538057763892,-8.229100607718618
660,-0.4635180898885062,0.6308544841451429,0.7822829912520094,-4.111840360061864,0.4146251613354659,-3.562721822071052
670,-0.48142129431300257,0.6951917194240798,0.7383615208635901,0.6312851122827567,3.3376324159434048,-0.7459886179916762
680,-0.4539323204769548,0.6737128487863457,0.7651134964421477,0.44168197362917094,1.3409704266172198,-3.4256803451287565
690,-0.45391924871048117,0.6632759843768987,0.7686807081835003,2.006018587716181,2.6912661975142744,0.713977263526062
700,-0.44968789419125427,0.6499027191343734,0.7770953599104681,0.4348572278338487,-0.6401783621349877,-1.1699371589871772
710,-0.47574562409157706,0.6233687310274708,0.748292206726892,0.950792800895307,0.25792691531060014,1.3923779641342682
720,-0.4717457331407139,0.6277356013091879,0.7529381992702654,-0.5187806132985342,-0.7178472246750122,1.0466015027808564
730,-0.47141713330946655,0.6300811562076044,0.7552581708291869,-2.2843919054273654,-1.969796389840981,-0.5014435315059181
740,-0.452737606824826,0.6478849789281858,0.7754006154659222,-2.590600523485265,-1.4642606156419173,-0.2290620438484693
750,-0.44958040063895394,0.6456141481631998,0.7787632789003381,-0.9228759140556366,0.20452741736852798,0.9585144818481341
760,-0.4534479041047332,0.6426761577737797,0.7684987048909513,5.077464004147233,3.5295155134484872,4.271655714727861
770,-0.4414037588663823,0.6617480504200706,0.785136208271959,-2.1064615617564435,-1.9093932021979079,0.234564291442795
780,-0.4629348555393231,0.6367728367063145,0.7643937964976273,-1.9420705309425417,-1.0034436797385196,0.5111957720811267
790,-0.45978324481581945,0.6357708474233748,0.7680134386023407,-2.889254444976114,-1.152287245849208,-0.3815440717285602
800,-0.41805667994991147,0.67455505840653,0.8053496508260605,-1.9919834303694222,0.29793772139843366,1.0184504204040103
810,-0.4526053938931046,0.6368823909628264,0.7737783508897359,-1.466706277798591,0.061747191816714286,1.4475414899770578
820,-0.46341422105428615,0.6319100166282968,0.7634335051757848,0.16357017899025017,-0.030134979913478466,-0.18485960485532305
830,-0.45938485543299296,0.6373993101071155,0.7700044350176914,2.7814007327527426,2.1973717085975863,1.5837165225823915
840,-0.4393450800827458,0.6579138092394411,0.7891049512337116,0.2245531815261188,0.06155500994534069,-0.02302407099712761
850,-0.45912217513770326,0.6378236548005508,0.7649857759289974,-2.546453676563576,-0.8900786764851223,-1.737123195273763
860,-0.45284916409244097,0.6473310848188704,0.7699110650910204,-0.30212220439962145,2.8821413837611747,1.5675900091896162
870,-0.4673355434524069,0.6321017436668801,0.7626892969747537,-4.476080608814092,-1.4122487968707416,-1.9921062106889398
880,-0.4572797651057922,0.6398987041717981,0.7646740901956791,-0.3383069690317187,0.29368047257600405,1.498731474283926
890,-0.4690121502313105,0.6240748652467337,0.7600138624294256,-0.7739513482515311,-0.2052675060566337,0.7245096802918601
900,-0.45348903644567373,0.6465236306743621,0.7766043260438147,-1.0617263839163673,1.0830116023084815,2.0238979618957877
910,-0.46613592791208885,0.6263780333202371,0.7612990759020268,-3.177253429399599,-1.0178380472477735,-0.2844282195895349
920,-0.4576053538320499,0.639754239712813,0.7654626344431414,-1.4800811012248385,0.3765554966812289,0.2254850496107743
930,-0.43195992304064207,0.6623232927764154,0.7875603180032849,-1.1742935322961805,0.6224089366332048,-0.23104939341483144
940,-0.4512246995898037,0.6409164281145473,0.778270942638046,2.1784547321768577,2.378723839189994,1.8744025105830593
950,-0.466685718452014,0.6280672686825989,0.7583422045796289,0.5636054792401537,0.24403715180720573,0.05849245964381873
960,-0.4428327726426313,0.6473299889597298,0.7798018175943803,3.740323425920436,3.8494501128718035,3.537123735648964
970,-0.46511020054991653,0.6258294749261967,0.7624528939587247,-0.7710545561698487,0.5342281993728215,0.6260376243637851
980,-0.4693017233956277,0.6229930783427439,0.7611066444913774,-1.1099017907432507,-0.20528982519725147,-0.4268289684128663
990,-0.4549509308104408,0.6370694794625829,0.7669723410819796,-1.9718789045203318,-1.6797720286610793,-1.9093067753819182
1000,-0.48093410241576706,0.6097335069510559,0.7439625335495429,-0.18986236364258802,0.7875830486578513,1.316383624224726
1010,-0.457595817863159,0.6308744239809524,0.7652345315685342,-0.6020877870960895,0.7512968511218305,1.2276230487534878
1020,-0.4627546531435168,0.6256133342960203,0.7617013384778266,-3.850785930208824,-2.7105487782270146,-2.1083552507144683
1030,-0.4791930486569678,0.6070266972144609,0.7404278960442414,-0.37508506990661084,0.47995115259434373,0.23636834805460205
1040,-0.4597537804140699,0.6286704680858429,0.7668965884354159,-0.2038131538566194,-0.22728145081709214,-0.6614938372190586
1050,-0.48477295270070747,0.6026559974392377,0.741616440202016,3.4085448936180462,3.7813579252107825,3.4006581997168364
1060,-0.466595947363478,0.6202795835277135,0.752912997440683,1.5706790738986258,3.549091403501071,3.6251866828731414
