time_ms,ax,ay,az,gx,gy,gz
0,-0.7263146613332375,0.6303121660229183,0.5154803258786399,0.39874357618172485,0.7937025837632514,0.20640032882792977
10,-0.7253352643177661,0.63347734425987,0.5230476326664477,-3.836456630668411,-2.2763583124788838,-3.1633785463471913
20,-0.7570590058088387,0.5990307248545212,0.49052603515061083,-2.1624655419775243,-1.2584421232472576,-1.95235819396886
30,-0.7202658699922821,0.6363342547182661,0.5290147354957669,-1.7451990705349523,-0.6962801372792893,-1.1488656693750137
40,-0.7216904869984876,0.6332627936965511,0.5230086978174883,-0.23088612137441722,0.43269331740745665,0.21325978918947988
50,-0.7211141297837912,0.6373335886074529,0.5273532286082254,-3.6393701573464985,-3.293316741239975,-3.586016621429079
60,-0.7299989432225796,0.6291836428512523,0.5197024898665575,-1.212032964311431,-1.354935051819172,-1.6172101045792586
70,-0.7101294250388579,0.6467545251952469,0.5414113339750184,0.32429859055652854,-0.8602109699109816,-0.9141368805335558
80,-0.722891175705951,0.6319152111502646,0.5206675784029373,1.7214271390586309,1.0998905992565848,0.6430630568562983
90,-0.7248406325155845,0.6333527930558516,0.5233533881888076,2.0688376416080843,1.3369368546292022,1.20654925966297
100,-0.7719322132572937,0.5845506115148366,0.47623399661775934,1.5345580392763085,0.1479515218353472,0.5562468461350165
110,-0.7385371596639789,0.6169050164171093,0.5074015662048549,3.4833331358131914,2.866935259886455,3.97583640024322
120,-0.7324768494997473,0.6219014098974845,0.5157552285063265,0.06956105032671855,-0.3184048024326434,1.7887215594918089
130,-0.7309427502243151,0.6265056773880969,0.5514990018681657,3.554680506133247,1.920448136282111,5.5147038353200255
140,-0.729333698936664,0.6026472000360749,0.5847100057294589,-5.462779082337861,-11.683758568561348,0.8594588115040889
150,-0.756600881241147,0.6812658101265917,0.5420245269393501,-3.9960479217436586,-12.051938519784079,8.796569931774306
160,-0.7751421029086102,0.6640868430488913,0.5521329670219348,-4.277512930369087,-18.648552619102283,13.917417317417279
170,-0.7006942079740361,0.6825512781839224,0.5804373299432711,7.099738240513158,-20.888317356125786,20.757164939313345
180,-0.6952121801205957,0.624447697316068,0.5378402079227095,12.365014517517602,-17.321326728440916,24.36886070845641
190,-0.6842473871200485,0.6147265183311675,0.5325417791367139,12.058288427439436,-14.76557200799616,16.058564047003163
200,-0.7200644023017628,0.6749356330751115,0.5647314594060389,6.551387380972977,-17.82439373981322,8.419574128892052
210,-0.6929828682084272,0.7048843606941794,0.5732009190695735,16.45499399762279,-20.337071605909998,13.023623236923244
220,-0.6878217070816509,0.7622897591324028,0.5589866764968124,-8.99717632412073,-14.731868378488596,-0.20180047401293177
230,-0.6680152583003742,0.6944520193502935,0.5541506422030139,-12.023541923776595,-7.978772468026069,-0.4776305453957692
240,-0.6495257390371659,0.6768129586104353,0.5694206736973288,-15.821272984939657,-8.527338142984169,-8.28808624942938
250,-0.6718582166314911,0.6253559724297483,0.5369698542371227,-17.1315877163136,-5.369646758003099,-13.389743613601754
260,-0.6867190221563302,0.5937677975158915,0.5433271690019065,-15.691717955431379,-4.047939781113075,-19.24664099756312
270,-0.6818676561297787,0.6041617209245611,0.5449446788167794,-1.1219295699565817,8.84326540600351,-18.497762980796484
280,-0.713027942855178,0.6119369890382458,0.5286852995194289,-1.3570224963731052,10.82082915837415,-20.596561095746278
290,-0.8046717431780032,0.6536811776746175,0.5655291120535807,-1.076649426551319,7.0575795301671995,-19.360788080327197
300,-0.7734424973830236,0.7384205846514784,0.5402841631859787,-5.749121990193835,-1.0204557029014196,-14.878912049790985
310,-0.7436030125113496,0.676601937397411,0.4692180937765199,0.1733085899511918,-10.373106904017762,-10.422415614748928
320,-0.730295863271531,0.6599215065544771,0.4976195144930862,-0.6250941960310116,-6.795440553563488,-3.2908755561975296
330,-0.7616416023447398,0.587487311901917,0.541799525819947,-4.729058992544726,-5.477299166063054,1.2925044462206225
340,-0.6982995085886126,0.6535615641266697,0.6106216135005702,-9.657320720078031,-5.332956863030349,3.5948217041288615
350,-0.6899177048170893,0.8250579692253481,0.4645833408324919,-7.109347817487643,1.540220004514604,26.095719733643556
360,-0.8323447707482353,0.4025007540208555,0.7726286610292199,-30.774778569811414,-5.088127339438906,-0.3607605201802842
370,-0.768584019115451,0.7316682088274554,0.7252529826578259,-26.610445664122945,8.55420894024849,21.895246605964648
380,-0.7849292986095284,0.6351449101695853,0.30136158885223024,-16.165027187814182,5.2621681132170846,6.384213600502773
390,-0.7622648249045878,0.5980091152211929,0.39390090407434647,-11.74911525363921,16.073787384772558,14.871059521711535
400,-0.733527065082155,0.49409380298796096,0.5931183396015672,-32.905958893345,14.84847607753258,1.698599295020052
410,-0.7054156890853621,0.48232780962526717,0.7868308511713805,-26.859408179254153,12.477505377204386,5.354855346881369
420,-0.700120308707691,0.577553940899116,0.45700217255686637,-5.252333885646498,16.28038613967729,9.00142492856351
430,-0.7389028578769603,0.592616971757671,0.6364778097882463,3.3395595584442015,15.513804359282046,9.687998645652124
440,-0.702704771549107,0.6064583759931729,0.5329430348659043,13.592668850966302,23.648053534706087,10.931538150762526
450,-0.7397562152113114,0.6055015179631754,0.6206303119014657,15.319739703843576,19.30516326760978,4.780979071252286
460,-0.745395551680747,0.5226367191904422,0.7148216272364366,30.973993609824017,24.39332798731538,-0.6086916361230243
470,-0.6950853988090491,0.47386962364817375,0.4512059723667841,17.138100923535227,20.211766156977774,-4.0605156740143515
480,-0.6742928624738288,0.7949600024888589,0.5526056743524262,23.559022278219967,10.646512021952425,6.138047203607837
490,-0.6973494928981887,0.5375032517562381,0.3596513644301735,-11.093549355893852,12.69251638674931,-8.436151113508407
500,-0.737322013514847,0.7397556333054693,0.5182908270345908,10.592860006887125,12.419051924502003,8.244763262540516
510,-0.6916028369023449,0.7198293191015461,0.5026159808130339,-13.475443307695512,7.0026629677477015,6.588525425111143
520,-0.7234389625645693,0.8000296472431953,0.5328366019605405,10.845555807243993,2.859720536396118,2.630939286268726
530,-0.7167275699833044,0.7069628715376285,0.5233857802819684,-2.904422551142564,1.079508739167331,-0.2597201854446195
540,-0.7127563945074692,0.6452689880946657,0.5302122031477479,-1.2552952760278717,-2.3987363515428735,-1.931785659311159
550,-0.7416245497385823,0.6218565460833143,0.5012438660720825,-0.3187860054696089,-1.591953941441509,1.7399447742219158
560,-0.7534206142529063,0.6162006067531676,0.4861287065416222,3.4570288637625874,2.873941857616165,6.139209377957473
570,-0.7335520521237521,0.6341543917097272,0.5095028896341772,-1.4165951235765515,-0.963587117266312,0.10194693277844308
580,-0.7034659700278822,0.6621242739985003,0.5474983159068296,1.1450624461849064,0.7350538794366023,0.2109574644193446
590,-0.7367932395215746,0.6360597244067973,0.512101057511744,3.148321482134874,1.5088608056359192,2.214970083500914
600,-0.7548736279369425,0.6168164542496541,0.4893442101543362,3.455675709406715,2.5704950111691343,3.400645519339642
610,-0.7111764653655337,0.6535941238215753,0.528372591322006,-1.1396585118173064,-1.604960966305056,-1.2036666081489167
620,-0.7329749508530663,0.6326340292205086,0.5056264294631894,0.8198231856697917,0.7295841111115826,0.7115797580331129
630,-0.7417481741202944,0.6200209795276254,0.4991988358563777,1.5214112744487096,1.287780034365673,1.5498272126425072
640,-0.7454036533446114,0.6190415552633658,0.5005960308994816,0.5368193069181518,0.7535168436811628,0.26024779533747094
650,-0.7102436249732141,0.6486902605451862,0.5310712687417383,-0.6864203255779024,-1.6282608420624247,-1.2151730190693775
660,-0.7300507493291153,0.6370865385930362,0.515280358884377,3.0108440773869356,2.0018201300367418,2.3296079628040633
670,-0.7256307724224346,0.6395205738683822,0.5161066460551902,0.29644328343262294,-0.8647519107086832,-0.29241215105702545
680,-0.7226299819053529,0.645334962500907,0.52029930419607,0.4282042556014704,0.8208209281635213,0.9678090386916063
690,-0.740185773932026,0.6290588538147303,0.5070436128317273,-1.3493008810387632,-0.9285747711791266,-1.3469153492586732
700,-0.7246972499843601,0.6377215741348417,0.5172512945778578,1.0680409282775973,1.4878882700464255,0.9184124051044518
710,-0.7514895701404991,0.6151779325658387,0.491354630792486,-0.9612571770074829,0.28550048466932687,-0.27531313321296613
720,-0.73864838490191,0.623282788672556,0.5055751940407591,-2.178168987770268,-2.206781372682915,-2.0568108110765797
730,-0.7400219839500471,0.6269114119361585,0.5055678612986007,0.028552070350402525,-0.4239864559353139,0.2505403264579624
740,-0.7392297025639393,0.6328281291123519,0.50660493692053,3.08676367277427,2.54717447970144,3.255380245922266
750,-0.7475421688307057,0.6212774226494913,0.4942153299702971,-0.876457585930718,-0.45154673436782655,-0.8025657389316885
760,-0.7023051380483742,0.6607854769965412,0.5371464931641472,0.08603215600563259,0.14875707279734143,-0.22843061367796327
770,-0.7385177483860835,0.6224750553757186,0.5005303535731904,-2.9097145276084033,-3.5104712131089943,-3.418792173480625
780,-0.7398931896302308,0.6259469138067504,0.5005424761915048,3.5711221143181753,2.9481371217290855,3.256439979345226
790,-0.7433821445215962,0.6247299768189423,0.5049061742216292,1.5496128574691928,0.6945104302067235,1.4390588656667362
800,-0.7441578686150603,0.6287577855407285,0.5036770230946361,-2.407404344433478,-1.695599128224917,-2.3220159158854057
810,-0.7339094150678658,0.6311322368259407,0.508066200092558,-3.3544747793103102,-2.277421409963805,-3.004255937448224
820,-0.7444681600971469,0.6167210557934747,0.4991245508516213,-1.3305751616140293,-0.7323506956892119,-1.3313708315050865
830,-0.7218015848253738,0.6407906969719215,0.5191354654654403,2.375770146379358,2.661276904048556,2.292363213487161
840,-0.7416598576818604,0.6255937352547399,0.5038767370179941,3.2373588374945186,3.334374054397503,3.3901219538373217
850,-0.7174675567921179,0.6511712845245065,0.5300474965528353,-1.3221729234123487,-0.756424495859613,-1.2400964710139928
860,-0.7135172191113472,0.6501065490207181,0.5300321300094913,-1.8327518749299077,-1.190710938527244,-2.049618045319631
870,-0.7144353428830832,0.6539281090622531,0.5277858086464627,2.1552027496073523,2.54570089814446,1.602604450870531
