time_ms,ax,ay,az,gx,gy,gz
0,-0.640422061116241,1.0302967805442864,0.9342071888194197,-1.3517574204045664,-0.3176754749466403,-1.084910234229266
10,-0.6523126366434859,1.0178283160669122,0.9304273644861677,1.9215853513918884,3.2226445557169554,2.873126688900714
20,-0.6274503915597942,1.0421085753031039,0.9491797592031321,1.8977077879860444,1.9391215652439024,2.3882892094214045
30,-0.6349100551664529,1.0410566471530622,0.9373076197054897,1.6346562845110935,2.303497342805834,1.979493562580947
40,-0.6254084351407116,1.0496894440672682,0.9516396559179768,-1.3735751659494517,0.0917318676206622,-0.7270652726629766
50,-0.6111198735168986,1.058455406633924,0.9623579458292922,-2.0303901228277725,-1.2367046189943909,-1.4975425686977046
60,-0.6166346599815838,1.047681503034755,0.9545322626570357,-0.873991043230827,-0.08361707443432033,0.3001223067401181
70,-0.616342671930241,1.0504195849765512,0.952483114714806,-6.164208909542907,-5.459223749209395,-4.771432721917624
80,-0.6315005467185801,1.0419788933260752,0.9414687214224545,2.1141410463737547,1.8204250896534542,1.6613215504735803
90,-0.6235446321029078,1.051770461877008,0.9471795039564674,-0.06952735982549152,2.8205674250350055,1.2126260327016791
100,-0.6587285242011757,1.0127362900634496,0.9223829944526444,-0.08522362083244728,3.0414220998368395,1.5765431941218593
110,-0.6468861267567425,1.0181009683628417,0.9354369109469292,-0.05197384902622093,1.9101023377031512,1.3444734946886916
120,-0.6324540812243351,1.0376939664230795,0.948488477887739,0.5660279158073662,0.38551572154491076,1.8054708829421549
130,-0.6968700958243471,1.0918916429581986,0.9813120864638066,8.910292477616862,-4.0472182156055325,11.677268634224424
140,-0.7108614399078903,1.1263795676544122,1.0766420700874195,4.177057083763206,-13.683429611649434,32.69207937447394
150,-0.766034063737386,0.9485801746660575,1.1140921068202159,14.96076056979259,-32.31005077054182,31.989275253925083
160,-0.6915046593394143,0.9761972784260464,1.2132754495315048,5.648660623654379,-50.16257424684681,27.767567169746723
170,-0.5712491880169956,0.9850618119144164,1.1492899270998735,-15.765244393072086,-67.70196238377969,15.878622787944991
180,-0.4228642776524781,1.0079073558348999,0.9959520867965638,-18.81680862759634,-55.91654158228932,-18.5310615832415
190,-0.43390665418509283,1.1370219331482674,0.9441080285583898,2.581412399541637,-24.859934702120118,-34.42115500231685
200,-0.5355431983755674,1.0538680285259354,0.920179973335108,1.060765930086041,-16.668230235647293,-29.033232060913782
210,-0.47523714012628543,0.9112787455383422,0.88529527935737,-1.0523678412169768,-9.646636662162795,-34.83651491929264
220,-0.4367537946881818,0.954006436508195,0.7861738753003936,14.667043079343934,13.469952641725778,-43.65478380991453
230,-0.5462004355488769,0.9593395079376189,0.9546570373434885,-8.257080112308403,24.372140610839203,-48.96261320375383
240,-0.7826911431837511,1.031929276064872,1.1147226786138875,-17.878688562872668,10.910514813506625,-34.189925063333945
250,-0.7097616389705205,1.124585077317891,1.0832977358483868,-19.494499476474985,4.355602050680797,-24.945137685884404
260,-0.6667970876262836,1.0163120042274825,0.9458927015125571,-24.156850671960104,-3.071417646762564,-23.671591243297758
270,-0.6873356331423809,0.9495588000649696,1.1569649537626667,-27.736021408954358,-1.9228247706978219,-19.127272094197373
280,-0.6974722903445582,0.9098743798160366,1.1109476322728506,-45.93428942464504,-2.3069067702616297,-18.32439537082271
290,-0.6414415603839396,0.7684921983018626,0.9186258420583225,7.79277047076517,-7.591000105352356,-12.0730156177507
300,-0.4526754925907479,1.0310679769621451,1.2315280916082534,-15.23373526035559,-9.444735264417503,-0.5652487891481373
310,-0.7446602659120248,0.6342052490355833,0.8756961582327285,-80.65060194464886,-11.556835426214729,-10.33268284983224
320,-0.6396413221357524,1.06329782838101,1.2963619266060562,-61.85301351664125,-3.5904123286919543,13.707651557067217
330,-0.9473162873559935,0.7000499920014566,0.7176066474978661,-70.89546159548014,-9.382519410646783,7.344519597351242
340,-0.5637453344403442,0.7299362239703153,0.5774143521544514,-6.8953527912336385,-3.837893880870494,22.702984549642256
350,-0.04408031854557056,0.66123779337798,0.8808983811058838,8.51386191703783,-8.583004118518147,32.47572983101694
360,-0.6041010111144672,1.1905462583175277,1.0421655494636402,-31.39370027471389,-7.293242529518114,31.584955280457702
370,-0.795842810864343,1.2517560669855183,0.6072867239765259,-14.274261860926204,1.4489321250090677,29.557898113788003
380,-0.8027876555942419,1.1275785164010192,-0.3786652310460257,-15.4342240644133,9.239303414046065,38.580145966677435
390,-0.8412466421152844,1.3292717542438284,0.7652600578624367,-43.977001994395785,7.714894614327001,39.98315242791672
400,-0.8080653987730722,0.526911838520254,1.161999714094468,-59.90896051472707,4.938554791376189,22.169266425848377
410,-0.8433743782012646,1.3137135145088246,0.5203612136773628,-31.71496250317492,29.4666116077018,62.603100694454284
420,-0.578112077364846,0.5102859528020454,1.104795662675116,-54.03242415475699,26.490200543300652,39.93751009435614
430,-0.6036739449617721,0.27698856812229367,1.24315249025407,-51.55132956911705,24.279986021843275,21.920781570602195
440,-0.7200523641309551,0.7710652206548368,0.5601102077736158,13.80209095553187,27.1226968739707,10.164123906436368
450,-0.6066544611955927,0.5568837159183205,0.8201254232414225,42.73352896427871,51.220050713919534,17.39152326858898
460,-0.5674830970955652,0.26192221976949365,0.4955572118676033,31.840545618454993,49.794603127254256,5.063040272718274
470,-0.6279833861064759,0.6964854508512743,0.3623781756500476,45.40052905145228,49.42447339566414,10.593224092450424
480,-0.5102815496733282,0.7629738255070311,1.5220943431273304,82.79125250835472,33.077932715134644,7.319018298817925
490,-0.4726645023093941,0.6068805003481952,1.6855612150008417,28.54485042895122,27.61615058667909,0.37754107482506916
500,-0.41925150955664153,0.9388744796384231,1.13857896973563,80.0582865343719,0.6391551093641644,-9.035839583445105
510,-0.5868696276385001,1.608488270779194,1.1287757707378194,111.10692577547479,-3.8257668430567606,-9.874869939806635
520,-0.6715908821312405,0.9924644200751592,1.0669555701064968,83.3812533312429,-20.611147062903797,-28.493557056451476
530,-0.5314271797497647,0.6218544967361377,1.1479547110594126,-6.390578375874114,-13.540103006501898,-33.39910540491879
540,-0.8285138249351776,1.3057507563305222,0.7383311084328006,11.201901741914876,-5.967989456704615,-21.65458930592752
550,-0.626529180212744,1.2202861482731573,0.8740616934878491,11.302887851998852,-8.659318936707185,-10.525928610281738
560,-0.5999509323690285,1.0055610475363033,0.96565017278492,3.153032191268038,-10.711536342455789,-12.639105342777574
570,-0.7065109648344207,1.0503111285541056,0.9394477970057412,-8.576517772847682,-3.1141964586273616,-1.973542788676424
580,-0.5605913357185618,0.8281028961035748,1.1321986675492135,6.45416072542342,-16.677187603115648,-11.940300378398426
590,-0.7403944540568258,1.0093798395682265,0.9361767744496678,-17.177472754295867,-0.9902300882501144,4.87815449760824
600,-0.6550779264725919,0.9517836492005395,0.9035975405585117,-3.930630033707853,0.7490038595176551,6.380571737917659
610,-0.6310900359469327,0.9586754066517986,0.9437636719416074,-2.579280651834928,-4.093830451442732,-1.306759248626892
620,-0.674425411638606,0.9246834808383553,0.9141132442835118,3.7505063038248423,0.7380088460180876,3.7589961616222096
630,-0.6486368352941356,0.9621012883837533,0.9424561862505328,4.792620408283052,-0.11466081276755324,2.460998023342027
640,-0.6633922115862396,0.9443536147207794,0.9265379050341102,3.4669406291728855,0.4575975784924487,2.378186712944341
650,-0.6528614340021387,0.9527886376123915,0.9389014305251158,2.563564643639232,1.0361576256714908,2.3711628221821384
660,-0.6509650350134706,0.9635393752751016,0.9450852198726286,0.3154690768293349,-0.7726081991856047,4.406807062244819
670,-0.6741339414072464,0.9415894589070859,0.9147214918129213,4.991496727232373,1.0779338076545266,6.50673346754979
680,-0.6654403122118361,0.9568196745909362,0.931160489411175,0.1188997179223128,-1.0926387488778009,1.6430216285948036
690,-0.6671536052612794,0.9521683046076099,0.9214220345070426,-0.36566440541440404,1.4994654378557501,1.6922883827609037
700,-0.6300074766658832,0.9779670728852458,0.9577437374153086,-2.948590175779919,-0.7631018905872783,-1.2093224071297983
710,-0.6829057359496912,0.9275992492465859,0.9085268809265016,-0.6468753336168773,-0.5227469621355364,0.5047657075798477
720,-0.6455498319958818,0.9677302613903833,0.9459890501308843,0.16416853178022117,-0.42168094356168057,1.3742516521435157
730,-0.6736751984228064,0.9416859996799434,0.9075904845106276,1.827266412907579,-0.6587628549864049,0.105773874242649
740,-0.6696572784748308,0.9539078368296913,0.9254161251969776,3.364474004744168,1.3417929432864613,0.4747093208066395
750,-0.661230294756444,0.9488758238952546,0.9328844243888832,-1.0196870653960142,-2.243473700827668,-3.2213712513432866
760,-0.6507582790099289,0.960204831593858,0.9319056413696831,3.731302591648084,2.256966219822611,2.154851519046199
770,-0.6569379544251303,0.9616556877316241,0.9299703093572433,-0.5700671151608059,-0.8788383945600354,0.5998565040449506
780,-0.6282338126285352,0.9841335924357759,0.9691182004898585,-2.9789361668486154,-1.6295077356638392,-0.5288090634743909
790,-0.6314632420535911,0.9774243382775856,0.9544883243817106,-0.1191667726743234,2.284874134003364,3.9885355984183843
800,-0.6925879993352241,0.9054503816594774,0.894034999726023,4.244692398041127,3.1902473170811136,5.605546933470374
810,-0.6527112024033594,0.9689004688642828,0.9300904328425869,13.381271070213986,4.249730099701831,7.396499364814033
820,-0.6725931009307027,0.9721108363563311,0.936217460652598,3.2303306377858405,-0.0318760041950652,-0.09574466055002295
830,-0.6844228170654795,0.9084752498983828,0.9091108965622484,3.957499815721562,-5.712558334530102,-3.9062404372884347
840,-0.6687680984676752,0.9887545598115175,0.9070331309265967,3.2714026149686726,-1.7074718235349118,0.6116554934471683
850,-0.6580862112383015,0.9913281980110503,0.9015130806673554,3.725003929215889,-2.0224941545508344,-1.0591285647422506
860,-0.6733806713610075,0.9710697580844586,0.9288776928846538,1.2196726312254154,-0.97594267605202,-2.8130408848095376
870,-0.6634986671523213,0.9546151483415396,0.9234447445715289,5.603320487125147,3.256154731967246,3.6355285884383366
880,-0.6695053340167932,0.9499674029725824,0.9246002571049765,-0.16613752079871968,-2.48397071991863,-1.6945374928777615
890,-0.6545938949639909,0.9629481873214618,0.9238988750212057,0.0062813239526026965,-0.6630520388407977,-1.0138169681165603
900,-0.6407700516751447,0.9766305573182947,0.9475754033141535,-1.120323350109849,-1.6534223970287198,-2.425666017593787
910,-0.6530500082097989,0.9622414985433411,0.9377014694344246,2.1059582801243293,-1.145391727054053,-0.4696451609709753
920,-0.6632104839254757,0.9573623456324256,0.9264333475732596,3.0986491972943195,0.2934079646649207,1.313843467193717
930,-0.6397169221447461,0.9843191566605803,0.9445344787245478,2.127958543010516,2.040687386748366,2.340548082033896
940,-0.6330355909481648,0.9953186558421826,0.9513534928060403,1.833425701696602,2.7624863503905814,1.5395108446043957
950,-0.6393570095481241,0.9904005162678489,0.9633817983535164,-2.587946972800389,-1.211752516442882,-2.5789091209715194
960,-0.6830450003034985,0.942504691092253,0.9137534014147263,-1.7776813120114463,-0.9372458828597738,-1.240479066686389
970,-0.6524404096096613,0.9634172604993729,0.9430052674734406,0.17621325382324726,-0.9115141250600666,0.20672778912752587
980,-0.6358559139979678,0.9898097189877711,0.9539043387620347,2.4252489765044127,-0.3864556663711413,0.495630347214133
990,-0.6385159748153505,0.9845790983636962,0.9495589399167208,3.7099525778306264,0.806137750631999,1.0545837342544235
1000,-0.6787710761431263,0.9439520027394114,0.9139163394036169,3.107486700092802,0.39511975616888284,0.1865529834417688
1010,-0.6247051943801062,0.9992970601068277,0.9643085350877201,2.075109487421873,0.9529935194911331,0.35017525640969827
1020,-0.6543119043664404,0.9715033179922876,0.9392964556493885,-0.6857967069094775,-0.014926183612813448,-0.4742765389942793
1030,-0.6602273486953405,0.960176658185095,0.9358826118316467,1.0145569116237527,-2.116600533754371,0.1635955930807611
1040,-0.6242506735872702,0.9959124411589895,0.9671407191416557,3.8275918152567976,1.044903441248864,3.792621111205627
1050,-0.6623541640745955,0.9628127511522736,0.9281179471310457,-1.5376293203090174,-2.483149213205352,-0.8488112466071329
1060,-0.6482424157068842,0.9794694491285368,0.9432435349786292,-2.6573107553223125,-1.1417271648504306,-1.0938403271213186
1070,-0.6574818158392135,0.9661558455297872,0.9294517244512779,-6.641216819804988,-4.098715568634494,-4.991583807455986
1080,-0.6545877513447542,0.972184900284695,0.935931557552408,-1.3310070333720523,-3.511452815852148,-2.968752203733215
1090,-0.6567302014214806,0.9712439391330516,0.9324617172274,4.838404443672905,0.696615034072263,2.5648586236572757
1100,-0.6309032532664643,0.9880634529549686,0.9415335074006179,7.0077954011127,0.508777452713999,2.327537478328737
1110,-0.6532653826884082,0.9793161930596197,0.9398925412063104,6.644312657198343,3.118277769510422,2.7680258936466697
1120,-0.6594308156493012,0.9722594638789455,0.9261037420763639,0.25988246045561536,-0.46951710573620065,-0.7556833905045883
1130,-0.6376581171070098,0.9908539213879496,0.9449056815642575,3.1119106907291907,2.375465231467839,4.010459056629238
1140,-0.6317513144623293,0.9981396449642983,0.9596201991803749,1.213174591875679,-0.7732441062898561,1.1961018572634066
1150,-0.649278814544226,0.9904452334614805,0.9415955147346172,-2.2775613502691265,-1.8359519335572485,-2.3450039895748187
1160,-0.6455394928587771,0.9978301581972231,0.9405754292975993,-7.235563989879742,-4.34321109272323,-6.028365823928933
1170,-0.6479834909531142,0.9738169619673237,0.9388662648789609,-3.286412191732895,-0.23354283786593044,-1.8548787679116423
1180,-0.65489777179985,0.9704341957376352,0.9304130187628554,-3.2188834370577357,-1.955767960063799,-2.230930019565321
1190,-0.6338879729722467,0.991364490214876,0.9538697248534431,3.0501796577555984,2.259634630318398,2.5263316092003216
1200,-0.6436777143090969,0.9848728450349304,0.9478490531030945,2.6164371013224064,1.596568137537233,1.9158659712111787
1210,-0.6298195866466754,0.9961669201600655,0.9541138101253065,0.5203017182279056,-0.2576102516826586,-0.23391229310608042
1220,-0.6297034064337401,0.9991888125208026,0.9540099072411831,2.6642213521917792,2.0574496883048314,1.7402295889300827
1230,-0.6542575325077846,0.9753891895759516,0.9361166050777212,0.11980548548581435,0.4019061061138016,-0.052778895921663294
1240,-0.642474991978883,0.9869851227061498,0.9460891493102367,-0.16350502976199377,-0.9355280678971633,-0.06188418235723392
1250,-0.665955529995234,0.9685205836760481,0.9285047819198036,3.9830039680591183,3.3861413875294124,3.720098696581471
1260,-0.6438167251348855,0.9865802372459954,0.9420267839703446,0.4150646855435971,-0.7968412796259066,-0.29977372119984846
1270,-0.6536963520829318,0.9748353606213246,0.9299897106617528,-0.6008188492934967,-2.5491438769264727,-1.9539248745543905
1280,-0.6578069033990761,0.972807653476999,0.92978551403055,1.4822960215631449,-0.29725699198894534,0.35819078795052584
1290,-0.6450501239448814,0.9840935948864027,0.9386750121483306,3.7870633123683053,2.770396475421319,3.5845681353120336
1300,-0.6615507651254386,0.9728489404447264,0.9231177317653279,2.8829513971700544,2.4168060907452746,3.0890552953176007
1310,-0.6412265118914069,0.9857918076719216,0.941551900360585,2.8452717090520085,0.9806037713896154,2.1071312585258872
1320,-0.6552258669285767,0.966595634058246,0.9287642995420925,-0.5746530943338954,-3.1931394386061576,-1.9672165574365583
1330,-0.658334955454481,0.983521228612501,0.9289743888729353,2.8299838488056377,1.1074450986301023,1.8612093138555355
1340,-0.6595381513717408,0.9758988282537602,0.9277398722231903,0.029488104034431695,-0.7538133608070455,-0.5138913719149687
1350,-0.6563971120510563,0.9744885408526619,0.9310455016949617,-1.4166976098482742,-1.7859487121815047,-1.347193296039916
1360,-0.6341876995179749,0.9913502207801387,0.954300299975108,0.8975469319895427,0.20537342466235203,0.6835999498724814
1370,-0.6403588416069959,0.9952669020123938,0.9427656465537465,-0.08194620781618978,-0.8475249904190537,-0.2638874125300019
1380,-0.6295963781007017,1.00584023309706,0.9588301282976923,-0.9938744357305613,-1.5237505081146505,-0.7201318877174702
1390,-0.6261451307867998,1.0057457144843496,0.9602007569167857,0.7436865794893865,0.3065803322853131,1.377575985669266
1400,-0.6640246881804686,0.9701299645754768,0.920403641336247,-1.820495331506007,-2.7627629139643495,-1.7039432713624685
1410,-0.6330295766285814,0.9991319221578789,0.948153002000554,-0.87023756759115,-1.1020811171183695,-0.7634166812397486
1420,-0.6492594444141085,0.9868359896216679,0.9364839137118842,2.615905886572759,2.9435872936063707,2.8133196185041
1430,-0.6609053091980334,0.9694376092555554,0.9155341284217093,0.0577945493268292,0.9378108736955887,0.5237480012189233
1440,-0.6588562771998435,0.9758131544938756,0.9286065519161311,-1.4366550712295734,-0.3325367392176168,-0.30412986798779074
1450,-0.6640315965203488,0.9756103520597181,0.9262179398800621,1.8039271337287595,0.4309610292846446,1.7447236066344312
1460,-0.6096620162419442,1.0388950974162479,0.9671103241059409,-1.3092120568241281,-1.4702337399931857,-0.9809267364528871
