time_ms,ax,ay,az,gx,gy,gz
0,-0.774995921950421,0.5205098138358498,0.5575953737717544,0.6546573298893421,-1.1080201759315988,-0.188581084301842
10,-0.8038764219989448,0.4967019279187138,0.5308369431139824,-1.7305923327585102,-3.4151612433816734,-2.9541444981961407
20,-0.7773306356182593,0.525060193508941,0.5540063065964096,0.5531578354085688,0.488669488725879,0.4989866277304327
30,-0.7728974120946733,0.5241352545301289,0.5604576948878434,-2.1692239640418856,0.16523698815285195,-0.9007102548360405
40,-0.8107634946117919,0.4817714780377934,0.5203701355081589,-2.72364664148098,-0.5792927175393898,-1.6677946513704618
50,-0.786409080833988,0.5047842613953184,0.5497015839395932,-2.3223557132652015,-1.851828376598835,-2.3945118746734497
60,-0.793493409531532,0.504379382656432,0.543173246463197,0.6165980716473191,0.3263187415554487,-0.10051544156533282
70,-0.8031807193267819,0.49738789765653635,0.5357477901692431,2.3399485609685406,1.5459055059385098,1.143817471284146
80,-0.774989786248813,0.5229134852505715,0.5610587861196699,-0.03285533043068223,0.13349461417443367,-0.5267188442667359
90,-0.7948227747382416,0.5035361282957949,0.5361114610804533,-1.924032438297057,-0.5843545704320448,-1.3977357395339436
100,-0.7666816481699029,0.5276664477186068,0.5660560994392808,-2.0371135961392257,-0.901281480130101,-1.3457700184393022
110,-0.7777089655678653,0.5101953340798053,0.556856689898399,-3.0730565829729817,-3.3248654325689246,-2.9347943131438465
120,-0.7666277332548943,0.5257020673358203,0.5656384161405266,1.6541822155075512,0.45545506699606686,1.457229171827818
130,-0.758536666648876,0.5400156205218298,0.5736390878761163,2.05456606117384,1.350645045808884,1.8952968164705872
140,-0.7970408295896457,0.4979637673204918,0.5351408347128701,-0.5693522769641357,-0.3603952201361563,-0.7853266763264828
150,-0.7773539447378732,0.5132020453273038,0.5578378441873174,-3.520023952391786,-2.2576648382658537,-2.798441315113676
160,-0.7844315514906381,0.5020274476989228,0.5522822841180274,-0.840625282877135,-1.2178909128982058,-0.6559491242456719
170,-0.7996332216507132,0.4946789776952854,0.5374893905823548,0.6964253804842746,-1.4585134715001404,0.4461735988188227
180,-0.7887787020680264,0.5038317017790365,0.5527643486583853,2.574977111228425,0.07655250106983968,2.4318569922032207
190,-0.7920487740665688,0.504092224667734,0.5439285164096569,3.1114739486434715,-0.10613107812865541,2.6431437672421163
200,-0.8069909513878274,0.5164352317874851,0.5580350273575351,4.433616950026042,-1.2940326542650928,4.059960927619944
210,-0.9536445180410273,0.5972280160514833,0.5975663991032188,8.94242731249022,-3.2806416412332666,-0.6598760785390463
220,-0.9950078784711276,0.6224562679877624,0.7944783798069032,3.3133668539838466,-47.311946248067706,10.353139352301602
230,-0.838973847450452,0.5901242717027481,0.7060908622021912,-1.395044128237969,-67.20168308626052,15.032973374740628
240,-0.7293550667690868,0.6158391406706677,0.6306201794657784,-10.275665051078649,-76.10582719753887,19.48698382105092
250,-0.6698659307451321,0.5954028011371237,0.5968823644906597,-9.023403299769509,-72.85624124446812,26.412351318377592
260,-0.6598620895638804,0.533456428304476,0.5288399298561303,-8.120067873909818,-67.1756048640106,27.44861321244968
270,-0.6286910246732073,0.5263983787585497,0.5683573232242574,-2.2078117139852287,-32.76366312989282,12.920696281404444
280,-0.6353541897050267,0.5627272360239209,0.6265459202026866,-0.7350155089724544,-3.945405250551959,1.6579361025234007
290,-0.6486515067627187,0.5877014595449938,0.6700173613806757,-8.451343439890023,2.659868753163816,-4.361534199610231
300,-0.6607638474501331,0.5604681065392441,0.6682167754633089,-11.014698793655205,8.767941608847929,-6.425846735973774
310,-0.6954925011061956,0.5248003727856879,0.6504399906893941,-11.757409189218844,10.601735752511093,-10.03507640450082
320,-0.725788839390729,0.5306731763352601,0.6828822309575047,-8.874780115639537,12.683718092461133,-10.90880570041595
330,-0.8136595193957687,0.49352224525689187,0.6098018523086842,-6.254951225005476,6.137307075148977,-4.864511342173541
340,-0.8293406065500754,0.4854930974244194,0.5718323349142733,0.818177705410814,-15.232114246204398,7.887973183521048
350,-0.6928294203919896,0.5543410597158666,0.6735680708740917,12.97952967004641,-17.859317393107276,4.972285566201896
360,-0.730001789547524,0.5949205591173512,0.6833781552726792,-2.2862113809170204,-2.0057221655435287,4.820808724641277
370,-0.7484972296184719,0.5914571631142422,0.6431635267811355,-10.445831632892192,-7.90794678543746,3.096561759153856
380,-0.8111040574810383,0.5536266791450695,0.4839283970532101,-31.55165832659377,-11.816844235637866,3.120143981248707
390,-0.755779352783264,0.6169830380031472,0.6968557717996308,-18.14991349008293,-7.246527431569395,-1.9551901787563044
400,-0.9989016081131974,0.4447573925634062,0.4338395216712201,-69.7434767531809,7.8142379798593415,11.472731764727037
410,-1.0008893009130506,0.439419769100805,0.6328992626247104,-73.95366438687458,24.82822607774649,42.64201526016984
420,-1.01642929363247,0.008007607531319003,0.26115080337840957,-65.08926317678161,33.499436823935135,34.172591549326114
430,-0.8228212826020319,0.642428929829522,0.16161919815022194,-27.51687059467406,34.9128374405452,33.449035400980335
440,-0.7599879222604415,-0.23441024594434812,0.5513241059333236,-19.993351885811734,38.294709961903074,5.654158873176771
450,-0.7038728552817634,-0.0387053061168918,0.7366057253558035,-14.256055573324588,46.029445830190326,13.532284140273205
460,-0.6000462316634685,0.6299537688232886,0.9871783191922713,18.87959440755076,48.74194977397374,21.88866812650015
470,-0.6985397863500094,0.5412795069561783,0.6535094100358859,39.33180445693118,44.04421787975584,1.732401384695136
480,-0.7078785099308768,0.5095563489513392,0.9916559639894077,49.97182316284467,38.35683350489463,1.3447845194493728
490,-0.7361069980567617,0.6637481211749428,1.2712196598593657,65.31650906072076,33.99269738127255,-6.409996060652074
500,-0.9778877838893177,0.46615065661032234,0.9469444177679245,76.29582897647073,35.427117310752934,-34.84656174249455
510,-1.0023683568770387,0.37502381783823424,0.877068447629362,49.45508557397801,19.615476968811603,-34.06213600338268
520,-0.8891758988973165,0.6483639776433924,0.35963547887174596,9.3975875705061,-1.8719663107641553,-6.569404045840141
530,-0.8426170747927305,0.890167396328994,0.5188016789893719,8.661268266863079,-6.736537437599152,-13.443830003141166
540,-0.7593769903548582,0.687861734114345,0.42638151725698037,30.637378391296586,-1.0914085730408427,-27.17253846383354
550,-1.0588044360386377,0.783024586941848,0.30448842831155026,32.00151403064126,4.131035653456613,-41.00735288604577
560,-0.7410130967692304,0.38795786706808677,0.6180490158702684,-1.8242998039225038,1.1931605401633407,-16.01204867909064
570,-0.8044164829553616,0.7621292681922529,0.42674675172727594,1.1447936877303282,5.405845864524332,1.3971858130723969
580,-0.7475394615909903,0.3115748703205072,0.62317051016366,-11.491522686573509,2.981219025709938,-20.859831537246716
590,-0.8042483676193686,0.5204037145766394,0.5399293926564495,-3.0450118573740497,1.9083694402504758,-1.5078495218853334
600,-0.8036310020476546,0.5343577796013504,0.5333819009060525,-0.8956985871406218,0.7747693545109716,0.23040671876287078
610,-0.8031777759091494,0.5239550925019522,0.5317627574464096,-0.0740216871103343,0.6006514805128549,1.1261581135130663
620,-0.8074140129592772,0.5261299187985825,0.5274878399802104,0.2766398049820156,-0.25921062654677585,0.6673570535883131
630,-0.7743721857722996,0.560576956866518,0.556276929433285,-1.8101360681633232,-1.181088366079896,-1.0887861959
640,-0.7929373212633525,0.5362910425786938,0.5464799414585635,-2.6335049638094454,-1.6233037205519005,-2.3217045664648728
650,-0.7842969664578616,0.5382456983252878,0.5540759806922727,-1.8054624995447264,-2.3158078880296196,-2.5665766663709153
660,-0.8075999106773674,0.517308904756283,0.5262120873708445,4.647431291291618,3.384209651839089,4.0399821066252315
670,-0.8001536907840316,0.5264252735669732,0.534343838420642,2.1163202583200924,1.599097997936331,2.2330832843346333
680,-0.7941737926819243,0.5354948005911322,0.5410955511061865,-0.2778909838062277,0.012686831405646803,0.1879882784877303
690,-0.7853763277297071,0.5470520520801494,0.5486760885463183,-1.5144096400502325,-1.0074971172606557,-1.073355604629836
700,-0.7899615533690084,0.540763835138935,0.5435716503964222,0.46492426969366707,1.287433594728182,0.7235849641217356
710,-0.7932849400034072,0.5393415716965665,0.5422542917957651,-2.801983483153826,-2.086612776868892,-2.5558750839082265
720,-0.7956706337651384,0.5332735421174316,0.5426548402577388,1.4111051772451306,0.38614124004280664,1.4308958642259975
730,-0.8005173056832805,0.524642618340459,0.5357428836146995,3.6747466296493076,1.7315084123378162,3.1122477546569973
740,-0.8071512238680626,0.5196596498587026,0.527764578713095,3.9237886119781016,2.11801458960169,2.9772496125886603
750,-0.7891640618705086,0.543400460757177,0.5507799385625923,-0.08319498245660717,-0.7497836272895015,-1.1083628837012038
760,-0.7825375487965902,0.5445803325014261,0.5512402050726772,0.9783698988495839,1.309119433449299,0.44988994267409504
770,-0.7837267371475685,0.5474587507282561,0.5518119832756133,0.4214592783111666,1.7344062978325665,0.5940481913539998
780,-0.7824699640254853,0.553627820856029,0.5564945145236272,0.20426380199741634,0.030919994820267083,0.6741748002602029
790,-0.8215635507154738,0.5110994866442743,0.5177221281565508,-1.452137117911566,-1.3931009011465179,-2.141078740655716
800,-0.7759592761904928,0.5565231579263964,0.5560880590987225,-3.1728407817577238,-1.6882659235879394,-3.5238964981706973
810,-0.7768096301603669,0.5530750428134065,0.5569497125235428,-4.679452282040819,-2.244717238724276,-4.434191590265454
820,-0.7940087342588499,0.522802886583355,0.5373170295516123,-1.331339305584649,0.07787949898024484,-0.8638081470234246
830,-0.8288699416949815,0.4880332846957153,0.5003263377427087,0.9459901489328333,0.5104663344665864,1.1756571467336032
840,-0.7961276424283873,0.5348212874518151,0.5377775667023139,1.293986049184305,1.516270355771384,1.109745651722431
850,-0.7708562660427873,0.5652980498326996,0.5641113889291345,-2.187910976796359,-1.2488337047413374,-2.634980275099712
860,-0.7930108617310659,0.5379794149755865,0.5397422259551521,-2.448826316269848,-1.6472986579314306,-2.6862386642805554
870,-0.8035319855431051,0.5225686055895181,0.5264066414868379,-1.2973959795906365,-1.7396790620706057,-1.4915060275185148
880,-0.7892280110149866,0.5336503785556108,0.5399727791592421,0.44314623781712065,-1.4698527313578384,-0.18276394065638912
890,-0.7971976455844131,0.5234124594088174,0.532941118791446,0.939073652569577,-0.864958061754012,0.12375605506082354
900,-0.7752874964509442,0.546349722700799,0.5554406836446096,0.167152154467068,1.3638409826445348,0.8924545553841925
910,-0.7819852605482006,0.5444382467426266,0.55232621669791,-4.0113646317050735,1.227518646797698,-0.8277757327850824
920,-0.7878721352311685,0.542096685902871,0.5454811790014037,-1.8580446933700001,2.244333343263075,0.5275601810314907
930,-0.7903733034420983,0.5278905027040356,0.541440350362491,-1.2287653545684682,1.7816060481597429,0.4393220336878789
940,-0.806384701991458,0.5138309744162334,0.5295000245783498,-0.9430312193243711,-1.0082967871349398,-1.4604220470398137
950,-0.8089833414818047,0.5210226337366293,0.522286121647345,1.3219059593381868,-0.18681432361971262,-0.16364151177825065
960,-0.7917619122151514,0.5374732304593015,0.5405279720442372,2.2324197843402587,0.6858598642469329,0.6644992783309136
970,-0.7905292449950267,0.532753557204268,0.5408626945050459,-0.011304598176503422,1.0357168254738744,-0.45890213976973215
980,-0.7892095882307191,0.5297026242039976,0.542555451970243,2.1145347758642568,1.6585291491157181,1.5109010880622598
990,-0.8029725544792979,0.5179830002689461,0.5298819123934201,3.9322903115400774,1.1150240144452912,2.2533721588068323
1000,-0.8204416926852535,0.5067168102809684,0.5094871456686719,1.3609991673440234,-2.1716569796192333,-0.36694516543315836
1010,-0.7577578229266552,0.5691319583148863,0.5690920159686166,1.927772065868264,-0.3235523875890626,0.650569872355911
1020,-0.7896035576548119,0.5412880548020129,0.5408803385705339,4.1967726537299805,4.191243971347712,3.924581674787353
1030,-0.811243433389802,0.5181184590893768,0.5241252404639326,-1.6114367535905052,-0.04042826457279951,-0.3616088510393985
1040,-0.8147533934434359,0.5074577045674098,0.5147202753196158,1.9329669293709737,2.3509042115569576,3.008424344878679
1050,-0.8013203766501191,0.5183620280919334,0.5277303773487702,3.119020895213912,1.7245107849107417,3.1134976375340986
1060,-0.7929141369907525,0.5279775923009684,0.5381084996867801,1.363888259535072,-0.6647950722139977,0.5116316707762656
1070,-0.7805013075054078,0.5435225984054196,0.549056745994676,1.6146169541747715,0.011300024607271864,0.6657708045917705
1080,-0.794314384434318,0.5349014459818123,0.5382272262319412,0.16845626526376734,0.2279782255581807,-0.027834213703473942
1090,-0.7988279991048504,0.5271178265626191,0.5361781229136771,-4.409603582373913,-3.0488724960476468,-4.236876519752755
1100,-0.7862212751269528,0.5295570297331414,0.5443238846190938,2.072238981982626,1.5853497401558412,1.4503516204166211
1110,-0.8072361608332709,0.5140927025225923,0.5228237875750895,1.8965149366554739,-0.9768238745306086,0.7213349507114348
1120,-0.8283424571488341,0.5008283576830164,0.5066692898423938,2.5804317311170366,0.6286345695520057,2.2001210849316917
1130,-0.8009805639103337,0.5296809233906841,0.5303312141585131,-0.27190834303232914,-0.17451793577889008,-0.2539864178308837
1140,-0.796703633512289,0.5338606002740225,0.5304533490788228,2.3287902932608997,4.915699327610288,3.1143636074627508
1150,-0.7870183500957396,0.5378433419002764,0.5495196734025428,-2.0013767875735606,1.2297745473224022,-1.000351687511926
1160,-0.8097909378650374,0.5112044878936264,0.5228498048354069,3.412778454457431,1.7073243310663992,3.526399507823478
1170,-0.7723130825499959,0.5552915142377467,0.5557016642200089,2.3745877789586656,1.6033158452820504,2.183788279295448
1180,-0.8039932635605714,0.5296288578786537,0.5279649593230913,-1.8827355717559033,-1.7585481342499025,-2.0514588619437415
1190,-0.7918848700814801,0.5365378552897018,0.5384437892146846,-3.6560174930967193,-1.6536354317117294,-3.3467781845743447
1200,-0.7900774647864995,0.5329110987271013,0.5359044825453912,-0.10252397009025005,1.8057021839883713,-0.08837671228017419
1210,-0.8042136601702324,0.5124280104364352,0.5253975711355194,-1.2622194292756548,-0.8519562017738578,-1.5575764833828103
1220,-0.765033179865974,0.5608735001770403,0.5702111216645595,1.3192292191864332,0.7379905888455838,0.5990364816201119
1230,-0.7988772117804357,0.5313751957405768,0.534845291934695,1.5848610382293997,1.372553829935966,0.980298100908893
1240,-0.8026675547372373,0.5272317669880425,0.5278574982565302,1.457060682329417,1.947401363631355,1.2755530694154478
1250,-0.7855350838941867,0.5435596705539607,0.5410175110217245,0.2525309132442439,0.7435110582190112,0.06477060078748792
1260,-0.7967309573440441,0.5295916220837469,0.5306099188512704,2.2901950312702044,2.315202932971846,2.156706387692213
1270,-0.8006676897142821,0.5223331548015369,0.5292206160946508,-0.7437949181915711,-1.2023632276500391,-0.8007669511363742
1280,-0.7906354305216741,0.5334842288779572,0.5414495545420659,1.0402597552533313,-0.020730178609920158,0.4254486304480238
1290,-0.795585949908744,0.534909965510679,0.5418715850560823,1.1553273782878946,-0.07262324139376213,0.3434669838611329
1300,-0.8046338537186845,0.5286026184246343,0.5266322513639525,0.6912507287602567,0.6204696058044584,0.7182180868276253
1310,-0.7948691619923991,0.5371871245652827,0.5354058780195186,-0.8981266100523855,0.1941094126977984,-0.41315843975980815
1320,-0.7861676756168671,0.5428406525327902,0.5457022855500028,-4.695341961910392,-3.544690288370498,-4.224115212013111
1330,-0.8016585675685649,0.5228517520856153,0.5306206747515757,-2.862542038297417,-2.081901542463082,-2.580385541986902
1340,-0.7811064088831734,0.5389416331037246,0.5510113071022543,2.7210578929044504,1.336751069879041,2.1773388905117272
1350,-0.7908698995801949,0.5395553820897901,0.5442429733480126,3.196608492316816,2.607095942607312,1.6457462437727042
