time_ms,ax,ay,az,gx,gy,gz
0,-0.8382479301558878,1.0229965828973955,0.7165179438872126,-0.6780493495459108,-0.43154449815685747,-1.463221989465382
10,-0.8314877499500469,1.024765688802692,0.7038514761795246,2.3394455951286055,2.9858230750666745,2.041495241141801
20,-0.8527056654330784,1.0035536898209838,0.6995251006906191,-2.942147660134753,-0.26283257470336785,-1.3609037177860257
30,-0.8388239515005609,1.0164398154652294,0.7145998421672999,0.2363815416635916,0.0038935769261548847,1.383707835214234
40,-0.8347295819060525,1.0180576915126787,0.7095832767095491,0.6441990844259561,2.049481847239919,2.0615547262346903
50,-0.8589375797051397,1.0031189688538025,0.6958587546990167,-1.406135372868031,0.4915990652808131,-0.46797885300630676
60,-0.8487296440159616,1.0116951090887543,0.6886608279208604,-0.5448915356986124,0.4019887241147887,-0.6961589586643733
70,-0.8232934235992975,1.0318157815157187,0.7208292526746274,-1.9654192291810997,-2.2420364727228344,-3.307524660274222
80,-0.8293568014248514,1.0278764036356143,0.7162606295164061,1.0652339362296142,1.3993595769507874,2.1631177308897223
90,-0.8498630440682271,1.0143370106256264,0.7005941350761298,-0.6995170603947736,-0.3066649504449648,0.2004337291213245
100,-0.865690011436832,0.9954426666645368,0.6833621406850522,-0.051221429134962415,-0.3494043249268713,0.5287986071744566
110,-0.8702929395890714,0.9895259437459222,0.6790873209735415,1.660884707928692,0.7649204542247283,1.5176052903822388
120,-0.8391708199100735,1.019309876361919,0.7117265229084362,3.6520638223612405,1.9685247637933003,3.1212358854592797
130,-0.8586782618268478,0.9996257071187331,0.6898520888385617,-0.47642207699236344,-0.3161666113994679,-0.1283642429707419
140,-0.8631249102414772,1.0080263022593328,0.6896849657445542,-0.8743689846424562,-0.5771583114201095,-0.8394716892870936
150,-0.836099494088042,1.0194779444111115,0.7050484867408504,-0.523919660793136,0.3197627716642174,-0.6104417289491413
160,-0.8460406603422341,1.0057092066459765,0.7000456094481616,-0.7170403066929636,-0.6001184340052261,-1.1931710447485884
170,-0.8426227481647307,1.0107102035112292,0.703785954853257,2.8956125039187266,2.2531199238860085,2.7068583408825706
180,-0.8464336635603873,1.0137066393287983,0.7001718232082906,1.866776840683785,2.4882668435337467,2.4177682954702595
190,-0.8448066020447351,1.0107270347233364,0.7012093995320041,-3.219463274192856,-0.4942301648371689,-2.0993655981202446
200,-0.8368198798831447,1.0207410527554746,0.7081592478555011,-4.782937255897212,-1.0005075408972701,-3.044259942216442
210,-0.8501623205081424,1.0102148270945586,0.7002116530769846,-5.016199947021872,-1.6664285521199518,-3.394434234695667
220,-0.8366904525468893,1.0196945709385326,0.7143520545619574,-1.0543455419683183,1.1599381629688605,-0.37273384274523336
230,-0.8483373689977111,1.0053048517577745,0.7045659948214023,1.2344047031893908,2.195985280499947,2.0365215900193365
240,-0.8712506709627512,0.9856537616289821,0.6790994774429235,-1.6310757984359259,-1.092868122279204,-0.26631832981885684
250,-0.8602322737080315,1.0005845255241426,0.6970402842612384,2.2634290024553754,0.8969456277955168,2.823854354816185
260,-0.8675037892217553,1.011917272672733,0.7039211885759589,2.7890383994565986,-0.5043685321257951,3.6129271692816753
270,-0.9532338304547736,1.0376357584923692,0.7019946780348899,3.8533626470173017,-4.212639623955918,8.81460492641606
280,-1.1079877227923323,1.2633666823234064,0.8584284264312754,3.043627030450146,-25.451964514983437,27.878844025513807
290,-0.7384841083157823,0.9769934144390728,0.8639472483589079,15.808850754243714,-75.9747201791499,24.61123893688449
300,-0.6356731619427082,1.005145166059921,0.8555184896558672,-11.568282494412369,-76.28944218307949,8.365948747517546
310,-0.5432935974619744,1.0472575836036708,0.7004407164765349,-46.83362375987493,-73.70972779913649,-14.68577897003043
320,-0.48109120042609926,1.0635333550478114,0.6139406674972503,-52.209520983710576,-51.39558413295503,-21.01991222516652
330,-0.4967643954821188,1.0106737206826384,0.684627998669201,-49.44207140351668,-26.06460552232613,-23.81862612319907
340,-0.8553392262501632,0.8819151312776993,0.8602901580568557,-16.140320344445666,-13.405555092067367,-33.05529177871152
350,-0.9535256802579793,0.9175896754949802,0.7912586878234574,-5.112036262589277,-11.646300502054617,-33.39615525676217
360,-0.9277053647038317,0.9242078196625416,0.8289189325384909,7.991119214470771,-12.407702608101044,-27.036211765512885
370,-0.749817738769544,0.9789170138371333,0.8971850333939685,8.917523767870852,-9.202284768589523,-23.195716224927896
380,-0.7176799506351536,0.9491819080049427,0.8148883228383312,-2.537346088329162,-7.504816956784678,-26.823836267338937
390,-0.7976876652184558,0.955716549574631,0.7625098268081854,-1.4280158033433024,4.678184587727014,-25.322637348009305
400,-0.8091264546145068,1.0136096798662018,0.7883201269137724,2.8081265325716096,18.452443434811553,-19.79494192845537
410,-0.8225399520277782,0.9503065534006564,0.7614175315257928,-5.715633073008971,20.739507890345557,-24.819435915375916
420,-0.8542171489743056,1.007540444288246,0.7940329030525075,-2.559011037913601,22.814023315068006,-20.657623983966538
430,-0.9129495103380586,0.9479909182840895,0.8876266855839157,-6.033339703485288,19.511192218381765,-19.73146074381628
440,-0.8882003706309809,0.8688812107553671,0.9491405131260898,-8.80545103324838,10.014711413724319,-24.251054919498646
450,-0.8563979805813711,0.8622286823438874,0.8988932065289641,-8.841590146972322,0.5414650984094723,-23.036617524834572
460,-0.8658941899735442,0.9124912274277526,0.8735096017071172,-1.178279429935005,1.886810400637462,-11.644538312262817
470,-0.819648986746286,0.9732501176155064,0.7528199113327567,-5.096765069001175,-6.558220699238865,-15.034849994847644
480,-0.8754365946791566,0.9515370460345517,0.7196946049290862,-7.196989567021687,-2.471156476037442,-13.13284203813876
490,-0.7855571363845354,0.8297128337706664,1.0486710843738059,7.954762508381966,-7.9781480511342115,-5.5149482673880055
500,-0.7953280128157565,0.9543656643684766,0.9241397251808138,-34.91861584920445,-9.39114057319684,-13.588162064748502
510,-0.8026953235030321,0.9375206149712431,0.8616472977846827,-34.931625540486,-10.457240130741441,-13.859198473002303
520,-0.8059538817948632,0.9908949138880067,0.967055308753718,-25.12659288995875,-10.332080622281062,-6.575470179865719
530,-0.8499269182803253,1.0361139243676585,0.7473429629444918,-6.142710837514077,-5.3317192011689265,11.968604914927711
540,-0.8589380814078699,1.1265915243488862,0.8022420551713128,-30.218900997772025,-7.7111265710145815,11.66648051520624
550,-0.8275585340304696,0.846605722869494,0.5862749210572887,3.127724885776614,-0.34985270237616084,33.44218161272922
560,-0.8398439706562925,0.7642676110796339,0.7250447396520704,-56.54060570488711,-5.487863229548761,-5.3300597269177326
570,-0.8908449090122373,0.9572760394062225,0.8763028330379047,-78.65621546675516,1.9113161612841738,8.058562748943586
580,-0.880371469128976,0.7071956029015277,0.8737782482376366,-49.87337263026877,9.275699469111037,21.61750461848399
590,-0.9471096079507709,0.9970770381312345,0.812189952135032,-23.661273630784606,11.418675286351549,27.343512161205783
600,-1.0288686628468042,1.020561881056792,0.6651804936550977,-45.64665526633884,21.907849899680805,20.591939442757912
610,-0.8441330513535268,0.7739384845733817,0.4854510817814585,-39.51814107455114,38.69112634964712,31.677266247549596
620,-0.9829548253560354,1.6024373142265298,0.9165203170765223,23.23048187240534,43.200747685283034,57.99234737015182
630,-0.8178615867489731,0.6349678658954848,0.7033508846584746,26.24361709828809,42.688231205118306,43.55177775669899
640,-0.8116010158409527,0.9852878953094998,0.1139609839494105,19.48642578826401,42.355816600254016,48.60045703780501
650,-0.7941663303673576,0.7194274491546828,0.5152454602190008,35.92591106786569,46.727837042054105,38.700087374405
660,-0.8414360099979548,0.8290612679943197,1.3929270655258859,68.15770431295542,57.48554149451502,34.22611083407653
670,-0.6849936471465781,1.1252407820235724,1.2096055008779738,65.29036083761126,39.62081133670359,26.61557775940844
680,-0.719963282048885,0.9916969485079603,1.0351137941613886,37.535906471478114,34.00628067069411,12.171739568921282
690,-0.6676856300741422,1.4121892272740506,1.1604947158729872,61.82719230197269,35.04704514133864,14.953072975552525
700,-0.9592690651386101,0.8046052882706846,0.5606114747005856,22.74770909320272,19.53388970614269,-5.595197997688285
710,-0.8065585429889434,0.8033574850873397,0.7619786338910275,49.5137524608736,4.859414048723545,-7.338884783167881
720,-1.0077207267354744,0.8468633020224431,0.6437191097962507,49.4792558340189,-8.435618312833405,-16.302256131958277
730,-1.0001814177789363,1.061191972697625,0.7485966096042345,24.18086921504733,-5.743315283386068,-11.054711484862564
740,-0.6096752828312394,0.8972864339391687,1.0211783709807805,26.381807221311853,-25.118803440252414,-21.620124982890825
750,-0.8771339677934474,0.7348187368182697,0.3349151422440765,23.561163796047705,-30.202210921601846,-27.232386520569925
760,-0.9520314386474018,1.2221837659727777,0.41177105254922197,49.83204127820287,-17.08142376565027,-2.3341734002219297
770,-0.8883124567674799,0.7576557287361081,0.9712032219771409,5.043107038957755,-18.407275313124405,-11.803252188214227
780,-0.8681842379130905,1.1909204871054577,0.5764566584552931,-13.241439367652747,-6.000923592673972,-4.911684203921366
790,-0.8409388169587267,1.0550627611368506,0.6509428348316779,0.3325626806892725,-6.426685203100519,-5.364633694477887
800,-0.8457943412855444,1.03057014215733,0.686041546254895,-13.190412226303755,-5.277105606584529,-11.14008741203002
810,-0.8608917840219311,1.0132983424576545,0.6812324308784611,-10.7238126099375,-1.194067019799869,-5.834324287536041
820,-0.8795710254075493,0.9814097399240708,0.6735076114236997,-14.396554505686755,-4.0780866234646815,-8.439095005448067
830,-0.8614070713976115,0.9832002264713411,0.6827763607419836,-16.310374512018484,-1.9671238050246864,-6.536217592612117
840,-0.8579597316564361,0.9753867498264653,0.6952866172847055,-13.477039871673282,-4.86099577103086,-5.604528168537305
850,-0.8639685075072046,0.9766782571485321,0.6935142347392207,-12.69971401002616,-2.8720807201014553,-0.5762872268543583
860,-0.8318108584674385,1.0157687893814658,0.7205981103044026,-10.97487693616364,-2.2943009290540948,-0.12939918595433708
870,-0.8551866157066363,0.9951316223424633,0.6934831095140027,-6.215457453188183,-0.1364293807181698,-1.3451860235521356
880,-0.8386632170198279,1.0023589031266202,0.707149193283328,-10.581163115688673,-0.15852969329241406,-5.350338468608559
890,-0.8306117277382138,1.0051803409451856,0.7303326724809551,-11.253474192072247,-1.722848998015671,-8.201057226487398
900,-0.8610403870965557,0.9701026068268984,0.6995133794902683,-10.211039121810845,-1.1345491335712612,-6.8828728024844095
910,-0.841672817354617,0.9796707126207039,0.7200309076961242,-4.9792641310523456,-2.413468941294188,-2.7689954405862696
920,-0.8514304615709672,0.9877222969959266,0.7168523997074959,6.401510673165329,-0.646257465714848,7.634644869033049
930,-0.8482325859195897,0.9799354340347424,0.7080024198397814,7.182411744904585,0.36593100386242733,7.122014502484211
940,-0.8379863600695912,1.0131587233960355,0.7144995712975787,-2.281818856070956,-1.6111372280196046,-1.0679432962425188
950,-0.8680565282379406,0.982958173190126,0.696667841100055,-1.9408913615880647,0.3411929512572036,-3.0653573480382366
960,-0.8478350699694699,0.9891417274151949,0.7177424156771578,1.107907989819921,0.8410121799120891,-1.695298868753045
970,-0.8672484636989247,0.9808960943568472,0.6928310339786908,2.2638268197268103,2.4957751735927984,1.4149860698527492
980,-0.8430753019348568,0.992705314079789,0.7102169076746089,-1.0122161977823976,2.176591341405178,0.4305340829283204
990,-0.8664807453788539,0.9680589102513586,0.6905170426920108,-0.6844772591652997,1.2391433690728686,1.7314298154445709
1000,-0.8584495187842088,0.9734435506329249,0.697174034103616,0.5331205863204223,-0.393049203007214,2.8463765012962594
1010,-0.8770566762728087,0.9597592004804597,0.6770875815381147,-1.0481984816973764,0.4680283284958806,3.388384671275405
1020,-0.8637922141890719,0.9711638531564174,0.6887448128388939,-4.518442397364817,0.29467743937371904,-2.5867715663599062
1030,-0.8717324642173603,0.9698906684171621,0.703459051750123,-0.8157844238252936,0.23104236387438792,-2.0114740205781114
1040,-0.8450576993575232,0.9861345548254525,0.7196504126220938,2.369225081384293,-0.34480729314077874,0.14412210376789014
1050,-0.8571187528595874,0.9761575766391121,0.7013541257293597,4.1072749274596045,0.5480103165318586,3.278451462325878
1060,-0.8145378924450174,1.0206139041623872,0.7423242854841846,3.877275447702274,0.9258902441902606,3.8318616896546493
1070,-0.8512210018172047,0.9886098890858362,0.7118694718014342,2.578014633702086,1.0583942458714197,2.32204135934103
1080,-0.8666915574177904,0.9727121414398324,0.6910884579163965,1.2698127296666644,-0.4374012336092379,0.11938718660760153
1090,-0.865332171257992,0.9676759697385551,0.7001622062613272,2.907994877941196,-0.5703328378550431,1.1969347724244357
1100,-0.8214979459198085,1.0168223859490841,0.7291912064189109,5.775490352109356,1.0926581150431276,3.6420059878480195
1110,-0.8425840701355116,0.998061159253029,0.7186472227638876,3.5247128442879174,-1.323120637302104,1.444194410360173
1120,-0.8290052975589205,1.0224377266586526,0.7225079204386132,2.9642162343362637,1.1598088994276519,2.8416024319070656
1130,-0.8551850969948905,0.9769768733374056,0.7038336801007843,1.0244976166973032,-0.2895502347337807,1.2366608733756355
1140,-0.8883400320134281,0.954679881072728,0.6761459852987746,5.101916732331022,-1.4126981992260834,2.3694751715569526
1150,-0.8514595341390826,0.9930243741999618,0.7157537230088735,7.456498785595638,-0.23165910038540494,3.6270157220518966
1160,-0.8631218778071068,1.0010518638531962,0.6954226728667221,1.4728915627190355,-1.7841790815710024,0.7036622266227961
1170,-0.8374829280578324,1.00643120086691,0.7228257896164286,-1.498828645034638,-3.843162009610106,-2.5836186147430773
1180,-0.8047413966454284,0.9432727352714072,0.8336067954545856,-3.602869607169959,-13.824808032918229,-6.057021266505082
1190,-0.8810856552578772,0.9882325224359748,0.6925923076136556,5.360350584021468,-13.813195887065262,-7.109820573705481
1200,-0.844969636207572,0.9572642356693067,0.5706197863782474,-5.695457501054973,-11.842698329295867,-11.86975981239525
1210,-0.8434432073759848,1.0461429096842796,0.6217678025594117,0.1619571874336323,-10.66471811826375,-11.803831682904363
1220,-0.875306769815195,1.027717517491998,0.647179723579904,6.755789901384319,-2.834437339202018,-0.6568301559630019
1230,-0.8431346021575875,0.9969336245724937,0.7213704746416665,-18.55604492748799,-1.1818663457020153,-7.295605563027451
1240,-0.8531305538755632,0.9815761922077127,0.7238913903802144,-18.546519804365847,0.484570302578456,-6.150643493303021
1250,-0.8593406507827531,0.9494092787363878,0.7051377890277611,-17.81372141396723,0.5387601110421649,-5.872703201878091
1260,-0.8282273628159742,0.9810232823796964,0.7479400137549876,-16.285186591086337,-0.9368539895877463,-6.902652230509037
1270,-0.871541419099863,0.9441892018515827,0.7094991783975736,-12.887949116449146,-1.3299238948591654,-6.311664688482136
1280,-0.8408051368302455,0.9682699807445947,0.7412923320418295,-3.1661378257683723,-0.12978357912373503,-1.3140067055255247
1290,-0.8521367929531577,0.9565768046563692,0.7328524629220093,2.2503248187783553,-0.7861198862281598,0.3425782648652329
1300,-0.8708453094647806,0.9285119286565526,0.7052461277311423,6.2009104430509545,1.42051978701704,3.4672182135631306
1310,-0.8635048632351897,0.9590761842819628,0.7079150841219086,0.9750880799073283,-0.5449993510459405,0.4758614632753051
1320,-0.8420853175895078,0.9775592353461685,0.732319920079145,-0.7668961417369793,0.3330107276387879,-0.04798462600651629
1330,-0.8663239043607167,0.950636877218479,0.7134184295620524,-0.42267707954309663,-0.0745942857153975,0.09297889779084248
1340,-0.8589170637593389,0.9558489997540899,0.7154067783148049,2.0283531368669827,0.9992512320375735,1.5889286435612187
1350,-0.8432776131151821,0.9757647798924369,0.7310859853302609,1.8712419542993883,1.2666594177025188,1.2092444645065195
1360,-0.820321195531331,1.0008169776959972,0.7618920015694159,0.8765773319758187,1.4117707222641687,0.7882704612959756
1370,-0.842520847942538,0.973034721917656,0.7324345426432114,-0.3542667829424251,1.7270919450347768,1.2587760092572584
1380,-0.8593637652391604,0.9571138063188104,0.7121000123717126,-1.9896352030374551,-0.5028922922824068,-0.16971193772764687
1390,-0.8403027179178516,0.9648150630321197,0.7435133168433599,-1.7525866329209334,-2.9638872998309473,-1.853123929903453
1400,-0.8510632714696087,0.9679568560563991,0.7326068772442692,6.452392451264261,3.9781442920756707,5.194277862880963
1410,-0.8374969673629147,0.987159612347092,0.7378503514408672,3.753003701096322,1.0641575228513438,2.119547331432193
1420,-0.8392725072386586,0.9803597532327908,0.731365396257771,-0.7893504534295654,-0.09771417964341292,-1.0398893385092278
1430,-0.8447878257732242,0.9695536887286382,0.7261187964054739,-2.375617322463242,-0.38368118099098525,-1.5287951275659513
1440,-0.859922063236504,0.9458288815784082,0.7090871469374463,-3.8318810805216756,-2.143472513806947,-1.9326043667045438
1450,-0.8659487053068317,0.952915341919311,0.7160816851709687,-4.627488027163311,-2.6507328897149094,-2.4606303843378368
1460,-0.8523647231799845,0.960770682486581,0.7241032762576264,1.8760769188118158,1.4368124982371486,2.473572331429245
1470,-0.8532228285463919,0.9609308444258365,0.7275093355624231,2.191115771195389,0.8417518428415233,2.569771568518056
1480,-0.8554506352715683,0.9590064371666273,0.714946285506172,0.29786525942890796,-0.9240157130497818,1.4960042967746405
1490,-0.8234172186289491,0.9858229619529268,0.7523957001302083,0.7960084496962493,1.379513356090531,2.931963861323735
1500,-0.8502507864847465,0.9726350249710265,0.7275839373720607,-0.24219308433322562,2.643483866488426,2.363924359736788
1510,-0.858577772793796,0.9584726094332336,0.7246085284532098,-0.37401956706948924,3.0319917542749377,1.1931901489050776
1520,-0.8691351414771676,0.9431625884143838,0.705468342734302,-3.0054352361262575,-2.3319046689794085,-2.9352466185817443
1530,-0.8502363996426463,0.9568975911811693,0.724965590014357,1.534262249627231,-0.12059897760448007,1.1951241861691297
1540,-0.8543200080135213,0.9615407318983263,0.7235830239490727,-0.9816087387189212,-2.359357589595888,-1.0883212102527295
1550,-0.8544054678418118,0.9723170824568819,0.7262400519325705,-0.6873612203656082,0.47037021137987245,-0.46021104402962343
1560,-0.858995900402042,0.9607893943464534,0.7184095768825707,3.279344020200233,3.624175792917977,2.529104410000097
1570,-0.8523844500857836,0.9737375232494364,0.7281722117407182,-2.7996006844074888,-3.1795926147456486,-3.8753582438297483
1580,-0.865433686539961,0.9520896255820318,0.7129246416831853,1.3454797364706526,1.1086711212117901,1.240097132179657
1590,-0.8327773676702763,0.9803811269601616,0.7417996748841352,-0.3250205559409711,-1.887681444692523,-0.27417391347930686
1600,-0.8479139128865517,0.9828300080251536,0.7336090867151759,0.8071456201660077,0.9575740090158016,0.6430374729692105
1610,-0.8381024227778172,0.9865576404494992,0.7427920652042741,0.9599788552452779,2.8831769912570255,1.5711473863256935
1620,-0.8687669567946641,0.950583431067684,0.7121220520982235,-1.3735365717431005,-0.37645823043502086,-1.1467316550919975
1630,-0.8573333818719789,0.9553325602319312,0.7096757703436058,0.14401963810683482,-1.0219900608343098,-0.4268730048527997
1640,-0.8601771952005203,0.9575384251128031,0.7174773350476898,0.0594796298893685,-1.7077812213464796,-0.5735741267215708
1650,-0.856367506253634,0.9735968105664988,0.7225315397945814,0.1019157129748976,-0.45630623454283503,-0.1658406763924311
1660,-0.8434046339949297,0.9787432640437024,0.7281269883823311,-3.001930940830781,1.8686942926481969,0.1322418994659964
1670,-0.8304338137641785,0.9917563362865189,0.751833002358888,-3.370494792071685,0.36295797803278346,-1.7000718471928074
1680,-0.8507629004756163,0.9642699871706821,0.7311343514314124,-2.055593026260291,-1.2613403219264556,-1.5758275278392007
1690,-0.8650184531266311,0.9506427410662444,0.7124607000150915,1.5595201432114958,0.3691600416722909,1.4272387075740711
1700,-0.8470637226158806,0.9724376222490517,0.7236085957051722,-2.54046682276899,-0.944597274241981,-1.0368518987420476
1710,-0.834978020203487,0.9906333737608216,0.7400730692559652,-4.361459279066308,-2.1314946310319014,-2.7532555932623275
1720,-0.8498519399435891,0.9682725391902869,0.7336321263119807,-3.7318108003467176,-2.50786757821057,-2.3318290205162517
1730,-0.8405534028897613,0.9735150159631291,0.7309413323148156,1.836667555073113,2.285265191816702,3.0738857222968945
1740,-0.8624684854308929,0.9504029170046309,0.708344293849773,4.726313410417938,3.1521458876715944,4.522701629114742
1750,-0.8386866684322993,0.976634218209238,0.7374246466851893,0.5539480867446134,-0.08908558324361543,0.27905432127735774
1760,-0.8066777970349941,1.0116644180692378,0.7696495253391787,3.069209431947187,2.7991293710947542,2.5887831572136535
1770,-0.8333777449139157,0.9843331239623235,0.744582637662734,3.620074448747352,1.6475570704753473,3.0264563928628547
1780,-0.8408954418888109,0.971111347690021,0.7276858311175025,6.048604594777144,2.44124455836321,4.642923938929476
1790,-0.8576349771838407,0.9671059932159366,0.7225522535551342,1.8944789354254274,0.43606432407687035,1.8393311526943166
1800,-0.8433909777763909,0.9842754299396687,0.7316605764182921,1.3898781842600727,0.7102561778087225,1.7160619678147548
1810,-0.8346191918314257,0.9933053044537238,0.742619581246711,0.5285672531297863,3.1411930105174366,2.2920121698004445
1820,-0.8557583598575838,0.968273533388603,0.7243582302714164,-1.8106073984978905,-0.40746359213750405,-0.2253483470584197
1830,-0.8700955139033101,0.9539047048643454,0.7026544660470645,3.3921610515162213,2.803174955766606,4.207294510590403
1840,-0.8656080143123707,0.9623157335058402,0.7098441896672281,3.0289560445187824,2.0865533806551535,3.0776533233934495
1850,-0.8401596962396575,0.9918521669955385,0.7385986096441216,1.339747669326634,1.4756962589945712,1.4648788414550638
1860,-0.8368751131787838,0.9913126170960305,0.7412794348374444,-2.4883010493921,-1.583326351376083,-0.874238501872094
1870,-0.8616452423442565,0.9663460209774041,0.7166265687575434,2.542291512853606,2.027850306501182,3.708126364692023
1880,-0.8576293430560017,0.9619134291828748,0.7167760983799388,-0.41806797427610953,-2.015600665873076,-0.3174824071542446
1890,-0.8329501498021944,0.9919714334289987,0.7420021224253651,5.6246277904468975,4.045949789805493,5.10043953091138
1900,-0.8428258426609614,0.9901007740311562,0.7331480250589949,-0.5016347135834973,-1.2292206163098354,-1.4485246983998168
1910,-0.8427122365075695,0.9887057305114727,0.7414698854777061,-1.131283192642424,0.581356663165205,0.28359296581908877
1920,-0.8489192203953879,0.9757948124163798,0.730153310475791,-1.4983454028392762,0.3954900867898967,0.6227475376729168
1930,-0.8272136773996299,0.9936079808356848,0.7517272531002739,-0.2893491480026683,0.05182225948500313,0.7846917477724411
1940,-0.8275677115859621,0.9938861871548375,0.7414386593742924,-1.549135916538791,-1.7774118148727978,-0.8344042949957293
1950,-0.8533496377598976,0.97734411643407,0.7178566982097868,3.5608559580965964,3.787478215825275,4.066477844777322
1960,-0.8354898638552779,0.9964043374568601,0.7430696215403276,-0.7401838513405907,0.9042401699675535,0.0882841077682156
1970,-0.841928032464442,0.9821717493426001,0.7352424822009509,-2.0655193655352724,-0.6938945677955541,-1.4799379254601739
1980,-0.8536804556182903,0.9681456317409679,0.7227911778507922,-0.9785722233539199,-1.879336610692511,-0.946377999816945
1990,-0.8474095057330291,0.9698726512941624,0.7272933343740074,0.13488712605001008,-0.2978107416542053,0.8787712750965523
2000,-0.8449856873835263,0.9896675475102562,0.7364336558634674,-1.6572205685209223,-1.9668180489958769,-1.4870652180297093
2010,-0.8449491924707306,0.9834375246671991,0.7269833128853196,-0.5273683277627125,-0.6968380535468741,-0.7438759808595523
2020,-0.8626057192555862,0.9659736336007033,0.7105397770087564,-0.6368132113169168,-0.2785042860759181,-0.0966413248004302
2030,-0.8482445783224366,0.9789899035698562,0.7260297622008093,-3.439209633821195,-3.175460025342182,-3.0011279837063727
2040,-0.8178551252904892,1.0076373090728052,0.7582734882276392,-0.0587465188925016,-0.45497732450646555,0.18027570158270922
2050,-0.8635136108345668,0.9638651898464589,0.7148919651021634,0.6619769315519388,-0.4006370404340224,0.37077193739674963
2060,-0.8347423884550993,0.9991871382872194,0.748677894844106,1.9463195338072654,1.3499741149186724,1.6984464814402638
2070,-0.8229574556487366,0.9994687701784047,0.7561384507647,0.3310781312879276,1.2812153234195163,1.098165987379493
2080,-0.840402596182069,0.9811831161839033,0.7350968952822237,1.7449530314100856,1.4607768105218073,1.6004171217145342
2090,-0.8388603050305783,0.990671081244709,0.7370742641117128,-0.6858794065277941,-0.9119665369895108,-0.46182597763312994
2100,-0.8375348534133863,0.9915492362873392,0.7354171762232292,0.2890544572840232,0.5002907266097549,0.8333424011531325
2110,-0.8432276753525149,0.9878277717504187,0.7353963601185745,-0.9674142936255037,-0.7354898578387017,-0.7232921216375601
2120,-0.8453514076027486,0.9907179340529894,0.737051055120658,-0.8770511307025011,-0.2757301059375791,-0.44741030784880814
2130,-0.8494455123539438,0.9743130783588023,0.7262104389125651,-2.361293355354826,-2.131961139285949,-2.6001297374989103
