time_ms,ax,ay,az,gx,gy,gz
0,-0.7540528476776014,1.0677068028184378,0.8729929394655016,-0.35833090448658383,-0.37210006119576916,-1.30641812041965
10,-0.7603686288969743,1.0728421477369088,0.8706641247654796,1.0343306280031899,-0.4432412140893389,-0.6918515320295425
20,-0.7626637600222942,1.0693649179913276,0.8547664515637333,-2.856158812083643,-2.809212898687745,-2.883147091086291
30,-0.7751120329528433,1.058918650426016,0.8508822510255072,1.1172701167293826,-0.22713096365456928,-1.6510497182290635
40,-0.7640291195565543,1.0709936438605954,0.8509096878742436,1.395023999309635,1.224571612843325,-1.3121334022431945
50,-0.7524775109683856,1.0806687288129564,0.8703150495508868,-0.3991790122798411,1.3863799867209101,-1.7065476126010946
60,-0.7612607455341005,1.0686802253517764,0.8687694041570625,-3.537888196997444,-1.6913985225181176,-3.890263836939692
70,-0.7431563474322771,1.0793262431644113,0.8808637902440168,-1.1552728417441078,-0.22157333823612202,-1.1277232524578342
80,-0.7471359446882884,1.0776050326197113,0.8752756008091886,-3.2796295890918348,-1.9553656083885167,-2.915875654848958
90,-0.763236493888172,1.0603326566237008,0.8663948537227256,2.033443072487864,3.8223769377816272,1.952504025108114
100,-0.7526793990660547,1.072076037772779,0.8829277049898318,2.495877228267722,3.9118078701989063,2.5993100878063986
110,-0.7464562367646753,1.0813127808511533,0.8866447794951348,-1.6495978928079904,-0.31966918328900795,-0.5844437450081219
120,-0.7434380241181532,1.0831574990045634,0.8870798133969273,-1.2889908181034393,0.47949790651850965,0.7987559263136844
130,-0.7506154978721602,1.1017519780024703,0.8928189627419562,-5.708858520092256,-0.2538071106214148,-0.46921101384988007
140,-0.7454945215794418,1.0854640390655979,0.8906232841478678,-47.39442791224397,-1.2541566664143018,-18.256621680304065
150,-0.7573490372089539,1.3281825747448859,0.8462050328527525,-24.837136623073306,5.415612082826058,18.16991809515241
160,-0.7825086479824584,0.9964261747908563,1.1912021617114397,-17.390211438141005,-12.006265747490046,32.78500337514733
170,-1.0237857415057894,0.8633077061482097,1.3690628833388674,30.827306410963363,-41.43918499545087,48.728141179932244
180,-0.9155261609242656,0.8852241486495026,1.2576168824261433,22.150654643229995,-65.25994278397702,44.52080621364167
190,-0.6292704081589157,0.7762928631355486,1.111855494625852,23.133956109948084,-78.55277127701443,27.541105976781942
200,0.002768851159535214,0.8521352404060016,0.3276276751836574,3.1232426827147917,-12.670024037067016,-69.65186001864369
210,-0.3297210052086205,1.2743795798136586,0.5679973726965127,-21.876181644207357,26.200155169290845,-94.23669779991434
220,-1.1850978815879205,2.114207346687107,1.1651765241526857,-56.668545613504065,2.747143932211304,-71.79340977211638
230,-0.9398578583960061,1.5186481760138817,0.3848396833803365,-168.85980044187644,-46.70708532782981,-56.50761812437982
240,-1.141723673657921,0.9396596999259865,0.6388090875258868,-167.37657382356713,-6.068610831750899,-73.59510255599399
250,-0.8840939505818523,0.7862627107170166,1.6330407842563528,-147.08859384527148,5.999763037685112,1.0616001024978976
260,-0.9180493587235677,0.43980383907528314,1.0769406683829426,-80.83632155522398,47.837195598438235,102.02152093050962
270,-0.8749681865772244,-0.1200172541582592,0.06237350033330968,-51.349897945610756,56.61078911660523,95.43355115456019
280,-0.9588149486602341,0.10737692772396981,0.4386270949889922,-17.193641782514863,37.29506607931915,55.50808921438738
290,-0.8983904984032829,0.24953524136640517,0.5100313130534256,53.6416341694911,51.225333831537085,42.92858277996216
300,-0.7865224285895367,0.702594548079451,0.8855473925989952,107.6550675173923,46.651171312148236,40.983775544870475
310,-0.7028311946639653,1.12441216033474,2.2036942224457348,136.3319723976386,-1.6295557096015694,-36.335465375703826
320,-0.6111153606792853,1.6941195602723316,1.6125092303077728,77.35819966255198,-30.110712416104477,-74.61371764962435
330,-0.9724483023347685,1.0676697838608886,0.9900075246331538,40.004222943119856,-17.87780508279082,-58.846024294205584
340,-0.9039843871427135,1.1123224698192384,1.2163974589672144,42.17249287350454,-0.1080898399886756,-2.5428783171962
350,-0.6561409575685265,1.4702453539649267,1.0593889061202286,20.172000660115806,-3.3984619302198658,-14.559620428887264
360,-0.7322614391620269,1.1796494425731525,0.9467553799316962,-4.025943724997888,2.0850918973347734,-4.498646042871545
370,-0.7451739208582195,0.97200615479472,0.9249916632541682,-10.91349005971091,0.3211280508299392,-4.767566945548284
380,-0.7647307726380054,0.9743763498761594,0.8963680747797124,-10.92860344182134,-1.4799386274814628,-3.3359192598016234
390,-0.7495165952858189,0.9673029918773723,0.9102397643693689,-4.774638725574921,-3.2226501938679455,-2.480199937379659
400,-0.742505509749784,0.9806792531553274,0.9253212964469475,3.360945599089134,1.4992914777623028,2.427897054900974
410,-0.75210753003756,0.9846451588991819,0.9201642630216967,2.0808147532439083,0.039863993894067695,-0.5297072601798221
420,-0.7468202042035209,0.986977605609725,0.9238211855827275,6.958037181141249,0.1546259775893271,0.6530062693402037
430,-0.7694863942494409,0.9626759153389544,0.8979349204008458,14.81667244691302,0.9194161267942061,5.359950816936619
440,-0.7858746057903595,0.9579750939128995,0.8796139719030762,14.795747508174934,0.7136875891127363,5.339034189978481
450,-0.7843818883260044,0.9561247790006188,0.8793427975593299,10.90972661538931,-0.3714950056953228,2.558058567664295
460,-0.7676836583650902,0.9739336951598278,0.8962575811503695,11.08447274744033,1.1015200914370336,3.152313159732085
470,-0.7658914188802223,0.9975698419891847,0.8967856744569968,7.9001612853703005,-1.040919096450771,0.1975784991746734
480,-0.7605551267335239,0.988524190947202,0.8986455384686236,8.801412517676349,0.43972202403097715,3.596378422435194
490,-0.7343572910563215,1.0452509665852994,0.9241017154266353,8.561217319025426,0.5708659083998457,4.351457697751179
500,-0.7604414162779072,0.9998333857302696,0.9034345821229901,3.8354391802712517,-0.006274518264042378,0.3133090740726294
510,-0.7513755846150659,1.0149824775246965,0.9103952634703427,0.5682050914999772,-1.0340485823756818,-3.366620996168681
520,-0.7745610641713411,0.9960186492318462,0.8746246829065984,7.277343664616923,0.6746472697531667,-2.9594064357285625
530,-0.7506787306274593,0.9798693753789411,0.9107402092985795,12.602020928932525,-0.765282420378346,0.9354141476740327
540,-0.7562828694481444,0.9975287635445396,0.9005314904213743,4.477179465974415,0.6785429058586171,1.7423768471972942
550,-0.7508385011896864,0.9972463751011286,0.899408773094437,10.134824666717968,2.100908201343386,3.232881527239231
560,-0.7530189893608756,1.0133032601857852,0.9026992489860943,4.3480977561017955,-1.2790358912058295,-0.8851770832117245
570,-0.7267237752690866,1.0413791041951799,0.9213998772902313,2.7901972987874957,-1.3609754494014275,-1.304015463909501
580,-0.7570431443013729,1.011291171973271,0.8916651174872773,1.0888113437748443,-2.2131880046466366,-1.890075990328987
590,-0.7822107024152923,0.9850324562916783,0.8714078502241848,-0.4452846261982595,-1.7547776234006047,-1.7868637483733327
600,-0.761960567846442,1.0075146793868377,0.8875118102386665,0.842913686372885,0.9618241773446121,-0.021345496374558848
610,-0.75061109539918,1.0137645098122887,0.8996429747895125,2.1545215348768747,-0.016986643910668286,0.37742261416472156
620,-0.767699762973416,1.001803681134663,0.883348600408043,3.2244752327355197,-0.4872095062887345,0.8070514523516895
630,-0.7381473007711591,1.0388730634632821,0.9106955946956001,1.182733810635857,-2.5798342748186793,-1.5465998058145112
640,-0.7620410103833151,1.0178407803533458,0.8885068874015091,2.659276313891457,-0.2753057843781128,-0.10079789998960556
650,-0.7685503028112252,1.0139331341633955,0.8828431417332626,2.907068904674109,1.1923421072411395,0.8898289635781642
660,-0.7685738196569741,1.008641510712377,0.8865521019658368,4.687115080567651,3.3966400534538823,3.2798277124548183
670,-0.7697938159857506,1.0032522809911868,0.8795730494620785,1.4206792818257092,0.582731763356784,0.73326228728601
680,-0.7495807186322024,1.03526341620683,0.9137329942262628,0.07346758887972116,-0.5654718507274461,-0.6430543993273433
690,-0.741311859050181,1.0358889371540727,0.9043962009293447,-1.5216658941365848,-0.7942829604006213,-1.0808575380687209
700,-0.7601451567717701,1.0047993707327936,0.8922132546213865,4.021652381082756,-0.3753641936082508,1.1473080790543
710,-0.755571276395079,1.0320282966492351,0.8982308077484875,5.111411406084675,4.172802455538982,4.9411191173618985
720,-0.7536139500154234,1.0195386248758012,0.9007097533346324,2.2864589714507364,1.3676334966006762,2.4899661305141496
730,-0.7614787151197082,1.0160985062854582,0.8885252788841607,-0.4746778831790257,-1.4248518466192575,-0.025643041899827024
740,-0.7465666851616249,1.0342909565810217,0.9021778828952546,1.0530367189867453,-1.4009697347560093,-0.4347144418709439
750,-0.7887722979067189,0.9929821382600701,0.857082003405648,0.20407585891217295,-1.2419676889121494,-1.7479338087134442
760,-0.7281844795153344,1.0396810760993367,0.9159794558024916,0.8745136476939683,-0.19359373549239356,-0.25920039363517533
770,-0.7584799761119886,1.0224149832291147,0.8853725011033208,2.100608392358783,0.18216822630754276,2.2270170986268147
780,-0.7738924568427523,1.0090456995445876,0.8721147724108549,3.6726492080729267,0.08314770481653504,2.195656820061897
790,-0.7589886719960417,1.018590621814249,0.880983036613344,11.232929247337202,5.23596269726173,6.60081475110842
800,-0.7388636130611236,1.0387634529727543,0.8984292884461489,6.923097531577787,0.43655313847418953,0.8029745888478618
810,-0.7384121363360727,1.0527339797580644,0.9077120774890467,4.5898325041683155,-0.03656482058901189,-0.670278065930173
820,-0.7768568221707234,1.0275040923902754,0.8698968910632949,4.352763208865896,0.8826647215369231,1.5622994337898826
830,-0.7466372970395692,1.053725656818387,0.9002474206705318,0.4230756277985095,-1.7652375212247506,-1.9133286962376421
840,-0.7628067526454667,1.0285581042543748,0.8778410575656576,1.6558652947569568,0.6553126182769474,-0.0029122478548114783
850,-0.7609704967785924,1.029044441542342,0.8859698718893605,-1.4896173074269823,-0.5731604890355856,-1.6615470953946674
860,-0.739074659490964,1.0421519696851336,0.9016116606399684,-0.8787830147393885,-0.10562498775308905,0.5773996460051498
870,-0.7405653794495823,1.0458314817168184,0.9027498105527215,1.478567051651429,0.5072834177260468,2.0456851418986677
880,-0.7642232602999942,1.0298811275532416,0.8726179700730298,4.082487825166651,2.2343646691925856,1.2452826917175142
890,-0.7470276319726769,1.041715613962874,0.883368378292714,0.6845352313027905,0.22943719618055916,-0.19755119970933158
900,-0.7492441213260326,1.0417819661582253,0.88508328825706,1.2381536075583277,-0.8090717621559247,-0.061602733636637486
910,-0.7651632807091326,1.0323968197581797,0.875458962554055,3.5681069755861894,2.036024721576359,2.0810288759543853
920,-0.7461035132892021,1.0506956892992358,0.8960528528956689,-2.529698906979326,-3.9081248375539404,-3.907548954431247
930,-0.7213408398444942,1.077536109186829,0.9176693067161493,-1.6419376742030318,-2.3543978520385185,-2.2347576013898753
940,-0.7216709247107136,1.0720869658132754,0.9194108988195837,-1.047110513870515,-1.149599577636716,-1.3292737309745564
950,-0.7472739870378539,1.0478797014029078,0.8941420344507307,-2.0460009169772997,-1.3288037974029543,-1.9968206451133845
960,-0.7449599253180889,1.0476719510576384,0.8939371067872943,0.9336801647787292,0.9429080957690286,0.5412750951489408
970,-0.7626579867767672,1.0369272298056913,0.8813337641700848,4.0398016874527904,3.340125299789652,3.1954515795259737
980,-0.758678092249611,1.0397702985440098,0.8812728752175871,3.7551638566424943,3.1451090151410632,2.400943188597246
990,-0.7298567021963432,1.0654521443713811,0.908694463262944,2.5314283038444256,2.6717092131093683,2.82984366404519
1000,-0.746992168373215,1.048435388716629,0.8932046436110659,-0.7078131435280444,-0.5157189263171018,0.04047535669094238
1010,-0.7601070574794081,1.0360456304831591,0.8780202557491786,0.6462728746596171,0.15152987601534346,0.5114516205548378
1020,-0.7438597692296474,1.0580514687673563,0.8952898568644269,0.20509267025579336,-0.3801378937339659,-0.19774586202099614
1030,-0.7580540537358448,1.0471816996085284,0.8840054269174935,-4.524819458039639,-3.847169188731654,-4.212507082279778
1040,-0.7289078844417373,1.0615557891749035,0.9102899943217828,-1.6665447891069196,-1.779871728776227,-1.4910609639261974
1050,-0.7504316308695407,1.0486011421108665,0.898878892874363,3.704136846731245,3.400043336733495,4.25720074477247
1060,-0.7665963029676828,1.0264657328339253,0.8717784880013928,-0.502499981758392,-0.8498234070273286,-0.24119741588359067
1070,-0.7407018146033271,1.0623577604001033,0.9039188766448749,-0.9134935937536787,0.24941748390530327,0.8845370342705667
1080,-0.7846124084559882,1.012331783491175,0.8667352362102163,-1.874884389114165,-0.44217999031303856,0.4571678988109573
1090,-0.7642785004034678,1.0254843785432546,0.8754460887988348,-1.0316360163055336,-0.19823115020283077,0.9447281781805106
1100,-0.7567681562617987,1.0345635039388383,0.8815613433806667,-1.6188889744418549,-0.9273034393281794,-0.7918894021281352
1110,-0.7224131745762816,1.0713252794740291,0.9162464962742558,-0.7805807013323154,-0.4684896267899339,-1.3341965154033542
1120,-0.7409247243093522,1.0527828330686775,0.9009637858913437,2.424787296649634,1.4780768575830892,2.3171892500235023
1130,-0.7273252186668214,1.0680675554899786,0.9135347336664781,0.566581082730351,-0.7271989122532175,1.0250298194475673
1140,-0.74655588602431,1.047180017106737,0.8858406939398911,0.5589711978931661,-1.0684411863307877,0.38466333923329465
1150,-0.7302352635773005,1.0663453997985495,0.9104565207399167,0.7751884085093463,0.26208726907509483,-0.3432815076894113
1160,-0.7662986436524378,1.0382728699013335,0.8803143174509322,1.3051752034935977,-0.3005799393075788,-0.3089803837046032
1170,-0.7368832073009478,1.061561444910475,0.9070536553456456,3.365299679538349,0.29337444235111637,1.4992531924279886
1180,-0.7408046623012026,1.057674874074714,0.9004592653730745,1.143965566164054,-0.8010725239500733,0.2680332325081982
1190,-0.7585111329819128,1.0379430413665118,0.8761744420288536,1.7966179707627066,0.8541090261031432,1.0317538126441292
1200,-0.7686041071401409,1.0332888669212734,0.8692774275707764,-0.1540514070539145,-1.5380234947646307,-2.7735214897868543
1210,-0.7709924038032445,1.022974965213046,0.8623744309545561,0.060582527711064954,0.2929550750535247,-1.575509788754139
1220,-0.7615094363747449,1.0332060978440452,0.8809751923946361,-1.6957659106763048,-1.8760998275249898,-2.271781973797862
