time_ms,ax,ay,az,gx,gy,gz
0,-0.8483056537734694,0.3948721479982638,0.17940612771413927,1.5593080614030803,0.5135531482705616,2.024483850255489
10,-0.8504221897245773,0.3969034695665489,0.17872016244282338,-1.0570682308351853,-0.326772278616843,-1.3600468291167735
20,-0.8356756055878791,0.4097088111677055,0.18586727205246106,-3.7081972357656072,-2.2433207924710152,-4.918059141092225
30,-0.8554897507014998,0.3840049420067963,0.17015967983071673,-1.5402518991855576,0.17203339003782414,-2.719702777745175
40,-0.8733177359327721,0.36986846375755694,0.154018537039081,1.169580218144024,0.1696303560793827,0.5788865965473597
50,-0.8853862330262824,0.3553189736271112,0.14033017069197823,-0.4770878443205634,-0.49099805664764606,-1.576057344133217
60,-0.83440045844145,0.40535945718026223,0.1860633190267879,-2.637659712906366,-1.2854004696779828,-3.7801400172633364
70,-0.8617493547636119,0.37515356617614465,0.15818685905350435,-0.19841322261829036,1.4421656046789704,-0.9954342745402981
80,-0.8637208293653678,0.37516972508735325,0.15975686881662288,1.397088379561664,2.0611001733345757,1.078991695770828
90,-0.8144738670617737,0.4271183638752066,0.20603258131386742,-2.9107149465729925,-3.6598790785516044,-2.987629330889281
100,-0.8471463580847315,0.3940150346072109,0.17356539244684654,2.791212720864922,1.6881802939132176,2.1047030603643115
110,-0.8233185623644841,0.4162968885656536,0.20151724296938203,2.096186123616959,1.103707446871422,0.6298158388292179
120,-0.8314669593096976,0.4104425034176974,0.189818986169275,0.15056547638232032,-0.8279502430934027,-1.7418650876110033
130,-0.8600731194030653,0.38025319274347436,0.16329294466472952,0.015800102482484674,0.01660827239493537,-1.692712989301621
140,-0.8063853464987794,0.43194937729231686,0.2150441337949309,0.23970829628574608,1.0869858410502073,-0.4470004353857475
150,-0.8660684942100756,0.37782685355175327,0.16180157801288725,3.249293859235677,1.5537469460569855,3.5442216918020044
160,-0.8455841638850556,0.3989193237892478,0.17592119174311407,2.4199049376343393,-0.285048706137226,1.6305527630886467
170,-0.8553284440461327,0.4025209237267111,0.17770137511453776,-1.918021805471168,-4.342169056318942,-2.3000963045250282
180,-0.8554864137564644,0.3976905938818986,0.16035856609439678,-0.695783277337932,-4.749992225922531,0.061061418110635424
190,-0.8916625740288386,0.3760238557297598,0.14338565471575232,5.832851820228595,-9.143781564472881,4.293724567485356
200,-0.9169064586991988,0.5131887982667712,0.23378746752606214,-2.207443674957182,-35.29435293348712,19.708904174060375
210,-0.9541821711285384,0.6517194878575243,0.2894821824724091,-38.33556752048793,-100.59220661051748,43.61099469276734
220,-0.7775560286132406,0.6753169133382543,0.2877152605397231,-60.793535257259116,-106.41018713819824,48.93476141732144
230,-0.7250358190925136,0.602643504691294,0.26100354042006685,-74.47779658626261,-98.52841023340612,48.08852885686783
240,-0.7298793642157899,0.4598196738883738,0.32366923269171743,-76.98075335981672,-90.70927864522059,38.48902529174549
250,-0.7413258646434763,0.3680712124196367,0.2544303729342207,-67.79427823952369,-70.78233444234303,28.678354103390834
260,-0.762151306462976,0.33678244749814334,0.2688414757729348,-50.008211472535955,-47.52315151202352,15.754853178289705
270,-0.6849835655080649,0.2659797314592438,0.2640645623341467,-28.62941833174466,-26.2163659915648,13.860048582516193
280,-0.7175119190088833,0.2392182866940228,0.25556389901276927,-11.859300738861176,-4.108412402003466,9.983114525447462
290,-0.7514070146198689,0.24953767872799731,0.25375313926556764,-4.241612918312976,6.8576652937238105,3.0941099124659184
300,-0.811799829196033,0.32018778917025204,0.28834307656388813,3.007302091290733,18.34847632223133,1.101731211331416
310,-0.9323606651109212,0.3878606558506076,0.34944573976770743,11.170384965716284,15.804118795189483,4.1267413199198195
320,-0.8355546910852895,0.48030860207908765,0.3003380370769275,3.240871801458577,4.960078519970157,-7.389549409096633
330,-0.9600645902675973,0.506870067286884,0.3423031604537662,-6.75248651641173,2.7595530949917526,-15.344429139679365
340,-1.46478298525076,0.5051886765072132,0.4989287819071445,-14.328996431129449,-13.308111088779853,-21.227317559167066
350,-0.7733177824480443,0.39019747667088456,0.33640846484718845,13.98666837005203,-10.590533032926986,-16.422861732843
360,-0.8150783118604343,0.4334360633351869,0.4125497779853156,17.691096004140757,-10.06721019672878,-0.14655708772219112
370,-0.8558015329330487,0.43161099200850606,0.291757975465586,7.927997114826947,-9.820560569219944,1.3536226454740472
380,-0.8772756709317517,0.4514076082502787,0.2878026189134327,-0.7266399629566583,-6.879702256580287,-6.4550232941453105
390,-0.8502536669247961,0.4942960719752065,0.3149762619613864,-0.7030519922880409,-3.594254189961011,-9.22004872852117
400,-0.8174265573774254,0.5055971785447053,0.35338429710227004,-3.1479017089900476,-2.4413707088437664,-9.757732055364682
410,-0.8383447063669189,0.46445879517983957,0.3492328847211829,-7.828818028400925,-1.724942033228337,-12.341839735856366
420,-0.8592808728607825,0.4440955048494778,0.33240138964220584,-10.516077493954036,1.1728433908156657,-12.775463322736213
430,-0.8634503557305034,0.47906524989645666,0.33245102003461485,-16.603254575103684,1.6971247809189332,-7.872808991734313
440,-0.8686985687366207,0.4960824241807182,0.331385515860839,-39.13425467019481,-13.24324616276683,15.642240641327803
450,-0.9312623864349164,0.31318628032647955,0.5261171171293988,-45.07219647925745,-15.28906208721213,11.230463477617093
460,-0.9019335799063974,0.6609792304557258,0.25987363135724784,-47.30639225699788,-4.741989388053659,17.69620711034154
470,-0.803292878292202,0.3570468832634547,0.046730911452481635,-40.53915201945449,15.722613345579306,-3.965483104870349
480,-0.6229357249983536,0.24741681459295595,0.18661108716942842,-9.793983447799503,25.688649574889897,20.894886520350916
490,-0.8911624178930132,0.3737066836144041,0.6196701557327817,-32.49047165397897,20.021411461608874,11.935716880482627
500,-0.8829138752403909,0.429897344759137,0.3575843888272464,-31.402833805516945,19.248372154830328,10.348501796337931
510,-0.845339142735841,0.48884653172985426,0.08337102632264676,-35.567642759082915,14.849992385517702,5.360282657372963
520,-0.8382853641062461,0.6995404506472417,0.05146128813796957,-24.667320579115447,14.23150011615786,6.5314977889364085
530,-0.815442335939278,0.46753113498767385,0.21844752601745315,-26.017493360342133,16.70262946087783,-3.9305363112620504
540,-0.8600045998171445,0.40204122598116204,0.12521520990866258,-16.394426630930752,11.975994157438414,-2.36165286442058
550,-0.9502223582113037,0.35748247912670184,0.639860389456023,10.248717675977556,17.1034869493899,10.412728304145578
560,-1.0419963053264971,0.22905813115006127,1.0797143330638146,36.58469693204679,19.706761749205437,12.464215738603597
570,-0.894916442782397,0.3712193244435122,0.633757813392379,10.856753311692207,31.432448957682617,1.8413260279953672
580,-0.771903265608536,0.3341168885373773,0.307585600590638,-6.186632046904123,37.07006008840413,-2.2068499005557305
590,-0.8243387860774826,0.42621453764301936,0.5279869583449154,3.3214602794319723,17.5379719226183,-0.6839721274622039
600,-0.9362227599983496,0.6799421327917715,0.595974851402291,28.53020002398531,13.04911116624524,8.657485619059482
610,-0.9903925019916218,0.7397105828269077,0.515009334354989,35.37068382011827,26.030629758506247,-5.7543334888581175
620,-0.7637930452814218,0.22841851874528338,0.18687591779424548,6.7172780319845815,13.806737594092764,-21.286170182306495
630,-0.9138587369301095,0.6353430112170094,0.31068551299130576,14.79729324110495,5.035391248015409,6.652855952362267
640,-0.8887061034803428,0.2034366171001189,0.24917145402400162,34.90914813562784,13.547785317598098,-12.68272825290624
650,-0.8049715934255174,0.2577224745233349,0.3539065583041883,16.130118960688982,3.1608588351051665,-10.4981013652441
660,-0.9233386958725858,0.6585813852733873,0.26604111383953033,24.728904582542775,5.67539115581801,-11.613646843142543
670,-0.9723406737206715,0.8629451761672072,0.2723700835157106,28.893463538564347,3.319589998737778,-4.720716624386109
680,-0.945666890717804,0.5622257656967339,0.08275158035848583,24.124805645145642,1.317153484854652,-9.11733478013007
690,-0.9569826217475206,0.7362651093701869,0.04187631912463672,25.107459440407805,-1.1179724398388438,-12.763994324466736
700,-0.8873244992112104,0.7100861232499578,0.21576606641888127,19.23189101604241,6.343716210185036,-2.845285558575223
710,-0.8694273118094212,0.5804037987337777,0.2342964237492716,4.382490422399395,1.2560414898452985,-3.931763347681694
720,-0.8673116498589925,0.4281040416727991,0.21777413627534187,1.791035344099326,4.612414278288675,1.3918037988298972
730,-0.875223750353928,0.41456393358023813,0.21791550489214861,-2.494512659654223,0.6951467488932374,-1.4811425971259635
740,-0.8505544511979137,0.4265653503419029,0.23588354352385837,-0.16683604544093145,3.5339643417747784,0.27446420173218256
750,-0.8687317214088819,0.4111647888211752,0.22587983456037805,-3.0238616678963863,-0.20279585220616547,-2.414839312856317
760,-0.8690656599562424,0.4074317764027987,0.21732233166731071,-4.032749830039021,-2.261498014921412,-3.2845042574316556
770,-0.8263493812392394,0.44628649589302566,0.2649210672642436,0.041784214536471076,1.820945849586319,0.06528318401494293
780,-0.8435505004458549,0.43165578968919566,0.24192433610232816,-3.779094542452657,-1.8411262382905762,-3.3187490860355533
790,-0.8532651496990933,0.41870924762069256,0.23418541689470326,-0.21673314456163228,1.5290431487260299,0.5194485894101604
800,-0.8315838432671709,0.4365120328516965,0.25910448762242594,-2.8189680763859717,-1.9094788981321649,-2.0059527985483543
810,-0.8232633091502672,0.4435295597890498,0.2625988591205335,1.5357545061918647,0.993624162137944,1.7636305502172331
820,-0.8746803183579391,0.39767035004865847,0.2101051692804192,0.27266501335834137,0.12386913150162615,-0.4202498385033642
830,-0.8621970889122497,0.40841207931284274,0.223161274131625,-0.9851774586972125,0.3551332779597952,-1.4433800688082732
840,-0.8574441426326387,0.4097696542798295,0.22813863065627663,-2.579937083970405,-1.0333304479611802,-1.2707618915816357
850,-0.8356369409642429,0.4318410027456884,0.2501715827743526,2.4361130314275217,3.8275238981550244,4.439934074702392
860,-0.8421866306631501,0.4279414129696334,0.2441901584015007,-3.6786554448267514,-2.3851354385540886,-2.07628334098627
870,-0.8511598099341353,0.42607894719588557,0.23388745649992157,-2.6576755676429547,-1.4797546865348936,-1.1827238946146503
880,-0.8316864532578836,0.44145095738787477,0.25299347566260333,-1.5563128588438455,-0.8911530533141335,-1.1032672920762845
890,-0.843595401317791,0.42582062540253396,0.24247592517387156,-2.0398009656644027,0.05602967381420106,-1.3994552889589538
900,-0.8459638500785412,0.4247456916597558,0.24160636142797345,-3.0634381604828147,-0.17579866223953952,-2.639140555042111
910,-0.8272441547192758,0.4452985180767216,0.2592172794718082,-2.6860484319474787,0.2888248615930489,-3.4706542978926778
920,-0.8605926972234159,0.4061458399326261,0.22015353993261624,-0.06994161368916085,2.5315134018273104,-1.0796389888363702
930,-0.8463873483768719,0.417672572063386,0.2338163557718936,-3.1087358682697483,-2.415381683960901,-4.206599912500355
940,-0.8447095800266545,0.4187342665681586,0.24172207521349365,-4.371233658576313,-3.0596592640390505,-4.556635097758418
950,-0.8335416413638042,0.432979855084904,0.2567393879746357,-3.925724011617392,-2.076234833169153,-3.2674220471787074
960,-0.84633157408579,0.42185608916738676,0.23814163089296553,-1.0955186669702592,0.739579479089129,0.40650508423513504
970,-0.8552400888998352,0.40984717869023063,0.2314588009542695,-0.764475998221561,0.6927526443871266,0.5361504164076817
980,-0.8527323141777174,0.4132627497485729,0.2328209357401743,-4.180981871373566,-3.037975053303463,-3.702111630801788
990,-0.8231256174598711,0.4397841109880309,0.2605190548271578,-0.9985865988815913,-0.4586125707487026,-2.284522592918222
1000,-0.8584746875688026,0.4033203778614971,0.2271043976051369,2.667829692832817,2.998053417638652,0.7893077707336444
1010,-0.8430432549215066,0.41889710845752487,0.24323820473633528,-0.7469159223951398,0.700387340626611,-2.632704621152689
1020,-0.8788174650235392,0.3816847742058256,0.20374263747803523,-3.328912929309841,-1.3372789887565975,-5.123282908909518
1030,-0.8465957649385011,0.41054806460242793,0.23894766508630377,0.7138759631106653,2.535621354979866,-0.12499066490668165
1040,-0.8620933201381127,0.39853660653808937,0.22326918466312481,-2.8280083333836146,-1.2975742508862296,-2.36303522586913
1050,-0.85650506895355,0.40756308322641743,0.2320305165314816,-0.24324845557691277,0.8181346579857744,0.26470109852889756
1060,-0.8402495178528433,0.42557568853794603,0.25226697190410435,0.3914107138728824,2.2277099055215555,0.25335191860445927
1070,-0.8360972587400325,0.4205666007876009,0.24880208291174682,-1.5328120681687363,-1.0045345725128527,-2.332609714180718
