time_ms,ax,ay,az,gx,gy,gz
0,-0.5941198183760098,0.7982395190214147,0.7221676770914965,4.944140645814482,1.4110334147734862,2.1655037034128344
10,-0.6114900069705814,0.785165644641509,0.7014278991013565,-1.2533614061922385,-2.9064492691144093,-2.5562158476095536
20,-0.574367829532651,0.8208587549981964,0.7379895187138439,2.678788609544836,1.350203039394668,2.460210019942803
30,-0.5953773102878039,0.7982017375883242,0.7163010186061308,-0.03595986911412996,-0.9027258263025248,-0.6117883324082284
40,-0.5671348298944975,0.8291556677362841,0.7478956405626926,-0.16130127711010817,-0.42991812127069057,-1.0346845932358752
50,-0.5844922260828822,0.8143218518340033,0.7312423305869465,0.7591431290803312,2.039938237524746,1.3029175051640707
60,-0.5698709822551146,0.8274115485063882,0.7445839430050447,0.43450552338943416,2.525019507892967,1.6501335195329276
70,-0.584234884361547,0.8126162615084638,0.727767174215202,2.9431139153230417,1.4088484211061316,1.628022253952969
80,-0.5903999445565513,0.8038276192714708,0.7209140555862991,3.5679009611852885,2.5475511439226346,2.94071610844159
90,-0.587813877818084,0.8087170939943246,0.7288783614429045,1.7475543610384587,0.8369802137177372,1.2117915754667472
100,-0.5911182648977125,0.8078570847508446,0.730302547959511,-0.22127424843840704,-0.21438978437901135,-0.23650845065243853
110,-0.5882025473638369,0.8180030601381926,0.7437962283867431,-0.23783551847185525,-1.4037495196124516,-1.0102630517905447
120,-0.5829509685956125,0.834596282876675,0.750420612978099,8.484736835864197,0.5317748186312632,5.926422552953159
130,-0.6133411085986387,0.7960325830012974,0.7497454788485763,13.655461028766084,-5.922426591617404,9.967226622433028
140,-0.6649939634098772,0.7632838738451236,0.8439577800329913,13.69380783041583,-13.443682684484923,7.378980196978576
150,-0.6847620209020477,0.7042147167974924,0.887148800152909,-4.952928884931163,-28.416677035395338,-4.65774845379328
160,-0.5887218820884533,0.6971527269521443,0.9261799136866101,-6.429319456258536,-40.52814426562288,-14.704073893844557
170,-0.506229634871481,0.6641146090954794,0.8196012514779372,-7.867074008000623,-47.34408059858274,-23.26148219907609
180,-0.3740876612671871,0.8788981779865046,0.6966651497192711,1.1794665024815967,-30.378425891199676,-25.62022904615952
190,-0.36480164114966196,0.7866866611053438,0.6576816874847755,-2.060579882483439,-18.097465083604988,-26.93973246480038
200,-0.40561416734569594,0.8340860655495459,0.6330077779931437,2.6081700767869433,-2.5644028268129744,-29.38969324811124
210,-0.46615475531356604,0.9238010710804033,0.6054726672389527,0.5049652036837121,12.675766522716065,-30.257198004504225
220,-0.5565727706903124,0.9740096245098119,0.7244669872750528,-8.635591399240163,20.353484010980452,-25.528286273328415
230,-0.643271953577206,0.8720976778851899,0.8033312175964693,-10.34274406626454,12.530024767340326,-17.500988587639185
240,-0.6379989858527592,0.7411646047697427,0.7544180320693029,-22.968191147532412,-0.4971782176845646,-17.05576024870051
250,-0.578434750349052,0.6792002965549259,0.818289290024815,-30.65409304546665,-8.568992447104963,-19.708530306264414
260,-0.5405648293211789,0.6924283317271522,0.7649590325787918,-28.376052070730758,-10.155082134372153,-8.380954275318613
270,-0.5687145269956709,0.7224176075602394,1.031585667467516,-6.800383467679586,-11.165605257864426,-3.76646946101579
280,-0.5138007913436214,0.7201221656863886,0.882985705356027,-12.222564285896409,-9.696084851238588,-3.210357099546451
290,-0.520731286802911,0.7975245028552665,0.7306094025097469,-24.515080960072105,-10.90927269682358,1.8221645343114372
300,-0.5209338371287483,0.785031435102833,0.892182832935324,-16.386410350505344,-8.999652255001513,0.7385055094021934
310,-0.5570282192947982,0.7375810890563307,0.7617239372839993,-23.052438089799193,-5.981051062585317,5.968111783579645
320,-0.5668019650124543,0.9146975205075769,0.673369022507738,-40.027192234883564,-7.837688348709657,13.237960616870224
330,-0.5748212795975483,0.8696054374696229,0.8430355070735402,-53.189892739344536,-2.0658920943009282,20.45809741654957
340,-0.6269073310509283,0.8599097664484157,0.7987490803980428,-7.386631949792946,25.865763541704375,38.754408057594944
350,-0.6094335712178252,1.285987324735198,0.4072761294393939,69.00963443606719,38.82420849504668,72.49220625743985
360,-0.6561363216428943,0.4559331780170452,1.2416462308256377,14.060709689961268,38.32794370987372,54.83412855500559
370,-0.7855966841519542,0.6841428754880728,0.373639509118775,22.14788776201085,43.77010382885942,59.49653752816209
380,-0.5185925577525624,0.3203631230581609,0.6660862002177376,34.89654950297114,58.03197711164544,43.26756024117134
390,-0.5442222223601473,0.7997871546759115,1.2388275878465562,18.968568290783608,32.39392159653763,39.45470304667119
400,-0.43210254405661025,0.614947182507979,1.4248607384918275,81.49877601008339,15.765302757823807,13.840320757420105
410,-0.5053083487861415,0.5917473796618732,1.0194105461371108,101.63124674784095,0.34336019559575326,-5.750262501937099
420,-0.43380509248098637,0.8329902436456412,0.8068605877178794,90.23186987181548,-5.252961632833825,-18.38595581583767
430,-0.4320695043657481,1.1983830310177845,0.5496469021539228,40.53279779411248,-13.326668478959792,-40.29248299414517
440,-0.5457085537201125,1.0193681476533702,0.8365697299793958,-1.3700599532438604,-3.161571597926856,-26.233997284599045
450,-0.6309409476683179,0.7861835527070401,0.7055744389780597,-15.294292058220885,-0.9398782424075023,-15.820132426927476
460,-0.6142494372272784,0.7747134704592271,0.6716268489041459,-10.8679847470695,-2.934338402923894,-13.323697653329418
470,-0.6193098975849275,0.7735536351810315,0.6918252850881728,-3.1665607294558242,-1.8416942020277067,-7.727660742795282
480,-0.5714646821885084,0.8001760050309379,0.7483967253347167,-4.218272201785783,2.4911095980163678,0.416487337168995
490,-0.6084797511491282,0.7567914992982521,0.7035436321537245,-8.958868086570577,2.5772038648500675,3.0801306960292285
500,-0.5919347710241339,0.7890332385112343,0.7248717471228434,-20.062539008678822,-1.0267204628785576,0.6105037523104251
510,-0.5853032782835348,0.7966090635416885,0.7389877951265847,-25.45354127468349,-0.4783339785508094,1.270362529657306
520,-0.5840827382987935,0.7743445361895702,0.7331534100963787,-24.291491325892288,1.0415500197514913,2.5015580977837275
530,-0.5867622048703652,0.7694610931539575,0.7284840631560112,-21.639255540430817,-0.08485029396847121,2.483698045568313
540,-0.5830467245753109,0.7691222392855899,0.7310989628030744,-14.839915555552846,-0.17796946874875563,3.800707551963414
550,-0.5562060350968125,0.7963566409541236,0.7635950338757941,-8.464495917278892,-0.32000857151860407,4.509364032453048
560,-0.5824227339481803,0.7522257005756341,0.7398566692268573,8.881913262348364,-0.8952687456802731,10.035994403952849
570,-0.5701518156072074,0.7820206201921157,0.7364835946845653,16.9475361422003,1.146262683590113,13.417433934671024
580,-0.6012330487910172,0.7843378357617607,0.7194167056189412,12.248083358910623,-0.1783032948357104,7.618096822378602
590,-0.6076623193649364,0.7876647258300261,0.7282377699795739,4.128655852092653,-0.8035065814163134,1.434964008062202
600,-0.6004335903088776,0.781573442407293,0.7233638975104253,-3.7710749740778566,-0.3037635772958891,-1.2928088676701026
610,-0.579956249331832,0.7839910013268082,0.7432623423975632,-2.110611064453093,3.4179200928396196,1.3167990022477298
620,-0.6040614591385798,0.76258578263186,0.7224387800390464,-1.0686487919692067,2.2733576874201145,-0.026677261126018648
630,-0.5580693280630058,0.8061680036244707,0.7602016799884146,-2.326733556362438,-1.390372012590233,-3.217366529573588
640,-0.5843021419655097,0.7875154086146147,0.7363939946127858,4.821237802829646,3.025237378686611,1.7172669110682877
650,-0.5801362985297608,0.7927623381930481,0.7436564770269932,-0.382797237850804,0.521872804758662,-0.6226251091350932
660,-0.5912844522723603,0.7685570532130322,0.7323648101123813,1.7519292825295691,1.661131327842413,1.60572733738733
670,-0.5921447228030535,0.771376041509763,0.7295511763489775,4.792558535623319,0.210340744072219,1.757125160195271
680,-0.5881008728893979,0.7810766226217833,0.7343669200786561,3.989098113111686,-0.6541631687362026,1.5555204126213615
690,-0.5991373245069299,0.7752839900793083,0.7203719848465817,1.752545214639781,-1.4308509549573734,0.5485261655479646
700,-0.6067724961712345,0.7657472791354372,0.717528512549714,-0.770581008621384,-2.7335497848221704,-1.11276576047907
710,-0.6053575976664133,0.767851600758277,0.7224947775716328,1.6849454004734232,0.5841454027328239,1.2924302134596939
720,-0.5956274942693544,0.7695542418177758,0.7284277421392318,-3.984706503440944,0.6697831718927063,-0.9954481471596623
730,-0.5869680133666481,0.7773142084095788,0.7446309018405196,-5.3929318913856745,-1.8464044516626514,-3.597537346945951
740,-0.5890328643831428,0.777576457928999,0.7342599027345186,-1.2410600534262781,0.9514053991322798,0.2494611361338147
750,-0.5801918277715152,0.7908317143609395,0.7426720343399208,-0.7970990961581853,-0.7317913232164628,0.13995650311376595
760,-0.6043177487300808,0.760527847612863,0.7185868530067802,0.5016505241889211,0.19615999711601217,1.6959710914362724
770,-0.567601722568364,0.8001141862892099,0.7565956468068726,2.8910574883851075,-0.11979552916965058,0.116269020192661
780,-0.5886424447109095,0.7838320659048766,0.7343004456084965,0.8601041393885414,-1.38853499804975,-2.716635839067899
790,-0.5844036447834607,0.7885483236370889,0.7420970595343471,-0.33827559228403786,-0.7008074405547962,-2.1402791654663216
800,-0.6140012652576249,0.7563287376171299,0.7033128006597884,-1.727772497032252,-1.1234843587849888,-1.692931735231598
810,-0.5765064154793411,0.7820444800137801,0.7427761358021873,-6.45992049630266,-2.0889198401699542,-1.5416675273746072
820,-0.5884972791118218,0.7746216630090146,0.7338085066474171,-2.3709124245337696,-0.440731705737736,1.4309826869797724
830,-0.5810900382071059,0.803379463944734,0.7391664683309269,2.8584306308687277,-0.19310117499446866,2.253090894258427
840,-0.5706984185931058,0.8102254724360086,0.755036435110534,-3.3381807024617336,-2.318013231912443,-1.4827130312170682
850,-0.6024135388368118,0.7606868731004687,0.7236604572132007,-4.4550584775162,-2.319748293403594,-2.3313994491917014
860,-0.5905607253571965,0.766560206436808,0.7328285634462969,-0.81461693736197,0.4404140411430847,0.16069355811523617
870,-0.5629443870077707,0.7973963586344367,0.7577924645629217,1.6945870387518212,0.7697805349196379,0.6066520226155152
880,-0.5941279347064938,0.7821825978561858,0.729463164853538,3.9349135328465046,-1.2398023919005765,-0.28523004316418654
890,-0.5978373624625766,0.7837384883579468,0.7248568886274619,1.5607405151129456,-0.35836686951739205,0.8353781439996005
900,-0.582761080918453,0.7847195645389969,0.7364428181810198,-1.5453494896388742,-1.4536319270523195,-1.295553668567085
910,-0.5902088458880116,0.7795940466587674,0.7328786038078966,-0.45107496203532205,0.4985516689488825,0.14919508280181207
920,-0.5749499093242496,0.7912406481952341,0.7411955937337609,1.3919868863111606,-0.44544099018450145,-0.5218318771152249
930,-0.5720162685394579,0.8029790009296098,0.7426852245536105,-1.3651887351201826,-0.6964856355332549,-0.7221537440101461
940,-0.5925037773722999,0.7863272497729901,0.7295533995879377,0.21858869259955876,0.2865800260016775,0.3293795153690912
950,-0.5770202254929147,0.7981786737382459,0.7432322143281163,-5.532344802464594,-4.439180181022469,-5.078913632121669
960,-0.5993185854942109,0.767705612438626,0.7162650440142339,-2.852842619314364,-1.0171632954131922,-2.0003016301767396
970,-0.5789870991019275,0.7891489049021284,0.7414243216180688,-1.437417543591434,0.32159456692293026,0.03735580826654128
980,-0.568740987642437,0.7888783692152318,0.7461237334719638,-0.7505301748601518,-0.8797573971604773,-0.5116016308527038
990,-0.5708714964536313,0.8123497751387238,0.7426565411121193,0.0018449446985872031,0.02916542897864821,-0.18997835276938496
1000,-0.5508349434496543,0.8138277078011228,0.7675800088630872,-1.110285519793972,-0.48720446698316827,-1.0416578507698957
1010,-0.5663877956345528,0.7968669556028218,0.7525085667510284,2.63733730336811,2.2783933625247874,2.572148393783519
1020,-0.5971388218932846,0.7699997553331689,0.727596284451803,3.240338584363465,2.47461127809959,3.493575530373003
1030,-0.5817506319174374,0.7901904956293825,0.7434431433413198,3.5551383741666274,0.3486720480324039,2.750104490171364
1040,-0.5765534719257681,0.7974645194123235,0.7380615999824797,2.063068127172928,-0.5588725793505578,0.8863939688423397
1050,-0.5818391986413267,0.7965787000089615,0.7335886414681851,1.197066884254701,0.8483954592797303,0.40605859568909464
1060,-0.5872174057808379,0.7991928488146884,0.7338033356972412,0.3853106044132084,-0.5481194177664392,-1.2969176549190895
1070,-0.5879829147520564,0.7917758673890515,0.7264225868147325,3.070854761751347,1.6318514550492882,1.5821597048332168
1080,-0.5927018067704626,0.7860396928805095,0.7286834742944328,-1.0163436457107942,-1.4869023954431793,-1.184276297419467
1090,-0.5910689077092824,0.7802097760439842,0.7286682211358855,2.0525248457690117,-1.2271619787009014,-1.2983527586998118
1100,-0.5758852893943596,0.8090021445857042,0.6855880344319303,-6.219006172664432,-3.4685878653520508,-7.635724703822083
1110,-0.579139760122129,0.7919112304858583,0.7439006922902609,-9.184750831363667,-4.609251285760705,-5.9214952061838675
1120,-0.5950025474782801,0.7646851958195265,0.7254706985039779,-3.8883037650904586,-0.8813143973512643,-2.577797005735487
1130,-0.6192678389529936,0.7793288933115958,0.6977668138508224,-2.291493604761133,-1.6412629174462499,-1.4356842374104715
1140,-0.5989317248176765,0.7861611132346364,0.7263483368660846,-3.3340871468336144,-1.8316686145106322,-2.4063380126793033
1150,-0.5389458239643974,0.8131411030829596,0.782505419358339,-3.6329741986797934,-0.9744856558292706,-2.485369633550807
1160,-0.5429518822044838,0.7767671191224713,0.8010481836033319,-5.472862179348581,-1.740049800960155,-3.992505606423259
1170,-0.5907073642091832,0.8020702758743689,0.7213526123056705,-1.8370192403753731,-2.7348293769147727,-2.321178695571852
1180,-0.6194835646041682,0.7505285866770264,0.7124831461710875,-2.187366759021095,-5.107317068687341,-2.6766458716974286
1190,-0.5802717755576393,0.7912065831777604,0.7371812318263918,4.566600545134247,0.3329630906070081,3.4258395235525976
1200,-0.6209189258957375,0.7437283790510694,0.7006903224000514,4.8994908855702315,3.0408251846297056,4.019600135734371
1210,-0.5781251101228011,0.7935928246788094,0.7491688337496547,3.3543644585946866,3.8291176907781757,0.6639525106481106
1220,-0.5685063639705745,0.7933859181436148,0.7543918301331934,-1.4231866527383075,0.39886736695862257,-2.0423997694330462
1230,-0.5616016441651742,0.8027691094164944,0.7618224207583115,-2.5508201901099143,-0.10345667251431097,-0.2891696672313567
1240,-0.5495906262405337,0.8067060966230478,0.7698877592537489,-3.833611749319828,-2.466779415907927,-0.32583650631277683
1250,-0.5984656742281037,0.7674034800706382,0.7322860270381722,-1.2925488604975426,-1.5958510704069502,0.7271323268898078
1260,-0.5714354070054498,0.7981088774371928,0.7484520983671605,1.2708273529196457,1.1611112972476922,-0.5629222657699157
1270,-0.5602209385368516,0.8043372142127504,0.7605958258766249,2.355273296225562,0.5964252624209336,0.652252023922963
1280,-0.5630516863006173,0.7948815321188097,0.7534908067632935,1.8238861172021397,0.8823711246375183,2.0648836726381172
1290,-0.5782061862161374,0.7892491460356532,0.7453978749645731,0.22733845344447767,0.4613264460683616,2.0290213565670374
1300,-0.5820600111402562,0.7858486520591133,0.7428593784326348,3.328164699023805,2.6006211853044476,3.5523933001382364
1310,-0.596721572583388,0.7715710424274086,0.732352001719985,0.2303603432177731,-0.32068362624966223,-0.7588509933660835
1320,-0.5469673300975545,0.8225596765020932,0.7771535780367187,1.0219371001939161,0.7876425668694249,-0.06898077265310071
1330,-0.5996210434810845,0.7674550099653025,0.7276900787040511,1.0633042234142975,0.2718369418306331,0.12547696545063164
1340,-0.5665068729967032,0.796962953518203,0.7561237132828678,-3.7278022143602962,-4.193791948761824,-3.816190179375573
1350,-0.5594792086813809,0.8127990064442939,0.7665096116293566,3.1055902653539533,3.8158027878269376,4.6555227528570295
1360,-0.5786331293343081,0.7885599089147417,0.7443837465501535,-1.7611800975416505,-1.5614144194921882,-1.0445280548375357
1370,-0.6115178808640134,0.7574972911364785,0.7089651845049473,3.2133542078108217,1.0688550192041748,1.1437413658126787
1380,-0.612209633549386,0.7627543796746439,0.7144359605252893,0.7887712016171138,-0.6083599288972233,-0.5295856338372452
1390,-0.567962346954535,0.8099295378331572,0.7557017528267954,2.1450947093461714,1.8004298220623771,1.947696296473022
1400,-0.5648621575877226,0.8101830381935319,0.762958727941969,-4.006337868327557,-2.4741582441337013,-2.70726052536455
1410,-0.5702006989788505,0.7988696458317651,0.7584989264277912,-1.4966272783994858,0.603219711984917,0.14211113159084143
1420,-0.584107097472841,0.7869524171590281,0.7455856872538946,-5.255665390817942,-0.6542048747803582,-0.6558162083751095
1430,-0.5785726598316895,0.7969800501217887,0.744712053548391,-2.6814250193110327,0.8302659128908603,1.891932222655171
1440,-0.5729672808499428,0.7925670611599919,0.7495544336177918,-6.621975869120701,-1.4074473571942887,-0.9974749725505373
1450,-0.5949203668848573,0.7679306492915419,0.7264975450044877,-2.389839819000375,0.5173854922893824,0.4663368625768354
1460,-0.5603024802507488,0.8056296101344737,0.7694186483298578,-1.499246862931288,0.9862698968367913,0.8391340944736403
1470,-0.5969400748386784,0.7725132171569237,0.7261518668662018,-0.399623165124265,-0.21577537491562931,0.032429213228407416
1480,-0.568231595530632,0.8030424169335939,0.7534276517254971,1.6983148750817223,0.27337930694018053,1.076533593762678
1490,-0.5780776230316756,0.7905584738846886,0.7440894168814943,-1.320854144007277,-1.3856729738515126,-1.545399400266065
1500,-0.5539375397018175,0.814193678171059,0.7737866647491978,2.3004738169500136,2.546467510544076,2.005995866449829
1510,-0.6011195914932792,0.7700014218104723,0.7307916031206952,2.7246382938680904,0.8620983139220473,1.0403443127889402
1520,-0.5988612841154055,0.7705547811009649,0.7271260704962098,1.4388732929626276,-0.48142961930157474,-0.057281147355399686
1530,-0.5707641466721509,0.8040683585101208,0.7527450693575819,-1.4408348317488695,-0.8717748579531159,-1.450536548070969
1540,-0.6030377412843193,0.7696207141795608,0.7177485187645605,-2.768799030292598,-0.5512931810565306,-1.4499441765391428
1550,-0.5687199712195782,0.8110566581475386,0.7598122587397859,-0.5191123764891803,0.04336783730270799,-0.5095446964914452
1560,-0.5910624254978882,0.7890005394239311,0.7361087640795339,-2.2919309859421726,-2.599170811151779,-2.98525866110951
1570,-0.5718332619099891,0.7871001328614186,0.7475158819597443,1.065160221212215,1.3795855666114858,1.0466593872966645
1580,-0.5836171087876201,0.7803166859550623,0.7407633135850581,0.8237300215179291,0.4865315574587177,0.16480219504970522
1590,-0.5993179262363589,0.7678052133274657,0.723238634629945,3.226306797270118,1.8004843964746002,2.062295649478875
1600,-0.5912474549298177,0.7739854901932987,0.7278610635999184,-2.2270066087790736,-3.1663226830159026,-2.7799388981729596
1610,-0.5980097093493333,0.7723792072618985,0.728468109631643,2.814092918151823,0.7044085342508449,1.5857163038585873
1620,-0.595129243944433,0.7670775592379443,0.7291357033627665,3.919637552169122,1.906994272326651,3.154502859899961
1630,-0.5929532937266,0.7815639057970887,0.7311478350771138,3.511480716451409,1.9981898252587755,2.4180305877649215
1640,-0.5723002594493725,0.789451389238743,0.7476621523508121,0.6212812259496503,1.5505993765208406,1.3277890152457015
1650,-0.5968000175111194,0.7763410506421654,0.7304208616587989,0.821625972447644,0.5801048770040341,0.8625520736523535
1660,-0.5985428854111924,0.7719092422631594,0.7229031348632641,-0.43192211117271806,1.4586316515065143,1.4872676106279417
1670,-0.592522637142727,0.775225789270373,0.7279313591303929,-0.5657128152056772,0.03450791494541901,0.1967327894735184
1680,-0.5913541756256564,0.7726767125535378,0.7245577212201237,-3.548771255190969,-2.5662484574654263,-3.1813048645542175
1690,-0.5611767742496974,0.8095829747069421,0.7646242865983885,1.5621727549501088,2.6923435145770314,2.6356472118516847
1700,-0.6061757373337607,0.764871505319113,0.7200347889882011,3.2185622215682477,2.4586051461684137,3.3217041961931866
1710,-0.5803421308737104,0.7848091919185717,0.73749923751167,0.486943201946745,-0.704976502101155,0.2688643148459744
1720,-0.5819318538924554,0.7831013914412777,0.7385779244410715,-0.9599933019972194,-0.6364676700427775,-1.1295894867845981
1730,-0.6057653190017606,0.7587831161225412,0.7170895895220973,-1.5006196894990032,0.3825060228077364,-1.4534054001755008
1740,-0.5626947711716964,0.8085966508388996,0.7624642279670685,-1.8852967696088125,0.6491109008786136,-0.6084036190357938
1750,-0.5900020008106218,0.7748470004375947,0.7351629712514206,1.0033251454758854,1.0876508877908488,0.9649936308233578
1760,-0.5650501248588824,0.7924881528490171,0.7535521123584842,1.7673026781130226,1.3092218402997737,1.837216232401856
1770,-0.586446909412532,0.7755036581436667,0.7316686852658703,1.1161157618539805,1.9787678539260372,2.519110126748364
1780,-0.5847770236122536,0.7846107843240848,0.7447233046044645,3.837196414345203,4.667347620249746,4.684471903108411
1790,-0.5992747880195044,0.7744090691967533,0.7301234310318631,1.0275424072333514,1.7509631567218005,0.8196273477718661
1800,-0.6054791909019538,0.7588035115566646,0.7147282375382571,1.530840693690297,0.7913254165775406,0.38584738634038684
