time_ms,ax,ay,az,gx,gy,gz
0,-0.571060434208412,0.639458500683327,0.8870622598874596,-0.4526564589204136,-0.9946437304502689,-1.5934308593191844
10,-0.5440927814775537,0.6686399036909859,0.9187746254499066,0.4941444553649652,1.936993732362092,0.9321934153804519
20,-0.5585649452134419,0.6485104541526154,0.9004586780262348,-3.5542248892240593,-2.1876872838462287,-2.7220079723734143
30,-0.513346727668984,0.6907745929741974,0.9468487238721843,-2.585835025979601,-1.8336807171153278,-2.5574746246649456
40,-0.5484954681658971,0.6589477487652989,0.914265699038947,0.1108022003416202,0.1642896689839054,-0.5023950730613889
50,-0.5714508589554808,0.6387490891499965,0.8854895477386462,1.5650436035339486,1.7676696438486705,1.5269354166576914
60,-0.5524103104929403,0.654060768080386,0.9029314822906886,-4.456963466477193,-3.00418363899821,-3.8027969047712875
70,-0.552792028893992,0.6514694061431836,0.9049808601979914,0.7378173641157426,2.4989018870715394,1.1379681231041854
80,-0.5721447023531332,0.6357911172001386,0.8957043765112419,1.9348221747290992,2.4036069640211846,1.087542931803767
90,-0.5594576240975344,0.6460756768109087,0.8986245369954463,0.6596082846451324,1.0473677925613538,0.1426237168709258
100,-0.5839600100529031,0.6229252159480356,0.874844282076925,0.42397607040913166,1.1513616731192848,-0.05438521550538389
110,-0.560100076996655,0.6589250281311043,0.9128518917489457,-5.477202815793259,0.30353543111334574,0.8149890752650758
120,-0.5522079793680603,0.6605008258976356,0.918895413052508,-15.566376002375312,-0.47732755658347914,2.9069837204785607
130,-0.5587962833476305,0.6159211370977787,0.933341481011807,-20.856592810314048,-0.9372806655935171,2.664941894927427
140,-0.6154461219871222,0.2535092893659689,1.2679782806444986,-32.16739170324312,-17.154923199058864,-16.466483066843505
150,-0.6708872275736212,0.5524811116565788,1.1041940846445066,10.72685690122983,-42.44751191166257,-25.91924612480104
160,-0.5320087693525655,0.5196474664135686,0.9072793569864229,33.788783710192554,-42.255102188663194,-20.188235378716524
170,-0.4096940253429118,0.6738407252677768,0.8275791765750761,54.478533292439,-25.151819503097222,-2.7908092616386733
180,-0.4097315546473881,0.7323092646399783,0.8606885070336866,57.84314419258115,-11.656894961955777,4.007617451560953
190,-0.40790251046558257,0.7321700853174843,0.8792475905369579,49.079846109491115,-0.947545406947818,0.11375801515614459
200,-0.42991124807736975,0.7865985415581803,0.9121418763052896,28.745581135518307,4.076828881188366,-9.76329107243829
210,-0.5323389873307647,0.7981736339575608,0.9660539989726528,14.63901985914022,8.884076045688126,-9.081084929284465
220,-0.637975928563685,0.6280139147224949,1.0118873134868969,7.356114381411674,-12.573997786261451,-10.525325069038045
230,-0.596907003153081,0.624586847203647,0.9946813765686824,22.426812707173948,-18.95012454928949,-12.357443597959314
240,-0.530412702466111,0.6569106711138206,0.9289300540659414,29.370831723782246,-17.546975545304132,-10.750583290752303
250,-0.5073509560619354,0.6874542834958678,0.8469728483401814,15.317262683014068,-15.425947989983513,-15.711121432497773
260,-0.4834178877126817,0.7431049665807187,0.9107197010205987,0.1471212415847004,-6.125237042037365,-16.62156059336892
270,-0.45962520376426397,0.6709451995310373,0.9284049701283006,-10.463625620460851,5.847167219699287,-18.12116380049684
280,-0.45129865378840384,0.6151973608745004,0.9596375196955516,-19.70366256552669,7.139487173993122,-21.48215463296253
290,-0.43671429647735405,0.6695833737647996,1.0128640408189966,-24.657301778295103,10.73284214070499,-20.11816373205231
300,-0.4652067026325545,0.693044915263241,1.013142405786475,-26.409520451563104,7.696957443252245,-17.75060987875217
310,-0.5551037549435314,0.6573805070038548,0.9002997440165895,-22.448882512551116,10.694754166989114,-13.685933131875656
320,-0.5260663666746173,0.6687160225913921,0.966354299214691,-17.508973147147064,-3.4582871951089422,-12.693715817039914
330,-0.6332320314958715,0.5307316854568205,0.8478018283804003,-23.56893574004409,-7.877507130490264,-10.269667925804647
340,-0.4463177773995616,0.7190468306786146,1.0550793192466734,-8.25385936301296,-10.321761834439991,-0.6613679997183395
350,-0.5065463802576355,0.642123627619635,0.9862192071828225,-14.508047093174936,-8.242379076514757,3.6650622858992628
360,-0.6421239909351099,0.7379066306629227,0.8093723133476161,-28.54375514940396,-3.9179003091780724,16.767290054863633
370,-0.7349630212946369,0.7613462543661726,0.666508260183573,-21.168719007416314,5.642316911165887,23.4282368688681
380,-0.5978849055622084,0.33627667541939227,0.7652267165380535,-11.810589312593159,9.655717228961358,9.422034338391656
390,-0.5685760328917837,0.4707484557441125,0.8796721753476804,-21.944966244774317,22.54871716911372,20.481972269675943
400,-0.6245783533190568,0.48515261637823653,0.8706778516446995,-15.352678490112806,26.59700450187126,24.96267566696306
410,-0.667768476289234,0.5789818441117036,0.7375536141579438,-12.67851116277959,21.147229853289744,27.051203607388253
420,-0.417120903825361,0.4718313646731305,1.1814406898105905,-12.334996046110888,37.18164412181727,29.801558931817645
430,-0.34759967392021124,0.2692103868281274,1.2873291055521998,13.17084007966991,33.49372536245535,8.36448623594396
440,-0.5948579980563469,0.41458743530467096,0.7742804865981749,25.046010232893067,38.74236307123122,3.3689515250868243
450,-0.3784487263614418,0.46461715933748726,1.0598851640502824,27.27176143155997,30.47950856795412,-3.7500971096130478
460,-0.3722482875751076,0.7009215239922432,1.408603669579335,63.59418290956939,20.07556249746981,5.894690855421946
470,-0.699298843482027,0.7312246000832539,0.7401071648618768,73.24737094660479,27.413941809304212,-1.0018914566533574
480,-0.5144862507396256,0.7796232296344788,1.044872103846637,20.657153525882602,8.86313388998844,1.495782920761334
490,-0.6096059940630258,1.1123507385457483,1.0255279161358861,10.589237194119018,1.7363790652386635,6.593133352322327
500,-0.5323486622950253,0.9808750599120687,0.9498819684593678,17.52719302794414,4.05192704044372,1.364068455257153
510,-0.5724877624072676,0.6861462934517456,0.8703371887277372,9.775495305489915,8.472741343486653,-3.777155775893317
520,-0.5526292832749058,0.7126789014753834,0.8998464278970644,7.342401170859945,5.744435525068584,-6.25911219676629
530,-0.6042744887631941,0.6207916379712384,0.8449587300416903,-3.173337486029427,-1.9393129048971811,-3.3362675261870454
540,-0.5802740965596791,0.6328053077103801,0.8650047110829698,-3.2006278746635575,-2.598457795243905,2.7279514217327936
550,-0.5862511418473085,0.6462354871614714,0.8732005068887683,-3.763734799893035,-0.9967473855687805,2.9413393715697165
560,-0.5971126325896499,0.6286626554261584,0.8611353781543922,-8.814257432784268,-4.694772507323236,-5.219681905654731
570,-0.5959107785971576,0.625095455874029,0.862005120878239,-0.9359266169131947,-3.942834123879929,-5.852804992226104
580,-0.5641263887196899,0.6412310035341778,0.8862108623123847,2.0203586798412068,-3.5191024723467805,2.698296171318646
590,-0.567656785891598,0.6460488521068265,0.8834481356868206,8.088552858211678,-2.6084716364484692,13.414643067369198
600,-0.5696907206139944,0.6695510198336596,0.8864535526976739,0.8794215577471234,-3.520348965823496,8.867784958287746
610,-0.5685022114100642,0.6659921109065469,0.8809977951272153,-6.306428896771207,0.2958068337592974,5.261968324348372
620,-0.5738659826566014,0.65819285241599,0.873903041246728,-14.374586342467843,-2.268763344971384,-1.2414093463050102
630,-0.5746931141424791,0.6279758918334358,0.8881229889561647,-13.603092059087588,-2.90523800968291,3.2837383702461524
640,-0.5450774527493951,0.6769352085214319,0.909711591751192,-7.41668139512047,-3.299353048816224,16.521812405754627
650,-0.5919580126907593,0.6267146611553134,0.8651903624873354,-10.305638439744833,-0.5814283826247966,20.340291722090118
660,-0.5705103818397461,0.6446358931040279,0.8837554612122787,-14.59118797268632,-2.528281256230768,18.726975952837755
670,-0.566810739374355,0.6452160672917338,0.8899278815059755,-8.90991202169906,-0.7157323970840771,21.27995864872704
680,-0.56471788308732,0.655127101513183,0.8851606466317202,-3.624759562853259,-0.07634768128462843,20.738375374536083
690,-0.5591935620146344,0.6688093444973046,0.8929066431553534,-15.857146573581941,-2.328833522917475,4.85312882379477
700,-0.5599343707230695,0.6703656228862079,0.8957918287915791,-14.857053619787825,-0.27865963446736397,4.812654760778994
710,-0.563820835374976,0.6619043093923859,0.8868619746290822,-18.407149219058258,-3.7609843594300134,1.302778122460391
720,-0.5526918181012662,0.656860541742369,0.9017412916404175,-12.215598596407135,-1.941618877294694,4.682408519408845
730,-0.5753319002728666,0.6343377779445256,0.8826362444827704,-10.2317354869173,-2.6868387293309217,4.785936396654243
740,-0.5589403854439442,0.6570940837680102,0.8965225523209878,-8.515850070328215,-3.610615092243979,4.572562029233465
750,-0.5746622735430421,0.6344591608445559,0.8817325270925872,-1.357995051996956,-0.6189367668963657,6.850096931412631
760,-0.5505270931996961,0.671793956484275,0.8970038739026855,0.8770921561728668,-2.1903135669148623,2.2984618353308894
770,-0.580365251744454,0.6412147086532488,0.8821163021196112,-4.958929298645276,-8.155176608651594,-7.425437980743819
780,-0.54002132633861,0.6730013621979439,0.9138440379870275,-1.3387098922150615,-4.524547605826108,-5.299750840606274
790,-0.5681248050868422,0.6307772495038612,0.8852126368493509,-2.5458471364883506,-8.097464957162632,-7.016720709108819
800,-0.52933911023537,0.6645648128000708,0.9254415115012063,6.037547512121958,-4.781307978712289,-1.7373961334491301
810,-0.5633323922981037,0.6400220235859259,0.8935623188232865,6.190738816906942,-4.813637871122588,-1.7585580396995
820,-0.5532813824186801,0.6568258931425341,0.9073873885619345,4.307505624942272,-3.6259711980280542,-2.0001500387007756
830,-0.5391662148158846,0.6574706773941257,0.9168644858287376,6.663812086671948,1.7140378112520644,2.1962691360385103
840,-0.5517515724253018,0.651409823944879,0.9111263040237707,0.625959890360988,-3.322729370778313,-3.454102603605055
850,-0.5410443430218841,0.6583559390090338,0.9204822114889354,-0.6163893887817722,-3.473004725845819,-1.8128295135766566
860,-0.5233339788310735,0.6746333847929223,0.9377344215440669,0.7237408191343032,-0.5637000238013035,1.2841137855229792
870,-0.5444495721718228,0.6513014728393253,0.9167942525399216,-3.7131189042106705,-3.3323680238283653,-2.004437195093068
880,-0.5597802705869777,0.6299814861366277,0.9013961378227221,-0.9550937334508482,-0.22320910218657652,0.1483971851072422
890,-0.5717220530987642,0.620608724800235,0.8884428959552602,-2.933553403804261,-1.9203966130745787,-1.2946146957885105
900,-0.5324650531769312,0.664257916480054,0.9260132868751129,-0.08265227238389716,1.0009738180197763,1.7193184636697063
910,-0.5636713120480732,0.6360093614353856,0.8994754133831191,-0.5004331753488742,0.7418456961620897,0.35719777076131387
920,-0.5665425827820372,0.6236921264471753,0.8970680359843167,-0.08099695209262991,1.0343823195271358,0.4784961815129616
930,-0.5303125660728103,0.6573252842152454,0.9336989897954524,-0.26676917514196874,0.7380143569067176,0.6386812361008369
940,-0.5511088358230513,0.6403007046621523,0.9149727428204061,-0.7797923284723942,0.40714074135319295,0.048450013020011284
950,-0.5766308984250517,0.6175638794472502,0.8900420941015819,-1.3057377391098814,0.1317690690433898,-0.48519583858483606
960,-0.5434204057219844,0.643968608323738,0.9245943599653166,-3.6800322369074583,-2.4118873711483766,-2.624067991435221
970,-0.5725959261872051,0.6145315172927721,0.88722791702452,0.31782097670847964,1.7506362548799979,1.5254155622276735
980,-0.5709488967923283,0.6188058363347355,0.8874363722197613,-1.658910429310627,-1.0592860511596232,-1.5777659585979928
990,-0.535921595457891,0.656454129584007,0.9259706879681635,1.0658664579656738,2.286904392874125,1.3282031101112461
1000,-0.5464235114785172,0.6395643034084958,0.910214406516365,-4.510314013064789,-3.2312086574162646,-3.640939334736064
1010,-0.5577243807061621,0.6282166046797922,0.9010560356000168,-1.935306531085771,-1.1588383117613534,-0.8977329591494032
1020,-0.5327714226589713,0.6520891156080915,0.9225466625495522,-3.448860495722439,-1.699050402036251,-1.9221779360947258
1030,-0.5435767934789811,0.646008104395164,0.9194020423727308,-2.389317726967731,-0.21087712284056165,-0.33924014248464013
1040,-0.5362827603357505,0.6492708389352464,0.9231737226975496,-1.9919663422033407,-0.11959930829048293,-0.8819532792680472
1050,-0.5964635152683546,0.5862196751872459,0.8682898676722504,1.5663088110589434,2.1301872708319602,1.749846117962318
1060,-0.5543821185078311,0.6294209691378375,0.9083558468366161,-0.019836417332293577,0.45745013605883256,0.6010321915444162
1070,-0.5561354806631952,0.6289478938324247,0.9056398207842628,-0.39080046950561176,0.9705635366447769,1.0137164363968292
1080,-0.5577954044047589,0.6243954430079872,0.9031935547216331,-1.8746025367562145,-1.2220797787695328,-1.1163613207137606
1090,-0.5608545191687158,0.6227053438565585,0.8971603510606878,-3.157114791422247,-2.4321385848013617,-2.481945489900083
1100,-0.5283416683243514,0.6550603265471866,0.9306454166277071,2.3644911575024343,3.3180547553108477,2.2204931914379378
1110,-0.5447699651390138,0.6335698451041839,0.9085182704374792,0.40949423321633727,1.167493589526535,1.275723597816584
1120,-0.5920267608016901,0.5855480016810759,0.8683309917877048,-0.7204850417131572,-0.6068459815428181,-0.2241584841655504
1130,-0.5650558073727908,0.6211185258416408,0.8965792933081571,-0.0273368669870801,0.39671449083596366,0.16967965729299564
1140,-0.5859913982567532,0.6013663251416973,0.8741964825463983,0.4691029887611311,1.4327161084023732,0.21123162194143008
1150,-0.5411799870814873,0.6405642671186085,0.9173550439441371,-3.6742530713434345,-1.8340407219841584,-3.4945785069658966
1160,-0.5699186893549434,0.6108489155265663,0.8854037438513879,2.0895049012040476,2.620136662218138,2.305709521465373
1170,-0.5255454223884466,0.6612055219532625,0.9326045893734092,-2.5649384257712327,-2.6136895547146053,-2.472246827569782
