time_ms,ax,ay,az,gx,gy,gz
0,-0.8971356554670655,0.5137235588484503,0.3086216101482544,0.5152484947616832,0.1875159038247113,0.16313801086385968
10,-0.9146041936277989,0.48846530383630954,0.28873092295590536,3.2699616605897184,2.051707293550543,2.016691705555029
20,-0.8811288503580077,0.5245165701685593,0.3281069920687587,0.5580442420701843,-0.3542724412996003,-0.5964968268218194
30,-0.9091312468927643,0.504343920231296,0.3013135492545976,2.037506842728323,-0.2088333636037869,0.017060441990340847
40,-0.8941527826272798,0.5209942672371234,0.31002764171516867,1.0643950644628803,-0.5445204219189743,-1.3172423233380264
50,-0.9263953493635462,0.4851524995766057,0.27753716834284003,0.44039919028539876,-0.7195080282316721,-1.8566739257474008
60,-0.9039988551450626,0.5078072914300119,0.30107216225803746,2.435492193636585,1.6706728766766819,-0.21991994485931532
70,-0.893947477644301,0.5159386187262561,0.30869014031307385,1.455462141726433,1.3193837157689505,-2.1872863100231017
80,-0.9101284852819896,0.4964398718747745,0.2902171168190734,-0.8695062932750085,-0.9098117235879376,-4.8622434740978555
90,-0.9168384125655524,0.49001143661147195,0.2848324178085644,0.33267847467271255,-0.09077585913753261,-2.1957285281281727
100,-0.9136616353192982,0.49342122087114315,0.29019761783932835,-0.5273145736920732,-0.8571949217504868,-1.360084909826142
110,-0.9115871391949787,0.49695020191946726,0.2919947000978454,1.5828569254210878,1.5723900093110414,0.21069572652618795
120,-0.9242025918761977,0.47421701800865107,0.2801088111651925,0.6333066739399429,0.22549688942394472,-0.1587030337693513
130,-0.9107402633334292,0.4878519839096418,0.292440661460821,-2.1198590892618516,-2.702543228697512,-2.1931219072404295
140,-0.8970781807542038,0.5086892322488006,0.3013480638016213,0.4168330995126697,0.2525771488609815,0.5863363002057034
150,-0.897859875353681,0.5096837465169062,0.30610030015617196,1.252466944236586,0.9089654378383069,1.9877581254530898
160,-0.9165579459497404,0.49776086460270474,0.2934122971304363,-2.39637890424582,-1.0094359796574965,2.007171803356184
170,-0.912526350852811,0.503510640227294,0.3056299163387401,-3.6020999009984616,-2.3858452740789167,5.879848067920047
180,-0.9068396376152432,0.5028727399429705,0.3087407726154855,-2.672153300641968,-2.0430822786107172,13.28420979946738
190,-0.9476689962808327,0.4442883829953014,0.2661912063999944,-1.9372540495399166,-4.193170781565374,17.60725477712096
200,-0.8863129681742007,0.5096181525922584,0.33159430965334424,4.124759244238425,-5.070947605668801,22.233625959861683
210,-0.8745617336395859,0.38259025998214374,0.7329229940768127,3.6521184509672633,-37.35062854309364,16.454797493331796
220,-0.8188451506686325,0.2532970329169865,0.8914977251554368,7.5179991780400846,-97.22414855800191,3.2772038352055333
230,-0.727859353484252,0.3173927671940066,0.3641878571181699,34.09320285473583,-118.3075210871552,7.763216414717111
240,-0.6954308387871082,0.3441624794338403,0.32570383425120564,36.47659284161993,-108.26796740735789,7.240260367805688
250,-0.7158794065393403,0.456373317940825,0.3268354587187888,39.71511938679792,-95.76102378965096,7.710317323539805
260,-0.7472932214645738,0.5001438500420939,0.12019383503657598,32.41931015779606,-72.77615303179985,-2.683915714054861
270,-0.7633567345390719,0.5672506471681767,0.20537749076773118,31.37280749869046,-28.967786421418268,-4.7224308108471185
280,-0.7853422558885685,0.6766564916604865,0.4054579432911448,27.06787356923099,-5.2085962878292085,-14.699275586159885
290,-0.8197766271409644,0.532761890085661,0.3492663944278806,10.264790386064215,11.615769296462616,-16.117475548828512
300,-0.8354249960414059,0.4610659748916624,0.3415990070649194,10.2217352023215,28.533917166641665,-18.20842905202849
310,-0.8686317106010635,0.5392902629135176,0.41191578179544464,14.432839015762621,38.515094311180256,-17.25210039755078
320,-0.9061082716921689,0.6029367007190074,0.420287268688062,10.72687709917445,40.3530175925663,-13.448834013712911
330,-0.8562663671138224,0.6270325590405074,0.40844965203830425,-0.3140420819534706,41.1288622086777,-14.463765358525952
340,-1.084017355104358,0.6637582690185158,0.7105631367917428,-10.531132334356478,7.869392656346078,-19.363790160727362
350,-1.1489372172973242,0.595478220090006,0.8000969372436818,-11.433339261009419,-21.405987741710703,-9.614121578916462
360,-0.8424023025799552,0.5079671308288116,0.5589345165697196,-1.9711370650535414,-7.923226714656135,11.634746113937522
370,-0.8859583869521392,0.46056342807383716,0.5425384961602374,-1.6830059305080727,-11.862248556198113,4.802529884203629
380,-0.9073248663620511,0.37936216391277194,0.4239282168141408,-0.07484631627747984,-30.27082459151149,-7.808563076101265
390,-1.010276056237087,0.46732089789331605,0.12495992969324908,-3.4922741014970264,-33.66475932047738,-9.57761596176322
400,-0.8766145713211548,0.5319181910668733,0.5022125908363425,-21.41128226376695,-40.78449170923744,-16.55261556696698
410,-0.5651529026120995,0.45544689609196204,1.0002606113579937,-36.555377044396955,-53.6871103294489,-23.808405222900586
420,-0.9499753333844497,0.4163526771054807,0.4245040831327514,-31.312200623627028,-29.554433079549554,-22.60044211947652
430,-0.9805095477371205,0.4512587600854878,0.31568846237023623,-37.56513411441347,-32.09381587084123,-2.2415176586294723
440,-0.853356623650631,0.48094169961876015,0.44978690151825795,-27.286264579804318,-25.32045285745605,-11.637469333759265
450,-0.8815754632623348,0.44997165740218287,0.464403218365417,-34.56291683192417,-17.50031801305033,-0.7816237119741679
460,-0.8373835312426059,0.6329440990838491,0.47652600901173436,-32.168638146369936,-8.09176119394756,14.384528008424807
470,-0.7172099027270151,0.6397791710984349,0.3701458565497995,-4.29674008421002,-0.3451217244729992,22.533211132200364
480,-0.7488396662546843,0.8006327443271631,0.4074331427259398,-2.126444240964027,18.41211528684889,32.55581076503363
490,-0.8780932943573394,0.8061691126767354,0.26942110675397646,-12.86785492494634,36.5127081278842,45.29821282399742
500,-0.7861785990068083,0.5348569946840747,-0.33200102649234503,0.38591934995982224,45.787320159448875,52.5272368974746
510,-0.8633188583110921,0.5436525696348732,-0.6551119780544622,-1.0425997240073688,58.8334603778656,47.02695801613047
520,-0.8741481393013157,0.5107731367621432,0.36361842539552436,18.501094229076912,70.26042812193745,49.43544489496104
530,-0.938147546489377,0.21567247794387598,0.34480807357238796,-0.07832776328032753,79.792861441058,40.78485683062185
540,-0.8644622671004724,0.806689404339548,0.6386212611687189,-14.664174114099422,75.6079595778039,38.73397760859311
550,-0.6914508170514816,0.11189735202261336,0.2207915554478408,30.768388805199276,87.22296407774239,10.365011967071425
560,-0.6593583363643756,0.14978933625397398,-0.2755335761213735,69.7313882005248,77.5295474850726,20.844908582456846
570,-0.47312177239354863,-0.11879297088236597,-0.9477813111356328,49.00067757299427,58.808074010016654,-0.1935793209877854
580,-0.996690933434884,0.2518024579548087,0.6314627900888936,60.24672164139742,58.54658844592112,0.18158860199824933
590,-0.9632009843183504,0.7815133626563129,1.0621778483477002,79.40129447922527,53.92388781643498,11.394593254275017
600,-0.7538863449831639,0.20414542992489462,-0.11400449445395242,56.19169369475466,37.85307303446019,-9.514488895049515
610,-0.7209582055583961,0.1475527109160687,-0.26872136709260497,40.35248562264055,6.645670257110238,-28.233307242056966
620,-0.9276625993950562,0.41049423999115103,0.44256135849916584,27.923680212899658,-17.453072247739676,-33.935022020884944
630,-1.0434145212417294,0.30549253741464777,0.43819134734793397,10.589879839423592,-17.82843237517586,-36.33443822181793
640,-0.8356954188230297,0.32153335472771843,0.3302616195080948,8.854601710369339,-14.10557468331773,-34.653627621527285
650,-0.8441358487697346,0.012762849867064724,0.7138743512522812,1.1107790089243779,-12.295115410121454,-28.17493281306415
660,-1.0023188047448792,0.6738666489470815,0.1929098675683837,25.069382168453078,-7.994742494099155,5.766142757086733
670,-0.7789488443378361,0.3613231425540243,0.11848637096782695,2.2007793677714718,-15.55753918593499,-33.60319917047824
680,-0.9021892258337363,0.7922964224587791,0.09556890345396266,3.3935145994376392,-14.691370604528162,-11.493734201598258
690,-0.9040932111278495,0.5391560127401901,0.3064277242986965,4.165029365086146,8.303211948881202,3.837527068000447
700,-0.8966986842100705,0.5276740427906745,0.3034393085414105,-0.09077332742592181,4.798637006198119,-0.3613024712811336
710,-0.8934370083604053,0.5430080459448267,0.32234745911727747,-1.0757425974395227,3.719744615041101,-0.0696215902424886
720,-0.927360510978791,0.4967725990830504,0.2989495145843884,-2.626187190866852,1.5074772244277994,0.4303296022803264
730,-0.9309760141019388,0.4844535659297936,0.2967658541255754,-4.810096724478349,-1.5633350034455356,0.13502631356198863
740,-0.8938581285193342,0.5116391862004402,0.3462825637651239,-8.481744541448812,-5.80766090457463,-5.238513754384681
750,-0.9212160966825315,0.4846432141337775,0.32388666720684767,-9.57404525292367,-7.153265695076463,-8.632488024842457
760,-0.9280400459603185,0.4778350751598664,0.3171040880910433,-8.187629879190837,-6.726879802996763,-8.574060134230601
770,-0.9218154123387747,0.4708873955948461,0.32866509203589195,-4.460373411221991,-4.695055973549194,-6.438020306743761
780,-0.8943519777285186,0.4958229695930802,0.34986421081111463,-3.0167154294910428,-4.320609184179831,-5.198318917488561
790,-0.886817258607655,0.5085919919237772,0.35524887569677965,-4.672359185581682,-5.805424958123482,-4.871063690200581
800,-0.8876315693763369,0.5065229454119048,0.36273687489920997,-4.944900107753626,-2.949268832168299,-1.6669785888818514
810,-0.9007714303589102,0.48737535596684134,0.3456715550872529,0.164355412693574,2.0271415537128434,1.3653025074342284
820,-0.8924204065397785,0.4919079493091164,0.35863237877519744,-1.4561778115811435,0.1837965183935943,-1.5222754177438025
830,-0.9031231916249928,0.48383618594853733,0.3401474789051009,-1.7001643094176297,-0.14696823908461676,-2.3079289187724226
840,-0.8988129467144352,0.4902139757733404,0.3505110277732949,-1.2378543049526307,0.6935929418603495,-1.4097625176917004
850,-0.910354090331034,0.47904519051159866,0.3372844747995827,-3.798790020000743,-1.8287737289570551,-2.730820939733008
860,-0.9176232793236115,0.46897185125211377,0.3226455151517258,-0.8250784916465592,0.5723222985843675,1.0186740037351458
870,-0.922159219051964,0.4578215925762268,0.3196053972215989,-4.573484934183634,-3.0866918127393106,-1.2889080903777737
880,-0.9111972081353596,0.4674004642492059,0.33520490215448573,-1.0095899972011204,-0.9774722160386271,3.003210228076542
890,-0.887935892871249,0.4956959398318702,0.36059372503186293,0.12916190475760453,-0.8133298702838492,3.119775879465908
900,-0.8982050179627915,0.49289667022745587,0.3515080800528194,-0.5393048113240604,-0.1906534419671466,0.35692128123028133
910,-0.892754781194465,0.501209317573652,0.3568442096650012,-1.2683634451020418,1.1544550913543064,-2.5339693250208577
920,-0.8873046870954864,0.49901039808215436,0.359869454290676,-4.7214954524994805,-0.2080592353668853,-7.327176115674018
930,-0.8983740200676485,0.48576976319781123,0.3471802505769294,-4.730323731951358,-0.9113411622893922,-6.640328029323601
940,-0.9077391495622446,0.4776126399818009,0.34093638790693587,-1.3145533119276154,1.6029520448515278,0.9763412936505006
950,-0.8880676255375022,0.4943192449221618,0.360206887350914,-1.6281866789015913,1.7790317389841048,1.8542478702421834
960,-0.8919648430996109,0.48483135446825487,0.3467127471055654,-3.993687551038025,-0.6276589061303164,-0.49657070740121495
970,-0.9079502533445326,0.4710691089944494,0.3426064828659939,0.49949590615278616,2.614145600085781,2.9058872087580205
980,-0.8909814707403919,0.4906366707285284,0.3605988237134148,0.009708134528693568,-0.9501303372863075,0.7009055230230801
990,-0.9125141212268923,0.47368812340179806,0.33334222496606125,1.6570982298182027,0.9413008970062483,1.566554400710706
1000,-0.9306150511445139,0.45363092123970067,0.3153726493830081,1.4898359236245342,1.7270354299266706,1.8976466364420541
1010,-0.8876215139232453,0.4953775431786614,0.35961052874495913,-3.182159927916235,-2.728385476295478,-2.6496904443989817
1020,-0.892724351598606,0.4909492262041145,0.3551335208928783,0.056604947795859006,0.6471902209245676,0.47673838687950987
1030,-0.9216730271972353,0.4599254334073817,0.3274122990930777,-6.365490294775811,-5.339264763633734,-6.012817488012155
1040,-0.9148145820128568,0.46267075741401464,0.33474725491460333,-0.5509307564058072,1.010389337473313,0.07145578756814541
1050,-0.8927527410079524,0.48435191074640055,0.35728282211968193,-0.40299282910524736,1.521340301664313,1.0934011393546688
1060,-0.9110564699819933,0.47068489662037266,0.339295842069206,-0.3521504584472803,1.8472430064914853,1.1220328318558161
1070,-0.908471222813675,0.4746240874167695,0.3324355823062937,-4.453737208151454,-0.7444391786740827,-3.889737621795274
1080,-0.8938528845371561,0.48530947515597017,0.34909146259918844,-2.0189918764181156,1.0378498936796354,-2.1318377298867883
1090,-0.9061332235103959,0.46756500357731645,0.33795642345110916,-0.16848163805093463,0.2946323211375957,-0.7063941491316539
1100,-0.8772901065600478,0.49390145041366584,0.3621136589190477,1.255176579094358,1.345265424818463,2.0451651613897543
1110,-0.8936463098498368,0.48546735918192596,0.3488630673859397,1.3191884522658008,-0.21568758937849958,1.7392996422579654
1120,-0.901966710800469,0.4812803010540876,0.34572696019166177,4.789354512001365,3.5127880638832822,4.473334119544154
1130,-0.8988371095617159,0.47690613642925805,0.3431814920071457,-0.31007247251406117,0.8936508234384848,-1.1721649918852433
1140,-0.912633244310607,0.45962655041240136,0.3282993718515131,-3.329190169516613,-1.4902921000022629,-2.973371325024371
1150,-0.9497090090699254,0.4261807995961712,0.2969358108215926,-0.8575562776329579,-0.10060837514032513,0.5076813563469416
1160,-0.8939993478433969,0.4860228423014561,0.3527112876862294,3.045752564376507,2.9507671732544254,4.255677039421013
1170,-0.8718686509851163,0.5072734097823837,0.368934495805323,-1.6372251954210066,-1.9920105652356752,-1.470267651699356
1180,-0.9061454518907412,0.4703627669471676,0.3332559384660537,-1.913876025530607,-2.2647107288182617,-3.228936113581402
1190,-0.8870936183868618,0.49117642944951545,0.3565719643857143,-0.4994894942894263,-0.8037566248150283,-1.7706333064211457
1200,-0.8722191754236112,0.5071882264722882,0.37536730233815085,-1.7817989621628145,-2.418001771832777,-0.3169799273739691
1210,-0.8978038503103297,0.4846372800802713,0.3481443445039019,0.5014500115141614,1.8443792010115216,2.5264443511461665
1220,-0.8843150509039044,0.4987059981425826,0.366775373899032,-1.4130509470501018,0.2758738597362028,-0.7200652234454663
1230,-0.9283195193802443,0.4527955102829128,0.3186798438294517,-0.6434387037808318,1.1254012744658062,-1.4562364782143402
1240,-0.8841604980988329,0.4917334396663313,0.36391614200432276,-3.4358149178965975,-2.4495084625669916,-5.188422467280205
1250,-0.9123786291826235,0.4617272208055002,0.32070194386676065,0.49190416372730517,0.16561528025057515,-0.8635421306733716
1260,-0.8770477991673818,0.497358216028626,0.36163595272306587,-1.2400526388454756,0.2206703178931514,-0.690190733252736
1270,-0.8607570652219825,0.5131137161586138,0.3795631650951164,-1.277708142295795,1.1582043046334878,-0.0018862884174011274
1280,-0.9163512307840325,0.45370418771007975,0.3222743774500897,-1.0010935243383234,0.48309979348781473,-0.21905045567929612
1290,-0.8900421200626494,0.48153309811015027,0.345636003777436,0.9221585042321121,1.0020447697409578,0.4788525126943242
1300,-0.9201527367264168,0.4536819971767394,0.31294603345357896,0.5122495052632423,-0.19701381947499902,-0.8730923550516707
1310,-0.8861036665088209,0.4890255026151969,0.3483052492543666,3.6455851740915315,2.309482109416431,1.8392518579933619
1320,-0.9056377644157183,0.4740435921875766,0.3341835577334516,5.006517676601171,3.8188195232301076,3.125348955419428
1330,-0.8766116030728601,0.5008321916133558,0.36861753076986864,-0.7946082357127813,0.13259364083828773,-1.8593323093388257
1340,-0.8972116156453326,0.4775103897027639,0.34705277024088493,-1.2320983391069267,-0.28911559135198206,-2.366797426788111
1350,-0.9180709321158472,0.44726782133830323,0.326131160999365,-0.2482308825894557,-0.6716651023800849,-1.6834511727503818
1360,-0.9203612125891895,0.4546897280922401,0.3116146187905619,1.6405239709436663,-0.970243155198713,0.13433355648672624
