time_ms,ax,ay,az,gx,gy,gz
0,-0.8123643579397152,0.5620150097739449,0.4300472686352166,-1.697642146199236,-0.5364934364006437,-1.0989680299087656
10,-0.7993658946571944,0.5667649234885798,0.43543015881180797,1.2931572403533944,1.1969068008109525,1.3280682701563875
20,-0.7693720772292844,0.5994558127716326,0.46890896696918116,1.624196102989389,1.0696514480444361,1.736382116520241
30,-0.7896008780181247,0.5819003450708685,0.450297192118126,4.188787842014576,3.882069266743524,4.612650489807725
40,-0.8191226003427532,0.5562250534138974,0.42079296622102424,4.001669768749501,3.7379573427835715,4.530317764603189
50,-0.7905489947138407,0.5855012189902066,0.449466019953473,0.14376164101175792,-0.1776429591082661,0.27159555637117694
60,-0.7954233629472127,0.5767021906869484,0.44329957084420274,-1.3039687636041777,-1.3392233685646235,-1.7183271796327142
70,-0.7934505785129736,0.5767648615296076,0.44170912692397596,0.7266632178923489,1.0441718177479675,0.3895608929149289
80,-0.7805186092341687,0.5878236112369014,0.4582434120549533,-0.5156458047883803,-0.5340589952147407,-0.5874513893245104
90,-0.8180680196596181,0.5555200545089914,0.4200067212288174,-0.15109015203026002,-0.12662834158791617,0.4293175862978227
100,-0.7945154575497089,0.5788932390189178,0.4424437341497396,2.313223280217803,2.8261903657434573,3.2021052423993552
110,-0.8064589310168055,0.565740713097802,0.429097122035173,0.44314150394957363,0.36638807324300715,0.6112210698948677
120,-0.7798477708737763,0.5914547545286637,0.4588784495647805,-1.6943707868730016,-1.3483547890794718,-1.7519462510970987
130,-0.7941366578080222,0.577890731954521,0.4480008520795006,0.5652323766906941,1.7096237822328997,0.22651891206409247
140,-0.7881057900581547,0.583095149807313,0.45501845835134125,-0.03250201154001653,1.2353214644188966,-0.6871107865673205
150,-0.815346746882639,0.5501070295385216,0.4283988978171149,0.5124861138978762,1.4900418566163394,0.6678813879676686
160,-0.7747601241954263,0.5892496483859457,0.4642037950119992,0.11625793529967199,0.23436977943900172,0.9409300526170908
170,-0.7907837839560984,0.5760093410506876,0.4427479899943538,0.7671687110930014,-0.04746569707973247,1.374981088862282
180,-0.8033076052320887,0.573168270259262,0.4403075538423396,1.7717420053769022,1.3768648724632102,2.599089797269507
190,-0.8233971152339901,0.5508133806525356,0.42066422419344185,1.5043219691845753,1.8416795246191122,2.266483722616947
200,-0.8116140652622396,0.5649826598190811,0.4273247060936763,1.149164925716495,2.134455431199212,1.9268546845285295
210,-0.7788963265379167,0.6000173787855072,0.45948306245293424,1.125308379262453,2.5447876969606074,3.3727878820480415
220,-0.8128520923775076,0.5586882004793727,0.43867303890396603,0.8190906571064294,1.9533725106549502,4.641129189127644
230,-0.828514138807302,0.5275143640238097,0.4552516617834119,0.6284428462373409,-0.9698077162063954,3.1904384065526763
240,-0.8354779626571641,0.5151072654895804,0.4914561443762255,1.2014197137676088,-7.551387847318817,0.3935355488193612
250,-0.873925491406133,0.5386596052278502,0.42102344705726136,-0.9381650944885551,-12.924199253026424,-1.0274862351833698
260,-0.8764280829010135,0.5495310691457264,0.45048827677801534,3.864036771013293,-14.709874802752447,5.680573991598035
270,-0.8287797455049095,0.5668583892210582,0.46528342845731513,6.332257069672356,-14.22789272878382,10.173285600106688
280,-0.7903985363984328,0.5590721039696819,0.4480455788791196,8.661791090447474,-13.589830221677543,11.147699047017475
290,-0.7503015954244178,0.5793803703771474,0.4587230883193449,8.918946615442218,-11.264664348909264,9.470475462079019
300,-0.7444894572483972,0.5895329509538458,0.4658115540972587,6.31114927369055,-9.407079201369196,4.971419015347244
310,-0.7603393998763384,0.5817538726170237,0.46312796323564615,6.587986472798117,-6.001300278819989,2.5811687014731315
320,-0.748667573925569,0.6148507199644979,0.495744061010491,1.3110758838767231,-7.53107423791433,-4.097284968275839
330,-0.7941068731526715,0.5766976471863613,0.4448743765047774,5.059115832240691,-3.3187997492485697,-2.7339431781617116
340,-0.7821126682525356,0.5879884747845145,0.465689900965422,2.252133093721432,-3.8538012553667023,-6.388966601529564
350,-0.7772177548815385,0.5784240654261206,0.47716652004295956,1.3133360200817228,-3.237833701463155,-8.512015980437207
360,-0.7955218471035441,0.5535147918132972,0.4484595533120557,-0.49217303009082203,-3.96489161771727,-12.073626910910685
370,-0.7933966689318549,0.5614139726726936,0.4543793379822527,-2.2051668496695336,-3.048858009671068,-13.710375073852965
380,-0.8186832810994594,0.5526166507454867,0.4559941565586875,-1.5461072178891664,-1.0084873166103296,-12.675967051403669
390,-0.7918353706201289,0.6006312802670795,0.5074440938339728,0.26918989330400256,-1.5287270517795495,-11.59107215877857
400,-0.8202020081843067,0.582674332102562,0.47394441713843605,0.34526993206941947,-4.612515416765076,-10.929439320453092
410,-0.7971000261413019,0.5754044918538064,0.4854312618760309,2.6366311939758837,-4.946503255526998,-8.031449148458904
420,-0.8031227570567474,0.5473800361489299,0.458922734300936,8.098687267074492,1.1949077853840482,-3.209818656124013
430,-0.7846688007010963,0.5656876283816463,0.47694004683712915,6.748867646233636,-2.055503565110244,-6.161094206810938
440,-0.8044444191358485,0.5652936233243232,0.44844810903779725,7.596307327800492,-0.008602651519490134,-4.994457422392918
450,-0.79660387450657,0.5774265232946415,0.44241569879410136,3.4081243887762387,-1.6902545293398088,-7.836643356435405
460,-0.7671850706065336,0.5985160238647699,0.4579852747834015,5.072252616041656,2.1300270742144782,-5.474380964904087
470,-0.7753021255061368,0.5876347459059573,0.44249571582789654,4.319323246780586,3.680314214512717,-6.269345092827142
480,-0.7989380929534986,0.5711671465387278,0.4270311272065913,1.8375199587654565,5.393966147317132,-7.976037415206904
490,-0.7953394027231505,0.589872106855188,0.4584843761454033,-0.4194153232763088,9.522935144224824,-8.266693660690763
500,-0.8234905291777309,0.6030691791186248,0.49692083324048775,1.9067169323383009,9.120536166168177,-6.501074885126072
510,-0.8442284646363654,0.5747968270050334,0.38301345240639917,-0.2893830424033711,2.3258207382175358,-7.644805283668012
520,-0.8272043888278134,0.6064464969126123,0.4174101316412992,0.9174881881888594,-3.129502433905905,-4.986278962811708
530,-0.8394384164150204,0.6264966368203553,0.4202763493836498,2.3239293282122198,-0.9453437672391871,1.3112830998448377
540,-0.8240557101006201,0.6299825150848769,0.46296319189048735,3.4802551349524133,2.2580183524209323,6.0566045784301945
550,-0.8445313093762573,0.5689921702037622,0.4942123265878295,-0.4401104988717552,0.921951332998798,5.638154234257356
560,-0.894484833823568,0.5141723442600923,0.4544717040330505,-6.660635511908544,1.8934607836708706,6.355880550392779
570,-0.8199702572088067,0.5799440681817,0.4638361117354626,-8.535913774603523,-3.874583927464724,2.2477554768638077
580,-0.7230715421642182,0.8744971210578801,0.4082624992053921,9.480940987007275,-0.20089226720265962,20.341025553791766
590,-0.8027830232509581,0.6598989525749848,0.5433675017922093,-0.2553513374973049,-1.4657788133865632,12.034610480779339
600,-0.9296890271472488,0.45527151867962873,0.6925006830408157,-5.686692618820271,-3.3568147871314147,4.647572795473075
610,-0.9630187392611845,0.47224667024706735,0.6978380782230309,-5.320886246485271,-5.363033723035397,5.369964790984337
620,-0.8582460720580222,0.49528041023941416,0.60630898510733,-7.535516237929016,-8.415318262157646,1.9645865855369702
630,-0.7695508975212869,0.5046955606993424,0.6210801464868557,-10.278957356296948,-4.1903957757378345,0.29185171336858207
640,-0.7724485233507948,0.7132021587198818,0.7263642399100618,-20.714766554530243,-2.3990933339615244,0.5189229817058569
650,-0.7456586502890886,0.9244379087384275,0.3221805458869361,-18.93768266358621,3.1288882716233495,13.25773832614977
660,-0.4877444123383072,0.8059072427342743,0.05593847270377466,8.682287164385121,9.409215394093923,20.25112355029616
670,-0.7846863437821339,0.4979605030142592,0.272197761700028,-7.056110465346517,1.6259562489236294,11.620023002753678
680,-0.7887617458073721,0.3667935539617084,0.4303400487194843,-9.290622713319099,4.222719978122859,3.6289263883675105
690,-0.7826338590839931,0.7006058885719444,0.2736596453317905,-3.499361235423881,8.888901048937292,13.761957798956477
700,-0.7178570855896793,0.713735335358423,0.3101156065110736,-5.416575478076695,7.633047367445242,10.694118328633857
710,-0.7970042379938449,0.4280960178097967,0.6525530230740817,-17.26974057897519,8.47710835069001,2.824445258697078
720,-0.8803122126335926,0.50897252090055,1.0608451865406954,-30.245681773143424,6.992643167318481,0.5089991556112656
730,-0.8430978118046535,0.5022378893731352,0.8317936177648143,-10.5670592570579,7.756382123066935,-0.31085868745184714
740,-0.8464049171408692,0.5201352986809481,0.4987558455182311,-15.498285646716866,14.609357183019428,-3.941538630721857
750,-0.786773706700013,0.49376570925201374,0.34263547124445204,-7.494107373311689,5.864128703165846,-3.4510382947431957
760,-0.8252869628840899,0.49390164395601605,0.6618566185076648,-23.51606703506804,12.657426677718336,-2.2990100326282796
770,-0.7574303007424935,0.7747870613009251,0.23032654225418817,-6.406917329014771,9.33718226385675,10.32415383050355
780,-0.7518834833319593,0.6349918136611156,0.07937528473788917,-5.066220212908066,7.011027074134896,8.767446545908358
790,-0.8460095201566281,0.3528424651922396,0.4041489184717929,-18.98035999102363,8.220072862851724,-3.3423471539112173
800,-0.8736781528130374,0.42419101467245945,0.7418151613398164,-15.149290949243854,14.274373486752186,-1.894952821960381
810,-0.8972913832789263,0.44315746303422365,0.7261816917778291,-10.606993415488077,10.549636423100692,0.45296012740654024
820,-0.8090136432649652,0.6062140750030283,0.6725568534016029,-4.415737881305041,8.444825544869387,4.754720549312888
830,-0.8113178562766679,0.605487055637548,0.7063785812423937,6.888021077583028,2.848670995255376,6.1619398864779775
840,-0.8075923749267233,0.5754374360555998,0.4493575098223998,0.6150997783180613,1.4460334856573451,3.1979482414147693
850,-0.8184630666582482,0.5483009822717645,0.015045834368336702,-9.031783976175317,-3.078905264421186,0.8379275451982819
860,-0.8898274842101656,0.4918176206779935,0.2950277742023144,-0.6769196010588279,2.199888611757341,2.5873960325915673
870,-0.8687631404456628,0.44274626578355236,0.5349868762597103,-0.0709901638293573,2.746658597101494,-6.923160625233653
880,-0.7389838356767484,0.5285375751906606,0.4404233609311569,3.922562939145207,6.000463079264147,-6.590241476602174
890,-0.7577170944652072,0.6521839578280909,0.6247558335681194,16.407157861829774,4.515506096193654,1.7212511501850136
900,-0.7686610797520241,0.4832403216858576,0.4781997663279586,13.514669405249068,5.328196795296367,-8.207159639154263
910,-0.701856155827194,0.6420512493747242,0.3544434684344267,10.331999577903286,0.14743917702169895,-0.9980581996716307
920,-0.6952678677976988,0.801894935395743,0.2598979962765406,14.546810942783017,3.1966187806832815,-8.584346525766943
930,-0.6325996353778879,0.6077512785793635,0.3491047380939033,8.186510906989966,3.100543456729275,-14.673093951107186
940,-0.7217418182009175,0.510084357467703,0.6922046721062666,14.402803065939242,-0.8000944305220719,-12.159008860326606
950,-0.7915875455638386,0.6320257886160199,0.6138919373172711,26.89438633566107,-1.216449659256995,-3.204051088196946
960,-0.7422928987900856,0.7264503149328773,0.297141352953336,21.971250432442346,-3.2764394680327484,-5.692219427629954
970,-0.760605097269694,0.5463707145771636,0.3915824510574757,6.65911467824108,-2.5885697249676394,-13.345803632004518
980,-0.7869290852026017,0.5456577814199768,0.524455013578273,-0.46281827946508425,-1.4888851692948486,-5.801683400503368
990,-0.8353093426965387,0.8299488069031965,0.3874126320428579,12.939671451750026,0.5336930574741034,13.548645034870214
1000,-0.781240245749669,0.5813281967165277,0.3381099414639361,7.492331131232765,2.425656589634574,-1.3295970922239397
1010,-0.8056709880515995,0.5957484719793041,0.39300680395315407,0.10471049028065538,1.6067711967763945,-3.6744271387645004
1020,-0.8116312344804647,0.596370706487754,0.420263949535806,-0.6946457871448319,1.3238949678411713,-4.1451736966849415
1030,-0.7990472077237736,0.5737068808942927,0.42294492837977976,2.368965069121151,1.2164261362640776,-0.7631202367465468
1040,-0.8137197424249772,0.5498854399167296,0.4044355649870541,-0.14717943047048943,-3.6721976787001673,-0.3320763920298755
1050,-0.8026736527800387,0.5696159118857651,0.4216133802827595,4.751148861052313,1.210736885994614,6.09662041319868
1060,-0.8075723110983473,0.5642481105646938,0.4205995035940481,3.466707980945624,-0.264601136528793,5.175039586743533
1070,-0.8006358922099991,0.5773565784063973,0.4313831728865088,0.030165182794661904,-3.1109465244302843,1.1440219792515443
1080,-0.785123137540253,0.5857230534636474,0.43446185461361186,0.39470493157038844,-3.1637312994851285,-0.03835683449944299
1090,-0.7839591727649081,0.5859319956391422,0.44541708896169485,0.9994957618738292,-1.8072516682706579,-0.4570149172509712
1100,-0.8050810256739289,0.5619027360870438,0.42524613158981334,-0.7956668349448446,-2.1004914473680274,-1.9610758584935208
1110,-0.8141836803549835,0.5507413303707406,0.4119657994407155,1.8751892494537095,1.3421511861408209,1.226254673683955
1120,-0.8157637541653464,0.5485518341974369,0.4076491369627197,1.4871334333599864,0.6034551638577101,1.0176804048727566
1130,-0.809313186370646,0.5550655541806736,0.41584419107521153,3.0781154536205753,1.5364801255826366,2.579041587992101
1140,-0.8167595224177835,0.5501519780310585,0.41607965007009606,1.6181063067031078,-0.16001594217582849,0.9957245297741922
1150,-0.8091831724073636,0.5619354812112891,0.4267700124651101,1.6521687874103455,-1.0064330339068588,0.9368789772550463
1160,-0.8021995682606502,0.5720515749288977,0.43044612081134115,0.6391821931677542,-0.8549529621029718,-0.14744539078803431
1170,-0.7999378273767517,0.5729772139068352,0.4266828499184597,1.806635906378301,0.9904750543248433,1.5037019224121617
1180,-0.8104141821921109,0.561328753967178,0.4198358532804251,1.2529928775079626,0.11005306303615747,0.49931563974526194
1190,-0.7901151882868237,0.5784638197252714,0.4393765507730864,3.7245858858393857,2.4841215939226595,2.790369638668848
1200,-0.8003110107063236,0.568869128076226,0.42810191061502406,-2.394700558834856,-3.571988418334591,-3.1439762017569706
1210,-0.7876221732532632,0.5852197369968652,0.44283523707773376,-1.8978542673817993,-2.970618033417902,-2.3963876131277164
1220,-0.7883214481106815,0.5812528556057307,0.43897832245100765,-0.23137462951781726,-0.7892915407209905,-0.38318911161050107
1230,-0.8176281705005666,0.5472094918571208,0.40874216944731334,-1.503121898320682,-2.4038422177189256,-2.0466031191944545
1240,-0.7852828939965272,0.5842649684529861,0.44852742404776513,-0.04251408615959451,-0.9760120041557503,-0.4363323217858338
1250,-0.8246954654437401,0.5459578563455756,0.4086660292412382,2.0644361682616643,1.448134139760374,2.157221400911257
1260,-0.8240790715073729,0.5456239825137661,0.40922513019914136,1.9073005875430888,1.4764017962548621,2.006064349265575
1270,-0.8039081633105648,0.5665600551609078,0.4277582153414663,0.42384744686900566,-0.18987573105079023,0.5619010868935514
1280,-0.8024276750431116,0.5690495059775157,0.4293566730041729,2.8142153200941453,2.04181284527235,2.848563490613895
1290,-0.8039438110703546,0.5696193632741103,0.42733315082222345,2.0414743820372765,1.3146765933690716,1.727050737800824
1300,-0.794645626225296,0.5816684615894827,0.43122949508882213,2.163744675528372,1.4068562048454323,1.679066020774663
1310,-0.7966829048434587,0.571126409985711,0.430267492741528,0.5591541369600225,-0.38427908463366517,0.4378060971392451
1320,-0.7923003943998297,0.5758564442352192,0.439530814157843,-1.8669138870013908,-2.570119083402971,-1.7682478922161844
1330,-0.8051968142052841,0.5643066005554902,0.42042525197871233,1.1174659354631495,0.626816542552725,1.1682386388313568
1340,-0.7898425472121852,0.5813930095148434,0.44002903993515685,2.6624944867655365,2.120164349863349,2.4186034159054355
1350,-0.7913591501129608,0.5811767412035506,0.4356728756203582,0.0898330224852032,0.44488585077088627,0.058808187896065026
1360,-0.8218938909417046,0.5515690716190094,0.4033841452142012,0.230045420547907,1.2701302996078874,0.3656227537134066
1370,-0.8027228937171283,0.5692550962055704,0.42427950716322055,-1.4639903494251536,-1.3104350732824865,-1.3246317183934435
1380,-0.7996042632697427,0.5709967493381144,0.42771711468323165,4.795535665345106,3.3561832979287023,5.141587808062302
1390,-0.8061388858179527,0.5732639943329769,0.42682021924594715,1.8167952025307041,1.0708767334004703,2.279120598754646
1400,-0.7957265937642758,0.5802716116877699,0.43641243465532353,2.1386957908674056,2.226939994838215,2.6187365901932598
1410,-0.7998824460039711,0.5805067321578586,0.43491868799617184,-1.9950943696147765,-0.8351639449658004,-1.6652436085634625
1420,-0.783122385296276,0.5916709118065399,0.4504654907664068,0.2105609803012406,1.4754295085952305,0.4504808782303909
1430,-0.7910590332651407,0.5837721581829691,0.4437613538543462,-2.234963205628507,-1.3735557312673616,-2.175744696144464
1440,-0.7503590168889978,0.6238198496362152,0.48318086979493957,-0.7424894181829382,0.06774671180842062,-0.42951940582559434
1450,-0.8268249254740221,0.5472151117710412,0.4052047916140721,-1.2292121683353145,-0.3497085042737662,-0.5008348338795434
1460,-0.7957192286607202,0.5819369303669757,0.4390806526032914,0.3779223435797813,1.2376090157610753,1.2533103560676833
1470,-0.8111729035344024,0.5655383804938798,0.42468313563237164,-3.6238027978023117,-2.1221983523373287,-2.5604921432107948
1480,-0.7727047018798859,0.6013198250512821,0.45170764327619295,-0.4864869668712081,0.9493800184447855,0.2213119286158871
