time_ms,ax,ay,az,gx,gy,gz
0,-0.5817358910830489,0.8627231111001263,0.897441760766636,-1.5224002819324791,-0.569642218775595,-0.16399344220390105
10,-0.5930370924930523,0.8519628020368099,0.8825165818947072,-1.1965051289127762,-0.6105298564178572,-1.0415726732357642
20,-0.5958744133444918,0.8436185717784006,0.8730114510867457,-0.09121724251291141,-0.46871763908055886,-1.0870123139023145
30,-0.6017472839359439,0.8340182695482213,0.8624828950912606,-0.09986678076205702,1.5277545989934684,1.255717890013714
40,-0.6071508760204976,0.8353038999652609,0.8596391141349107,-2.344001112902192,-0.3050823230680083,0.12087159593000052
50,-0.5829237811941361,0.8614893654320466,0.8887076426478824,-0.2360927160395433,0.6766898862676876,1.401048788566938
60,-0.5879295717381188,0.8401660355167596,0.8751756931328497,0.2954571682667695,1.5735747793262993,2.328965969365206
70,-0.5758111028464691,0.8531227633933405,0.8867537638607104,-1.8007378992894982,-0.4401043475632868,0.37259375621504287
80,-0.5783237792102066,0.8687423540120591,0.8919961018659404,-1.696232285374856,0.9006148891862574,0.26608530971811184
90,-0.5951157990688412,0.8466981764921979,0.8750349000591348,-2.433108978636656,-0.15287502108668227,-1.0111050742361456
100,-0.5602327056394806,0.8792360573849096,0.9126955024195594,0.9627963471984301,1.7024061989860682,1.3487423946771964
110,-0.6001010442286202,0.8357755562804975,0.8697587714303605,-0.6549596946599272,0.5856875990830994,0.646527374785448
120,-0.5943152849208323,0.8405077320488159,0.8686697011576172,0.9072930145500022,2.0774649372961593,1.9934936130053857
130,-0.5848273335383143,0.8555404547516866,0.8823515232306985,-3.710752594773248,-1.8764216955373554,-2.458281585497734
140,-0.5978684694412552,0.8399500440931814,0.8717363006365016,-2.7882137470151553,0.13726096190320347,-1.0546398793984144
150,-0.5789638779024009,0.8542033287940404,0.8870882460757158,-1.9981133420369033,-0.3401247521155572,-1.058935973683921
160,-0.6057266638719923,0.8281371039163682,0.8633069599051645,-3.3456868099755313,-2.6089189288482064,-2.7449507453901014
170,-0.5632392561046603,0.8753421240585834,0.9122043482090568,-2.099150570663449,-1.1671126110621188,-1.7898663698743582
180,-0.59176873307495,0.8527809244701728,0.8850050381424683,-0.09365846213350615,0.848405286223677,-0.28122727704988915
190,-0.581428253600322,0.8646595101415544,0.8940311251722085,1.989140121686696,1.9174871878281547,1.30541762054848
200,-0.6039774951704473,0.8394585926087023,0.8694916216587169,2.6894619830041435,-0.7012270434734239,0.12280175714389585
210,-0.6202695012524102,0.8402819990453478,0.8969701901368147,5.732827484596645,-3.0111602731850815,1.1540526620728073
220,-0.6060265842776235,0.8889105685546175,0.9805753429839567,9.171373585920717,-8.067294362521938,2.9421679683934365
230,-0.6133302060744277,0.8733721004736155,1.0130336510617648,10.779998252369724,-13.707488648865294,2.3822390535590796
240,-0.648146553357328,0.8012854538947431,1.0970908161327855,5.731144001025069,-22.059356072725272,-3.7004465318481974
250,-0.6057560388916506,0.7333814851381725,0.9268351285784183,-8.747949463483842,-32.276558985884336,-6.227643792375959
260,-0.5439924121615806,0.7745062803611187,0.966904667002162,-21.845710685212335,-38.448446806898026,-11.427535200979069
270,-0.4746926774449366,0.8278166957795056,0.9001173026010337,-33.60463662669626,-39.392873519686944,-19.513611954381172
280,-0.47723290009345226,0.6721817773263848,0.784555385201302,-39.919413917700005,-19.88390536116063,-22.43478431215208
290,-0.4978300369926189,0.7128830152930562,0.9365419350056406,-29.85115314573127,-15.558387431353582,-29.928940887282334
300,-0.5527072343577574,0.8449126532016323,0.905424521299358,-24.188235180712464,-15.285048328375932,-30.8646801272397
310,-0.5384084978621134,0.8168055590488659,0.8389611415223043,-16.535921881718775,-9.3212433943425,-24.321991507594436
320,-0.49494696402198496,0.8468683679560622,0.8223953030229078,-10.983362836376772,3.486947655426278,-20.77344022702882
330,-0.4971449391582741,0.8173076640069452,0.8501686177252372,-17.020363142672892,9.283196032352071,-24.276647064133677
340,-0.5090421927288649,0.788394870854164,0.9112478633709699,-10.722706840597496,20.905657227490252,-20.29927947960976
350,-0.800192096931627,0.7875810686158725,1.1586017659490606,-10.10207220419637,8.578726418521027,-19.1361915690004
360,-0.726186567668713,0.767605596209009,0.8660957128188868,17.615868659988944,2.7533884337216707,-15.389588138023349
370,-0.6083970414520128,0.6480884755387126,0.8012551810854986,2.607550058099,7.19216343826648,-20.686277364619038
380,-0.5448759354033412,0.6288800866033524,1.011312773789523,-21.3435964089432,4.7878736810614555,-17.403949898302418
390,-0.49784930238959435,0.812972559259084,0.9281442854245014,-14.854171412750075,1.0649670687856665,-10.962818246053788
400,-0.5503137782850339,0.7747453987286527,0.9300468647314243,-10.217231154185082,-4.110993642963749,-1.6330853114408084
410,-0.5851828676390154,0.7230445601886174,0.8901218179754847,-6.659543771516298,-6.0976784322969575,2.5770855772931105
420,-0.5698849805274637,0.7471284379373885,0.9423011605322658,-7.346926736577746,-4.726228988265455,6.1753174795601335
430,-0.5242339500574918,0.8773541456877049,0.9222638998748064,-11.100851720125576,-11.82142123986958,9.779620012365207
440,-0.549909436499313,0.8240444898545822,0.9605660228861246,-27.234411346654486,-11.439287291994198,8.651770222238737
450,-0.5463218259548571,1.0013174887703464,0.8951330635853102,-11.737666767694984,-9.636941544940623,20.694033088296585
460,-0.680843166669958,1.3402177590407585,0.6556778441520865,29.092815167860614,4.372461651089106,37.99031199505442
470,-0.8064824682348963,1.10264534008345,0.6329030832806769,47.35642150947832,18.842527995063605,44.84810924779371
480,-0.7425040414581107,0.4129168162445313,0.6569059362634246,65.05283666856472,28.13302671516722,40.07345041506308
490,-0.6646785766624281,0.6240043208216483,0.24282530458068455,106.27062118946294,48.71976676767131,52.70467814586705
500,-0.645135614082853,1.217701158154357,0.341557790614348,111.70714284850368,52.81516008015412,49.121725264637945
510,-0.8117304313238197,0.931285428913502,0.44283765773313283,92.35851114037537,38.57860582897491,18.52236498098543
520,-0.7451105407026112,0.8193282880830312,0.3104514995769188,75.13389036149749,23.770505830439888,7.968561671389281
530,-0.5320467762465023,0.8417826549604982,0.9734636285678429,45.97279688160354,3.1708071590870004,-5.2910648373691735
540,-0.592711246882613,0.7211945352965188,0.9895459494473763,33.64829363445859,-3.54788187949913,-21.63235984882979
550,-0.48887866834537763,0.7910722433049616,0.977808672314753,-16.843931076208197,-13.342345854090857,-32.01894756406153
560,-0.5484158404778428,0.47683687273908826,0.8994232410788299,-31.16674164951393,-11.152317663289482,-33.80992130819174
570,-0.5648609566670746,0.7650395941729461,0.9463167369050066,-63.05309743860881,-4.270570032221424,-19.2782692113337
580,-0.5573920118527951,0.7907759092149317,0.8847903691967994,-14.245646258196626,-4.281727516107217,-4.504065023130644
590,-0.5780744299384318,0.8484187685529783,0.8799326016092137,-4.652667226119069,-3.1810438701932204,-5.2947460057771725
600,-0.60151491416837,0.8148594827244054,0.8707661662119343,-6.012672532520857,-3.0168352167034325,-3.3924547676611994
610,-0.6015964050508994,0.8079683550066549,0.8750433097767686,-2.5422156024097413,-1.8368649517505546,0.40771668242089254
620,-0.5651551565734513,0.8597351191678607,0.9104806307672384,-0.029422437126750522,0.218440233981671,3.422673532259352
630,-0.5879164523104781,0.8271006351408682,0.8816729962060174,-3.677700678260655,-3.1914583128398366,0.1106858402275579
640,-0.5750933419919994,0.8412944500618248,0.895996009072545,-0.9639242357074072,-0.5773702798779972,0.8992477590577863
650,-0.5691588555474664,0.8580906925763979,0.9052032173521418,-3.7526755940636987,0.4933016130697548,0.14096527958863359
660,-0.6053456401060989,0.8196684723100968,0.8741264622586367,-5.19760677298845,-0.7258913795934281,-0.8519885326785895
670,-0.577670596823384,0.8335143278571352,0.8897568983268933,-0.4391694925650127,0.3802292330152178,1.964824807915037
680,-0.5884323701160201,0.8307574611663833,0.8847201632384425,-0.4823754761928153,-1.7202889765345266,1.4429459937848688
690,-0.5738434777289441,0.8547179104383926,0.9012019378718037,-0.4805366625262379,-1.8074363845373584,1.6717896166451065
700,-0.5759768832789782,0.8489226504299255,0.8802604708071005,-0.4220051651529879,-2.2482102348101485,-0.6127196493580664
710,-0.5542342236662701,0.8573648075303535,0.9060037531677405,-5.079052591240066,-1.1222281430717347,-2.069386099128551
720,-0.5727715735998895,0.8405257942680293,0.8971623527378771,-7.047129732653721,-1.2483176324392335,-1.6875070946069737
730,-0.5682790435055474,0.8304642746292838,0.9040532159175367,-6.035746418596505,-1.7644434870152716,-0.8416765132681806
740,-0.5906842417033672,0.8101121788907532,0.8824401410361606,-5.649358119105981,-1.8292610726104555,-0.7164643756858384
750,-0.5898017815410901,0.8299653623777159,0.8835885599396833,-6.094923710460739,-1.9390487335848716,-1.4807308952656957
760,-0.5875603873233461,0.838117681274802,0.8894234632537444,-5.699446798517541,-1.0308813743497718,-1.3360276552980614
770,-0.5790674406691187,0.8422329579498004,0.8954883123618118,-0.6805560673364455,1.5779633105799593,1.2054069180387672
780,-0.5711575811108188,0.8410717822250307,0.9016123412974177,-1.44463474984794,-0.8850082574565975,-0.8369505762140357
790,-0.5841375372693954,0.8289243468271081,0.8921948339538986,1.7167361608118317,1.3313220457350574,1.932725401207282
800,-0.5727704671512185,0.8406447674720476,0.9019614339570997,-0.6483889662223148,-0.10274565551538534,0.6946049630421252
810,-0.5718054423842,0.8444783718856126,0.9004427198713627,-1.1687161779534598,1.3229088645937948,1.965719779880216
820,-0.5723528777510668,0.841826590475293,0.9008781238102131,-6.180213262333281,-2.2384706942838086,-1.7953919342883746
830,-0.5913037476318721,0.8080560191287848,0.8791110239712663,-0.8784971264174197,0.8361191970098677,1.6268348036533693
840,-0.5526987451184348,0.849066182088597,0.9145554570406167,4.448606652295666,0.960992630249887,2.495840749256142
850,-0.5806150537440011,0.8358172081161417,0.887324460057136,5.134778669273514,-0.4066710910300573,0.8978403836886677
860,-0.576888876085911,0.8474605272861665,0.8956108224832292,5.194401568039726,-0.9905257442194118,-0.4778150371876838
870,-0.5997760333455985,0.8243871373251501,0.8823580605427578,0.5850088384067944,-0.8221851228887915,-0.6292555818220176
880,-0.5838764555335465,0.8348401344296015,0.8993548556437578,-2.197284654678828,-1.6781920985808525,-1.3992545995911045
890,-0.5945168584339929,0.8166085670465281,0.8807980227297999,-0.9790080306856966,-0.5022579770915736,-0.6092549366495491
900,-0.5772332941430698,0.8353254746105148,0.8920532978945087,1.785827914201576,0.08019230742969163,-0.2192091644335664
910,-0.5776876754429179,0.8385752993317863,0.8927048196534905,-0.5426092668692823,-1.0737114134521448,-1.1615047078400225
920,-0.623757231715354,0.7983102526735708,0.8655304082100741,-1.6428910106120227,-0.49388992837436163,-0.291390563704693
930,-0.6132973408834164,0.7961983920033691,0.8682848525178983,1.4512031691475558,0.8055907401552714,1.238343841473206
940,-0.5642101817721087,0.8370282736502723,0.9000434472594759,3.3171764807252644,-0.11794369802261657,0.3828843072472675
950,-0.5846644039249973,0.8322943420548354,0.8841180839323612,1.4207622791159316,-0.4927095568307503,0.22551918821234224
960,-0.5721990347006521,0.8384031418067178,0.9022539579205442,-1.721890655090236,0.40896230881333395,0.019860537305144033
970,-0.6000921978960877,0.8058124696158725,0.8672605897613158,-1.9543316118604503,-1.9845721293878147,-1.2635013081365107
980,-0.5828288498408102,0.8181267319166811,0.8927347772340081,0.5523576839549081,1.2196392186134117,3.084207839927781
990,-0.5520626082312676,0.8591787161709941,0.922620030173748,1.0614779139653865,0.11178610533167724,1.9562861361918458
1000,-0.5712811483250932,0.8455793393984277,0.8950531572003266,2.9120111686993866,1.9423985336279643,2.6784586617228943
1010,-0.5843927117165365,0.8341714995716762,0.882212906129359,1.6088913581286253,1.3739844035649975,0.8501888734849492
1020,-0.5716491839035093,0.8383240533717132,0.9006717101032188,-3.5480263999796002,-1.5746977384333432,-1.6439543317963965
1030,-0.5716579616172135,0.8392022090252756,0.9030400597299888,1.7971058348595814,1.6147352643380897,2.7538543824752146
1040,-0.5743593332736462,0.8277190944949613,0.8954768007024689,0.9209474256582416,0.06706181110860712,1.4819616895125745
1050,-0.5711365918544898,0.8427375793107135,0.9043713735114458,1.1612273140097662,1.1407204203607444,2.1081249279531473
1060,-0.5810293801075234,0.8352029226776443,0.8933992594385398,-4.457100658859671,-2.75843084099892,-2.9650948230284975
1070,-0.569210434120024,0.8443846587338589,0.9027525339559423,-0.5128162664434741,1.9963014311041507,0.6102089721217432
1080,-0.5758348709459229,0.834237693728534,0.901568055345904,-4.413317617609725,-1.659916457046131,-2.1834708083682566
1090,-0.5752922880054486,0.8308158577422811,0.9000670197658824,-3.917223770507155,-2.4885699365294274,-2.109222238306403
1100,-0.5825070600330745,0.827983286684636,0.8878333227506404,1.5003358177295274,2.8986014381459784,2.6615922489621835
1110,-0.5940219518345827,0.8205092373760247,0.8759073709427432,-1.5187380530618513,0.437222297410955,-0.43835288830842467
1120,-0.560911769619143,0.8508048737233965,0.9132675513110483,-2.5192392531178927,-0.8906303202092304,-1.6033996167525506
1130,-0.5712562591733292,0.8375487014282164,0.9113999406813176,-1.084779956936621,0.7573531241254944,0.4232596227679922
1140,-0.5989001424480721,0.8061263012498227,0.8792748198589466,-1.827117092112933,-0.4963263467931988,-0.23073053123902026
1150,-0.5606580227287169,0.847111558573207,0.9136478540181926,0.9908938836717909,1.9401211761107056,2.2885126101322983
1160,-0.5964050834066454,0.822528926105057,0.8843391275455084,0.15424122731015277,2.105410279219016,1.7884068501353685
1170,-0.5949904662957007,0.8248273794520832,0.8814865275486359,-2.1171316931308493,1.1929580758973504,0.692751459500143
1180,-0.5740621165317729,0.8368465621770789,0.9051522764572435,-5.879373024315548,0.11493463361607814,-0.4258096987658342
1190,-0.5714037100033188,0.8283719329367739,0.902867930695954,-7.617040316852708,-1.5486613658407744,-1.97633206433381
1200,-0.5692246223182371,0.8301947543285494,0.8977123463306661,-3.8768421293782263,1.1749220716982451,0.8556279207495934
1210,-0.5899981701413199,0.8234476125899539,0.8876779065882083,-4.221396910727194,-0.53724528110048,-0.9456497330706757
1220,-0.5843273548571415,0.8258306982425685,0.8916220730056997,-2.483269981775277,0.8402691752224127,0.26565263936318106
1230,-0.5714517565140868,0.8232150288379917,0.8934983212562796,-1.5754841489207614,0.4362974429118853,0.08647108758217881
1240,-0.5715763803497236,0.8003884696366497,0.884245708180341,-2.1721408953335684,-0.00806603311713569,-0.3161626787343001
1250,-0.5614982277416026,0.8368904555626565,0.9158011567726141,-0.49976189365959134,-1.690795748597961,-0.7874617640048421
1260,-0.6009033477073473,0.8108385598695432,0.8775913724819459,-2.078324004772315,-3.4435373207518842,-3.1144531862796576
1270,-0.5780247434302479,0.8302343474675102,0.8958179241997917,-1.5224053696222053,-0.9654050411951386,-0.4927965718909892
1280,-0.583728980777378,0.8218127715056511,0.8957656613372801,-2.0996178594952055,-2.6306677086269445,-1.7594176768573764
1290,-0.6005088881535534,0.8011970417855714,0.8746001833054684,4.772604335635853,4.123692985852239,4.874023438158415
1300,-0.5499540290594335,0.8487431874226631,0.9197413668932889,0.24626701126332495,0.6363680660590736,0.8060837690311755
1310,-0.5646575468555293,0.8399966643506724,0.91617334848044,3.2792078739660555,1.1296300021365568,1.0246313446039992
1320,-0.5819948608313582,0.8203040415931878,0.8886551675598637,0.8165920527617483,-0.244907295251569,-0.34568907086873063
1330,-0.5828360962574045,0.8247301704318977,0.8952300191549485,1.3796936499634316,1.710965768866085,1.1223032047582855
1340,-0.5722298092643525,0.8428283393281107,0.9081556878949754,-2.789652391762101,-1.0500276956696464,-2.1782852558157755
1350,-0.6006297390229998,0.8064355064172614,0.8710003187820791,-0.43311837513846707,-0.04975052877699154,-0.7167869117720037
1360,-0.5606460915425968,0.8395919298448685,0.9028880879431656,-2.1926758210452584,-0.6748124568150756,-1.212615611858103
1370,-0.5914241067209559,0.8170202873901456,0.885710645508141,-5.227849697763662,-3.8811322615724575,-4.651118740029318
1380,-0.6070022510184411,0.8042394752306542,0.8739794155500837,-1.1268191561420642,0.254836781428072,-0.760395948095838
1390,-0.5700406398260074,0.8393964920286161,0.9098261950032752,-4.090067147816859,-2.9679185739181695,-3.8783055339670147
1400,-0.6094475871538735,0.7892919141754114,0.8718224903392625,-0.5661125971029416,-1.3275450176029944,-1.3129755127546012
1410,-0.6084974650540297,0.7924838510803218,0.8709157467533392,2.35564661541062,0.4840294969718512,1.1531358464441699
1420,-0.566108918089045,0.8395785701811433,0.9112557940402717,2.949976877848094,1.8275884846833126,2.5277618863532973
1430,-0.54886633080756,0.8576853085090862,0.9253255253644951,-1.186228507051392,-0.8445850607975693,-0.6769768067208816
1440,-0.5870185245337265,0.8155647874511744,0.8841720487946801,0.2441785773855698,1.1866357808028793,0.7908624552357252
1450,-0.5673953464036386,0.8381765944719051,0.9068693679187615,0.5431480094934433,0.6053912751101871,0.5321889242367259
1460,-0.564764381402477,0.8400099545606974,0.910275550310772,1.5622735706717683,0.8337039752087226,1.3268832762619334
1470,-0.5845119687958055,0.8133842800439646,0.8915219426854252,1.5646934124530119,0.5150779889806949,1.085277232465329
1480,-0.6007824254464363,0.7997736795551221,0.8779831640255372,0.67753138468322,-1.1425155744507107,-0.2874937499844453
1490,-0.5854928584745464,0.8170673299351146,0.8901773888504543,1.657815560990346,0.7738756685782164,1.553888447034875
1500,-0.5868713546155359,0.8205971105553141,0.8903648811138516,1.2512437082405312,2.6187935021142468,2.476418791960872
1510,-0.5822481204806179,0.8249081744408275,0.8929862041391294,-2.523362016671239,-1.151760953564438,-1.6265534413150193
1520,-0.5681428392164805,0.834109590818427,0.9052560561582239,1.2985080348097142,2.5209553574048034,2.0922681023774747
1530,-0.5659772268846137,0.835796672948548,0.9068010933279228,-3.132403884756765,-3.8231581923836986,-3.2663481108698553
1540,-0.6189176402624665,0.7870600744950704,0.8544105655562073,1.0566363544464277,-0.8576409619031319,-0.19536169665564218
1550,-0.5951112761188322,0.8084812097263235,0.8813227347640095,2.17915395921591,1.3708038222470595,1.5467137521100205
1560,-0.5928961365275167,0.808741491943649,0.8862688098175568,-2.23762047040585,-0.674294103600904,-1.0571440273986155
1570,-0.5671496831710863,0.825540562518336,0.8960704382295177,-4.842669197142047,-1.0005328767217563,-1.596076376659319
1580,-0.5776832138525497,0.824874954741385,0.8937561529922187,1.4786194785940239,1.376732845058831,1.1641428094242456
1590,-0.5747417005593376,0.8336556575598401,0.9057440148204103,1.0041082102768948,-0.07066494125915505,0.21178803772830934
1600,-0.6020610708013427,0.8036308024768947,0.8711683524158969,3.1923988505049996,1.35632095675442,1.4949506666734236
1610,-0.5902364146288404,0.8121662806576699,0.8832369225496983,4.104697068775172,1.405324023924743,1.1630514519587591
