time_ms,ax,ay,az,gx,gy,gz
0,-0.6347557692712242,0.41720796495736984,0.5058855277276115,0.8015474132498561,0.5840137797268901,1.757308564046422
10,-0.6246442060324272,0.4299160542954532,0.5127708437373442,0.3100049450362591,0.3165647668885122,1.0812224851923067
20,-0.6900067491516046,0.3656498331543057,0.45020616577301387,-2.2450241928849173,-1.6893066198563853,-1.6908233435213926
30,-0.6550235277388305,0.40148941011065514,0.48556341837536654,-3.2683356611048335,-1.879759416930143,-3.1991515908810384
40,-0.6277095474569507,0.42357397412934694,0.5123277017571911,-0.090845001042549,0.8288437103776669,-0.8388342294666857
50,-0.6531941098518615,0.39249494520315104,0.4873031068482243,0.3432869304402122,-0.19584225245379497,-0.8177184472931079
60,-0.6294587870369023,0.41834029320571664,0.5115290303931562,0.2734297401734289,-1.1343882165284829,-0.348552681023625
70,-0.6495289207341893,0.40255969925944807,0.48962508301417684,1.2376367304916194,0.003516496794419899,1.3474459584794274
80,-0.6555229551760924,0.3996772148080484,0.4820321174292651,0.1934379286500446,-1.1617623080302666,0.715156798834764
90,-0.6399814130853467,0.4162264222461257,0.49592678590584544,-0.8005475589309241,-1.4224665267191308,-0.9540935234121996
100,-0.6774720556616755,0.3758174258707433,0.459980202373175,-0.9263689655461398,-0.45697098121228247,-1.3254610904092463
110,-0.6472210916210841,0.39924109167081306,0.4930327746440099,2.441123994456458,3.5954755914804664,2.871233068310097
120,-0.5969014476497745,0.4492388583069022,0.5445800060085298,-1.9031856103856728,-0.9419027027014164,-0.29218296537778965
130,-0.6665910056969471,0.3848300798202656,0.47428186171816306,-1.4533349645225941,-1.3423572192991047,0.919151289987094
140,-0.6258870905659467,0.42656050468304324,0.5143671787114776,-0.8356474599696907,-1.4748525037393712,1.5251250169529702
150,-0.624733987528944,0.4303520249656724,0.5150322765594002,-0.27262552565659126,-0.835919671396125,0.9308663451924933
160,-0.6571732709646367,0.4024939184780663,0.4832442380388043,-2.913863116437326,-0.98435449170584,-2.277036753904522
170,-0.6287919617720107,0.428831430685105,0.510083461501779,-2.855735288568617,0.10830241581885997,-3.070314130275692
180,-0.6399845397187398,0.4108324137661953,0.49683780969490604,0.47892412275764945,0.19507293195768632,0.7642267967504044
190,-0.6625561513721379,0.38725487727971314,0.47240880795075496,1.8720984988578282,0.332862772113658,2.867301913928124
200,-0.6284209300347922,0.42282476110844275,0.5066376897771824,-0.3085304206276508,-1.3166280400558026,0.7255786700971303
210,-0.6307088856011719,0.41969010253615363,0.5063762372015689,-1.4660139731738264,-2.3701040035692444,-0.780842203913833
220,-0.6538359519250528,0.39728745775352486,0.4846856174584092,0.13246391131357338,-0.3817642172494798,0.7591316192053852
230,-0.6578883422571213,0.39551539203460323,0.481631379113365,0.7439739546315605,0.4943602795293778,-0.05382833657042882
240,-0.6701064730637426,0.3847047750226923,0.4682282383281047,-0.4184775005784808,-0.5058988011441389,-1.0577535269065965
250,-0.6187902940599402,0.43858771403323116,0.5250697844817002,-3.4409528396619646,-1.5137864642850003,4.5355897260892455
260,-0.6603302246956664,0.39395896535915764,0.4852325533643497,-9.20636794034868,-4.936105669272577,3.4111068244429044
270,-0.640835510655966,0.41660522618127505,0.5055920183445635,-10.307310818531251,-6.979137162064498,2.032593871488519
280,-0.6417949605761935,0.41179110072466496,0.52772379020173,-5.298655907831673,-6.0799502487244235,6.2573131339200785
290,-0.6731674482665341,0.4567998568861112,0.547940352566391,-9.287658423659911,-27.033675049703895,14.436569867351972
300,-0.800363281655264,0.6450394435366525,0.47294818712794223,-16.604646173899848,-81.52102552321425,44.829861901771366
310,-0.7751692689139048,0.39702988323699817,0.6432709046611182,-5.174975110637573,-61.41747768977243,38.96874266797224
320,-0.4799602875028254,0.3646289973586057,0.5024653709960439,6.4941157166308034,-97.80892930324936,29.07805499352496
330,-0.41733567245499775,0.2904366836492867,0.3930263378472234,18.77692599022824,-77.55883032629788,17.88197744530073
340,-0.48018217725781714,0.3148499848037139,0.47110753794529325,18.67236070909668,-53.82335825638777,2.0929322374319677
350,-0.5723713057572133,0.36369637130530375,0.5700799211107073,25.29836108336079,-34.63916083868533,-0.00976905180337928
360,-0.5917711490651411,0.3918639288556386,0.6107377776324118,26.4819116676809,-32.00488927696432,-2.707334604518053
370,-0.5489723202079272,0.39087257374231027,0.6086306584997737,25.915564202061777,-29.074314966544964,-2.9271305722776
380,-0.5046058495180316,0.4256949583140905,0.5831874303551098,19.9671203518443,-26.88433112086431,-8.904017577128272
390,-0.5494931754247947,0.5330616632306843,0.5691799221209017,4.9954730339502085,8.635754551618845,-25.319004071177563
400,-0.7704441325452955,0.6150318759054303,0.9499815371664097,-14.140236732834799,-35.13284900062527,-27.547298901214447
410,-0.6872763904213283,0.5143625040838892,0.7429575017674295,-3.8428646243935,-25.97652935048702,-12.85290241408542
420,-0.5998361026665421,0.433390941790454,0.5805486269039755,-16.183261178000333,-16.774685476194026,-15.378019130369163
430,-0.6098408546555185,0.4499005752885015,0.5754105117085924,-32.03576236161319,-6.916098726464571,-17.333186884349
440,-0.6438015177804186,0.5184742204668199,0.5574354902840187,-44.548388596682244,-0.2623879014932311,-12.496566564402801
450,-0.7272256266618391,0.509976905983195,0.484816298461345,-59.625917993798616,-2.015049879389674,6.475147088753816
460,-0.9080706072478734,0.41820508295258946,0.38913484245338964,-52.64472754988732,9.054948340969457,51.84050095337991
470,-0.6172042058815495,0.7671646135043455,0.3220696245847294,-70.61382346851506,35.86359298355402,54.88579273271096
480,-0.540817772337557,0.5635348813804598,0.5639964676314774,-60.68451346792532,42.07883230402199,53.49559044922116
490,-0.5608702295429059,0.6857695091931774,-0.06066042415225972,-1.7180096844349508,61.198184926242064,61.35464696697399
500,-0.5477447123565954,0.5852334362560337,0.29783481776612963,11.282831501099789,73.39525355831988,34.057555020862466
510,-0.559781397686363,0.3396399326033188,0.8703859031207912,-25.670727331119256,73.4940709523577,19.16151380925333
520,-0.42501286268549726,0.5818753567356253,0.6841758159759674,-30.427337866407864,75.9702006118136,55.71685125822215
530,-0.3312499222109791,0.6422141740468181,1.361519145974773,39.36372831285303,91.18769961621646,47.60440430980137
540,-0.3696425709936875,0.5647840294547221,0.45873600736484976,11.720307887801138,105.65177159787032,32.448475668890154
550,-0.3827712229606162,0.39478987037099667,0.8510122303180474,48.47319196449551,69.52218393416409,10.266360814008447
560,-0.4937953049826298,0.4289846519729912,0.6310689759899443,51.96714466623903,70.06047725345181,-5.793161304978634
570,-0.5279541652377079,0.3166315628158796,0.5019561848943223,69.11419924336968,75.82523070373507,-28.794247456800445
580,-0.5556507811651309,0.14978746146537747,0.2805933930461226,67.38442987501482,63.94868680243405,-41.1336536221796
590,-0.6533796167327506,0.5294302301035432,0.30322294527170224,56.56664050526567,30.71054939382377,-37.32807474811212
600,-0.8420775495567352,1.2260805596355278,0.8332109318548844,76.54860533373697,1.1239991158002656,-35.70190353426392
610,-0.5113019436861758,0.32838991392986117,0.5857066528324592,44.99573375651192,18.375910957318755,-58.766125417640644
620,-0.6740160799782635,0.5520642254482333,0.08763300195240009,39.01382334073973,2.8149960410092056,-32.35513479752718
630,-0.6898277636496429,0.9169741237013994,0.24730510981483825,22.19206636031889,13.47301717267913,9.428170833432263
640,-0.6108135280188517,0.7578480588148434,0.4600860807178456,23.68905308312871,3.799943839639792,-13.925764788537201
650,-0.6119573148125578,0.5811377966489155,0.5575390244988001,19.609159780801235,-0.20584877404732627,-18.821697832576042
660,-0.6984836264200016,0.5204790091500497,0.485355150981395,-1.2118729204,-4.528713123840708,-16.00407963857355
670,-0.6882885524150815,0.537262396445332,0.4307980963000232,-5.027951290595903,2.8603445678427217,-9.327700765347975
680,-0.6534439968238018,0.48080217600085356,0.4558582146819637,-7.179593880311758,0.6192640101874043,-2.669916381253837
690,-0.6677434660442007,0.4362995855488204,0.4527284437455635,-3.9524398988764577,0.43282521983640165,-0.26061961879089535
700,-0.6532231263928503,0.4512885774004475,0.46271530187079346,-3.147950062925606,-0.7523155992844811,-0.5743173690300373
710,-0.6669690026833066,0.4365841720578053,0.4518332418247793,-3.3796777233894026,-2.367783187813522,-3.507559097055202
720,-0.6634504385462199,0.4396303445240301,0.4561891980171293,0.24869116199423913,1.7948377105185815,-0.27254759261533734
730,-0.6511246347683197,0.4445562006868338,0.4679045210394152,0.4893998942412394,1.7323183840781784,-0.048910075275071296
740,-0.6673563660189555,0.422614447871058,0.4518180208963579,-1.9177737373720052,-2.3961734270900195,-3.113647725350967
750,-0.6563836263229377,0.43936251264679815,0.46369765472014945,4.5520408843949784,2.15735614950387,2.3910658470150485
760,-0.678566408031179,0.42196682086447906,0.44112507331906015,1.8473846036789476,-2.2813571191457407,-1.7450838856830349
770,-0.6625968090298836,0.43220150946096947,0.4557369886358127,4.3581202247724615,1.437420418457582,1.7782280379017252
780,-0.6431835796459403,0.4484946419147642,0.47700728553692867,2.1617700924045806,0.2770357628479789,0.08673630718241815
790,-0.7006673433876361,0.39667947469398235,0.42348365366639384,2.207415581913333,0.8251434152958279,-0.20485177416380385
800,-0.6588299286643843,0.4396275527012091,0.46258789595474054,2.035260431543754,0.332723158449245,-1.7522757773659936
810,-0.6486322465671556,0.44702350107690847,0.46953842384483624,1.3377016312093386,0.5775774953862598,-2.367395690474547
820,-0.6681051257679959,0.42791941751254275,0.4491387030730831,1.6367967798886525,2.414345346674085,-1.0659053918405363
830,-0.6589313936863631,0.4406443814834693,0.45589857859463245,0.03740993618965738,0.6186331956231308,-2.9666622850712145
840,-0.6523980665917954,0.43843551845037954,0.46196262897440027,-2.208109600037324,-1.0677268374511386,-3.45045681108932
850,-0.6662697210369923,0.4293126761162514,0.4521876660590166,-0.9230736207837904,0.15036366724565198,-1.4171663222643667
860,-0.6549308138416453,0.43624996636686275,0.46835839388004424,-1.1489581402001192,0.25260802588076336,-0.835498288770988
870,-0.6449133890252176,0.44795492001015313,0.473039317341607,3.3509579923035466,3.3121230671748543,3.2106656898365533
880,-0.6780723010278377,0.41765235939804757,0.4380329540712065,-0.24502654962685153,-0.4462366013644957,-0.9479299197346607
890,-0.6571145138855065,0.4410605375707058,0.4598046036277656,-1.3784590320872856,-1.3308415884385516,-2.8186754488829653
900,-0.6479045817484528,0.4509380390777244,0.46891007127246703,-0.5254458334872532,-0.7803100557354927,-2.692935823546656
910,-0.6463094072511629,0.4479839687888511,0.4722196103787943,-0.6706357675748285,-0.19265396260775863,-2.29455221091783
920,-0.667116973092167,0.4230037686663724,0.4441837004269033,-0.32748336321912863,0.40712453840878493,-0.5428495831080741
930,-0.6582898251307047,0.4362579628042971,0.4573440756530331,-0.2914331169103367,-0.09945694233516779,-0.3266693235572085
940,-0.6823167620155449,0.4133205521236719,0.4338484962904167,-0.9546425413021814,0.08727971944094959,-0.7603140196377339
950,-0.6593692072421192,0.43819708697632476,0.4544869725652978,-0.36837901358927055,0.9848220381172446,0.1376905283476073
960,-0.6839042804592786,0.41542839005933646,0.431403243521763,0.18958274298657007,1.3832528209155415,0.47706420070104877
970,-0.6378453388934595,0.45916823959668035,0.4796521305384019,-2.52095801951711,-1.6121553568106848,-2.6123196922978007
980,-0.6850912208002233,0.40681127650522597,0.43122281468474477,-0.17074981708256776,0.297149121182704,-0.29782004037038423
990,-0.6518552539951064,0.44163337484773496,0.46662791349866345,-3.209141620700448,-3.400173232277958,-3.5412016457778623
1000,-0.6810471296088888,0.40989841565669816,0.43535615511343545,-0.24880815261631073,0.5370358140873174,0.5519469373526251
1010,-0.6414539003759665,0.4609316167039706,0.4783237938947744,4.128443124886539,3.055697153958908,3.4564032305498924
1020,-0.670947649224195,0.4277226964477595,0.44787824803879495,1.9186694102614403,0.7489301564239652,0.08833454559561038
1030,-0.6697518348293238,0.426092430550323,0.4484802637668069,1.0089014539699128,-0.8333744141909384,-0.9957362086609676
1040,-0.6665414002735677,0.4289436438581601,0.4509578528355643,3.20908328828063,0.9969439307775327,2.179899425547916
1050,-0.649233037131814,0.44771877240202335,0.4652769502794491,0.5734948374040634,-0.7505111546304677,0.9498370956519886
1060,-0.6609164498743575,0.44029551789539434,0.4507187613231808,-0.28187889818221745,0.004453490315602382,0.8960830377610427
1070,-0.6761822485789184,0.42539757170947784,0.4425136820552582,0.27448820328640067,2.0576117073030282,1.6223800996585247
1080,-0.6661342373562733,0.42860891205669643,0.4557035900653235,-3.071497304080953,-2.04653628316545,-3.0348907165108443
1090,-0.6499472426746963,0.4374757347249079,0.46561482402247506,-2.0567759767040785,-1.3771611912798587,-1.6100557321783309
1100,-0.6502098793816493,0.4419916616090819,0.4712969621629761,0.286388541917986,0.7475888000193964,0.8599415700805174
1110,-0.661053315602141,0.43617865739424483,0.46025531724797586,-0.36811927860566457,0.10591914012889636,0.5891150370621567
1120,-0.6593410960848909,0.43866522333304225,0.45595374002201666,-1.9365972446578743,-0.9179012308301797,-0.2837340793284344
1130,-0.6398950765721169,0.4578710956674562,0.4731200903999282,-1.7092872809113024,0.034057405064007895,0.1500563048794994
1140,-0.6879341414341862,0.41064452775506777,0.42774158160039377,0.2844496036258506,1.9190345321614968,1.1550606035022182
1150,-0.6897241348686556,0.40119404475413395,0.4270774642108498,-1.8625878682628765,-1.0451502359645304,-1.7161309889086964
