time_ms,ax,ay,az,gx,gy,gz
0,-0.8937058263218891,0.9277392848993106,0.6202401351463156,-2.1719417154100134,0.47558470950127446,0.6622406540155534
10,-0.8957884993511888,0.9264406725077251,0.6227213472634124,-3.2844184862192876,-1.431586947601874,-1.2606125744924819
20,-0.9127359642631209,0.9088270046196446,0.6072556158050726,0.4533525996920984,1.2582140960807728,1.682535934471891
30,-0.9208967938093624,0.9060217185091953,0.6017918580578285,0.3782568129068173,0.6558587336989755,1.2015239647918565
40,-0.9249060048721065,0.8998293362218864,0.5964205613262437,-5.458841003711305,-4.361124322734276,-3.5830661579518006
50,-0.8974700364805495,0.9255566089025532,0.6220854715069358,-1.2090864508376225,-0.8462273767814256,-0.20418968464031517
60,-0.8893834634813325,0.9323013419044867,0.6272955972199145,-2.2724093358980046,-3.030463394951555,-2.250614211620875
70,-0.9046920946491723,0.9191229466757008,0.6139603439018724,1.4415648666080954,0.4245474989587513,1.2178178867811424
80,-0.88538009893471,0.9473209197229725,0.6445287430165668,1.8478650389389737,0.9140036819963941,1.95554395975782
90,-0.9386901429805053,0.9061925716198542,0.6075114507820651,-5.827141228394281,-7.130325126561032,-4.185356058197159
100,-0.9071566107054242,0.9475467874391633,0.6613106483945891,-2.238683432581992,-6.1561077818222385,1.3423010123610275
110,-0.9462354949220559,0.917894294480218,0.6576925038896759,-1.938970081326286,-11.292127232040517,2.9911619567662453
120,-0.9869521878032865,0.9015658192044995,0.6439513043312598,-4.257399781745113,-13.467765509437402,4.73608571123025
130,-0.9534414998579647,0.9304943994374856,0.6918097288711967,-0.07587476991043829,-20.19625312668704,7.0750575405008895
140,-0.9474804552163213,0.93923915645273,0.6736073696300364,1.2451315369821527,-23.976460130472944,10.30644483467029
150,-0.8992950817784137,0.9134127968609569,0.6539319500184788,0.46999494798018615,-25.107929435489364,11.968064366602
160,-0.8661535199225238,0.9088739704668634,0.6619184831813607,-4.6743723985476535,-28.95369036636266,8.974662514530326
170,-0.8470525699611716,0.8676668071978457,0.7560432543472109,-19.26472611359446,-39.47729544633989,-16.18237516444361
180,-0.8661252379859743,0.8528029451459895,0.7352303042792663,-17.743772847835213,-41.50561787936673,-29.78042131233439
190,-0.8361074638766333,0.8980990204448303,0.726206141742525,-20.58821288897068,-43.310953030424976,-38.674310616792454
200,-0.8153442542802359,0.8608144097085357,0.7282662251670753,-10.947944423699427,-40.787440166384336,-37.77876878792768
210,-0.8053010499398838,0.8281473536824258,0.7388686828527035,1.1007580129504813,-37.465315140774855,-34.960584939776645
220,-0.7742846198445508,0.8268460296135729,0.761993639415297,5.050586246417517,-33.91208665795107,-35.80026730749475
230,-0.7550310992564702,0.7573461650095965,0.7365480810998546,1.9210088313276967,-22.47570689580167,-41.079137520207375
240,-0.8110015692367653,0.7107177755076156,0.5975368580721125,-18.80742948482034,-3.7503856427182902,-54.74365314508756
250,-0.7767439330410227,0.7704829789487173,0.5702431130886758,6.153400449801031,10.954170807478812,-41.648330262585496
260,-0.8479099048315724,0.9135446431511656,0.6454424699982874,21.838793417453594,21.216927004455876,-23.079448466057116
270,-1.0979553267023994,0.8794351732737771,0.7361501952484476,13.09404587478394,20.61018011141583,-13.82866213757693
280,-1.179408361249296,0.9080637548972291,0.8346168626918435,-0.7754978322105326,4.224511675092321,-13.025294592171011
290,-1.0740277736455308,0.8741508237534741,0.7571742014800973,33.534638162466294,10.527606341293446,14.630872580369687
300,-0.9303420062076446,0.8278419217752016,0.7683670249312362,11.051306610516995,-6.611293271593914,5.393501473081366
310,-0.901397446276953,0.8559058323668625,0.7961971577457169,1.2879189287203765,-6.760640190750895,1.310262487727051
320,-0.8735767116040494,0.8980045353683268,0.6364329002688498,-18.77641450650712,-3.6187379725677413,-2.7437936054874577
330,-0.8713710745604746,1.011782746396747,0.8201989030648945,-28.57598769215607,-8.822736051517708,-3.4731101539289315
340,-0.8815686274801676,0.9451583208393028,0.8519877462102128,-26.44235738702153,-8.689354867268346,-2.6887454851973485
350,-0.8818556352588299,0.7073129161599319,0.630918521191824,-54.126774399116336,-10.515356187406658,-21.17258109322175
360,-0.9541690656319344,0.6001585068700374,0.5538960314229303,-81.84904077687433,-6.785845315862344,-26.910496668167305
370,-1.030953468200334,0.6688394107785436,0.4231382264509319,-72.52096762827,-2.8868806154239524,-13.25460145615969
380,-0.9440173952854538,0.8880416112755916,0.6443980637341497,-45.54689245309829,-4.6516842776000065,-12.695472484558593
390,-0.7594360890785066,1.2532162567656895,0.4675191556360209,10.235053512631767,-0.43141277232895336,56.0283957306045
400,-0.9007660592435554,0.150809190427987,0.6430006820575893,-44.606947894885536,-8.408403997869735,5.639743060238982
410,-0.9572754844144006,0.24696656807450276,0.654304705766173,-65.93239560443013,-8.103398374617626,-11.75577566966083
420,-0.909319992560323,1.178165735071406,1.0301940124894406,-53.72538993588396,-2.268889723148362,26.50034859978716
430,-0.7734247614833226,0.3776951371790476,0.8747019878086817,-67.92870136474957,-4.328022967418345,2.413067418628888
440,-1.1458858422536369,0.5756625734364179,0.8092180712222252,-84.66071472544884,1.59477309938495,6.808105683213227
450,-1.076280698928266,0.7204064724371004,0.5492618174523989,-37.79953817076251,6.051914681843865,30.960291786082013
460,-1.054441096981285,0.859887607945441,0.5622859109580933,10.268251665609368,14.182223658179844,57.85559414446658
470,-1.023703103480026,1.3210582003399973,0.5067588033530398,31.87350652001474,22.545916694069845,83.68954323064303
480,-0.8719978663147268,1.2737468610575693,0.5077384339414295,23.42238849203795,21.505924369578953,74.71941412965697
490,-0.8224017323140391,0.8034849058628211,0.7287013531160055,4.026775797519178,20.063193995396688,47.189200230005845
500,-0.896902374281828,0.8540414879916396,0.7779839566384064,-5.8023936292303775,26.327850506307513,43.91482493025338
510,-0.9833966251162968,0.7177095829006928,1.0503346278702996,-32.07900927384984,21.008830151810486,20.33404840523389
520,-0.8781922252020494,0.9717684795396582,0.9265765112274063,21.313339227597183,28.63009461533692,52.174365681016944
530,-0.9070732384952069,0.9583136573795831,0.5647218506359171,60.0311105920926,38.62555635158333,71.2883342912564
540,-1.0240885878847954,0.9086441791971088,1.1877110283702283,21.964684471257158,29.074857646047093,34.69703293915586
550,-0.9854525687667164,0.5578052194544026,1.1353994302306831,0.13371979878340556,22.031476690139396,10.286696248877409
560,-0.932290481202485,0.8191653424298324,1.0365003359588745,22.568812169869492,23.36704111446426,13.575973463062741
570,-0.8676816352033746,0.7605596463068304,0.01945261062590817,17.58290449502564,30.852766812864377,9.351528618175909
580,-0.8747310423282169,0.7608024753250469,0.19133342931522843,24.14040244744431,30.19453493884988,18.1921058344545
590,-0.8697009742106886,0.6717562249722694,0.1682153572914607,25.850583120787707,32.66328750562304,15.223743497039269
600,-0.8597819407672472,0.755881993991937,0.607662184552041,22.177953501000488,32.27867877719632,5.2785909571526215
610,-0.8113933076204882,1.0055225035218172,0.8375760051082878,26.108328277272896,31.240263089136764,7.458926642734662
620,-0.786461041424785,1.045469707996091,0.5910393798067629,22.437372499251232,20.691069139477577,3.9699224694671615
630,-0.8915336244715849,0.9570783004758993,0.6806831820957095,28.652426070266714,16.600110362257407,4.2264987872151725
640,-0.9435127678708091,1.0617778562846443,0.3938953928369372,35.171224007427575,13.0658821907001,1.577384886323843
650,-0.8510975319603906,0.804261451956173,0.5388232884067418,6.042390493500543,6.006607400872092,-20.8514263793599
660,-0.7035851068190389,0.8858042573884569,0.7930765255182737,-17.432775513730032,8.298219979052595,-30.188035997708795
670,-0.835994849221711,1.162198005142566,0.832814509707599,46.87401870733656,2.979700241707488,7.7074550594000915
680,-0.9646583619603472,0.9378946627338154,0.6337301312454986,77.92093438301761,-2.238800641607954,9.822856129419772
690,-0.7909749166657107,1.1323329377088076,0.5408594998696513,77.65307167331945,-3.0157070221732423,1.1768055205261594
700,-0.8456698675454771,1.028804489825379,0.5611650904384137,57.62582018335012,-7.9393670758814086,-8.289196086098848
710,-0.7682190434520949,0.9620438250321037,0.6585371385307452,73.72694506606912,-20.83800705322964,-14.802744123269528
720,-0.854254701603855,1.1873254718135167,0.29945857240157275,78.11385321166223,-20.75128453721028,-6.2020343002652645
730,-0.6976428637177371,1.2355649058914162,0.38447888314245326,9.905125145260303,-20.516666352567853,-28.932911765556877
740,-0.7340319013690184,1.219238000729847,0.540942481920865,1.734644228121482,-14.80591274463072,-25.39167697302814
750,-0.9128642439856601,1.1558536534153951,0.5637144805898417,34.49958719832116,-11.880241326171708,-1.703293217184283
760,-0.8644201425160547,0.9928710627607651,0.6306547822732175,15.21216366741827,-10.403637966327022,-2.7563522306180177
770,-0.8978588047128722,1.0913754648151293,0.4666571104775371,-1.461917806718236,-8.20864699238534,-9.118173585745401
780,-0.9117445237446299,1.1305967183058687,0.5364058275973412,-1.9256180678287995,2.0416082069792783,-3.6738323166377693
790,-0.9128933207546928,0.9606497590988379,0.5772828553931828,-8.789615099746761,2.115423342464768,-9.631943096225406
800,-0.8841838666990519,0.9660713823084421,0.633838473188896,-19.94662656609169,0.7842629282181087,-18.768161876282072
810,-0.9217675735896435,0.9160376218143614,0.5968167890140351,-18.83635276674323,1.8682930538159364,-17.776409005285906
820,-0.9030945391316166,0.918052089876823,0.617144273179905,-16.47420774146169,-1.653022165204166,-7.050828879235668
830,-0.9181513272806281,0.898932683599299,0.6078027776129674,-10.943845239442657,0.2787152192979956,0.16076615127052407
840,-0.8950143005900567,0.9046711614651669,0.6251037159250049,-9.030694909032112,-2.7101093392358218,1.0547270411676373
850,-0.8976377762112316,0.9193695289062818,0.6232039529889222,-2.014374379474435,-1.9759785304938866,3.160013896202096
860,-0.8943778885216436,0.9369935850959129,0.6305389216662384,1.9452158409873563,-0.41187254994939154,3.281839947902583
870,-0.9292631783901262,0.9003959500861721,0.5928220679536038,-1.1215245822086566,-1.1691426009560675,-1.1961336823972024
880,-0.9028073760502993,0.92032565497187,0.6129493185304359,-0.44149683499283493,-0.07996939682997878,-2.261040080819503
890,-0.9164421239825989,0.8961310053489048,0.5985093491994834,-0.24810668869588862,-1.3494689315715425,-2.2828408644131923
900,-0.9054374406970062,0.9008441596926495,0.6159608301015934,-3.8852738787573644,-3.989507048346394,-2.418402392488164
910,-0.9066623325791734,0.912047034667086,0.623887218672255,-0.43754758314549236,-1.0572474584599048,3.2770455633974525
920,-0.902886083391368,0.9182760590106583,0.6307668421578381,-0.8843883644804325,-0.016784306247164205,4.945434774449854
930,-0.9162852226485072,0.907463227161983,0.612240975109223,-2.705977032497756,-2.0105140041917724,2.4160335997994347
940,-0.9112551016123034,0.9122659770845007,0.611923783390153,-1.7622334643657775,-1.1728503575666338,0.4101567205945005
950,-0.8767698788137752,0.9447254169521756,0.6529958539525696,0.3144815402690222,3.387956052551757,-2.8762382153797414
960,-0.914428331980777,0.8907060312277104,0.5974185395569757,-1.713370767734128,-1.4390474852855255,-5.654370304190751
970,-0.9136320823168423,0.8933752886710001,0.5982574687534239,-2.147360237258484,2.1804596964407432,-2.4052264649042234
980,-0.907573867389188,0.9060979829057355,0.6209364313861223,-7.046649579376475,-1.2796647332233457,-5.072728920704867
990,-0.90908407478231,0.9018647909107246,0.6216206869642488,-4.5778770185505016,-0.5474109424544966,-1.8366067123430017
1000,-0.8913281299698955,0.9183422856164087,0.6432999622164056,-0.8980463209079768,1.7263902991185098,3.4691107679025004
1010,-0.9090686564369379,0.904029159854344,0.6303935499718084,-0.04524113254373163,-0.9758149102054366,4.317870404691759
1020,-0.8918922648261058,0.9303198154479261,0.6316836078238458,3.1930671910981205,-0.535262555647201,5.7008500773558115
1030,-0.890255008656653,0.9375359582890455,0.6109883380597403,-1.9488008762293254,-1.5209485318613982,-0.2743573321720989
1040,-0.8816623259846065,0.936555485304536,0.6281018814945358,-8.463986667909296,-1.4198848335424736,-7.246431123358961
1050,-0.9165614752895119,0.90460069574292,0.6152683428667653,-9.054702790657167,0.5965793100666383,-8.300306092852102
1060,-0.882868204310938,0.9324115085259704,0.6447304878519778,-9.040098838663496,1.419943715736132,-7.081612469730057
1070,-0.9178028905029468,0.8827536961195371,0.6118643023144924,-7.206122080474444,-0.15886993868856478,-4.314224324734492
1080,-0.8971887073492915,0.9062508761316357,0.6225157118882502,0.4348927306669166,-2.4823528882506505,2.710073029742297
1090,-0.8685107478234252,0.9390759778520871,0.6540488580728681,-0.6999431641583428,-0.7919284357450954,0.6632500631864149
1100,-0.9233156013916444,0.896615902189065,0.6079059220026435,-1.0158205085417038,2.0911332749432483,-0.888008727435992
1110,-0.8999268101908043,0.9196624520197287,0.6313377624451778,-1.328020367494553,3.6241432443194226,-2.2420148563023194
1120,-0.8923360362407119,0.9199582534245037,0.6367124000490428,-5.032966563846341,0.6687422589925374,-7.172914276172824
1130,-0.898518017532054,0.906000598114379,0.6330140651409357,-4.01739508897689,0.5765582076322572,-7.3331737311157985
1140,-0.9014224025623278,0.88984315322001,0.6303127968665642,0.4331391088251111,0.5087885767388621,-1.803830444976368
1150,-0.9038915222839119,0.8791978122564341,0.623548398227926,3.9796192869524996,-0.6056656857270115,3.70136929452982
1160,-0.9062229039533961,0.8865820542043256,0.6182491049101649,6.220817874403676,0.13015907584854933,6.4983397172770525
1170,-0.9062483271557212,0.9039455688106459,0.6224642797345102,4.637574333890885,-1.5796567960142862,4.7467138632339845
1180,-0.8953638932502516,0.9245588416929617,0.6416847159945651,2.65938522688871,-3.3630684175358287,2.0866303937616966
1190,-0.9140314802010682,0.9050502495710354,0.609435458859307,2.5668193232002228,-1.848143360434428,1.594280108539432
1200,-0.9400261866678252,0.8745361235791086,0.58644772064408,1.3596593192693018,-0.7470591120108051,-0.6269496565089907
1210,-0.8984188698849079,0.9023469669999481,0.6331395755734005,-5.116355070727644,-0.903801846495184,-4.186393083865305
1220,-0.9243268237360872,0.8677716663773027,0.6065834341999334,-4.150507983833611,-0.3705179836994017,-3.14843301372525
1230,-0.9142670983933462,0.8932801322766943,0.6135762369507424,-0.994999992525848,0.6234735051723599,-0.9627453733798665
1240,-0.90005791967965,0.9011606056396386,0.6195928123981297,1.93193467631026,1.2721814597602328,1.117650303338934
1250,-0.8960419675273278,0.9048778120906821,0.6237574637434528,1.5291148295503159,1.2574640990619186,0.7463013620175779
1260,-0.8836054171920734,0.92500545460597,0.6378297069274046,2.2925258347142385,2.6103723313137728,1.1937921580562585
1270,-0.9150885105928063,0.8879166108064676,0.6118064496399406,-1.7332132760339352,0.4608146548357744,-2.019453128382213
1280,-0.8756870400914886,0.918643629610443,0.6503006363660115,-1.7136583188744847,1.085697135048988,-0.83131481478444
1290,-0.888117250408991,0.908391301636501,0.6346225050434878,-1.7020479669609483,0.0850085352690325,-0.23208207400972478
1300,-0.8782699983285329,0.9221284239765207,0.646017716176255,-1.5651120831226903,-0.10774823121809644,0.019267972845705097
1310,-0.8990106888090779,0.9043533398011798,0.620567409613268,0.4181467686218445,0.5052749427998676,0.6607410556753557
1320,-0.8913846000933328,0.9198209303409125,0.6418973692197374,-0.7100382063002586,-0.8515289769187231,-1.737646396677973
1330,-0.9095309441181241,0.8998260703341436,0.6266622176924573,1.7205241079061453,1.3027275339767836,-0.014722167956559673
1340,-0.9061364668705967,0.8891638672594063,0.6164502108909233,-0.8704706450299855,0.5000489404078571,-0.227562158942403
1350,-0.8873766290914346,0.9061584053025356,0.6335531593212842,-2.4544262823305205,1.3824229663559124,0.2657557938914812
1360,-0.9144399291568611,0.8850106448949184,0.6169948287625656,1.3967974032821324,4.028373857260563,4.545678912192527
1370,-0.9188183040472605,0.8822113221858939,0.6162463950276883,-2.2278598646399823,-1.4346211238988904,0.5380236173669226
1380,-0.8808350321285461,0.920208475564992,0.6476949593808269,1.9244207873341312,1.0363218866422257,3.8738637398854885
1390,-0.8933876375110443,0.9169537932101512,0.6383690711342694,2.917048484788397,1.3043654450566482,3.3058326149725348
1400,-0.9070526704769415,0.9017386430583105,0.6228108063757356,-0.8194854500287119,1.51526058089391,-0.49322305754149465
1410,-0.8884779977606295,0.9117181556470079,0.641470941403379,-7.667392582387621,-1.1592155875315693,-6.3474190940176385
1420,-0.9038522314412432,0.8938933203040283,0.6294670250289717,-6.018780550960452,0.728957782603529,-4.529433207416674
1430,-0.892130600715215,0.9084357714079554,0.6412215302348918,-2.077385132871838,2.7785121809524083,-1.3238961335153303
1440,-0.8936266032296486,0.9079094339874785,0.6409975118395682,-3.8598644382173735,-0.6347454935914242,-3.5572996583864995
1450,-0.8973988812809846,0.8995582532778883,0.633353657061277,-4.226949073824235,-1.9581245592626577,-3.7232175225747364
1460,-0.9157437644992635,0.884456871780812,0.6216779052504521,0.26194209075387126,0.5289796071111231,0.667500693673136
1470,-0.8845597406105468,0.9080887225684902,0.6447992434344922,1.6440363115618302,2.269935825609913,1.59090745494285
1480,-0.9014845674477867,0.8933698661071248,0.6214254222056826,-1.4070390879733625,0.8173417213470131,-0.872971778750941
1490,-0.911347205604769,0.8791174238461809,0.60319857396928,-2.1309035078468788,0.7337510934696201,-0.9908165888511787
1500,-0.8987768896248137,0.900402459192258,0.6328642301182156,-1.1506100535182209,0.36844776720771455,-0.2969717282743529
1510,-0.8922004034488665,0.9016896478307891,0.6376778380157712,0.5381040828407673,0.2751834012363533,0.9789994397516781
1520,-0.8721177028068113,0.9186928904751984,0.6517827360493533,0.44333045282017264,-0.3993101676576334,0.9600084705394545
1530,-0.9087891386597993,0.8839917633278683,0.6174846233665072,2.6691051633495517,1.9411754762482831,2.73854114037221
1540,-0.9164060973587179,0.8860832171570683,0.6148478578990243,0.9807981149448257,-0.687779263798996,0.07645840981090113
1550,-0.8668074216199595,0.930940431879672,0.6522839970604595,3.608166447464528,1.324503380884518,2.31835221073511
1560,-0.9133477190933161,0.8779948023189512,0.5988928136501045,1.9268546584582542,-0.36007040407292845,0.5349781239701076
1570,-0.8836197958489688,0.9224251152129502,0.6451613027162003,2.942903691514233,0.10935303822482656,1.2390493744931752
1580,-0.9143105256155694,0.8903067979314155,0.6100241883594281,0.7347776640007178,-1.4516005144720185,-0.3691784645475302
1590,-0.8676521262010377,0.9388442022315278,0.6584353927326204,1.6722771029907866,0.5141414808402127,1.0195700995918229
1600,-0.914081533862133,0.8839472497411193,0.6174804485273611,-1.6526923535785891,1.2458248915925252,-0.2832564952001917
1610,-0.8912748108352722,0.8998900976614148,0.6292173735085907,-3.9482750876376818,-1.4961017439007092,-2.6899765606128274
1620,-0.8964333235110316,0.9078099328681553,0.6376253929335415,-1.538513098786205,-1.7860387298805254,-1.4175544917691747
1630,-0.8778039962472671,0.9132797883274476,0.649875483867599,1.423336279768466,0.5629707038849999,1.435124185161008
1640,-0.8897943124250016,0.9139427640805775,0.6429049087449377,0.6525930356220576,1.5880997245587611,1.912812951151012
1650,-0.9028347898793859,0.8998918650444439,0.6246620445158718,-6.159473434163436,-3.025927170289444,-4.482820715636699
1660,-0.8916698786982045,0.9115381423415441,0.6471874649089381,-1.8155130681359106,1.5939836584513771,-0.7345172688172992
1670,-0.9197527565430361,0.8842539527518019,0.6261494599165178,-1.567738685167666,1.1107496477058971,-0.27012023625303616
1680,-0.8914257016581648,0.904931325167576,0.6398479361419775,-5.621851115082974,-1.6957178390742826,-2.9969591293060103
1690,-0.9010004299771502,0.8855075238951771,0.6159179201787202,-6.646793422597079,-1.8793123629108865,-4.472970448798891
1700,-0.9180051655302541,0.8667625618938982,0.604810414553433,-1.4930786586480211,2.1334546141384307,-1.2018431329277748
1710,-0.9064897531278943,0.8815900475077662,0.6280778597083929,-5.817307415838744,-2.5256010899439056,-5.20666002152006
1720,-0.8963784435842302,0.8935629571988861,0.6386420442051074,2.846288509225682,2.8937899506574363,3.0310353129466345
1730,-0.9059834399544098,0.8922095952763184,0.6228908238228897,0.3308929910524576,-0.6553127704189313,0.00991620376498692
1740,-0.8874025938539625,0.9066190112175985,0.6375687891960635,0.01765438860640156,-0.24755452935661504,-0.15495471165146613
1750,-0.9167304710919855,0.8715728486336574,0.611244244108865,-0.521809829386169,-0.962498237849419,-0.8511376431272025
1760,-0.8957349978314247,0.8932745225065605,0.6280629626072726,-1.5620620820840743,-0.055792340233132454,-0.8264789128169994
1770,-0.8912363650385775,0.8988069628015715,0.6358372031977421,-0.40794546872871607,2.8773476368490085,0.6024050727129724
1780,-0.8911734960496527,0.8997215869725393,0.6408560457854177,-2.4717654531097706,-0.7637833827985792,-2.639926733655427
1790,-0.9071641595435611,0.8818348523288884,0.6283425490653182,2.38654045987606,1.217756441268092,2.068966949373461
1800,-0.9191999166589357,0.8720932468155943,0.6087844199163875,-0.1001995979753818,-1.4163954406376906,0.6240998451075166
1810,-0.8823365957948522,0.9122541711375941,0.6428384021306335,-1.3591297281582992,-1.8825680062406613,-0.11419085968248144
1820,-0.9104805892759908,0.8844603536183935,0.6150827449779176,-0.06962410074967051,0.4931344357853331,1.1183103230356004
1830,-0.8915932053160336,0.8991379740132988,0.6286081321604731,-2.935180146763189,-0.6492827088723283,-2.0062383115596867
1840,-0.8926962254218301,0.8987119985974863,0.6291860568782,-1.243065486518284,2.1299694232071813,-1.0940224052045737
1850,-0.8898195021924501,0.9160379674421489,0.6409780619559347,-2.8521595507263444,0.9443267338223896,-2.7518961157944117
1860,-0.8691087567078745,0.9207017083456185,0.6552747027417843,-0.5467421033488093,0.7401744739190578,1.0042781725649044
1870,-0.9143007958461631,0.874666852963575,0.6172225289692573,-1.5542698530855417,-1.079760797509891,0.29390455923534353
1880,-0.9047745278901845,0.8850438724018586,0.622755221671583,-0.6594881626006013,0.3583028316999529,1.6459812026226999
1890,-0.9108947392545311,0.8835874645986117,0.6308754853136571,-3.2654007606054347,-1.4080725426581784,-1.1781390433523973
1900,-0.8738735880437158,0.9188612185570175,0.6596052865039418,-0.574572780140141,0.077035607332479,0.8631278802701298
1910,-0.9007868980503938,0.8921672511585922,0.6265404746442305,-1.6632780190210306,-0.39793512864211394,-0.12239930809775273
1920,-0.8991736740455094,0.8949834050251309,0.6327968645321306,-3.1951753623858283,-2.9162366664455477,-2.9286906835198847
1930,-0.9026054197682631,0.8892710761908231,0.629799451783023,-2.643803663010008,-2.5742827684088097,-2.394983830144938
1940,-0.8945497499380328,0.8942226059661159,0.6357531600868724,-0.6507052912739597,0.5187929726214073,0.25766388446874045
1950,-0.8894856392286673,0.8981017636451162,0.6442883075793615,-1.4094122184874318,0.0966927093168154,-0.5650666325493173
1960,-0.9211705648865475,0.8657450551517173,0.6131996346389827,-0.38453767699106955,0.6143824124557142,0.0849237181058112
1970,-0.9187590551625794,0.8702353854782584,0.6107813582302836,2.7292812482786872,3.2246387155240153,2.839643290590949
1980,-0.9200525322795177,0.8752241581183554,0.6119890624183068,-0.9584614015330098,-0.482442243585004,-1.1152100132485843
1990,-0.8942269500159391,0.8990954222506455,0.6354420529333356,-6.212608099725786,-2.537080855769578,-4.8961592026466825
2000,-0.8932022956179021,0.9000006719948008,0.6440999789348272,-1.897920310704218,1.4504410040138136,-0.4724989876348229
2010,-0.9117488869131948,0.8759700776521863,0.6211567878805931,-2.2903074009510878,-0.3689904011559493,-1.1965862896491
2020,-0.9009863380756408,0.8862360042709078,0.6309222786120933,-1.6503237789763503,-0.5306164795379373,-0.28391608249669814
2030,-0.9418661309498156,0.8464310533195217,0.5887473942490582,-0.356578275631971,-1.0351056164621635,0.5090085788417984
2040,-0.8976383388983256,0.8850180309874462,0.6295816856601922,0.8457333553629409,0.3265747710992787,1.1219433107501697
2050,-0.9154983930851337,0.8775529337918129,0.6143149783803227,0.32304785536106617,1.1563375064355248,0.5132995358407333
2060,-0.8947749966104191,0.9022312291874419,0.6395808740992607,-1.2010231449946613,0.7137522067852449,-0.6690149107901604
2070,-0.9261207099968389,0.8725123724336079,0.6123989250910777,-0.6996795506249278,1.5827203552546152,0.0017989009314927085
2080,-0.9447284284145976,0.8530540142512419,0.5968937459116476,-1.038567852638879,0.1308262302653964,-0.6058365933462535
2090,-0.9192393190504999,0.8717106425615767,0.6167426810673606,2.947069057690959,3.1267427050643524,3.383153001675132
2100,-0.925581465888066,0.8593365290275393,0.5991361179562862,-1.3407976234366195,-1.257210807741329,-0.6338023968984614
2110,-0.9077309637919081,0.8813225769708436,0.6183642730158503,0.07102391260707591,-0.18181404230169207,0.25141884874079884
2120,-0.894558941267794,0.9046914104374644,0.6427630580042899,-0.484931273353858,0.2869365283367959,-1.0706444338746972
2130,-0.9055669898470862,0.8881236554799238,0.6291690306735633,-2.4820503077648866,-1.6338323225511593,-2.763830428148488
2140,-0.8957682809092923,0.8939753870291958,0.6366973204628327,1.8346116807381803,2.6791184078695287,1.0159854221203097
2150,-0.9064637433535828,0.8799418088607746,0.6147641826281515,-3.4815339581139075,-1.4306759638269397,-2.705129843698423
2160,-0.8979472600464949,0.8777328410088195,0.6254850445743906,-1.1933129551341988,1.3482201372340423,0.153125566781676
2170,-0.8796585453285762,0.9079824944254286,0.651388928553609,-0.9711504131036997,0.10229421097434391,0.316522883569616
2180,-0.8978464816803866,0.8939391037095086,0.6345167794059127,-0.2168774244512174,0.021132303743615924,0.7535891727026629
2190,-0.9095913965067516,0.8799620191098159,0.6234225572022285,3.442590544998742,3.511515362727203,4.054930161740203
2200,-0.9095141068640282,0.8836196012434948,0.6256088427226363,-1.3300391090660504,-0.9420587439084354,-1.2606672291840673
2210,-0.9187787291794669,0.8766110556802401,0.6164147121643921,0.8878661440404758,1.751735772878063,0.3879263332654751
2220,-0.8900808410744906,0.9016581205002521,0.6422427678448652,-0.07966964924905656,0.337896579213967,-1.0396558488193377
2230,-0.9126517522724784,0.8728192472466869,0.6129107504492242,0.9795579982974583,1.3328242749008075,-0.01791585777125293
2240,-0.8918881869464205,0.8894904321797115,0.630610635977311,-0.5341704121887945,0.8766826379376105,-0.6846463309572246
2250,-0.9030024036949027,0.8822772346135951,0.6303674971255072,0.34235071606442546,1.0238065633740512,1.2274738036921011
2260,-0.9157681987590789,0.8758445156795285,0.6184531860979824,-1.122347859675416,-0.6173441214310673,-0.6852298789326576
2270,-0.9086287228251153,0.8823946014662128,0.6234542168932731,-1.9818992529187338,-0.0821973391432616,-1.2130743915500477
2280,-0.9060798343966735,0.8911527810657823,0.6342676198370872,-0.7745402284215939,0.9476175269373869,0.09934612818957644
