time_ms,ax,ay,az,gx,gy,gz
0,-0.738406550139394,0.6456814647314195,0.619507927474439,2.335862511672674,0.23333018220007506,0.9145286003054044
10,-0.7436635419372906,0.6399463050910945,0.6173645392561189,1.8128667574717643,-0.9127291298706891,-0.075004460453852
20,-0.7374061397347412,0.6464090512312046,0.6249047500546044,0.8556878741026259,-2.56086483978254,-1.6991117507306261
30,-0.7482147066948824,0.636817434997534,0.617676656502768,0.6384765797832815,-0.09982734803343293,0.26973642580497054
40,-0.7472095619062739,0.6375644338880908,0.615668379335384,-0.9237413476999727,-0.3589836749615506,-0.3129810374144623
50,-0.7635447013347317,0.6190625659036392,0.5976840644891918,-1.6546656110496407,-1.570847977598543,-1.243826378168428
60,-0.7360860969697827,0.6441454501354464,0.62678465104556,-2.443045120426736,-2.9245662019156535,-2.0916928564848636
70,-0.7490935783738838,0.6315756479593985,0.6100319970705479,-0.1614048758090323,-0.9079629086532641,-0.044815999751850244
80,-0.7758497547085828,0.6107317249563857,0.5844460077987113,0.4181336582650629,0.1193453223603114,0.6427722562407273
90,-0.7750803089762687,0.6113194518958781,0.5899022314638307,0.6383483546052628,0.4687920060713145,0.9203461985986705
100,-0.7700541013771907,0.6153382380003104,0.5903579459667581,-0.7543990117139099,0.02304403722494161,-0.6062897122651127
110,-0.7542644596984579,0.6288223993745266,0.5973629772455737,0.3853542350508987,1.2438865702715407,0.8132478452958705
120,-0.7385388544368435,0.6455540028501199,0.6223587404234088,-4.38462569983013,-3.4476114807950453,-3.442356394787643
130,-0.7705014747277821,0.6138263015879117,0.5964029270230025,-0.6110106986489505,0.12340546156132368,0.17513123926345953
140,-0.7610209163114611,0.6224673167051964,0.6030899116501288,-0.1021475573248443,0.21791033143973965,0.11621371219361802
150,-0.729758367194772,0.6559148597878431,0.6338333144732652,-0.929315958287927,-0.9047731523930168,-1.147679513301266
160,-0.7539611249357734,0.6367519680937608,0.6136025280109745,1.5868451478654875,1.3454475333692684,0.744133547888509
170,-0.7635383167349276,0.6232476745086268,0.6080654954228165,2.210949096661885,1.643225143901344,0.8129258172241378
180,-0.7483475173774011,0.6344625457518009,0.6177895154566384,1.1444560435903985,1.0075989604475049,0.26456819259823866
190,-0.7570450859886912,0.6305377821284271,0.6145525320019481,-0.14159688244614865,-0.4888541086460232,-0.7565826133036269
200,-0.7770118580790341,0.613586514156555,0.5926985993896742,-0.3231679609894216,-0.08320561061877907,-0.7089486606354185
210,-0.7641326726709173,0.624226131023693,0.6026182535928514,2.713419988583143,3.7712044450655244,2.6121357068680036
220,-0.7807052786282503,0.6063918488054599,0.5851557082514759,-0.29342072002289643,1.4541726127189092,0.21655441008566978
230,-0.7741715570456121,0.6138905166095916,0.6064406814810084,5.729224236202908,0.7803455016703602,5.179183927515178
240,-0.8056098128219289,0.5906614127933025,0.6300115586641557,7.751519364261628,-13.469676483434442,3.8971484950245183
250,-0.8196244260117006,0.5989333069012784,0.6994642137727789,9.976593695907953,-22.02223649818189,4.631446844586249
260,-0.7540395702998439,0.6016287176188835,0.69046982920726,24.09986618668064,-22.748142764022806,11.893194611096627
270,-0.7490164248338372,0.5947579823953604,0.6789115569042816,23.379949917311656,-28.10558861418146,8.595372856821623
280,-0.7312256415796266,0.607670983797195,0.6608780909051436,27.205632516985276,-26.25613148331132,13.231148512183054
290,-0.6734227837594824,0.6308212867611442,0.6565801885025023,27.499207822172405,-24.543362288127987,13.536899228116983
300,-0.6572440306499185,0.6593704476491661,0.6644383078884283,15.72397617641827,-20.81372419989782,-1.0286423211061857
310,-0.6321218408603144,0.7185432989422869,0.6851863451661923,9.228543913632148,-11.885536682167087,-10.147471387477093
320,-0.6546455117626317,0.6966649783335414,0.6356779432043395,6.914261767706265,-9.067359044375165,-13.507154675750536
330,-0.671196934434458,0.665349883456379,0.6361271515048934,5.583778302375764,-5.045745975226287,-15.213887454021998
340,-0.6847812302615397,0.6785387683991708,0.6570113999424203,-2.4682918466859745,-4.753185964137445,-19.214251818977633
350,-0.7298377920392003,0.6202893524143446,0.6232024927078548,2.2966042205288604,-2.052736843954896,-19.45059398943605
360,-0.7123942851718016,0.6689870688729538,0.6569111587628386,-1.6378492095901294,-0.8123054259323197,-22.633607210277738
370,-0.7185673177520425,0.6776989986999071,0.6672886845459165,2.3771801738079748,3.686245735801002,-16.743267414033237
380,-0.7114445867074553,0.6840082779249695,0.6911128460127998,2.0427278361922676,1.1880504563809666,-16.813329426579717
390,-0.7136454132248452,0.6795935728317825,0.6805177019613279,6.173871411431284,3.4564641226785664,-13.373719884707423
400,-0.7464909617338147,0.6480753549857754,0.6263958513398955,3.697796655167962,2.1363816602735755,-14.835582329298111
410,-0.7445762223687877,0.6677899722760672,0.6353406292227568,1.6414984638150383,2.6729934270066718,-13.992107264856992
420,-0.7674093676448366,0.6893105873544009,0.6632930557920662,1.499822264312188,2.391913170189583,-11.656649114493307
430,-0.7899574863683899,0.6461529346627078,0.6829687122957859,-6.138583192884801,0.0022472319539318386,-11.697381781449982
440,-0.6200427330552134,0.6951176576578361,0.6871943396317229,0.5909086763504746,-2.5137401855351102,1.827991693804544
450,-0.6746436736605801,0.5493271712816961,0.8027218083671633,-9.384856684171783,-7.496654236633273,-1.6979797928120632
460,-0.8288216612775329,0.4518334024753017,0.6827369839376716,-15.368456435950097,-3.801623120301115,0.14151661952651584
470,-0.8130033302600929,0.5580743715146549,0.5991842916359565,-2.727962447634386,-4.451066868572187,-2.1596386210473733
480,-0.7534607835558174,0.6839744089476241,0.5559479254196118,-3.863432199476096,-6.0632853825863435,-1.5836593912382553
490,-0.7312560948961208,0.7649779300679997,0.48804906224756583,-4.669706747492618,-3.2683733229093246,7.7320541563521346
500,-0.6498368230476756,0.8499721790094854,0.6322171620200473,6.976278008417976,-0.565533997960741,12.516068855413515
510,-1.0025084826751332,0.27110204863495424,0.8297175442140509,-44.61509072864985,-1.0924362878735638,-2.0636071081678034
520,-0.707218806403252,0.28228895343392285,0.7046146493009234,-15.698540119596359,0.15643438209707605,4.47844083861875
530,-0.7345233858864155,0.5066676041240936,0.6789875773020896,-29.422528432550067,-5.871045778039523,-3.488475345465453
540,-0.7675103055095897,0.5251726472783362,0.8675154018420204,-34.69033003436148,-2.9633963354050668,3.000850142906293
550,-0.9698429932559589,0.4535341761204366,0.6417328699519614,-40.94364821199251,1.4813107057280943,5.351842534565629
560,-0.8986842385632116,0.5974331121364884,0.6198658933252189,-39.85528082059775,7.5427140828322985,1.313880260386627
570,-0.693729379250621,0.7362015661817114,0.5796139233935534,-32.7187879853201,5.598245837558452,1.0198555894906884
580,-0.6518699330343988,0.7487843039128479,0.3471463355962977,-26.215482511783623,10.774459000922958,15.879862499851129
590,-0.7493598825228793,0.7185746429137951,0.3878118662899689,-36.34638184604401,27.185420975958735,21.35263315853332
600,-0.6484137828394966,0.3981679479136463,0.8402077118645175,-38.721281120666376,11.554787109525664,-4.238365755107492
610,-0.796280124600002,0.8097047458581854,1.2179271928494464,-32.93514513774762,12.936831519095735,14.578773557345496
620,-0.7304369440215721,0.5011907149371306,0.9604303008513295,-31.43605592453688,26.111014052348704,12.16845815296023
630,-0.8578925168320172,0.4690147995882403,0.7670538212172539,-20.43482967129393,12.708479833467699,10.090213286498422
640,-0.8249793696873836,0.4645665854919821,0.6363501932676046,-12.497293289539746,12.598408136546658,8.489241350343297
650,-0.7538071696724477,0.39755672660086194,0.5445799244291604,-12.678680431436451,16.24955698097194,3.2389361053918653
660,-0.7416758069407002,0.41201581157022493,0.6286854680039029,-7.519337588686119,13.168729975960996,3.4823791312295693
670,-0.6857721598017062,0.5682576811082212,0.6927863374772092,1.8707827664590584,7.874416062306418,6.247771407778246
680,-0.6847067483432289,0.5073332331867831,0.21419382541317494,5.281497029987529,18.541101471368677,3.6150824038442115
690,-0.7822954493218865,0.4650259146381882,1.024741340347763,13.944621506157794,11.952905186658853,6.18225955132797
700,-0.7899539862588377,0.5123147461453234,0.1761709132726551,6.024432194350685,0.05296928741956486,4.146693972065672
710,-0.8843249124682933,0.45813998184163357,0.5220014329362173,24.1164065522785,-2.4516976079996002,-15.990108562928224
720,-0.7352293646517077,0.5647427585742996,0.7004770235525352,22.3551832174958,-0.6972678524818705,-11.33675109134785
730,-0.6655389318583956,0.6944187060566435,0.6595937383549982,22.438999221367325,-4.484559895007641,-8.384083867432894
740,-0.5944814230034429,0.7121455584916062,0.4415961295612271,14.805478515735608,-4.953124524764421,-11.600136917323454
750,-0.6440408190422638,0.6337035595308825,0.41567446118064283,11.951328912321191,-0.6443579646088184,-11.05847142941925
760,-0.8771576790420968,0.6677935366410201,0.7682920981703117,30.960617837288837,-0.030080466601260958,-5.6282534439868055
770,-0.8422973491432366,0.7174804754341744,0.44142336696321305,21.608261118595177,2.4048125758103196,-5.885156514274304
780,-0.7695036295816333,0.4887068492239225,0.6132982449873869,-7.511896670352218,0.6076189280834285,-12.89034339601899
790,-0.7454338887899806,0.6957109088677482,0.6290749122716017,-3.332666098556863,0.38206821449542616,-8.293488084889221
800,-0.7404602014787088,0.7002393403026755,0.6201667769763236,5.680165992497676,6.094016019219003,-0.2658183669647629
810,-0.7423129386257133,0.6634063419333655,0.6143728742444186,4.042930277158873,2.305845190704153,-4.377812998608991
820,-0.7538119741278152,0.6372712332488055,0.6057341011782442,1.3825513553568536,-1.1164292361735793,-7.726671320470876
830,-0.7779514826672653,0.6091566029830143,0.5842671638693795,-0.7190415807033737,-2.9358350602418666,-8.022054766738481
840,-0.7553498630399725,0.6238969240037144,0.6075110735060746,2.3037224395539875,-0.10070239060484232,-0.7193021174645726
850,-0.7360610024583075,0.6392220811754706,0.6285907807803967,1.8957289575864857,-2.0623459764618506,4.615655235178199
860,-0.7452996253165242,0.638720944880764,0.6221887562949451,2.7378149343106686,-1.2402809925803344,4.549155023413983
870,-0.7584086063239552,0.629087403348638,0.6134414913735463,0.5391728534626512,-1.9676456879476316,0.9873387925094363
880,-0.7613231792641806,0.6247906869028068,0.606127922364371,-1.407590777767385,-1.6157348330284094,-1.760099552832613
890,-0.7617019499329106,0.6180465099804537,0.6074320052650083,-2.8925702223991085,-2.1298441115467632,-4.500714671286022
900,-0.7603982035862672,0.6162177218807124,0.6082921292357054,0.1506826396082811,1.1863881214690357,-1.90863522378718
910,-0.743047057310767,0.6316199944056401,0.6216711949076411,1.8243113320258777,1.7949383781685357,0.532725248217318
920,-0.7305957108247839,0.6444181926779146,0.6320661213628124,2.0268585774903274,0.7414256787353773,1.464237302488775
930,-0.7261664674777489,0.6540888365788232,0.637856411929382,-2.400714510877339,-3.634544644182025,-3.2512921911669457
940,-0.7511140063686597,0.633237795079411,0.6112931319733964,-0.8121528982276176,-1.5576005461644777,-1.8405992231795485
950,-0.7528866362052228,0.6239120924801698,0.6119674866927141,-1.7875494131424734,-1.5665931428520878,-2.146078878598761
960,-0.7537595546075819,0.6223787441786908,0.6054263866349056,-0.4679998399641976,-0.563635639437174,-1.0153448335786426
970,-0.7326911879854662,0.6377186543445018,0.6235226543560237,-0.06428789754972508,-1.443007520183146,-1.1249574970725305
980,-0.7520722007255688,0.6207420550607308,0.6050699020001717,2.977894160707268,-0.2847870124162857,0.7877919463777735
990,-0.7326742912418173,0.6451141402664661,0.6306696524565322,-0.9905435020416002,-3.1679753196250613,-2.709712185379348
1000,-0.768811091583269,0.6093583936529358,0.6021644816736464,-2.4470087967836647,-2.5865367770342202,-3.1853171034495635
1010,-0.766835831900792,0.6078327250044887,0.6064086862523727,-5.548539522618152,-4.3103721313560595,-5.5572723794309296
1020,-0.7565153123644947,0.614356535951378,0.6127563358143656,-3.6881060788242817,-0.9159483042753858,-2.6304718299204937
1030,-0.7806614723724692,0.5827651343452618,0.5889520482331418,-6.7258828880575035,-3.8320223229416617,-5.510199412475777
1040,-0.7549493112404833,0.6123762668639624,0.6148659793002631,-3.9191879834104304,-2.0699525232260054,-2.9113851702365388
1050,-0.7525246385438699,0.6202225754883735,0.6152362934487223,2.636159409629246,1.031438863925928,2.236305820569601
1060,-0.779387475903089,0.5942758218547389,0.5833649021538725,0.08782691750454319,-1.835178277927501,-1.0096659694960133
1070,-0.758875037813754,0.6167890793012553,0.6031984549552752,2.34569150348548,2.2611603776936047,2.43964836656668
1080,-0.7418676629853628,0.6314708972806334,0.6243349111384803,0.21066588720717805,1.2609475771959484,0.724741772203732
1090,-0.7595528615380085,0.6108764315539943,0.6086923792931226,-2.458681731843015,-1.3075033045647082,-2.2756444597050947
1100,-0.765155154724293,0.6053989750479152,0.599203082474529,1.3394283116406276,2.3229938847087443,1.7195246164798061
1110,-0.7499660045859136,0.6197645143712511,0.6116640934384997,-1.037684440297289,-0.5120207921439992,-0.33303587623547604
1120,-0.7512201657259552,0.622182861554293,0.6199807066937809,-1.527505446991341,-0.8308344002515091,-0.9271912369538056
1130,-0.7300319947144914,0.6450779855499764,0.6422157716816508,-3.8447096599101465,-3.7428013285272272,-3.5509519462756907
1140,-0.7422581874439835,0.6304811905764796,0.6244654432342946,-1.1091862887593509,-0.6589180645398827,-0.3088199059528592
1150,-0.7530180052083609,0.6162644054770368,0.6104153457857786,0.9909392951676883,1.9998037191575837,2.346903982185958
1160,-0.7316100905322873,0.6373831253930178,0.6320486717976306,-2.3979745581751954,-1.1461759172142143,-0.8719895497076448
1170,-0.7253729293471958,0.646798866383592,0.6366420154853443,-3.301849786180691,-1.8761841679830837,-1.4495683584651666
1180,-0.7326700485574522,0.6413265839143267,0.6288157977822839,-2.288356324943146,-1.0405168084483027,-0.7670438524785789
1190,-0.7413946438105253,0.6317799724808951,0.625610623332453,-0.13255057985144442,0.38861584822634054,-0.13678332618596795
1200,-0.7866752880224367,0.5893399994629331,0.5837723976407238,-2.4150830343655256,-2.139060484305015,-3.10115952797332
1210,-0.7587687154043004,0.6141748921538474,0.6021843889738523,-0.9774708341556071,-0.05864606638767844,-1.4315896233748786
1220,-0.7636304669025668,0.6081020959832483,0.6015475224751593,-3.6495163972076337,-2.411784384883679,-3.679443683969237
1230,-0.7735264286745366,0.5991369870154609,0.5960535435950605,0.5383418853858446,1.512709567947327,0.9844869425191267
1240,-0.7392085913950167,0.6281564757572962,0.6299958881828791,-0.6196219793814168,0.24129337650953886,0.15418573099723687
1250,-0.7405586168670626,0.6277702914209777,0.6268371907653781,1.5600850838371922,1.525701935321996,2.0969255837290595
1260,-0.7511212905285162,0.6250424937771134,0.6170232286459774,-0.19643482817380176,-0.8573655749484461,-0.3100761075637165
1270,-0.7500519737803075,0.6306961802008398,0.619571338821156,1.9792303342043631,1.5225740179884222,1.345198841725645
1280,-0.7285773841189668,0.6487837766217084,0.638859278484738,1.4939365997991967,1.4856986644227734,1.1097479499226184
1290,-0.7637312073567905,0.6131954248917977,0.60084937189336,-2.6004919350090177,-1.2422359717334732,-1.648267994346012
1300,-0.7450313755379055,0.6258735694959412,0.6195492037122449,-3.3970145267038028,-1.6974846887061699,-2.4327768492291506
1310,-0.7648050472028962,0.603911704192549,0.6059509083054972,-2.397918333589149,-0.6590587697987906,-1.4437803111988254
1320,-0.7616808503997008,0.6093227594205232,0.6140229273161633,1.2287715612686232,1.9962464973677985,1.896574630858177
1330,-0.786378756666404,0.5850097826198257,0.5845901883686343,1.9103203197738643,2.1618793566950014,2.277579052252431
1340,-0.7572587486392331,0.6149968814541316,0.6116257496975752,1.524349769989747,1.2983806754469873,1.2881740153861285
1350,-0.765840489394557,0.6053425789265731,0.6029671306290808,0.6015985647585864,-0.1562022124419079,-0.4313748685920751
1360,-0.7656815960639738,0.6031084698641543,0.6010363901586132,0.7356892938438435,-0.03301489562350313,-0.5069509332100862
1370,-0.7726193347756118,0.5996728658901614,0.5953257356184136,-1.3791763030090691,-1.2210857744013024,-1.581544795922366
1380,-0.7445015123226741,0.6292405516841633,0.6204281017350667,-1.9257206609789723,-0.3285189584464122,-0.8483711460414367
1390,-0.7408927136147321,0.6279191215632081,0.6215602489855477,0.5917322666772623,0.6402759760546631,1.0382201314350616
1400,-0.7183922267196968,0.6536819255440122,0.646671511743971,-1.1234831383880284,-1.8734225092859929,-1.4172005863332755
1410,-0.7430782016938415,0.6327235386343357,0.6232459334629925,1.5706975738420834,0.740169432142998,1.2983554459822626
1420,-0.7631121058023171,0.6123371424267859,0.6050860548467017,3.7369882053001207,2.8582282266232495,3.2894644620457534
1430,-0.7331095795397001,0.6378223728192474,0.635732993656751,1.1110283559305665,1.0139313239309589,0.9273000238096032
1440,-0.7529246960970556,0.6150110759237779,0.6161482554540423,-1.447007563320438,-0.3042351443237614,-0.9689255440140477
1450,-0.7573846267450618,0.6123270281815966,0.6135371028554634,-0.5117841269286578,0.8919195477028182,0.13851292114807778
1460,-0.7462059538467298,0.6239383825754545,0.625736794076266,0.1745229408836867,0.7686320946192433,0.5097526861652559
1470,-0.7495756692026899,0.6209976640238227,0.6236927502417827,-3.045835373852899,-2.725565892720999,-2.8716954134715205
