time_ms,ax,ay,az,gx,gy,gz
0,-0.7567393680463366,0.9162996686029993,0.515960652130909,1.6879348809729036,2.103059453222954,2.2444919734115274
10,-0.7734970199274599,0.8993460300790149,0.5051620645455026,1.1562049912942296,1.430205045285963,1.95119131282292
20,-0.7482945206746403,0.9249997526279962,0.5231924564842407,2.625866990806995,2.593314935041181,3.083163711347522
30,-0.765626486782795,0.9091378492326466,0.5094663506177017,0.3522687010411506,0.41536675693508207,0.8926362960114409
40,-0.7696150552900837,0.9051088052687392,0.5040558588767742,-1.8578606866887268,-2.060233886952814,-1.2320749384977305
50,-0.7512722536748603,0.9244754185274461,0.5239981407693415,3.22389346248757,3.043648391403403,3.8013004842416227
60,-0.7512825113759322,0.9203097464763604,0.5227796697382532,-1.828181978109848,-1.8384616654360242,-1.2107243094532518
70,-0.7472344556765553,0.9217563727234059,0.5234102642662555,1.9806840529702203,1.7676577645796177,2.5305094437154008
80,-0.7460599741301605,0.9289690044720541,0.5255126235316901,0.4585220358441723,-0.16244154021518947,0.5097589029820851
90,-0.7548508239376188,0.9202956902528484,0.5135554208109594,1.0162685959734965,0.3831652256597774,0.34329483243570114
100,-0.76799142840327,0.9027137357048831,0.4973032444988214,-2.1690344359153353,-2.285097024257505,-3.5187445878027725
110,-0.7831412542199678,0.8885129029287492,0.487301078718237,0.19417823379580723,0.19885225484858515,-0.4336646160869797
120,-0.7866769365722243,0.8809404620701557,0.4791856941425864,1.6373763312302319,1.847739703394961,2.122805003081898
130,-0.7748064552218541,0.8962469133818461,0.4940725268695973,0.43913442588990087,0.373073872664041,0.5528816303590494
140,-0.7476216697607158,0.9228895446594636,0.5190743116127184,1.674629298477068,1.4010740790896479,1.4976372031401661
150,-0.766860742165107,0.9040935738191355,0.4985828334320411,-0.157392803548077,-0.529323769702695,-0.6916966528324042
160,-0.7647623150187406,0.9187190175854401,0.5018886047353192,-0.0869969148118378,-1.2995151236360445,-2.901044823384682
170,-0.7597441429830861,0.9380692143719027,0.5206128645543481,-4.276076692221628,-2.6977667100225804,-7.576852753653105
180,-0.7715542671257557,0.9511793520680405,0.5328594581662065,-34.772879448242016,-3.1830945869448577,-19.755590801788575
190,-0.7157248522820198,1.0388550878174778,0.5371747180405165,-59.532449985770505,0.8776994720456421,-12.448350765092407
200,-0.6416073818893374,1.2253259158704322,0.6912651850235436,-35.01651378886779,1.7539548711198338,41.24434329518323
210,-1.0724607351237723,1.1146926904498824,1.0432896752220802,-61.387826546441474,-32.248841397034845,67.21751275364545
220,-0.9673908797826306,0.8447601721479839,0.9419427161429429,-53.34152534351578,-84.76639481349882,62.89915408297736
230,-0.20593238356509494,0.4806060724764862,0.35100096773475875,-43.53345617809301,-83.89572530574536,-26.05873827684542
240,-0.11844015112450783,0.42547270408396015,-0.00970084031188592,125.59251832378426,-21.570855773185887,-0.049587900794434314
250,-0.4378090490512782,1.0287744573662214,0.03195356051083302,-5.662468994164939,20.6278672163821,-79.38147161914375
260,-0.8482232363686582,1.3094265608124496,0.3538737916413183,-75.48849227296512,45.81748999537378,-99.43903229609509
270,-1.5453433960070504,1.523739074340813,0.9521770710836712,-94.1920442261726,8.007095442360612,-79.4974107237487
280,-1.427935129625054,1.2858962689130358,0.8111858220178143,-95.92098983417776,-20.533327083318124,-71.71469245562966
290,-0.7288750817066045,1.0832695532884142,0.16637391205005692,-69.95164452790019,23.559151794503926,1.1360972230323279
300,-0.29859024991485517,0.9764249208484713,-0.4541771277096272,-40.07034727851237,99.1306938639966,127.2595185812764
310,-0.003485355502988615,0.5754483448103769,-0.6291187368598814,-32.853747329767934,129.55329193621958,160.97746769333682
320,-0.5916334240939771,0.3381803100309703,0.3007849022496209,12.253998156261796,125.29687219015037,139.5766653319455
330,-1.2666220507978396,-0.04240877759127233,0.9467183453187477,41.91105576778138,111.35366834891241,101.82293883556903
340,-0.8635714530721501,0.6411604492958214,0.39880097625160754,124.58153987862329,78.74553614674632,98.92926525912864
350,-0.8219898493454376,0.3751426607552046,0.4005474757429532,148.3076010424955,56.075044013628954,75.33348371920624
360,-0.6866835442519156,1.0941894044547953,0.31725442125766873,106.56759173030888,-29.138306393753176,-43.626457085324176
370,-0.42701077027073897,2.096818838794201,-0.11138929210175214,135.2090797461536,-56.74951211401134,-59.02156395953961
380,-0.38969389493849216,2.2678875163059256,-0.28868213441559143,115.51552203499783,-51.290950376948125,-54.57073199038707
390,-0.4096290364165923,2.303829887333892,-0.22765769202031863,100.28521323177934,-42.78852643605417,-35.54927166440834
400,-0.4896539620282293,1.9889085663916395,-0.09959609246676948,81.07964485255175,-24.121222339453446,-14.967624303996804
410,-0.6558225764335938,1.299049353003126,0.15774877509879093,29.675071724321068,-13.486382823158703,-21.704645603551857
420,-0.7203637286792999,1.0158090081061573,0.4998154725175795,12.877439243335658,-8.550384626278785,-17.641834770074656
430,-0.7682057216466127,0.8685294617775949,0.46568767672341643,14.941591123904889,-1.7852814616007624,-1.4054460164960503
440,-0.7502183490772553,0.9179601957673836,0.5239663959614591,5.423775984614986,-3.879005022671582,4.874532257648872
450,-0.7460851640442318,0.925639359105648,0.516412411709937,3.945414389747061,1.1369958769503876,13.19706636705196
460,-0.7348346705220672,0.9462491532901653,0.5225501223496506,1.4358150381849875,0.7048641549479331,10.758938375485727
470,-0.7661213539075589,0.9188683993725028,0.48969525904550304,-0.30461726899048625,0.7816946678106187,7.595863197527648
480,-0.7549402608358017,0.932022541237572,0.5024380385170245,1.7988796417495996,3.3312200137301797,7.812820953630976
490,-0.7833623420156783,0.9086791270509169,0.4712587987698291,1.2517067549522696,2.0046754768619195,3.8661094165562506
500,-0.7693955868434141,0.9203129408123476,0.4809238480140047,-1.1850684125527162,-0.623716806323974,0.015184595915569254
510,-0.7844024140606549,0.9084087333689946,0.45296131389132616,-1.8926891575483584,-0.7023501243095894,0.5749259103035694
520,-0.7444546435959847,0.9509048548090446,0.4930522235829786,2.3643257615351896,3.0967220319891875,5.955447467055561
530,-0.7489897796003538,0.938237333690149,0.5093092616295295,0.01601455063270263,-0.7159957483982091,2.9833177383343297
540,-0.7695192847618441,0.9198173611350683,0.48765385597433103,-0.4432444162122622,-0.9566824405019472,1.4843034279875016
550,-0.7844879433758662,0.9043417682595374,0.4685068966965071,3.760945329028962,3.261455614727961,4.449840312165306
560,-0.7452176598702015,0.9386553642471385,0.4959525614358344,1.4313771377743179,0.7830139690134372,1.2980817573433177
570,-0.7772215601250846,0.916161289332216,0.4710089811976367,1.7695879792748561,0.8567171804581298,1.5255340858899058
580,-0.7722933692924296,0.9260862755344746,0.4805298243418593,-0.6680470137556656,-1.1774482127746357,-2.3018934541953766
590,-0.7653771078265479,0.924008166413688,0.48423555506948673,-0.4002205854100396,-0.5914683529900906,-2.8362292184329077
600,-0.7796196323888038,0.9036897975321654,0.47333255188027423,1.5466715360466057,1.276389619444594,-0.4220439871864161
610,-0.7349145485872267,0.9458832731950713,0.518797416893552,-1.1327037538516438,-1.4243003555253981,-2.181624918535915
620,-0.7617388368656078,0.9239360106615839,0.4898278731986273,1.5582691947194287,1.7742317894286426,1.9942493880685468
630,-0.7698136782392103,0.922218246700102,0.48287948079262716,0.7163666143012102,1.4145655735609872,2.453889682683602
640,-0.8036236491545197,0.8889580069989415,0.4502417058584666,-0.4294492489105324,0.27467384664225825,1.2182393322015537
650,-0.7880415055138177,0.9045960781007717,0.4607287563316158,0.014639324858287561,0.7402750361057729,0.4237722145525257
660,-0.7717882700933518,0.9214677759583242,0.4753955294725475,-0.08801663044495993,0.5765053724448561,-0.860702621555415
670,-0.7629641463584852,0.9267231703151,0.4837931434423448,2.34966851856141,2.7888156692415995,2.0042825940786146
680,-0.7650805750718437,0.9259905666733139,0.4813485867556611,-1.5615671667797084,-1.1100479076544965,-1.9370767479188524
690,-0.7866522536971646,0.8963429003397715,0.4658613029421658,-1.2191093108441828,-1.075443833353039,-0.8467881248216562
700,-0.7685707996783256,0.9197330982158576,0.48125351064100874,1.3176898007663291,1.5647711671752047,1.4899345127765329
710,-0.7704180290871703,0.9204839627009148,0.4771591550885151,2.7240596945337265,2.860697424295225,2.683535145818319
720,-0.7544304668990327,0.9317995444896002,0.4913098591737539,0.9562196970054082,1.0920205649504304,1.0506152293963467
730,-0.7853984197582402,0.9048809383174173,0.46219746854920707,2.367063054176877,2.4231195897049966,3.0667951289401225
740,-0.7464500705216633,0.9493755211657853,0.503008316845761,3.7495421200122627,3.8754779696474637,4.793382249301356
750,-0.7413592210885233,0.9506573994729555,0.5073321288200144,-4.495583096420067,-4.289045507660734,-3.8655512332360353
760,-0.7273867188711407,0.9623892512770565,0.52110171128119,1.8536594769122146,1.737535606441209,1.976558994709036
770,-0.7596180835460475,0.9320216155762848,0.4858079922998429,0.6221085535997961,0.7380166997805009,0.7845475979258321
780,-0.7644383891739686,0.9171560404453849,0.4763849621527009,-1.532967752805454,-0.7584248267883928,-1.3129515759223291
790,-0.7940319827684511,0.894537457116982,0.455005376446165,-4.354450704735273,-3.605418647323657,-4.0510672168976125
800,-0.7566812153565294,0.931278085817747,0.49575389198586006,-1.734540151640097,-0.5850267499116396,-1.913890682723383
810,-0.7543731621755007,0.9371681543385284,0.49462925118303425,-1.6536784084465892,-0.7277908556040833,-1.5562866296959044
820,-0.750509183332273,0.9358052249762608,0.4969857779368402,-1.5076062500812948,-0.30136796012242173,-1.8879119876304236
830,-0.7639784177929824,0.9221138946741412,0.4885507178130407,-1.0472907319256435,0.1330266369280222,-2.4221240255924177
840,-0.7706578348846254,0.9219050385064256,0.4843414496829303,-5.215809191481519,-2.8049539409636064,-6.789259581637001
850,-0.7411265966063704,0.9441243578422572,0.5132960295219384,-8.296617615101411,-5.447791797510977,-9.50447988093783
860,-0.7540377239645311,0.9204757974562835,0.4986500265614838,-4.297864614872929,-2.864088691843653,-5.021198470630096
870,-0.7755674000361898,0.906885011694593,0.475871823182417,0.39238394343670335,0.662067233017565,0.5050217411869835
880,-0.7786678081423151,0.9038503893574282,0.4782730251351731,0.6522069347195059,0.3153226937311259,1.3464955956642735
890,-0.7600132350361214,0.9137398508179692,0.4964647067406919,1.84911192208617,1.8725110403464695,2.054487778107298
900,-0.7725975959188769,0.9053581213838267,0.4817167766359292,4.821570774703461,4.931978092536157,6.0218728858922095
910,-0.761587923460608,0.9241304005791263,0.4961870938000031,4.864580272942508,5.208552346663437,6.937701041300437
920,-0.7622298888901179,0.9306384362727169,0.4959391892581885,1.8779925534053215,2.1926965044848035,3.4395971900344753
930,-0.7628167449979787,0.929539107907544,0.4890037828400153,1.326719182284128,1.5157345756838727,2.3401834644348445
940,-0.7807526171262554,0.9099019954011308,0.46881786722772645,1.7027617910244368,2.2126606024925852,2.4959866936144057
950,-0.7547638006102129,0.9330449770477179,0.4936492038540149,-0.9884782229208687,-0.41973406128913004,0.2007338458409873
960,-0.7465299244039176,0.9415951937560043,0.5020493025785023,1.3026246935594454,2.062096026993988,3.0827825930555726
970,-0.7585042943512285,0.9333999215686066,0.4929561942762469,1.5763888543630085,2.63082282870028,3.3200067540825957
980,-0.7647737453609608,0.9286104230459133,0.4887465808079925,-1.3707966923149995,-0.4812901198875501,-0.4385706575591892
990,-0.7491235962774214,0.9426962239632279,0.5027174977467628,2.1683658283960163,2.90516585890226,2.4280778484595764
1000,-0.7657275910063199,0.9264584950153626,0.48464823198072826,-0.1979028652626449,0.6460815319404438,0.1678651168758225
1010,-0.7491245108282755,0.9405688846296544,0.49785737318101286,2.00430999608189,2.359645605170974,1.8035252756286677
1020,-0.7546949881023634,0.9354859268434857,0.4957946876571957,0.19099100648015588,0.6989341986519422,1.0588762475002393
1030,-0.7384268540774692,0.9484483248844524,0.507186635179815,3.7715495583961096,4.198202333357674,5.007064447125266
1040,-0.7458384466500387,0.9439402391851419,0.49488928018386735,1.6505333338126809,2.059372834839363,2.7498092771247795
1050,-0.7589028458615065,0.9347155085111838,0.48893974639781657,-2.027201240212267,-1.9640902908399722,-1.8671214791459363
1060,-0.7688175065026425,0.9216301569494826,0.4778359008688752,0.7821702599568229,0.9014444437626106,0.3301317885568112
1070,-0.7644877289331896,0.9224545454436986,0.48073714379082666,-0.9598201029159776,-0.9233839634424672,-2.2592810264134955
1080,-0.7434582838218731,0.9427010124210512,0.5044730289587107,-0.2630935935469959,-0.580278845166434,-1.0884482175452512
1090,-0.7739679330440776,0.9147545494163011,0.4749130461915295,-1.01175180858569,-1.2968950779437605,-0.10318428971487914
1100,-0.7641914812068917,0.9316650327257139,0.4872860890754321,0.9001121627718129,1.0002107892690526,1.0070837463387516
1110,-0.7560330667340518,0.9369115970309649,0.4970311999002961,-1.899781647030379,-1.797578598589953,-3.832646815527913
1120,-0.7574016983015387,0.926841037366337,0.48823653177969223,0.5200483835109861,0.4473840146000705,-1.787683282841712
1130,-0.7417717477595723,0.9455207335700472,0.5046290398576473,-4.054636200346126,-4.143610166254564,-4.878191943443185
1140,-0.7913954999078265,0.8968150544281274,0.4593141206714247,-1.4081237055532694,-1.6797270552699128,-0.9364585756939328
1150,-0.7791197167121187,0.911784995901124,0.4694969955597248,-0.6723634485156766,-0.9009317681416995,-0.5919024924651661
1160,-0.7673517824029533,0.9243285604323156,0.4796967295156987,0.69008044793672,0.6410531565494594,1.094246784385189
1170,-0.7532943160484034,0.9418684380420754,0.49778131362491995,-4.739802649218671,-4.785371511314301,-4.308602982069966
1180,-0.7829086941029434,0.9118455779592711,0.4653857899674816,-0.3661776497490382,-0.3539418375253579,-0.7634046913308059
1190,-0.7686494436705925,0.9207763789001117,0.47626939730323375,-0.0659311171838784,-0.15768235490471105,-0.7599140932244356
1200,-0.749590373450851,0.9363702087091081,0.499272770033317,-1.1175280565356809,-1.3622657173565251,-1.1453147631592853
1210,-0.7556259948434083,0.930980210066876,0.49518809579066925,-1.5244379802651478,-1.4328272343573043,-1.217917102021743
1220,-0.7508466621366423,0.934708979025932,0.4981925613344119,-0.5614527581715346,-0.22618568304225017,-0.0383481806066196
1230,-0.7746520991832272,0.9045235115132368,0.46959029633188704,2.97503963124488,3.180137267486725,4.392045793208517
1240,-0.7638761554841423,0.9309652770629963,0.4890050805094976,1.2607587783950498,1.541792984132478,3.417201423963332
1250,-0.781967885114234,0.9139197216922281,0.4681599346534693,3.128361721982146,3.572324176049254,4.160499693305864
1260,-0.7678023831810417,0.9257200169456512,0.4841778010343736,0.05829724663469482,0.15145794205046303,0.4807279028252769
1270,-0.7552608904965319,0.9412894010012242,0.4935627927692799,2.7930085454200384,2.634498244666905,2.5303691255095653
1280,-0.7398681161331643,0.9523002195502677,0.5035060306505693,2.972145935526371,3.165400853819449,4.088120210707746
1290,-0.7739258264262606,0.9174540233038334,0.4700655969582474,0.2790781287343884,0.5171355922617237,2.196289178332164
1300,-0.7688865931818647,0.9270588702294951,0.47985549738941113,-0.17412791397181793,0.04322981496609346,1.4675350805622256
1310,-0.7493916262068762,0.9474589615196337,0.5004762560794003,-0.2886316435844673,0.18227777811398505,0.5890874740798765
1320,-0.754544760069031,0.9394021074444792,0.4917283993782627,-1.263946215593894,-0.7553817515271707,-1.608657772489061
1330,-0.7655241689901925,0.9289104222797099,0.4783057502755312,-0.9131280766432228,-0.5634011249704944,-1.5694752165714747
1340,-0.7727073721256432,0.9197427199399669,0.469649023979643,-1.3932345632934993,-1.1132008914938392,-2.0768673444573285
1350,-0.7475838962486233,0.9416646393218746,0.48602828588716446,1.8023295607135492,1.5297480905739425,0.8494737538318234
