time_ms,ax,ay,az,gx,gy,gz
0,-0.7215075912522776,0.5871684370218605,0.419227056167085,1.3188938091855287,-0.045556608031691814,1.16416960047933
10,-0.6943899017291054,0.6139565864048022,0.441976323658123,2.7674911168983765,2.1315717616011933,2.5127347555701216
20,-0.7195697045042729,0.5844233443353672,0.4207753876016162,0.5779998937593007,0.5527170512669748,-0.8652085116791379
30,-0.7293969474569547,0.5786313425494786,0.4115628441291598,-0.029546014232317536,-0.3412113748098185,-1.5018667542776118
40,-0.73494311510649,0.5696530213898348,0.40540508016035215,-1.5604884538658774,-1.1818914769681312,-1.8293300706541817
50,-0.7226066647911685,0.5805483331799892,0.4170801624242438,-0.30537865940070325,0.14834110805851275,0.41319157505646936
60,-0.7449110836214899,0.5614890740028039,0.39377323474945863,1.0496567206160632,1.5457001715204228,1.7848441558980932
70,-0.7190928025735036,0.5818938627427689,0.4105642197129426,-1.7022060143501139,-1.4600315562746182,-1.6059299344101414
80,-0.7312297353385104,0.5758637732202748,0.41120896620735903,-2.9060967564983367,-2.313630051261736,-2.958381309918045
90,-0.7218964796172573,0.5833228285752657,0.41515227002660027,1.4198802571306288,1.5976154191124348,1.030664489255505
100,-0.7225509511127869,0.5839152506646594,0.41559735846636975,-0.8641263604107086,-0.5775930067909854,-2.2832878682467586
110,-0.743601023329757,0.5874134043357147,0.409812151436339,-1.8202657412284498,2.791737402562136,-8.155413888795806
120,-0.747775953160527,0.5689612225074864,0.41532307692829046,-3.174148435666434,6.471124285403571,-7.672471122532725
130,-0.7471885930243521,0.5918464830371525,0.5076720915906698,-3.679218784057766,-1.3858311927020222,3.657122189189639
140,-0.6882802487781067,0.6251891833010059,0.5047008072577741,-0.03475754983148338,-6.250701084932569,23.84806245193889
150,-0.7423343964324528,0.5440612726703774,0.5289839275129502,13.717352861572028,-11.970374180248726,22.740275757279203
160,-0.6964553831234548,0.46689763708923837,0.5384941938824157,51.17694755499841,-50.733328578814564,13.544536594402796
170,-0.6606634553312446,0.5322126141397386,0.5582772206914315,50.75856136995671,-45.88234501699859,7.012753776270591
180,-0.6720619306419273,0.5370187220365417,0.5407845504669542,36.38303591420306,-48.612970237607215,-9.244002935747373
190,-0.6946374102340079,0.5163204570804184,0.5128723271221765,34.036204450606235,-44.93298202013677,-15.688523905734357
200,-0.6586717666443715,0.5374700052133613,0.507874648462213,25.698109754978006,-37.69521478196124,-22.58920395425029
210,-0.6637992984411987,0.5043192438020248,0.46208863861998334,9.394513070483779,-23.05526427055148,-40.28837551706008
220,-0.6575952331299011,0.5580818737721533,0.4513620384034909,6.891865609635863,-16.96741754271056,-44.714190872107935
230,-0.6653146458334966,0.6288172846137933,0.41504888169691845,3.336795358266504,-10.50686331397355,-46.04258880012382
240,-0.7512612430779039,0.6745033767585329,0.3440110364970157,-3.135486239509447,3.6872516601433656,-37.17941327254017
250,-0.711571420993937,0.7684266535527242,0.41463453872269185,-12.913015747840959,10.498982201239475,-19.10871574489835
260,-0.8202789895232495,0.7116728747746645,0.4203683445319392,-8.125803784169259,8.48686032701737,4.220340599419338
270,-0.738759686538491,0.9953220449066261,0.3365781340728934,-14.037377095757327,4.130874349081656,5.519829603414658
280,-0.7748351282467598,0.8198486449604185,0.43247914227938683,-42.75723810571048,5.159415606597351,-0.10158457607485549
290,-1.1570305757503023,0.33639347628131205,0.7655068492512924,-56.02280858820996,13.547904467130593,-1.5464576992979069
300,-0.5671448850629367,0.6010138623051124,0.11777469755926169,-20.817448470484127,11.188216719098659,23.91405577363755
310,-0.9561997405197137,0.44164775963183023,0.8431476745474962,-40.89848715570228,18.15829010567466,25.831654579227934
320,-0.6418222733250556,0.3973454715901043,0.1737798801392291,-31.411590632085733,17.382833632337793,15.100578134361564
330,-0.7864299215222099,0.5609922544822652,0.6355519081501299,-15.049272378980174,10.116344199641183,19.643486577980468
340,-0.8349388283795001,0.4067524160550558,1.0183488517615589,-32.902619488864,14.68819539080098,27.609402915608406
350,-0.7392003228315551,0.3390004456882724,0.5152074769250405,-40.369390274155435,18.733987277947005,24.453735787035676
360,-0.5319387953831339,0.7480566606829117,-0.2607928852807329,-19.485333060499688,26.686497050894207,10.968449955931687
370,-0.5505452960649853,0.48226665469919766,-0.17825480319876602,-8.65713512496686,16.92174826880181,16.631512952861392
380,-0.7268758729059374,0.37480402429345505,0.11909436642606862,-21.261035980083463,5.5908216641268185,11.222406388688182
390,-0.5541139580173023,0.6225832344517158,-0.019438312688119075,23.83704106189931,24.818160972537992,35.91406106070771
400,-0.6452442972355417,0.5617078759355073,0.46658560427409934,4.4711984634284505,4.200443739909423,-4.191083246229737
410,-0.7082145931372874,0.5451153847661668,0.676383148065669,17.93436105648572,6.394144198458282,7.544511996008509
420,-0.6579164070712843,0.5249850525226213,0.28724663495892666,15.059139495992005,8.845084896330427,9.070862483863348
430,-0.5800801786124358,0.26053144332068834,-0.04255722517266211,2.9279255442835663,14.217367257322568,-14.853945396601057
440,-0.7138272061158275,0.5035691689836025,0.5228011336540109,-6.54084283722484,3.0463812354716246,-17.799043122357457
450,-0.6177146347528382,0.5049380830735292,0.1431468328924009,6.984555045120512,3.048921588732008,-0.8871560251278008
460,-0.6660777838609054,0.5820832632218697,0.3649528036214523,32.91338621112511,10.809831380043555,-2.2195960161165567
470,-0.7398624085573391,0.5876226194524924,0.7795814022297862,22.753645781538957,-6.447859484640666,4.972461193353176
480,-0.7714500499339279,0.6860060150798736,0.729705060439834,30.094989543927657,10.242423048117965,6.060615590179792
490,-0.8484049133738677,0.588355456611375,0.6539635670612526,35.894763932187445,9.980350783075357,-6.842279907610713
500,-0.5551487247186404,0.5728822496963054,0.5489683099266818,20.464128373268903,3.9428299448131496,-19.33110976751735
510,-0.6124721859976923,0.9968141666749435,0.6107680371250358,27.609413858563475,-0.8194579341498058,2.0665425703641076
520,-0.6365723716163113,0.7520021863970867,0.5562015241991789,14.750582256836793,6.155033199605875,-0.8566904183131676
530,-0.688930584758395,0.5218858901431347,0.4197424243829713,3.6445774688790227,2.843221264832505,-11.80465800882411
540,-0.7416298997307487,0.69011100866974,0.426418927101007,1.181628564165678,-1.0366171754950146,3.260516263496919
550,-0.7324913303072367,0.6093025218081205,0.43507284062862495,-2.469340648442092,-1.1092608056667035,-4.850572501967932
560,-0.7306514323617146,0.6230750076932382,0.39809035115461366,1.6150792046995703,3.94854130084018,-3.499551947707893
570,-0.7454668249489061,0.5560343601465054,0.3936449913608168,-0.34180128304240376,4.052352685452944,-8.571431557799729
580,-0.7399030981546587,0.5395583076137311,0.3951582238428666,-1.9430603983137944,1.809110779954911,-7.478571121684022
590,-0.7036205142563177,0.593592821698154,0.43740452663256274,3.8684849040238207,1.5131630915423138,5.755248400754095
600,-0.7426208287724996,0.5560834378095515,0.3989767530504136,-0.22761992676806037,-1.5843265623491143,0.44704867635965706
610,-0.7133707011806081,0.5806591852665718,0.4241877242045171,-0.7768167679875299,-0.4072102697712069,-0.9555818123639329
620,-0.7262622714990377,0.5626605587880952,0.4111226082304919,-0.07050168885355335,-0.07605776395188324,-0.10359515153200649
630,-0.7239261769170117,0.5685726102257431,0.41761878667597335,0.17008964436142893,0.4304641696630982,1.4589777603941805
640,-0.7024289549228228,0.5911250296171776,0.4358826039442345,0.39446192837738203,1.456265215334197,1.2494446173643132
650,-0.7092073574479655,0.5817765837001855,0.42340884104792303,-1.9719840632112096,-2.003578801952555,-2.2502628439368815
660,-0.7277786017049079,0.5720430598508816,0.4118197422061309,0.7542210820616138,0.7004756819721534,0.3581207787413103
670,-0.7186079126306725,0.5797294081616983,0.4203854592978057,-0.2860516962124018,-0.23930208699581867,-0.255389811059028
680,-0.7527212695381258,0.5432490752835994,0.3820949621252951,1.5150371149580075,1.223513079835761,1.7947733306662403
690,-0.7213901655186153,0.57693007867929,0.41901926823887825,0.3792842802405272,-1.0439061648326537,-0.3043527495734741
700,-0.7154697056377596,0.5808574802327574,0.4206823509859876,-0.5502023060912651,-2.0052206021605374,-1.4128312404824823
710,-0.7268195101988593,0.5719678194410952,0.4084012949698542,1.3010715500953047,0.048083614561917565,0.9154911073308816
720,-0.754506579471565,0.5428034659923379,0.389551340500757,-0.7990411349574931,-1.0878244988923456,0.008086866508338175
730,-0.7350818771450467,0.5638400103061951,0.4091240181196075,-1.6116331349140929,-1.2418246646116635,-1.1925870924974888
740,-0.7454158565894589,0.5548413237823221,0.40141797957223424,0.5460546925595486,0.7950479952435556,-0.2252910743310006
750,-0.7200424192770926,0.5759731865961693,0.4206086449509624,-2.746888974492567,-3.0383410106506985,-3.144885791706943
760,-0.7373740416167466,0.5552967348853515,0.40375247918988805,3.1219204372880753,3.2816260668581707,3.5923713643473847
770,-0.7217771760225214,0.5771640093799719,0.42207298950320715,-1.2173829808033516,-0.6252255023490539,-0.16995463342031147
780,-0.7459822599198274,0.5460577173120922,0.3969153336493478,0.7375036337805407,2.5451456765826266,1.695407919398789
790,-0.7002790500797412,0.5909560149476424,0.4334700975005561,-2.1369789905796983,0.22070487172504105,-0.8839595702727037
800,-0.7416376740621783,0.5543791675736459,0.39911890943444694,1.3752640221183947,3.1694485023295966,2.7104522878966955
810,-0.7264879720483927,0.567903773166552,0.4155994272349331,2.3324445639847466,2.5453057545133246,3.1660418403947697
820,-0.750551480588102,0.5436273240156712,0.3851633356847987,4.102404132608493,2.8751877621945137,4.107824515173084
830,-0.7176840977895468,0.5781160337760348,0.42434694304711734,-1.593149057076994,-0.5794410880844276,-1.9847416471442172
840,-0.7257322651961984,0.5650375403853989,0.41624929408166134,-0.939887509548123,-0.5759665567626608,-1.3495963097752823
850,-0.7300745929471331,0.5607022950955364,0.4120407004190281,-1.7701713387538651,-2.031546127059363,-2.041569698730722
860,-0.7185635444490439,0.5725455060105605,0.41940489727893926,1.423686633288734,0.5496037725609714,1.8074581325259154
870,-0.7071614311076398,0.58990664739967,0.43407637640851005,3.355689819780669,2.3388435325318273,3.1281012075272367
880,-0.73202333711935,0.5644164468915073,0.40819230942482054,0.8077784576377597,0.8682043743209336,-0.0879598663863399
890,-0.719221898880143,0.573424325084982,0.418942845633547,0.020114379158831963,-0.32265098308769613,-0.40888945234499785
900,-0.7592514496948678,0.5344745537167523,0.38326059440147925,-0.14076798198548168,-0.6266009555913316,-0.17748985448109555
