time_ms,ax,ay,az,gx,gy,gz
0,-0.6931851370905255,0.8466074574693071,0.7046429062317846,3.508227360774262,2.5573107508844206,3.080199846807072
10,-0.6605818910999907,0.8755775507328709,0.7382454783351947,2.260797571978841,0.8245513626168188,1.107710096715887
20,-0.6850870327095367,0.8494076566116722,0.7084129073237693,1.9902367821114844,1.8987813862236558,2.1438764344792505
30,-0.6771844091332023,0.856869676614604,0.7148974678252079,-3.4099164387958023,-1.358271407420535,-1.8682201383791046
40,-0.6709338474246357,0.8617255652790549,0.7272148125742113,-0.9128239197403878,1.9001436845291797,0.9884386731975281
50,-0.6502101759012309,0.8809673019284789,0.7546018099843622,-3.2268433288266745,-1.750270457523924,-1.9212632897957234
60,-0.6640245662568229,0.8701448202614922,0.732607516626655,-1.1858210188706495,-1.0668860276387977,-0.2570992890352768
70,-0.7008390838143406,0.8235984674572384,0.6875055000184229,1.734351548820065,1.0669170672950328,2.311417895771891
80,-0.6694273155228952,0.8599320934333032,0.7185947946018646,0.0846042413054704,0.6045807060273565,0.47167045348796993
90,-0.6739348629587564,0.8588662353566532,0.7218449842043023,-0.3395717597356308,0.08374070345965856,-0.43636322752957857
100,-0.6518060755130074,0.8823081889731303,0.74983172064291,2.5402431518974318,1.9169061239019891,1.8708827811566298
110,-0.6666531693661565,0.8677420918202193,0.7322489259897652,1.1162040730877152,-0.19580329946456784,0.38759140339360043
120,-0.6756390719153204,0.8569220357957847,0.7146156252126957,-1.8300872473902554,-2.310974335667556,-1.5599942050960933
130,-0.6414190204969139,0.8832115495808115,0.7531771859768296,-1.2787052027870927,0.5827051190760983,0.26724636102172616
140,-0.6809448027927857,0.858199797221198,0.7263810954565298,-0.8773384191876479,0.7461635957573249,0.8349092048619744
150,-0.6904370258668695,0.8499100255408729,0.7179125213234501,0.07846253337732034,0.2827873818020787,0.9740807141702983
160,-0.6954525945867494,0.8442601965980912,0.715158429619768,-1.5612006972854762,-4.002686318757384,-1.9840353879322108
170,-0.7045423281134195,0.8402498169476473,0.7119482009594162,5.051319710606698,-0.5824703256950547,3.364902128036636
180,-0.6781948179890923,0.8821776064802814,0.7464047095911039,7.418077761442261,-0.22389927452827307,5.214336843887489
190,-0.7073050132004551,0.8923049746382172,0.7412978446185345,6.586446539752584,1.073711603770243,5.636150805198948
200,-0.6974656707476022,0.9758741509305772,0.8819626731515868,-12.903219355457884,-9.592513372828058,-2.5687435698935723
210,-0.6944540528731498,0.9039249454470238,0.8402726596824793,-10.417228628551484,-19.14784750813528,-1.575532268741262
220,-0.6114514326276289,0.8358960072366727,0.8362382952193684,-23.426131344924084,-40.284515059106695,-12.769313818935233
230,-0.5761982414276147,0.7745722100635888,0.7892908655093926,-39.69599884189618,-54.63594660187264,-26.081881491801354
240,-0.5493650045314646,0.8151471888030118,0.7549150674290843,-41.864656455645196,-48.9371500559423,-27.84075647126053
250,-0.531420044935108,0.85890433262627,0.755831685444706,-45.25471717894523,-43.7750748936345,-26.448710661190677
260,-0.5491058994092032,0.8204573621696282,0.6659835250291847,-61.32748882695513,-39.768924142742485,-30.778190685523825
270,-0.5610332755206779,0.8366106451004708,0.6675667101095384,-69.92311315507574,-29.880170505322766,-29.542103766601354
280,-0.5819351745030227,0.8177704999285441,0.7132570725681247,-65.31820908823647,-21.617305883556973,-28.163881034087733
290,-0.653435674223332,0.7826548520340176,0.758720703930308,-56.385463215618614,-16.025808567118986,-27.543003164265127
300,-0.7087297579011582,0.771715992308157,0.7639808440487366,-52.942496137394144,-13.811858817174658,-29.22364300437609
310,-0.6497179827962831,0.7670526703026619,0.6883073142271255,-52.57182941067065,-9.828357303715233,-28.910486551445402
320,-0.5935852734572947,0.7283864195316428,0.7067540162261496,-46.52128490668923,-1.3727986998733763,-22.03530892419112
330,-0.5112276574393215,0.7779302378264816,0.7468849179602143,-38.53682799620018,2.7693907531178157,-20.126317785490215
340,-0.5355579121206905,0.7409162340536608,0.7044520698029253,-38.20915005371724,12.42306153019979,-16.12804958544841
350,-0.6874683173606393,0.720732624246988,0.8923997209058655,-43.64420589739134,7.242227922310969,-20.620476845751913
360,-0.798426904083318,0.7286183273021133,1.0161511827151497,-31.458905232086323,2.3446465173720457,-18.004126442110554
370,-0.6396918227614237,0.8032117682354757,0.7934429327501099,-12.974037434535933,0.5238889811477838,-12.13912367113625
380,-0.6468561344004802,0.8179320022008301,0.7794026682990073,-29.77972675693993,-2.3174626999260735,-11.744621029342028
390,-0.6171268923019496,0.7247107283213906,0.8486256092290642,-43.03652406908056,-10.57535787845261,-14.923410972189718
400,-0.6117759543591006,0.8990022335665105,1.0225483902156058,-38.45941832031401,-7.126913802050318,1.0887030417797114
410,-0.7121719994013157,0.9146154635056628,0.9405243442284493,-58.160215383747676,-8.260760853581797,9.867617582013937
420,-0.6546892113412143,0.6794029319666529,0.709637087736707,-54.48713057849297,-5.806911506852786,20.629634965283564
430,-0.49053337703052535,0.5145176372888968,0.537503176091422,-25.1173842545401,-9.226583992761984,26.318996646818437
440,-0.8656491717046151,1.1158477333102765,0.5086816240292215,-26.186890370016016,3.081022947351663,44.94151912718891
450,-0.6020302519662177,1.2410837953269338,0.7737338345792919,-18.334215848785227,0.8116938201863277,60.14057219347783
460,-0.5601894936608487,0.995135130246178,0.4829361016024173,-14.278771766806624,11.87002734332995,78.15863834169629
470,-0.7270065665326321,0.6079197290667957,0.7056695228690221,-67.13200685136115,16.274901526853313,72.70467657236418
480,-0.7217406172463966,0.2577643078870515,0.6495689472139163,-55.96338141610563,31.412186359996173,76.2228721487646
490,-0.6158422800692372,0.11500922482529588,0.4760298877174314,9.848493400984683,47.89537724953948,87.07096517034502
500,-0.8325511954040304,0.3245001208151006,1.4186945418318342,-7.498150486883919,39.14105680315343,70.60283639310374
510,-0.6431090717887541,0.49885589691688553,1.0111778797587598,105.53082993187165,50.35027779848721,59.48382495859929
520,-0.6293822354627018,0.29755856405704284,1.2234679243186934,73.74103880237541,34.9710032149362,36.953873867885925
530,-0.5737016572734248,0.3237923850115443,1.2298449936422222,83.27389994927353,37.04417376200512,15.793546990586321
540,-0.618372257231115,0.40695314011368416,0.8820415825918021,99.90635298097793,25.15034158862809,-7.843773962169285
550,-0.8403832966353119,0.5592728209292412,0.3252403599467937,105.02434958992342,6.853692890400885,-24.797676616604143
560,-0.8549231815011055,1.0063796068391073,0.20281292491575514,88.9158640388335,-6.488903770042369,-45.59934537040385
570,-0.7292938895907918,0.397629734546676,0.6000257586441915,65.03882183632889,-7.236710513134775,-78.49915161868184
580,-0.6792489716919238,0.9202402596771063,0.6019563334508683,67.24784660612023,-10.641544054113513,-26.9069145890998
590,-0.6517770149193111,1.088447298858165,0.7459562048431857,25.84919285634225,-4.339451926449768,-10.113325501457792
600,-0.6993673277869095,0.929670934493209,0.771917792732298,-15.908470127171327,-6.634419447150629,-16.465579096738203
610,-0.6945070904062638,0.8922158765202843,0.7725878682726042,-15.308722360313796,-0.5280039491241644,-12.789921815875404
620,-0.6919163254374947,1.0202151346100483,0.7397183470139203,-0.16252046847655022,-0.8665616216803522,-10.999946503578826
630,-0.6749910551133058,0.9034376792370269,0.7086263462187405,-5.137149841328769,-1.208666706153633,-8.478871020353711
640,-0.6771481374421888,0.8600917593534526,0.732026911689043,-4.297825681100159,0.6552585484126778,-5.853314346294492
650,-0.6565450392564309,0.8545038314078667,0.7530048249237122,-0.34051065840559613,-1.0084357725973838,2.9082765221379105
660,-0.6947531414180006,0.8152238070216504,0.711503248574017,2.1104108723894948,-3.3682976128547386,4.955376850697431
670,-0.6784879610377826,0.8514060440363169,0.7235297699695633,6.7183771665594865,1.188630927075284,7.875013503291905
680,-0.6784668809690835,0.8702952246727066,0.7226880848189855,0.4217761502385636,-0.7459634223564118,1.207235591111282
690,-0.6776859770987707,0.8597991741913873,0.7331528975460072,-3.8172526029004556,-0.372565205689169,-4.627940462502196
700,-0.6528526821441102,0.8629254564754634,0.7525399637654201,-1.9397321047782672,2.588245285596953,-3.6940096072302184
710,-0.686885889753037,0.8255688546272866,0.7138156466443468,-4.292532934721254,0.3273759467687136,-4.891406523706272
720,-0.6904827832922265,0.8224205536983611,0.7052573713032801,4.793928523915769,0.44618064179028816,2.1445164980487506
730,-0.6966537399964052,0.8286189466010577,0.7041899275438623,8.849995337307929,-0.7608025148537059,4.762848407143112
740,-0.6732674879485232,0.8663671537634353,0.7358019203251844,6.137322806165543,-1.7371815382577402,2.5255342428176135
750,-0.6806608069600752,0.8574492396209911,0.725320541200954,3.717491701124669,-0.7381807138240839,1.2603522828933782
760,-0.6892253557726851,0.8409184462496646,0.7116605577444923,1.8289561266683279,2.2173839350056213,1.8403076555407256
770,-0.6457936474671618,0.8681850070932683,0.7532185892717114,-3.156133542027889,-1.0708523421801877,-2.0698265063753425
780,-0.6633106684348572,0.8481719203706127,0.7360358222085811,-4.179163633949399,-1.9694460412309789,-2.6351538202643763
790,-0.6773561122663039,0.8414337574034095,0.7259525569364516,-2.1904705203786805,-1.0389588961149145,-1.0056527833704274
800,-0.6825211221478243,0.844243101274194,0.7217223484053079,-1.0030701798504076,-0.6988086460259344,-0.4196868813755592
810,-0.6804690973483919,0.8477710660165957,0.7181939296628219,1.4945767026856118,2.3185583054764423,1.9998389454478787
820,-0.6897547011652609,0.8344058129555882,0.7074119175665358,-5.292588418022527,-2.989451614856829,-4.1045850495389935
830,-0.6905916450469343,0.8299839040499267,0.7264763252414894,-2.494931129909961,-0.9589478722401383,-1.6322525973104303
840,-0.6729671264090498,0.8388756533112751,0.7315514553198189,-2.0681063161346445,-1.796222069908657,-1.8651258918908848
850,-0.7050166231996526,0.8052927786488681,0.6915840584006961,1.8885954936620186,0.70706674778952,1.227277283995585
860,-0.7015095498639999,0.8202018686672295,0.6993435865451626,-0.8335507693905666,-1.6337221736122365,-1.016864246861497
870,-0.7088875766891436,0.8256683231420314,0.7000857627048119,-2.7106437427715315,-1.4128595879759958,-1.29440452566142
880,-0.679921618197269,0.8455143197120575,0.7273662570645132,-4.485454397423429,-2.3732843749754817,-2.842582077616057
890,-0.6666063724429451,0.8487054789658794,0.7338053983453718,-3.3045774300396413,-1.7381877771647327,-2.157622797551546
900,-0.6782513307477003,0.8351133975126571,0.7254515162374084,-0.7218866972328951,-1.1165773747560175,-0.7704443757550805
910,-0.6830775576209123,0.8269131406216209,0.7232276998905233,4.496232239468788,1.5217580473051835,3.2533806360660718
920,-0.6858962470875257,0.8201294027814671,0.7138936522527614,6.323754365501764,1.0328310193703039,3.8916817233625105
930,-0.6712826383040519,0.837817589841295,0.7223326960359628,1.5048416856226132,-3.569281800761466,-0.8910448497385963
940,-0.6563781350261967,0.8666513265176781,0.7448330431525456,-1.6998097428859522,-3.1235002681865494,-2.103598371972546
950,-0.6687294859406154,0.8551000440239118,0.7305682107132545,3.0880112125429653,1.1948822701682873,1.9319733022800314
960,-0.7097341785572556,0.8101211332586243,0.6906315284919481,1.2066104057747116,0.2092606797795159,0.8322113736222265
970,-0.6694771357880817,0.8505914114770385,0.7282711353812993,3.007190250867138,2.0251744829988687,2.023882850485301
980,-0.6785014628547973,0.8431662095642067,0.7196691358383556,1.070465966378758,0.11945742837289777,-0.19456899911441877
990,-0.6957846573565957,0.8278560171216558,0.7026087359225668,-3.2673295619789626,-4.073063934341467,-4.489940996026679
1000,-0.6860856721010334,0.838062280489528,0.7107729145630677,-0.7112628272658429,-1.5007842540159344,-1.8819711169309525
1010,-0.6838975487482264,0.8336523773106116,0.7221601191959114,0.5574548657899001,-0.22424977280927497,0.5772368274778303
1020,-0.643569818888187,0.8700134314249754,0.756221724528649,2.9388249252496808,1.0511441578661624,1.8003936488276686
1030,-0.685022917827183,0.8372449500174063,0.7160142167589543,1.0523165459422512,-0.7395754480327744,-0.7485497260863523
1040,-0.653999362052795,0.8667068873208177,0.7426951850649587,-1.0317529924133022,-1.942431836005691,-2.8174627428094556
1050,-0.6851733129141532,0.833029986358781,0.7084166396580007,0.4120811865125435,0.43525260197233223,-1.2087169076276432
1060,-0.7045248433491595,0.8167122470836068,0.6930003467089698,2.3242373634388005,2.9536424635498646,0.944214229045369
1070,-0.6638844743998493,0.8561948063939461,0.7393148431414865,-2.3622097537816176,-1.6074474883125622,-2.9120292010508013
1080,-0.6431488404367076,0.876474052163783,0.7547234266860422,0.3576042939599975,-2.997597210887632,-0.9772282666675562
1090,-0.6814940376035354,0.8442563609672289,0.7200381598054323,3.0017555690533526,1.077011428352879,2.1384407491695567
1100,-0.6678120272787229,0.8603999306722546,0.7315614971508312,1.5420964282401037,1.2880808494259304,1.4693398718920934
1110,-0.670448390360252,0.8601326078241082,0.7297916139419054,-0.5046622059732516,-0.2188132034534232,-0.631004839509218
1120,-0.6706484652339083,0.8604403325932616,0.7338271997245767,-0.8191576081782197,-0.9935255524900302,-1.6289132974690193
1130,-0.709361129637519,0.8156704130112635,0.6945433457752059,0.4632865648155544,-0.11094049922132056,-0.3782968753481064
1140,-0.6487175601758569,0.8731527285004398,0.7510522546305757,-1.4389958895953208,-0.7215438361147062,-1.0611876199433299
1150,-0.6377078518326648,0.8806140764095631,0.7577114511179215,-1.225352573720049,-0.18646704196058855,-0.9869791596628135
1160,-0.6646275662305065,0.8583094166303752,0.7351148371206029,0.946986353113042,2.0551071059914383,1.3073213296451727
1170,-0.6620280914003553,0.8667063158032885,0.7408758866997981,-0.5794838900196306,1.0714722530210556,0.40964927822773367
1180,-0.6804601942234578,0.8497596635081408,0.7239956299849731,-1.0697451734730619,1.1054671171448631,0.5648196606705201
1190,-0.6664490528888811,0.8593856233780816,0.7403736445524783,-1.0838699870330988,0.7748865567602694,0.6042378362016401
1200,-0.6451165771242393,0.8739869110324234,0.7600734060762965,-2.4710436409071113,-1.7107465990741444,-1.34352491611893
1210,-0.6596063203697426,0.8614707276128091,0.7348124284145969,0.6633174362273608,1.61222624603727,1.0483483913712028
1220,-0.6771574254788136,0.8373838670812964,0.7182341278296451,-1.121026458075428,-1.1025830689425975,-1.5723841882107383
1230,-0.7044164596889639,0.8093428229339875,0.6915795440033177,-1.205676126341956,-2.0323186080734525,-1.9208708711493552
1240,-0.6524856517011003,0.8655835886714682,0.7440785218783509,2.37424421939384,1.5701188968705022,2.0970430656589163
1250,-0.6893541662821159,0.8326854302869517,0.7099593240760607,0.11972626530119038,0.15094434889539918,0.697344512697132
1260,-0.6932154070260413,0.8292374503132622,0.7099906835573258,-1.1488497547740306,-0.4030624747881473,0.15979577695737646
1270,-0.6747858303050001,0.8511401771395307,0.7365569214571123,-0.5479155845124175,0.230491173649362,1.0092649357236707
1280,-0.670963031208548,0.8561924403076843,0.7361931743785454,3.852128686780701,3.3960333987392857,4.155824706638925
1290,-0.6842261720270628,0.8394175245670444,0.7190050577616243,1.1613178487162812,0.11050225449776296,0.722216280571592
1300,-0.6630528911718016,0.8561187090426856,0.7372910150393563,2.7121406997587396,1.5748553424011116,1.9381207193488261
1310,-0.674461142682233,0.8458961125193916,0.7264926530143415,0.2696936990520975,-0.7458733616321572,-0.5477258366183624
1320,-0.6577103488535586,0.8717431581452081,0.7490582754877866,-0.5613412252463884,-1.3323344883388335,-0.9907124152964972
1330,-0.6545099110765054,0.8711467011514974,0.747775454966208,2.7045042102987944,2.2727511220872954,2.8777050803838313
1340,-0.6843626855602977,0.8384912540038063,0.7156770170247895,2.938436183692227,1.6969084491282316,2.40903647379561
1350,-0.6514676626733538,0.86978094453728,0.7471432275816675,-0.01304659234227945,-0.4220471809671211,0.3874450448124164
1360,-0.6697354079819523,0.8498625609702692,0.7287647003351333,1.8955718771985666,1.722867778910636,2.1811309459999646
1370,-0.6417617172766866,0.8791951487551852,0.7581165047920203,4.33050077199346,3.902122382900902,3.876884186506211
1380,-0.6608791000384746,0.8657063776741108,0.7403760842626477,-3.2190816757241016,-3.195304172728414,-3.329657716250915
1390,-0.6639026610827974,0.8639199964976738,0.7343961832206388,-1.2053890222310368,-0.21573592791326723,-0.2669273406018583
1400,-0.6749599588610784,0.8503286322712373,0.7297879623811945,2.2932413641814238,2.5214843879740996,2.6511113242931024
1410,-0.6549562953980727,0.8696987858114156,0.7477017291363256,0.18572667688788114,-1.0505538469817415,-0.44809696618330763
1420,-0.684885939838391,0.8379062422097531,0.7162018551864694,3.221793168831222,1.3702620900713565,2.452503086013542
1430,-0.6969722851830839,0.8292445608142834,0.7069435761903642,1.7498950392774466,-0.07582772805243099,0.6176582159373442
1440,-0.6834133994643158,0.8485424953329291,0.7221165910231172,2.5994629616685163,1.0775868742338803,0.5471874457103599
1450,-0.6686048649660461,0.8540636088718269,0.7251641101406537,2.3335284829430183,1.7668849363135888,0.6362490840822395
1460,-0.7046594520854388,0.8232644952332512,0.6926400738325798,1.222998267009564,2.2166110897996933,0.5624501530569785
1470,-0.6781495891755172,0.8465156832339322,0.7197394720997188,-2.120662368075444,-0.4002871657835144,-1.4648478624511192
1480,-0.6820231055155558,0.8407699433136057,0.7128114527350687,1.0639803920887525,1.6471798902974264,1.7395208275079406
1490,-0.6587025059666229,0.8646476779722484,0.7382568060943567,2.261868101100117,1.538949064176553,2.666195891346302
1500,-0.6680587802325909,0.8579528575385365,0.7348852091033244,0.9679847054007191,-0.6301092280052023,0.6189121446868275
1510,-0.6980743250724832,0.8315583038849694,0.7044538438630031,3.488094154866516,0.904219233765853,1.0569803352037037
1520,-0.6843535410335062,0.8431615551687209,0.7134880429546272,1.2753538786826195,-0.5228763213441511,-0.7483529576562069
1530,-0.6875758904793858,0.8419588167991149,0.7119636293994057,-1.7526021739850772,-1.6292955280392634,-2.38577157011414
1540,-0.6514081525960937,0.8756197781923883,0.7511053456465062,1.1227360665078145,1.3606420264399108,0.8838532201207032
1550,-0.6809608229248427,0.8391913325375877,0.718660292721765,1.5723809449395645,1.4040894417613536,1.8197110175579492
1560,-0.6595125153808443,0.8568472533938928,0.7370428159343578,-0.6359510910001795,-0.9742531765645625,0.17074866245346354
1570,-0.6914240305929139,0.8306540236228123,0.7081941531990831,-0.5510910083814236,-0.7496585933170214,0.19080988659360087
1580,-0.6416203967864083,0.8896894345724339,0.7546591258634506,-1.4524316596471767,-1.3152056260009344,-1.5481818951785071
