time_ms,ax,ay,az,gx,gy,gz
0,-0.8608006590544567,0.45641784285404446,0.28724881564328186,0.3273794209762678,-0.3532058762239787,0.5267511200472434
10,-0.8674588240861272,0.4494568788947241,0.28798394176095005,-2.2223883743364112,-2.9423679649556633,-3.2313424937336714
20,-0.8542884594648723,0.44502467700551396,0.291569607435135,-2.013403877069119,-1.950438535745862,-3.458126979472301
30,-0.8839007670328959,0.4265691520707939,0.27235806402939267,1.037151792973558,-0.16639316762299233,0.14852902823783845
40,-0.8636315067806501,0.4423302980464219,0.2888843644766366,0.7891917408242061,-0.8153680986766564,-0.37926160170001516
50,-0.8463102155566947,0.46009570299196845,0.303781666628249,1.4210071246455276,1.1349907369776924,1.1448102401766833
60,-0.8619558357209463,0.450700987564769,0.29515719564082904,1.4988163760538442,1.7342826467306738,0.7317030621022865
70,-0.8480668202760441,0.46489859826775803,0.3115044185922973,-0.6928421300508887,-0.3416798423452221,-1.3546207858114538
80,-0.8662926394533303,0.4466936033505609,0.2896212251515623,-1.6272455943453048,-1.1659633738835817,-1.9212562923508347
90,-0.8819127040852984,0.4272931956662684,0.2707128116774245,0.6002461745698512,1.131762281448296,-0.059930137118649585
100,-0.8759071546652338,0.4292937516114613,0.27552361675183146,1.1505581325638805,0.866895355957854,0.299508619620358
110,-0.8931910868508233,0.4142330582569924,0.26147394196794566,2.662804517213869,1.8387067014846845,1.8048762330057373
120,-0.8591363317493559,0.45268153160486163,0.2964593597441524,-0.4163055891702667,-1.330219870571861,-1.6664137790836409
130,-0.849300839121815,0.4577687177356305,0.3017564256975162,0.14853542331655498,-0.24030743770410803,-0.47566533956384227
140,-0.8855903840601222,0.4198129391076446,0.2687840178217893,2.720141836634396,3.078651293803917,3.4458103842370846
150,-0.8874932700109603,0.42414686569459703,0.2691022026981722,-1.310959749764952,-0.7274049627906828,-0.5230638072170617
160,-0.8559622643132035,0.4552804617291129,0.29711952230516947,0.22022540147710307,0.13496739194171958,0.9045814376736238
170,-0.8535006104641121,0.45827387476202874,0.3031933635288767,4.26782647359331,3.8614857272983723,4.4257061204807435
180,-0.8725153650152255,0.43301961799267913,0.2740662549914781,2.878541471141652,1.1047197882806878,2.9069705161345203
190,-0.8938383810464989,0.4086770201111649,0.32629424930114553,-1.4314184323507235,-2.3248193409100106,7.916020415665496
200,-0.9359420743249174,0.3552814361168087,0.6087523011251236,6.553884259701237,-25.346407115608315,11.28233278583444
210,-0.9495567284486309,0.434308723440635,0.309388175026298,18.147896148726247,-45.11697291411447,6.085044195952092
220,-1.1534125974697973,0.3289209231463659,0.5418802587086619,22.569298234863016,-67.33802267985497,-5.647142266678604
230,-0.9774178422781212,0.31773655125047745,0.46012930508711997,32.31223806274882,-103.49218454982075,1.535797002604883
240,-0.7742483954783215,0.31137025345940034,0.3151610961801279,38.89125268170393,-108.56095470891208,-4.349788016874887
250,-0.6992991236598647,0.3597826197225675,0.3248840741801907,47.899530755694805,-79.09357522462776,-5.751880570841613
260,-0.6753006459560186,0.42873352461862285,0.3216149436348563,51.52494009498871,-52.13461393995928,-8.813121152193553
270,-0.7235901377804689,0.5018786634389059,0.3645803537354045,48.18528713443714,-24.597762050640686,-6.007213044136692
280,-0.6037143305435401,0.3687226475714817,0.5783928675019132,61.817929747047444,-5.458013569079028,4.320995839878974
290,-0.9055871143148113,0.477396583846311,0.5080623767114149,73.96632532075427,9.017470893366593,-27.313011900872027
300,-0.8227255122630207,0.5860501330440848,0.3946950659366056,58.71428495086434,-13.473611390332305,1.187291426656128
310,-0.7848011222167475,0.5313704300820129,0.3465612288485315,40.0678186479357,-3.1035975766719117,12.005433637842883
320,-0.8577815910078855,0.5269152400708861,0.4273626079715508,28.71285047502583,6.811764489672058,3.34942393565153
330,-0.8996636269876341,0.5557286157877803,0.4663865326116702,23.46245530363758,5.662457893891211,1.071849908759238
340,-0.9056675985609112,0.5497383067160958,0.46219545774422854,22.66268057319391,-0.013996196982852482,4.959264081451884
350,-0.8319898557747197,0.504752816822568,0.3882523184966825,21.89870450853061,0.7919508086954792,9.508038931206354
360,-0.951322482142056,0.5213871070184243,0.5244954339574487,0.030340584807516002,15.261083320327318,13.130243069815641
370,-0.9474223666723663,0.5106451220635433,0.5253004244769941,-5.19538514429279,-3.5458364155180524,24.386596281743252
380,-0.7860175138042691,0.38413992368894834,0.44779585339810307,-4.301260222983013,6.879009337949823,19.99160718915441
390,-0.9227499093685819,0.4912626624895772,0.49303000332323377,4.416566524585522,-1.9460630469195257,17.06533914040836
400,-0.789015309585376,0.47943554156437485,0.44142720542103003,13.844572745158898,-8.595927222735016,25.92394937424809
410,-0.9368141492748039,0.4555873368770197,0.5145528300586028,13.584032586734613,-5.764697680859223,16.259178200988437
420,-0.8307061358265201,0.5725512051716519,0.5383639305371265,7.331254342366674,-6.53595870884351,12.225498254892084
430,-0.85091382531863,0.5846841227809494,0.5709547533404404,2.3454265899968036,-13.069422871165077,5.548988111907695
440,-0.8201030312569819,0.5482223779042562,0.5084361185569443,2.3168968817936832,-13.494092392616798,5.177120636619219
450,-0.8238578638550759,0.5051090617170302,0.488694937049463,-2.84066268704904,-12.346652782492761,-0.12009398024286089
460,-0.8212182189804467,0.4602505767599007,0.48023490867658264,-2.5876665153911977,-5.859248554528627,1.3288176303930037
470,-0.8201888340248511,0.5106458526280265,0.4149729235920832,7.376034951230556,22.843757725643744,-0.24034789119790012
480,-0.8979824039834308,0.5720692714094321,0.4878128206558139,24.30825885090309,32.775046937268066,5.88080328240611
490,-0.9052721931191715,0.5418549046773485,0.47478511348758373,26.495524884484336,19.999303706189504,0.4209262295358944
500,-0.8414004053373738,0.5849063736239731,0.43144896838251895,16.881656885868445,17.667111535166995,-4.286259293954579
510,-0.8419782418693522,0.6620016803122909,0.432400100506024,10.529347894776793,13.488066443928684,-3.9730032999161926
520,-0.8611061657707852,0.5985741039087518,0.4210243087235821,10.243883600550472,15.167584418963644,2.131840447988239
530,-0.8630715476393359,0.5625880351968195,0.4574685723069088,15.784817501097677,-9.7908078612151,10.042675413276765
540,-0.8775514427559944,0.521087420384753,0.42607119238704355,14.239095965254382,-14.40887836221211,3.9029230054813744
550,-0.8691918625671353,0.5613131731864778,0.44719228122236543,8.947067539640814,-15.906437541862129,-2.3699208712464435
560,-0.8815545682517374,0.5625641400163253,0.4382833525906804,-1.294196431242788,-15.209130686696119,-14.89991306644802
570,-0.8737406663563355,0.669400273893684,0.4159400214938087,-12.614639610437301,-14.020412789845688,-18.991732795061765
580,-0.8726433627956759,0.7532767825020618,0.6669193789129354,-35.617473965574135,4.268823485881457,-0.2811354140877862
590,-0.8547569724014765,0.36341781065409107,0.7542362554717159,-52.79401255653995,37.95046081596622,24.340396472510665
600,-0.7173456047746599,0.628503286171491,-0.13649463349232516,-43.737848953217636,32.85006612464444,29.817703483823962
610,-0.6869889296455922,0.7354324921977076,-0.32528506788974687,-14.001815546861447,35.13528409378083,29.767226830485587
620,-0.8084592607398766,0.4699115801356469,0.2673136696549759,-16.038920951293978,37.26246412891646,21.080992986672836
630,-0.8229919553810282,0.4698465733488553,0.6264168232341182,4.011829179214175,28.64144142530491,22.991548437321274
640,-0.6718434970317522,0.47207317952489697,0.09397838552299531,12.664213209557639,20.726805180728434,-3.4664660349376435
650,-0.9902516859101455,1.091997391047961,0.32825782607011367,53.81367954710524,19.469557266868428,-13.502151572368883
660,-0.7296019683908336,0.24596672957456617,0.14728862768568696,56.605571775003206,3.058242134406862,-40.28168299677866
670,-1.068813448434635,0.607730675162176,0.4265633029700624,84.18626005648048,-2.174444230199489,-43.253232104970905
680,-0.5164076947444347,0.9831523555677543,0.31564206751187446,18.040256081516254,-0.9908699414533227,-21.195020192217196
690,-0.6698575599914037,0.17115867025094011,0.4592797636990885,7.098099486627387,12.265739120482182,-51.23333911764964
700,-0.8751589197955494,0.5281476757583716,0.41045303013658974,-3.7721315995048394,-0.14784915300161744,-14.173386900406081
710,-0.8607277111884939,0.5211179929278293,0.4117318416933286,-14.184865578436192,-5.546610505426062,-17.310604459474682
720,-0.8703365140312272,0.49253813213298997,0.4087789894480698,-11.575718460009373,-3.6800593596547264,-12.11288104503228
730,-0.8570386489621242,0.4948424084894242,0.42159122667896165,-9.96775563168399,-2.323272723513085,-6.751151218645315
740,-0.8896542815168613,0.4625275338466203,0.38881312665142254,-7.315194333437104,-2.335327931423886,-2.479483907975192
750,-0.8735880216802955,0.4890029085586115,0.4127397718796283,-1.799342958293236,2.487028978439242,1.1765924083987667
760,-0.844441996788928,0.5205437494465277,0.4372305186210987,-3.8562552714074476,-0.044093233437754176,-5.7453919041311305
770,-0.8657818532360316,0.49056170141837585,0.4130961367748645,-2.7301788025100104,1.2259681352457779,-5.646197295696551
780,-0.8554865462778595,0.49612665322735505,0.42114813092838255,-0.49681361880800035,3.4586457745058135,-3.2398182460234937
790,-0.8549058419517551,0.4948856466134309,0.4248822658705833,-2.4756343906589775,-0.022220675930484872,-4.512457569765695
800,-0.8660748874391185,0.48673514314894817,0.4109349210958305,-0.69591638151145,-0.9168051423761381,-2.475079371851964
810,-0.8507805396935704,0.49885418502810247,0.42377411043495883,-2.9830519539549316,-1.4265259293952004,-5.561281623477914
820,-0.8401420364874711,0.4987847475593087,0.4329633491496503,-0.20733112396370101,1.9309650524602882,-1.6724716861370457
830,-0.8606905488178328,0.4829729993563243,0.4175718437983463,-2.8463538403376396,-0.7633051134674745,-2.4415486687211443
840,-0.8579221974482356,0.4869609451870478,0.42095081680355695,0.2691364656045714,1.3013770720013655,1.197430792252606
850,-0.8726730429561322,0.4712152700169048,0.40340337134578175,-0.8690801734531864,-0.5834407375258548,-0.40019245069297577
860,-0.8766660563407193,0.48137393853382454,0.39888987969651263,0.8957715168322937,1.1301047918437284,1.1283780471975775
870,-0.8248492933920942,0.5239601352101805,0.454605567595688,1.0425580578619478,4.03833394815698,1.4034150142094228
880,-0.8611694868382255,0.48000427946009744,0.41428291912127085,-1.1919212160228008,0.16308252767285136,-0.9056600650450004
890,-0.8837214361122337,0.4644760440870047,0.3973555607191892,-1.8234739243566458,-2.047369874148985,-1.6629045568928247
900,-0.8710795126499135,0.4771614651288662,0.4125219900748572,0.5576210254450844,-0.9416265892311839,0.08561019641182677
910,-0.8614083958615265,0.48903491375543434,0.41784982600756265,1.677588846575345,0.3789432017638855,0.9796015222415934
920,-0.8336645137172285,0.5143876012939796,0.43948031484084826,3.82603704118421,3.5717607757025185,2.3023359323194335
930,-0.8662863674981204,0.4753948823732514,0.4057281015145394,-1.7587140554265754,-1.7434697667486003,-4.07970843884844
940,-0.8743307271258746,0.4684676362906554,0.40437282863924695,0.6757781213624773,-0.02980239453605782,-0.5716841448537678
950,-0.8584851552251939,0.48318410617928675,0.41865514590158553,0.0024211227878009334,-1.0255375346863325,-0.23950237880561137
960,-0.8486059549223054,0.4923229269107406,0.4289008104818758,1.232580142116502,-0.17105757035596017,1.2508629388577952
970,-0.86707358093107,0.47422077765041376,0.40763169086512335,4.195249649339512,1.8577253672248835,3.4868257693165488
980,-0.8700422666163246,0.4757957200448413,0.407479752891649,-0.6150699656202883,-1.098490738647818,-3.352554832064221
990,-0.840026118554715,0.5074246870554637,0.441197405089975,3.088754816089118,2.699086427537538,0.07674080304573083
1000,-0.8349804880552747,0.5009725811149686,0.43520572402942886,-0.08606618978103042,-0.20599128865063676,-0.9811149801262689
1010,-0.874209256260066,0.4644497469900044,0.39881363857968527,3.8008857174203676,2.652330452591353,4.799202178118087
1020,-0.8646010477760155,0.47929525957291746,0.4092378217064568,2.394812342757966,-0.8221596397767803,3.502657517843053
1030,-0.8726377149671597,0.4779920786625151,0.4056540746767296,0.5413739289419661,-1.6548509464062042,0.2065358907592585
1040,-0.8611780784035568,0.4884275813836713,0.4161127704790053,0.35123255358372174,1.9582001500566713,-1.5545692675924188
1050,-0.8722149086212595,0.47400305127510356,0.4025338764021994,-0.13417867730545463,2.4767226976277827,0.20795066310196253
1060,-0.8523678090092761,0.48929322145604304,0.4191277164619509,1.3392223279368545,3.190969767014593,3.5708623677170293
1070,-0.8451649163207645,0.5018662927053569,0.4274989503087275,1.0398824554012829,1.4027936999805357,3.4991033264876323
1080,-0.874508264027333,0.4754700889542784,0.4002893544970774,-0.3704167196726864,-1.1522751380102705,0.7731358159771347
1090,-0.8733760078626608,0.47927283250566544,0.40375806242072837,0.03693887495295567,-0.13311163208355764,-0.7053355348373747
1100,-0.8619921252097192,0.48205907531394043,0.411556776154546,-0.6690070174438214,-0.6379337463829853,-1.6977005676904149
1110,-0.8657975376465596,0.47740454239255825,0.4109176035098136,3.0210717610720526,2.565474398132184,2.570319094685332
1120,-0.8497502738103696,0.4931747570032914,0.42929807407837756,1.5663208225533745,-0.0659247598676308,1.3597467662306126
1130,-0.8682641328840299,0.4786010798468104,0.4108320766145224,1.2284860118322234,-1.2553690145153407,0.6988355306206262
1140,-0.8683735738285089,0.4845891905937102,0.415632095230339,6.212729859326832,3.6649847330886303,5.673895923882578
1150,-0.8843392405377022,0.4682383774637774,0.3984978333527614,0.5305418679021295,0.9605627723522633,-2.0053810208439184
1160,-0.8577089222289034,0.4886182493101536,0.4218682352639042,-3.3183438576484914,-2.1698221374896063,-6.426798982292162
1170,-0.8675106173458215,0.47351133226300707,0.4045578908368881,0.9627941758111938,0.4861597783182272,-1.1260754475978718
1180,-0.8764107558835865,0.46784909334782826,0.4077287012530103,-0.46406033907796,-1.6871539560647757,-1.5281682941357695
1190,-0.8518659935957434,0.48925207599983617,0.4223045496471852,2.5283505606647934,0.3036129796441366,2.3685004207523948
1200,-0.8759621959608747,0.47465297301302223,0.39831045916903407,1.796277032794445,0.6524180603275125,1.7640237042078384
1210,-0.8871614033308415,0.45755263319999934,0.39290071482683386,-0.03585893880502161,0.9856657000168978,-1.0482238400464596
1220,-0.8734120963748913,0.4634570985940199,0.40697208712770044,3.7585352671840973,2.451188878935651,3.4213525759662744
1230,-0.8622622264400597,0.4774137476147413,0.41381579362437715,-0.04146971483062467,-1.6868381041239047,-0.3183458500228058
1240,-0.8427010870395338,0.5022989188601195,0.4273195889730183,0.21602488715513646,-2.0266294061881327,0.10669222983914661
1250,-0.849252643072954,0.5035796064571295,0.4254179952999268,3.0473783812799016,0.9443265753123762,2.8121834869662408
1260,-0.8721931467378005,0.4782448987128557,0.4001711056546503,1.5403262287642536,0.8060451677500406,0.26847725674183065
1270,-0.8756210362983782,0.46748845000085903,0.40259850465022795,-2.75436716967119,-1.4753850464055307,-4.550283272263535
1280,-0.8575129356928662,0.48007592224539286,0.41795118836075046,0.23378661449875904,1.2141283652480237,-0.19346896393362534
1290,-0.8293410414862216,0.5082980793993499,0.44402558721525376,-3.456112561133032,-3.0845066752617862,-2.7097777330394566
1300,-0.8485708211771638,0.49608848638078773,0.4308023339801837,0.8473797932322248,0.04760290244807791,1.5334165979343863
1310,-0.8794331155550023,0.4721439925388067,0.400607297677684,5.069597861229639,3.4561489899320907,4.8413369064914145
1320,-0.8358551140379523,0.5088863958987675,0.4382138678420434,-0.33008054696467104,-0.996281378762544,-1.4570962866498949
1330,-0.8708072223568749,0.4743157400979672,0.39986237477714837,-0.309334785585359,-0.7725677621012492,-1.8828236979841422
1340,-0.8707715481482208,0.4768816579757969,0.4026790238413132,1.1079526229086165,0.5708573025352219,0.07704405768038491
1350,-0.8664051560655333,0.4818310337967668,0.40813405185668405,1.0943887554022667,-0.35796553343534354,0.4185868612099701
1360,-0.8499653414460642,0.4912215970320236,0.4180010303816308,-2.0510438404866846,-3.8429580418015017,-3.1347912587616236
1370,-0.8412941904350396,0.5099270173336098,0.43566531272587006,-1.095273108005133,-0.8156697148377238,-2.3991805369657797
1380,-0.8780424423309066,0.4654807006650865,0.39355481048233154,-1.1557013516289139,0.16161878380530237,-0.9367908760247962
1390,-0.8448723616525137,0.49542233139282815,0.43163750113898025,1.6296039706824654,2.5220449951694035,2.541343440687866
1400,-0.8247186763706205,0.5202583663093798,0.4503434078877002,3.0911461155555005,3.625915079369971,3.622778072644321
1410,-0.8506328197764885,0.49614655527458446,0.42610232605050974,-1.6470921944228665,-1.730655295140444,-1.562434846753045
1420,-0.8607689904826566,0.4783508254607526,0.4131815146258793,0.9047253359032068,1.2015706721149542,0.7376181636573308
1430,-0.8471826786311601,0.49415751529801394,0.42241268596501697,-0.43687011249857655,-0.2973342438023887,-0.7737150123567923
1440,-0.859027331811442,0.4879902629115495,0.41407014327387126,-4.985489543922773,-3.696151968705644,-5.342351944410979
1450,-0.8718630356262641,0.46795144048947757,0.4035768887968384,-0.8887980656195065,0.3995793375397072,-0.9805161957342539
1460,-0.8287050156625602,0.5039199506842522,0.44767020862461276,1.0814688959710945,0.6408062785697765,1.483249900896745
1470,-0.8594644207297256,0.47951348499649477,0.4129429460602826,0.9282598858639441,-1.8029924325157727,1.0046067884592542
1480,-0.8777289880659981,0.4738196658803988,0.39824713819537333,1.205141667182125,-0.9942646709292106,-0.25231055114049394
1490,-0.8648853396601701,0.4786585513830788,0.4109371901444594,-2.3153805484641072,-1.9932810241169712,-3.870576882457453
1500,-0.841145491812182,0.4940779876173115,0.431295314389924,-1.1267636250825273,-0.21098647330249015,-1.1160163905212244
1510,-0.8579299701193147,0.4757594338594572,0.4124678244719974,-2.048006307035478,-1.2916825739228017,-0.7377761644601779
1520,-0.8607583173440915,0.47766779706968165,0.4160868825293621,-1.5317751059711084,-2.0881212460261027,-0.0022359181262938677
1530,-0.8612454907955558,0.48529957628023634,0.41875340355351126,0.8536790824478656,-0.15391794651893104,1.8919395437137143
1540,-0.8750201264223041,0.47335862102915427,0.3985688728109924,1.3284785887192498,1.185097947480537,1.3535550036168957
1550,-0.8481721984569409,0.4887045109775174,0.42499647561603887,0.8132037419825011,0.859726358039915,0.5395563660502677
