time_ms,ax,ay,az,gx,gy,gz
0,-0.5512232560783822,0.6426148574572421,0.7167432497907387,-0.7033001244168615,-0.8302000246078922,-0.8040024645643906
10,-0.5482812254457737,0.6480328773068443,0.7162101986821734,-0.88892319173322,-0.5423516782374456,-0.30563723165691237
20,-0.5273655217771718,0.668833571377708,0.735624921744664,-2.2358150151804814,-1.4508833167257151,-1.0956014351126342
30,-0.5359597708515697,0.6569680777084782,0.7271930145114727,-1.5172554343102744,-0.5234825368832263,-0.870637332103744
40,-0.5442416585794814,0.6502658151202292,0.71841780806268,0.46098649529397706,0.8507253415092121,0.6480917699348094
50,-0.5458196717481949,0.6533195649205035,0.7209212998228888,1.2828012874183645,1.7157421342003711,1.374017124667416
60,-0.5842096431185879,0.618308086959756,0.6888616675820317,1.0329167626698776,1.2877806733922954,0.9937929855990368
70,-0.5515041821454445,0.6533897900075895,0.7142215999967756,1.89336486649243,2.4423860906848534,1.6683066485053535
80,-0.5453171681817367,0.6521003483992476,0.7213309016277656,-2.0268041810711717,-1.4554764565464426,-2.0235468200035007
90,-0.5459668138641484,0.6461394778134673,0.7247062477229014,0.6553935863299619,0.4236546873020232,0.7045712089237081
100,-0.5665855235448223,0.6297646466423975,0.7053191296260456,0.25060178675222566,-0.14431560971993784,0.14258303273312634
110,-0.5606794537234356,0.6407778898033114,0.714500566127533,2.4793459743407342,3.688043422718429,3.7776525764625366
120,-0.5705210116742947,0.6406514943668516,0.7041195009648289,-5.546822483469623,-2.1167679167789513,-2.2886465670035356
130,-0.5705509097930029,0.638100651849638,0.7163014604330709,-5.552411783826553,-1.931589040817966,-1.79835539601176
140,-0.5773322115007293,0.6159696018170343,0.8048120761041121,11.702027699596087,-22.60263630757761,-1.3338927618328045
150,-0.5489284599192885,0.590085211895923,0.7205928174336362,10.25936815865914,-32.31243963408856,-5.494557429116307
160,-0.5189177524912062,0.5586051022669041,0.6466897907964163,5.8277662467777915,-23.80999153897773,-7.731876345869762
170,-0.49899675651517444,0.5886531591959078,0.7293431808141274,3.120724203111102,-19.818193505178282,-9.477260150475532
180,-0.5336031622424029,0.6008616055330464,0.7235882568213139,-0.2603620871915573,-22.51757931613065,-12.48079314180382
190,-0.4945079098086335,0.6530761074502752,0.7350199230653808,10.636748826486548,-14.135813841072148,-13.961251743881483
200,-0.5092631168181293,0.6690954974352985,0.7285587895623702,13.795223159711655,-10.95875994166435,-9.972319004700962
210,-0.4985610547648246,0.7153995991020493,0.7339434695873253,8.275166011662675,-9.41533154040659,-10.07154843844879
220,-0.5255001425973145,0.6736503157447582,0.724934384027712,0.2999108706395365,-3.3926638928947868,-8.49871262299645
230,-0.5241780950416741,0.6352215045043512,0.736472021618716,-0.11846700951936917,1.2840212585948756,-7.842845218748755
240,-0.5496796563678785,0.5820251463911186,0.7425346180087662,-0.7429920319683614,-2.6537806976694442,-12.406002078941407
250,-0.5407578371792725,0.6179692241246185,0.7652961195666411,9.204615687316025,-2.5374871080001764,-8.831092693553146
260,-0.5499942821814268,0.6036788443040744,0.7391551363208141,14.167366682529833,-3.8837736642493548,-8.186804321038057
270,-0.5332980519372468,0.6201623455886996,0.7472632497103741,12.237759635457374,-5.318402838284948,-10.28660692307583
280,-0.5260265887528246,0.6388420626349849,0.7314356901029926,6.387089768616153,-5.528529324563467,-11.249061473997763
290,-0.5229806830946432,0.6685799759010811,0.747428832818371,-0.07427969426179049,1.1419067840752057,-5.096397595414515
300,-0.5694946321235063,0.6216960831473936,0.7310364346466984,-7.278481197112989,-3.920905725483557,-2.3841502522898264
310,-0.5625724191718979,0.5782479346936558,0.7532808142645256,-7.800670500520413,-3.7713474474502537,-2.1257269913384857
320,-0.505186027755494,0.6181863163970903,0.7922251141613711,-0.5519671029157514,-4.06209720844897,-0.8891073356849515
330,-0.5132040293560522,0.5917887654108487,0.8186211199524139,-3.5968986306140827,-7.0776847451105125,-3.2016064531825146
340,-0.5433921384699654,0.6845785369034315,0.7167765497498633,-3.7421198962018263,-0.033763766878708856,10.080390530563042
350,-0.6397360367991698,0.5936852930302678,0.6485724102853399,-19.332154827312625,9.187025132345408,18.774106941978573
360,-0.5906733940397532,0.5841350688308734,0.69999677671037,-14.419004281729677,7.132636146191275,8.019685279310595
370,-0.6160114693348329,0.49438112889626945,0.6104010429050248,-8.205152614133457,19.942598034961385,14.357469642660925
380,-0.7403636530676211,0.5233087154406764,0.5206896337771814,-21.005544281016064,22.862398222174267,23.440034815688495
390,-0.5352828307129761,0.5123550802894671,0.7615388791933674,-8.142257902510964,18.955264076228673,9.745105241169094
400,-0.5634621766109104,0.45596147931028846,0.8387769971814284,-17.6443446683448,25.47758287562041,12.501329120096102
410,-0.5798651737108049,0.5213451445282519,0.7662004444936763,-9.147614091865009,23.553493531659914,7.515795883985476
420,-0.5602034595544553,0.5322172688936162,0.7458185433115301,-11.642709148871358,15.426293712984574,5.020009968608417
430,-0.5642532646905458,0.4978936769587266,0.8365001064854125,-9.496891921651372,16.387183858162466,8.476640627287825
440,-0.5324617408604261,0.607120733515285,0.713169329197481,-5.035460801102881,13.051641130951507,6.705503941905017
450,-0.5461885420568083,0.5876416662141525,0.7299368418308899,0.6467075376215636,3.9148964944188087,2.404897158867014
460,-0.5920146582578512,0.5910282326520694,0.6809723564113789,10.184003008528624,11.992813500136567,0.7638810487962067
470,-0.575571666623089,0.5807720840902363,0.6574915404381249,12.870037876452148,10.150601660189679,-0.49029809695700144
480,-0.5266201181524021,0.640117487720616,0.7374037387051614,12.941582392441276,5.195078833303709,-3.095883553451522
490,-0.5792317419259203,0.5023635269346169,0.700403128047089,6.387987770096775,3.688419794403303,-7.177147633425414
500,-0.5742467851971224,0.705414818667881,0.7258543721850432,8.43000649590166,-0.9799475243264923,-0.9594915872829832
510,-0.5266316059194288,0.8807352437687821,0.7175346837493224,19.03962188486022,4.11873781642844,-9.853646331952236
520,-0.4996709440151639,0.7041056638599713,0.7046831313379679,7.059354707480999,-1.2484714467525453,-16.789414270514857
530,-0.5704741069945392,0.5596317643825042,0.7142042788421984,-0.8800138655888139,2.7305669190184307,-4.277571043187828
540,-0.5416457629054511,0.5563513808801112,0.7320254313295324,-9.739694838193355,-4.2317664415171246,-14.73256505067663
550,-0.5466513718099397,0.6666923633098806,0.7255329442448142,-0.5538270328605366,-0.48201811848761056,-2.98003541221355
560,-0.5741107714742567,0.6158954315784996,0.6928253984013404,-4.428874076351705,-1.1041713666729391,-1.7945522397175937
570,-0.5487119789757525,0.6349744713725696,0.7194591346128308,-3.839353529823531,-1.0988807747731726,-0.931030833148619
580,-0.5309117001529962,0.6432098104118644,0.7328735214207838,-3.6202366685975123,-2.2964352389425713,-1.2707543023409975
590,-0.5710446532504367,0.6045801704152347,0.6961280368072265,-1.4824972349413787,-0.3416070418063253,0.19413527706276223
600,-0.5541640510149322,0.6235154724054762,0.71045651096036,-1.059470528159265,-0.20469328897029265,0.40262274132904985
610,-0.5691214172540329,0.6136901015205065,0.697991932884315,-3.9206660839422036,-2.710996240855003,-2.453414056968274
620,-0.5355841681933734,0.6486103882274834,0.7314632615073401,-6.2277185530484696,-4.089760918669823,-4.811329199472702
630,-0.5616904765661843,0.6168086332597743,0.7104327912712324,-5.933445920888822,-3.5715068443215876,-4.298133248822772
640,-0.5414649583068866,0.6297699073958795,0.7218857710970544,-1.1275101017936278,0.413186773844626,0.6654713133340318
650,-0.5622169066882811,0.6108714428948478,0.7061460047894853,2.2950857052728173,3.460383523492157,3.6009602706936494
660,-0.5275059983957023,0.6539445088230726,0.7406959000308646,-2.9004696380357267,-1.4657933090397286,-2.3837884668243774
670,-0.5375707309619573,0.641950711304811,0.7364397038312349,-4.5162066018587605,-2.3984603113745044,-3.3736102948468645
680,-0.5357960737448096,0.6380317722936198,0.7344699193253196,-2.5555630968654057,-1.0783697698694152,-1.4648921664498478
690,-0.5427441295144532,0.6311052341106672,0.7266000938980126,3.7407904500812066,4.62065518250942,4.417580143029022
700,-0.569101712768825,0.6012676902254496,0.6981734440840415,1.328704091506453,1.5888223359619964,2.0419366037397233
710,-0.562183071653695,0.6162765068393031,0.7089917119279032,-3.7070189526721076,-2.130114450402742,-2.4741339504483255
720,-0.5545226118091742,0.6204964113719951,0.7178371769198717,-1.9288580459083324,-1.3838191112091267,-0.8688277485526315
730,-0.5253370726025001,0.6467310627409979,0.7462604801075285,-2.41650988163771,-2.1188194570791508,-1.6429703910522997
740,-0.5339083869893889,0.6411250328730677,0.7385783394523282,-2.2664846103326717,-1.8831955536795,-1.68520722364586
750,-0.5762587164099802,0.5946765118977564,0.6927717084717705,-0.5449639123836909,0.31161417765314287,-0.04460241354385894
760,-0.5247605526572895,0.6532819210651338,0.74322508124919,-1.0378776418369022,-0.2540263914786924,-0.7609332856320684
770,-0.5444028727660247,0.6293049766907144,0.7184029951345822,-2.9533716763519053,-2.1771145998107446,-2.4470824629138135
780,-0.5564091791128962,0.616092373956731,0.7123930459561886,-0.5834367123309274,0.7412907729433995,0.7394361920644494
790,-0.5253767595469854,0.6458720893287947,0.740044962444643,-2.3707314934623662,-1.154552775232598,-0.6404149774009512
800,-0.566336928283945,0.6011729881520232,0.699812758928475,-3.533759386301953,-2.9218778797364675,-2.0926464868617183
810,-0.5409447446593452,0.6307795594197069,0.7282281057138423,-1.1356012315063932,-0.5659121861979075,-1.2945509219661613
820,-0.547686564591671,0.6225575432631524,0.7158699578531937,-1.3954315548510938,-0.2183593047745209,-1.2354430580531732
830,-0.5391685253654217,0.6262842333888758,0.7252861392174311,-1.7844590090610248,-1.39177943540439,-1.3229227474579686
840,-0.5396829524672015,0.6302618990346467,0.7283293872375131,0.9181494567831426,1.061357099661425,1.1823144839959268
850,-0.5503607065506488,0.618543396907229,0.7185699279080854,-0.3516342843250029,-0.22449217716240377,0.543733896579367
860,-0.5654167471089331,0.6088271843533821,0.7041103250613594,-0.8413929880881749,-0.9532075357967055,-0.8271887565183312
870,-0.5700310615913813,0.6055441253438745,0.7003173660477291,2.0759454949920353,1.3944176537193695,1.2819859672585527
880,-0.5433701361265738,0.6330858452018933,0.7258440422834418,-2.563190655930793,-2.0321810158100018,-2.28411435866028
890,-0.5589817134931505,0.612702299477392,0.7113649218501413,2.346714317303788,3.3100069606329177,3.097781382118282
