time_ms,ax,ay,az,gx,gy,gz
0,-0.5717740480608805,0.9077083300375173,0.8580979452690477,2.171977000592882,0.22216514182296399,0.5511047836650927
10,-0.5863088926750563,0.8975379114074866,0.8388379203984455,1.744595584143943,0.4636939828221225,0.9305438841750469
20,-0.5659723793758193,0.9270166441900072,0.8607909685092112,-0.018243560998761427,0.44324703153995443,0.2739023885516995
30,-0.5648898380812408,0.9264289747943367,0.8703347335954356,0.23343652025895845,1.0585282424651061,1.0991989640482303
40,-0.566176839514431,0.9278120828834618,0.8693332088263258,0.30982740564785055,0.5980294682818171,0.43988324865317685
50,-0.5708255178979537,0.925454653530072,0.8551306467406976,2.465620375999894,2.498760458444444,1.9361081787349999
60,-0.5510292573045042,0.94044006153906,0.8696282954566098,-1.938005994681729,-0.5154396091927032,-1.585224422974926
70,-0.5685790289592215,0.9186800906098761,0.8600485185311493,-3.949487744756497,-0.06661143190299318,-1.9158834236304758
80,-0.5915002014695224,0.9006006574353723,0.8437623507729435,-1.8288737573910898,2.001665602080611,0.3270505561228938
90,-0.5625744986625724,0.9214160402334055,0.8713877189538595,-5.268456565344334,-2.059504488676667,-2.8368662185259663
100,-0.5590888881861056,0.9203351551895007,0.8755071875324336,0.6024386579424503,1.0398678108574821,0.9382154590818212
110,-0.5946998749784753,0.8998200153701235,0.8484862542646839,7.784678086501882,0.9975178052019333,1.912032132189244
120,-0.5978004133052613,0.904748425917236,0.8586228792966722,13.28112082374497,3.0494440483150607,4.873652739806731
130,-0.6157297965156197,0.9237233705289531,0.9067848468020654,15.542796598280503,0.4586301398578947,3.4716114016906
140,-0.6168487082845444,0.9523321908156702,0.9722105574679979,7.730795181745251,-14.189267420256437,3.024123268315014
150,-0.6267308932174231,0.9573660433781384,1.0496895633338503,4.936225518629769,-29.392356928997263,11.812262765812433
160,-0.6583001287153568,0.9248275718811968,1.1479443386074597,16.81833100982542,-38.144950502825075,20.02652195588031
170,-0.6064473273398052,0.8925987024682309,1.1265475387014097,11.97678305609901,-54.299144913843605,8.444985610745738
180,-0.41304036379138187,1.1620128243965975,0.7315501408140008,-27.76908846338498,-53.45714853741141,-31.17002061219814
190,-0.4148350177367352,1.144282941438899,0.8275648728995141,-21.178126862781816,-45.22189719239839,-13.91133214253333
200,-0.3112611179665271,1.1482810646678712,0.6965203198065164,-4.396758234810364,-30.102653076306414,5.913694315661736
210,-0.29886327207989916,1.0160101865367104,0.7537651755379091,-7.661652981921381,-15.861406534111055,6.07049844398351
220,-0.3676370766844026,0.8823606569048348,0.7838757756273225,-16.87167224229856,-7.576584533518517,-6.556563868404135
230,-0.4234835783682015,0.8533227690003228,0.775231291313905,-18.97561105769884,2.6033177511131975,-17.27618358105879
240,-0.5005165788775404,0.7732187411582742,0.800777909672217,-16.353871634951766,17.647123312262774,-32.756004734350654
250,-0.5726841867328557,0.6205235310093076,0.9166990257299731,-7.706848609331848,34.43336721441647,-52.6955198317975
260,-0.6242569884586424,0.6372306590515306,1.0046094725948167,1.3204005937086343,27.56636796836327,-60.33114306626517
270,-0.893212724116488,0.7577194182258973,1.3324062750271821,16.171269766942284,-2.2702395715205714,-62.43035904958427
280,-0.7380584005389011,0.8463094534980873,0.9763840041072612,39.32509301391253,-10.29633187314986,-42.90571616484601
290,-0.6395171829387141,0.9016030399635676,0.7930637351389487,44.808786822428964,-6.6197023666142,-36.25319480190756
300,-0.6938258843845563,0.9487650102431601,0.8308492254067869,19.028045764427954,-4.113881292283692,-32.86171625474487
310,-0.6416492245663457,0.9845451032079421,0.918530587051974,-25.3367711025397,-11.615279056243487,-31.14619594875725
320,-0.577192610950722,0.9725707290704529,0.9216907331352902,-61.91074368804196,-18.56919732466638,-30.24074926019881
330,-0.6317865607205918,0.971590924656891,0.8194761192092219,-91.94259599393605,-20.055952373636952,-23.054245056858328
340,-0.6628772483975711,1.1503496259785584,0.7206617364355263,-114.22165495954677,-23.05689137717185,-4.013216600062736
350,-0.5788505010355043,1.4324191872719745,0.6860608652270226,-85.47657981162071,-26.155257947560337,18.82040811259223
360,-0.578748206406046,1.4548390711847525,0.923311844791446,-102.82178523987719,-23.862580672378925,34.546300246206584
370,-0.453292993724805,1.282659345073167,0.8680799263652911,-10.670752017324814,-19.320271891662188,48.31468625331499
380,-0.749068531702803,1.1029566324206406,0.1915478080282822,46.802751973866464,31.139228730811407,104.58848805219998
390,-1.0223863995864408,0.7955676109265801,-0.03960742361075831,62.36647025696437,57.674626383970235,107.79768286502316
400,-0.8591258603653962,0.8057236598754448,0.3861721824512288,72.839966682194,88.61163551209584,114.73259007320222
410,-0.6168849350295154,0.7737586736861873,0.7282776551775103,83.8066061443533,104.58877587203222,104.09190234073985
420,-0.4859568200830675,0.611456410578541,1.0054994997091717,82.25997764523498,89.19842278128142,56.41453472247953
430,-0.4592438974344498,0.48535758937714,1.3693000705813254,79.3473914691283,66.93008239474779,12.894049685624706
440,-0.43155238304457166,0.47086320928228176,1.0605407251458128,100.09365118181951,45.19219248445061,-6.421907505662077
450,-0.26688071115940215,0.9566475760669187,0.9522303240922622,93.28490733278775,-15.265883939791259,-50.96501484415425
460,-0.7741930700071293,1.597393287994129,0.7456956836525902,140.02323141435605,-23.389008861981857,-31.393967389035037
470,-0.7709646762272313,1.8991915053243447,0.4961913789124539,81.4625536579902,-7.305704476092814,-17.71237896419082
480,-0.5797004255680733,1.5441107829215897,0.7098823004592014,41.63066910371835,-2.72147307661979,-13.554566099956139
490,-0.5434038098895856,1.1212501214208026,0.8541313848105495,9.864663523468797,-0.5597881268515208,-11.490943570227902
500,-0.586263491678338,0.912293940164742,0.858063364102745,-14.042099916030127,-4.057611181004899,-18.8725617973437
510,-0.5900640853973014,0.8686116722443102,0.8464839998805302,-9.02845988894164,-0.9385834996019358,-14.868171819700198
520,-0.6053355941324856,0.861852930112139,0.813862001830931,-0.05554283629639567,-0.20877183252013065,-3.304964370032549
530,-0.5548522137871159,0.914463168907121,0.8793359740457409,-2.640828227827571,-3.2763660297629627,-3.3503298581217416
540,-0.5817678653343297,0.8849383688235534,0.8418834886686349,2.095692504048602,1.9972458375727284,3.752303865648117
550,-0.5890049000913878,0.8978454155076422,0.8378236164702506,0.7474970512142929,0.14036434322171493,2.822203786088118
560,-0.5809253005886942,0.9085632670558433,0.8539108405436413,-1.4643624719442345,-0.40659952826704837,2.633183322995871
570,-0.5867124441198659,0.8984460325392736,0.8405057828827573,-1.3517828691334657,0.8522971686476468,3.068033325636038
580,-0.5643040744802575,0.9150653039138347,0.8595370277396868,-5.452571707239791,-1.9637014792030052,-3.1828776386435256
590,-0.5869086142086501,0.8868150013634513,0.8346179511772364,-6.443025524676195,-3.032802673377847,-6.75533724759998
600,-0.5535167160705913,0.9169555933729965,0.8645223997461825,-2.5543526540802253,-0.8760660285704738,-4.0850602899260124
610,-0.5759720325605076,0.8958990692137682,0.8452541407088316,-0.03666220320244262,0.41861703969042735,-1.125075377819138
620,-0.5815054842607055,0.894963996074144,0.8450204170318937,-2.6718411628064143,-1.9782714150021443,-2.2082539615755903
630,-0.5799711813732953,0.9052643762008691,0.8515017797561196,-1.9641542078279575,-2.9239427056469305,-2.624367785130388
640,-0.5917794573295788,0.8896754921418026,0.8317544603155906,-0.19286932347742164,-0.38292731519627177,1.8681986705544733
650,-0.5893330679912153,0.8999672217197175,0.8386845383766818,2.120399430210431,0.9644257567693606,2.1279312893323232
660,-0.5793441242121307,0.9107072171950013,0.8494143074681859,1.8962663946483214,2.2836290218093116,1.7876096463171014
670,-0.5949026564294321,0.8908081343347786,0.8272371752935902,-2.1910160245028254,0.4660611692152699,-1.1402537819104508
680,-0.591650115207445,0.8944137062216331,0.8311393918255857,-1.585688005209961,0.7543117639993042,-0.7922371878346852
690,-0.5941271992079536,0.8923884781852436,0.8303504488527378,-0.6167851378884286,-0.31783532563781025,-1.104208718797927
700,-0.5769273420890256,0.904890732584927,0.8396447468591032,-0.1155565899006,-0.06671258795341903,-0.32933062267578406
710,-0.5875877280072929,0.9019373202231329,0.8372310261691431,-0.22950690536486018,0.6320723483435317,0.7318138226062647
720,-0.5722879098042255,0.9134606369887959,0.8413422941086466,7.4647714579306825,5.121360890622145,5.478670235155502
730,-0.565701897444023,0.9150844032875719,0.8622306773478534,0.8247380314578002,1.3857062727206022,1.385960107404922
740,-0.5952241101425381,0.8934034107567824,0.8360847192877985,-1.908735779595778,1.495250840932803,1.0553464694982895
750,-0.5920062648499709,0.8928427489198149,0.8325601779209342,0.9909580565528116,3.232026466052563,3.248397766744093
760,-0.5863705553830239,0.8999868423545967,0.8387437980749813,0.4186243180031547,0.3369238644314462,1.3345504711356253
770,-0.583257948379217,0.9021536099705123,0.8428497603813822,3.061747268547193,-0.7978116184768254,1.4315765088547943
780,-0.5893682675400225,0.9012496260329543,0.8334072764353427,10.69798310599979,0.12254079773266646,3.3230103901979016
790,-0.5781427247840678,0.93480377369088,0.8431321533390022,14.766294028409474,0.5308978631577058,2.5505509886835123
800,-0.5653870293763246,0.949307105156005,0.8553453409537848,2.440831368501961,-0.11518985959041728,-3.6599332345456155
810,-0.5720756086566929,0.9471219159627381,0.8623767352097134,-3.090951102260001,0.9537757168971621,-6.875654805962032
820,-0.5865985403887737,0.9158986484453183,0.8338940920293821,-4.11972075286673,2.7593647916851696,-6.474474857642294
830,-0.5487936571236499,0.94707785975491,0.871765219366667,-7.136103764317141,1.1381624100642567,-7.917760277812496
840,-0.5701225685350532,0.9204209294125643,0.8498381299604701,-7.436645002645202,1.5008204278437454,-6.188255617321518
850,-0.5713256447907595,0.9061262063528215,0.8480394770036718,-2.7899515661287904,-0.2465225497865125,-1.3500343578186151
860,-0.5862476962660379,0.8939436418045806,0.8385121074384265,0.8425365591492899,-2.7929315522407947,2.10130040838298
870,-0.5961997028420482,0.8962708488509984,0.8325226614507911,3.8196322739259743,-1.6744937839912883,5.115564855573082
880,-0.582580602873203,0.9093998732649496,0.8422824414631952,5.651497261367049,-1.5584439217099137,6.015851488403879
890,-0.6132333412140499,0.8921926216906295,0.8166670744285723,9.344891717858328,1.2361781166481554,8.889615734003511
900,-0.5733694808654971,0.9289616388531866,0.8470528758725381,8.4018328481954,1.2751852921532048,7.27499730842429
910,-0.5887906453851627,0.9069820401650374,0.8381980759904397,4.985180659715253,1.8532989405945304,4.948297081940975
920,-0.6065805456635531,0.8908541139880004,0.812072478910978,3.2677745476713533,1.6632334248286653,1.5418753342774745
930,-0.5870031345900427,0.9143263927339679,0.837685846597571,1.1344209475505855,1.3435896095671394,0.5117527069179368
940,-0.5825440604898535,0.9180311920239294,0.8416149182313473,-1.6486619759313528,-0.5952490656699353,-0.6609361047873981
950,-0.5974995256439584,0.8988719198950653,0.8234599676041132,2.099340043643611,2.0803646534538904,2.8376885176811544
960,-0.5964010446502529,0.8935006458845444,0.8252710652375886,1.9897151381405678,0.20875221728346616,1.4495383952915024
970,-0.5521230525428034,0.9336596285306847,0.8698969741969176,3.262749903776589,0.6600380449624326,2.2452549717583414
980,-0.6041612606503842,0.8929094176229677,0.8200298037394578,5.2281379997697695,2.368344717996998,3.9512319748313587
990,-0.5596631029871962,0.943562568575953,0.86408624336553,-1.5029193050643046,-2.296751534546902,-0.9416731496086881
1000,-0.5689048410973658,0.9248728960272791,0.8482356090241756,0.9184270952680583,0.621011024113714,2.296745354551291
1010,-0.6206771438153589,0.8751945270362544,0.8001417432387501,1.8805158457834454,1.4361351200902268,3.1641115615275943
1020,-0.5800560324995884,0.9150444402580905,0.8449029680075075,-0.4122433816550193,-1.4964836200236837,0.13891819869366406
1030,-0.5956401138958654,0.9052233580725851,0.8283171032848167,0.7830206947526991,-0.15592742890248873,0.961737363141654
1040,-0.59757904578844,0.9105084005225127,0.8270328032881501,-0.5943495739513692,-0.977783855751106,-0.597789133923021
1050,-0.5807331334042811,0.9272944449426562,0.844940037057594,1.429716424672033,1.4626197676728836,1.1805981599945876
1060,-0.5813868371865467,0.921368000035841,0.840261624195427,0.37806742417729383,0.8737390976624129,-0.08759714414231068
1070,-0.5802933943852416,0.9204694641282767,0.8418032176287727,-2.008241690204529,-0.9764804723031757,-2.866408199242267
1080,-0.5893257104856856,0.9046281665718906,0.8266710744131898,-2.028042704680735,-0.8558489418294004,-2.893611446576256
1090,-0.6003512853661533,0.8932952531086467,0.8257326701657334,-4.274089363805598,-3.6476582340729755,-4.872875021787137
1100,-0.5962145366893494,0.8959175969947297,0.8246663667165804,2.0958094153399225,0.7072219533497723,0.9171051690806862
1110,-0.6077998927223865,0.8881155297264973,0.8134328635594906,2.4642286552178003,0.11780866277621212,1.7033089075557406
1120,-0.6016692617132982,0.8970368080132077,0.8182753735728198,2.7886954839535747,1.9331624908637872,2.264744862233054
1130,-0.5738683414994288,0.9241783842714856,0.8437315254342257,0.14716383798737065,0.9638721266111342,-0.19137360523153535
1140,-0.5846939472167749,0.9116188011459405,0.8347579555810677,2.209316241522922,3.111223399158371,1.9609920588471863
1150,-0.5850026467449048,0.911901377937353,0.8395020165367298,0.8780442488115647,1.0275819322171074,0.19631064094688377
1160,-0.5891172572328764,0.9114656444762212,0.8359152626686636,1.6658281328615692,1.1748899932628483,0.784110558129015
1170,-0.5964198573569273,0.9046259280412928,0.8255077710949542,4.630690849833583,2.531135065025789,3.023758842621244
1180,-0.5869899277787599,0.9188043584806733,0.8350574965174691,2.6839446358788464,-0.7434255070390426,1.133344700168995
1190,-0.598396373697911,0.8984538445593364,0.818300135234023,1.6237122420731307,1.0029709573014018,1.9203929511843325
1200,-0.5735580903810737,0.9244357081136404,0.8424238521769639,1.2092780123490912,1.8227195712436752,2.0667959407806116
1210,-0.5903943575683583,0.9128253638617325,0.8277789227084994,0.5001333987228547,1.1421769140196696,0.9297500915764842
1220,-0.5824292889196537,0.9229639631426084,0.8371691515251144,-0.31103829734717237,-0.6534490565698123,-1.0845093593188262
1230,-0.5779944538205083,0.9257783178323333,0.8387324503807528,0.8992409765734435,-0.2984964537872045,-1.1977873327275912
1240,-0.5687850818778836,0.9333764424366182,0.8433040289351693,1.6940549921936938,0.9662858523047437,-0.8012321696406373
1250,-0.5717815167617243,0.9311649178220568,0.8443469451653316,-2.4076526407850016,-2.6540897410603566,-4.1544662018674705
1260,-0.5884849540072637,0.9072920338780509,0.829044942275851,-1.740886604714266,0.543161270493395,-1.1957247477904636
1270,-0.5907760035887777,0.9064286573347399,0.8289109490088852,-1.8627493390619494,-1.944948149675535,-2.1831848282281334
1280,-0.5822792243277309,0.9190185635322176,0.8396090157163656,3.5615500696677227,1.7904957085328546,3.062989209113574
1290,-0.5935883163179004,0.9063820854747122,0.8243044256028691,3.3614942872598297,0.653068030881552,3.125976715660926
1300,-0.5709820365852097,0.928201918049136,0.8454503753412513,2.0615102583062113,-0.07484928364022297,2.558424279327577
1310,-0.5928179521129786,0.911577194260904,0.8291948491935827,3.1053485584315936,1.9721828227023188,3.7971845626015397
1320,-0.5847563502389038,0.9200334576194916,0.8389595665758619,2.0373616430612116,1.3710567772942448,2.0963569142708325
1330,-0.5917129340418197,0.9005891323730156,0.8228802207653657,0.7405556707959626,-0.12595347503019533,0.12530448917153356
1340,-0.569513696516453,0.9212945487818726,0.8458240010425766,5.19197982763072,3.238012415586446,4.210436536967812
1350,-0.6014040187835188,0.9088711508432508,0.8256232798837263,0.7222185515980932,-1.2675015091928468,-0.30282932722223554
