time_ms,ax,ay,az,gx,gy,gz
0,-0.6920772261823189,1.2323433593274005,0.8286879349855816,-1.0159060897650667,-0.4010414672041024,-0.7620600518928331
10,-0.7054093911995052,1.2198945829319359,0.8274041498120983,-2.8620559675813513,-2.707552421595074,-2.7647605436777556
20,-0.7072513200480534,1.2121684359365763,0.8181879680028137,-0.9682658474131677,-0.24611791033835353,-0.8604228811298412
30,-0.6585797397150541,1.262190037532197,0.8684994019588518,-2.264076935457692,-1.4740526040057687,-1.61969613691394
40,-0.7019771434513689,1.220758375100444,0.82731544121504,-2.475124399356784,-1.8618949651774241,-1.4969571796810361
50,-0.7183840530313533,1.2033540787174029,0.8108949362703823,-3.535207385928607,-2.9080359309221793,-2.5083564985992877
60,-0.7331939631047728,1.1885004427359227,0.7972899978878523,-2.9360561592346115,-2.2231562454884384,-1.9431156299450658
70,-0.7099989189513546,1.2165628780785638,0.8181390387766331,-1.522448395413413,-1.1544069991996513,-1.009529415538376
80,-0.6887542829607886,1.2404126755231066,0.839663171255436,-0.60156053813604,-0.23318315876944984,-0.13086356187737247
90,-0.6896360882003759,1.2376120880663275,0.8419544099735861,-2.1201514903938445,-1.5273476059491007,-2.1177749177379015
100,-0.6622540363159614,1.2623051836894241,0.8690310467261514,-0.8115614583195891,0.18107269805026582,-0.9250705858491928
110,-0.7156665115367591,1.212051861807266,0.8177758567948908,-1.6883898383990048,-1.6423755614323292,-2.28587865666805
120,-0.7162765063183157,1.2168590643787984,0.824065583504927,3.03802885313058,2.143989403896687,2.0159925721538396
130,-0.711663600524421,1.228020454035393,0.8357689073401405,0.1626880476243467,-0.4279275433055281,-1.828321754084841
140,-0.7037783911509841,1.2535897569427488,0.8561215678046301,0.701559802204088,0.923014373577938,-4.291145008598534
150,-0.74348180284852,1.2816531263946511,0.9108013380962837,1.497990217310407,-1.8872108075205445,-4.648251224046045
160,-0.8981815960496725,1.5955167632490819,1.6119330648659447,-20.83486993331114,-81.29721417248327,41.139409452056604
170,-0.6459237194750769,1.2427865628016346,1.4935038543485004,-7.679534159493653,-116.58337947573841,62.16864810137897
180,-0.3061058051625303,1.0899637600042766,1.08229605463703,-1.3736057767558627,-127.99935095424573,55.68259073103541
190,0.005490265847083107,1.0281462128405343,0.630553797981171,-5.38083422662887,-113.63140699876804,30.728265382154515
200,0.13377833391866523,0.9768201361987908,0.3108169725328148,-12.376595011993903,-80.35663869474197,0.8737419123317007
210,0.016101034124394606,1.0697720999276723,0.0563126183090649,-36.86628819830487,-46.74588738261297,-35.663081330897235
220,-0.25469495108119056,1.4592177040544123,-0.17269924329498595,-62.4971377346976,-0.10805742041779798,-44.20006483228445
230,-0.6414204655614434,1.7998721342151724,0.7315661561745906,-17.654108588955392,33.35635260595396,46.70639359415235
240,-0.4413814106004391,1.6337100200807364,-0.22992173480681288,-64.57106412607538,69.923553812381,90.9281601558239
250,-0.9774087832395599,1.3649106824586414,0.45705915961690535,-36.752743564816235,68.45554475912535,86.49415169505156
260,-1.018413980534772,0.9911101461750125,0.9820554178274714,-14.014755929858353,99.60151568988098,106.29077736886877
270,-1.1010053730032672,0.2531082389794043,1.9505304846747042,-11.781077228559178,113.57051105487872,101.61387725069916
280,-1.1414111284207877,-0.08663750359591821,2.3175752468250943,-8.601929165473143,101.46062274572778,64.47704155491678
290,-0.7993270376384726,0.5113739815680357,1.3598050530441723,17.412917936247347,81.41129562043099,26.322038259934622
300,-0.9432017371530257,0.5756717085213388,1.2152922952669551,49.35914294352317,24.06491830398369,-18.599985524979566
310,-0.813317771861518,0.4943088345600929,1.688716718350065,60.89523368180066,1.3628632617701726,-50.07128174342031
320,-0.6870517286650318,1.3477562522196123,1.6017515314419586,56.45206199225472,-16.574773464236948,-53.01031832999305
330,-0.3665698364681605,1.621173823587522,1.3548239718022177,93.86273745136661,-37.24797695794947,-70.88238034952815
340,-0.4382332170799638,2.281397310622783,0.9167353370266366,96.03992543451423,-43.09183996278522,-76.04915777744499
350,-0.4752000735135159,2.950724427814083,0.6034386689466594,104.71778873356007,-46.51350049063162,-66.30408886908701
360,-0.5260860961911286,2.6885272493386316,0.43344887117116837,90.15667021481075,-35.60586288053032,-40.23632027415761
370,-0.7076754179614558,1.7339238881336494,0.5299175498831581,-8.134550237247298,0.5091132562427249,-8.798095744562158
380,-0.8161574728133794,1.2925521547769256,0.6502409909666319,-22.08345822381374,-0.20027416945818333,-19.97045501801752
390,-0.8270772027668443,0.948755998015768,0.670451617869671,-11.955472188532132,-7.385936420941344,-27.33251792241311
400,-0.7569134802571317,1.0727274402193279,0.7813802277763247,-7.082673708112296,-2.601623229711892,-6.074148191905637
410,-0.7103635542080936,1.1737046621911267,0.8308032146295052,-6.508676986939847,-5.88662066569029,0.9893151865953214
420,-0.6799749460834776,1.2325323409088635,0.8616068465685651,-2.1231658876968034,-3.0482621660059,6.034679879927856
430,-0.7005615293367132,1.2159782791090212,0.8411589599227354,-4.813676831847687,-3.5027189359805555,-0.08639723394442633
440,-0.7198910913996184,1.1843577820728002,0.815392370598312,-7.592043916658972,-4.15344806594834,-8.048554463787164
450,-0.7075219459772552,1.192118275383899,0.8282522827761836,-1.7997089815154204,0.5744375624663554,-2.1992881510577917
460,-0.6748608337008563,1.2130310951712013,0.8697014886174778,-0.35889587310819215,0.11330633947943947,-0.17582497109787998
470,-0.6771296566785807,1.2196834588222694,0.8650744366685892,1.8742332292664952,0.6919063380028055,2.480952903588102
480,-0.6993638957992875,1.212228091997639,0.8409427673302905,4.196448324290047,3.097497371679291,5.533808058655735
490,-0.6932227140042825,1.2258602139832784,0.8480234967247717,1.0849249705631474,1.2062477382309718,2.75375724389548
500,-0.7267498851561839,1.192873441929757,0.8207324109749514,0.32716676590871974,1.3886684186709632,1.0072883028123838
510,-0.6758396130044539,1.2363512043156772,0.871958173727615,0.12991258917138804,1.226039016058985,-0.2778874168737655
520,-0.7089928583009407,1.1929799158089074,0.8284582192165512,-0.18206708974582997,0.09224388195152833,-0.4600249041012138
530,-0.6695365022774001,1.237897146575616,0.8672043202684333,-0.40099539369701676,-1.5052673850468752,-0.5117941661998073
540,-0.7082410472042256,1.2102078747101266,0.8262388678049786,3.345050909179479,3.3715985077185895,4.147625804661193
550,-0.6923465247606198,1.2251820356553114,0.8518494868911227,-1.0387154425762497,-0.41395195193809603,-0.275408177063586
560,-0.7147916149339331,1.1977759523378344,0.8224345698252267,-1.7389431089130496,-0.916487612215025,-1.1539496953980812
570,-0.7033791155232209,1.2029358936644154,0.8347147912651169,0.31412814732576244,0.6693955806453595,0.6186915224680024
580,-0.7183498283760819,1.1867549133577382,0.8223696973973604,3.482733870552552,3.3492476235405824,3.6280216490160804
590,-0.7245100940068314,1.1831874424508844,0.8140728430712286,1.5135161747225319,1.5251126861608701,1.7130043467268197
600,-0.70890947998013,1.1989271004472875,0.8291000881774874,0.7061236873437315,1.3102788633449372,0.9294788962460572
610,-0.7124470845375477,1.1963860600844018,0.8304088709205599,1.9158854215756116,2.3307284681260616,1.705847976649496
620,-0.7373472520487718,1.1670295851769716,0.7989228281587339,-0.9833247723194469,-0.5697242226479196,-1.0504199992067027
630,-0.709806516679867,1.1850161137862265,0.8268215062423542,-1.566894046518388,-1.4381944552912342,-0.685703884240391
640,-0.7133561591950779,1.1912581208996034,0.8282596236908376,1.2913323383504482,1.1515467359150264,1.598150437555911
650,-0.703046895592355,1.2068831781287488,0.8419092858186084,1.0802828051411977,1.3166606551049567,0.8522518883016743
660,-0.6704338617436726,1.2372640504545336,0.8749565763864824,-2.757198445039299,-1.8923684258516729,-3.0765507698254133
670,-0.730303715673613,1.1731462884322894,0.8135695487813762,0.1290708976563999,1.219322572063947,-0.2946931647424753
680,-0.7271386146098385,1.1700889998756223,0.8141232387855786,1.2669203135189058,1.9938196493902236,0.7310151609628224
690,-0.7244469711692606,1.1797742834934912,0.8184444109825117,-2.0720076887525467,-2.411865039939517,-1.6385040250705867
700,-0.7161301108572821,1.1926041156752356,0.8357733523396227,1.4834884226855645,0.2964440746149696,2.368675831011602
710,-0.6751052047064839,1.2286084903701413,0.8774516998786173,-0.12789591817317314,0.1541423943582656,0.5332127117722958
720,-0.6941615112037067,1.20778650808517,0.852199570077167,-1.4791526011184137,-1.1855866238543422,-0.9502734356831408
730,-0.6813231706910796,1.2205406245353452,0.8652344634096546,-1.112776734120882,-0.9418859813095877,-0.6296100198277252
740,-0.6910604247125023,1.209250277214045,0.8553621808572227,-0.3561093699990433,-0.15908108432692647,-0.2538704029886197
750,-0.6869754574485516,1.2116485075331427,0.8517170683712458,0.3134415035774617,0.1534232311024104,-0.3020147959749971
760,-0.695899524014272,1.2052029341715453,0.8457394671475399,0.1790502658280168,0.256099817413824,-0.5733289622982658
770,-0.702766696473704,1.1968185049804798,0.8414041337940846,-0.8465833988244458,-0.8695576957096833,-0.8613744064424764
780,-0.7110904609796064,1.1940812391584266,0.8383438474392066,0.5273186297149336,0.6789078650571216,1.2831832311170646
790,-0.6977734822837679,1.2069517226989779,0.8545183325278322,-1.8302982103175103,-1.8835504218367003,-0.9874186331365693
800,-0.7138963999349829,1.1911637214940247,0.8304639415393004,1.3867376620028335,1.3326791659113386,1.3999059534314782
810,-0.7231249645139346,1.1785208310175932,0.814024736400123,-0.2588533833216704,-0.28605182664223117,-0.8333929855629812
820,-0.6818124468669803,1.219015797835774,0.8536028779219123,-1.4041138309010002,-1.5271189819042101,-1.8649397825524483
830,-0.6712104838757922,1.2387554520995352,0.8630814269359627,1.1447531409564649,1.0829749863594236,0.86808803856846
840,-0.6978751532023703,1.2046252205125465,0.8428182714347346,-0.7268408049555507,-0.2341433152363177,-0.9114584344418032
850,-0.7066538797478631,1.193133664025462,0.8366594178287224,-2.1635613909027556,-1.9077140861501927,-1.1656386321987302
860,-0.6835519474179432,1.213705926875369,0.8558709608296745,0.3606675194298561,0.3258793411797546,0.9242538578793389
870,-0.6998142590268552,1.2007073872217522,0.847365137298551,-4.281731178266712,-3.9479203124905657,-4.2940186739363435
880,-0.7039740887507329,1.1942747952592585,0.8407828168205553,-1.621684652700284,-1.1260538665462205,-1.5162166440187541
890,-0.6797976106258755,1.2148559635060237,0.860350627840731,-3.322548460290702,-2.9580303733221016,-2.7633132970863716
900,-0.687025868826186,1.208990279205897,0.8556610353773113,1.8589135828701244,1.9889303548931427,2.4224421538697207
910,-0.6892958635437896,1.209463358540458,0.8520500953812274,-1.1516786216405446,-1.328887356370681,-1.0044338829309283
920,-0.6914954631823997,1.2112835963858708,0.8507809219373096,-0.41907795567079614,-0.06583755468683411,0.9657208671032014
