time_ms,ax,ay,az,gx,gy,gz
0,-0.6859089643070354,0.358133648891794,0.1905868362755679,1.9502817856026018,-0.4512215689464749,-1.2524744037941156
10,-0.7355626787657383,0.30790349566877123,0.14067904563607714,-0.31112791491199865,-1.2261387388386884,-3.951627050312156
20,-0.7162363577601676,0.32398503524746264,0.15913274220928958,0.6689553929913354,1.273278195075821,0.4312524715326419
30,-0.7062533805416461,0.33983014305550774,0.16479908050716627,0.7030106481955786,1.3465511856744812,-0.43186400694404536
40,-0.7305824877053849,0.3143725528931859,0.14329504930639705,-2.100355246178366,-0.5209721658375118,-4.162233091088603
50,-0.717701080976703,0.3220770592278362,0.15472866879073355,-1.672226730995492,-1.3205342712727974,-4.7725026371952834
60,-0.7192710406609306,0.318761374559716,0.15133953714652146,0.7273564844813286,1.3710720519438908,-2.8955182709559235
70,-0.7176392197254026,0.3110279446921409,0.1560863492050583,-0.7935391392656279,-0.5414722503475438,-3.255442931712448
80,-0.7098432579254979,0.32818294853587454,0.16597303775799196,-1.102173269448913,-0.2670307856437113,0.48984216861981167
90,-0.75746647119104,0.2853721578092104,0.11797694827465113,-0.9675553823308909,0.9322432826933267,-1.138112716169999
100,-0.7467229866723615,0.2894379011102605,0.1233052082300864,-3.710627464078836,-2.3815933720706566,-5.161337948428622
110,-0.7134134639391423,0.3193626070796164,0.16143180072114433,0.33746193744554503,-0.1525566789063558,-1.6882497087692958
120,-0.7152481753832696,0.31677081192084694,0.1536485448582692,-0.09443995318530951,-0.7628361441374164,-1.3169371138625678
130,-0.7375508612901411,0.2990043349474152,0.13585905578524554,-1.1934884202851865,-1.3697878596069684,-1.1037831217302414
140,-0.6997525830172806,0.33912386268772193,0.174440844018721,-2.793806296447573,-1.2579673787275631,-3.9901342413292733
150,-0.7191938576886685,0.319399758956995,0.15415735990996732,-1.3776561025050988,0.7123835274961652,-3.3597031472292884
160,-0.7124462473333649,0.3198041162995764,0.16059903903875059,-1.9571572607744798,-1.3642591971016045,-3.762400653091744
170,-0.7251617200319466,0.30546578390011464,0.15201897790319563,-1.7742501265303718,-3.206033820362681,-2.3574695864289037
180,-0.7212225347100693,0.31214710495944026,0.15456003079011496,1.1527128632771348,-1.7693575022185168,2.2636494046319213
190,-0.706799716568948,0.3327465244499526,0.1691579190984166,1.6140211602563723,-2.1466039329891893,4.847301636660608
200,-0.747468489130353,0.31789775279418225,0.15195859735746375,5.359720385424959,-7.940041841526842,17.868379935694456
210,-0.8006577776046006,0.3593925461326377,0.2161565879422008,6.725591931789825,-15.270363091980613,28.696022941010245
220,-0.7737389021011899,0.412554217178263,0.17377443939235315,-3.902583658398821,-46.16936497905383,41.52966049452774
230,-0.8039860404437762,0.3293085347505089,0.24513852812743805,-5.928347769213418,-57.71762364795338,25.558604915001414
240,-0.8324636482435325,0.285114530131911,0.30332661345743983,-5.20015386183805,-70.500459044838,17.280495072562122
250,-0.7537904214874273,0.3055923277964238,0.33477136173035793,-12.646040630042414,-96.58331529818753,11.564781006268959
260,-0.6359126390089499,0.35971591854770396,0.24894486953243944,0.9123964041958964,-56.89107182049898,3.915748981066712
270,-0.6121063412420266,0.40044658820535517,0.21722124724907677,4.22256057394792,-22.750382885180905,-2.443285121411506
280,-0.6076533879954542,0.4174281891473705,0.22415561630622458,-1.7617136484916038,-1.8925432931880315,-13.40292084320542
290,-0.6702911722225396,0.43093365524185323,0.21444356600485828,-2.621878523875888,13.811557718322877,-20.308895413784914
300,-0.671081769296185,0.41474369173379344,0.2605006427299102,-10.695062760817931,21.071051804128484,-24.921726024591898
310,-0.713815087732627,0.3983987439530082,0.2534335457891918,-12.41079025176214,27.1142906597503,-25.505646136058726
320,-0.7256519423107157,0.3195684108741319,0.2582589909875223,-15.39989408182303,4.7450898076256385,-17.40946700919543
330,-0.7166137809631438,0.2888713870631619,0.23608661006687132,-14.584948512360196,-6.4801058499783295,-5.3068692391557155
340,-0.7212784823717739,0.33840712749692486,0.23686138702917284,-11.755271630849176,-5.448789717856662,2.3486805598365637
350,-0.6972774896142868,0.3653179958617619,0.20577619965729627,-20.659075438272502,-15.725676255516486,3.321311853448513
360,-0.6632709712871532,0.684173115542333,0.45479739447225237,-21.97188779792956,-27.929823542301836,12.417943929067908
370,-0.8307527691408859,0.48630271971635225,0.151319789714131,-55.338588006533115,-30.90007363808434,8.577551998125589
380,-0.8619462948407427,0.28590711676145947,-0.047707761814855226,-84.05505343831236,-27.87501063763334,2.0122747163936694
390,-0.744219249750993,-0.09385510116335555,0.03869141867776459,-70.63508596393743,-15.27796871079761,-6.117762833215112
400,-0.7131666312053941,-0.008448122231306943,0.0879566497973395,-43.38499816555152,1.8510151643920334,-6.002780744007288
410,-0.7309587763573159,0.4901605243383888,0.1483350412384326,-25.854494019792455,21.931037632551952,7.489301072456916
420,-0.742582876048133,0.5580533104701093,0.08994825912460147,-34.9401989200907,26.17729370523161,19.902204526165566
430,-0.7873280395043106,0.42576166370202695,0.16842764643318162,-18.03590678793928,27.27107089171481,32.01743660215154
440,-0.6894211386831629,0.3370850976145809,0.3597903666584286,10.591882042336522,27.995755288712406,32.450923748156164
450,-0.6503648536605598,0.01662965650352066,0.40217372499546367,-2.2842069037899693,31.93372429268185,23.873624878661246
460,-0.7263250060427378,-0.11553074804264336,0.6179468421604308,-21.4498791346571,37.59994737436965,12.896532552247324
470,-0.7361403483532578,0.2970849305653961,0.41865936614480354,31.042820097197602,39.646557413529784,31.42759473196124
480,-0.74169734297502,0.31103686821795845,0.49719969628425886,34.44550612422787,35.209168191591345,33.38169572982112
490,-0.7937423465762458,-0.005565783906648262,0.6287186684540801,12.14462443818671,31.96243063739496,28.006298242972225
500,-0.45635286379586754,0.4322060286445107,-0.5273896842111273,57.933191343814215,52.69908060522062,51.24020616723332
510,-0.334325220760457,0.7791898704552164,-0.6212992549424724,45.02845200740129,68.06651787214116,46.742874952009664
520,-0.8451757486930647,0.3687631614566785,0.3080616440648361,29.683272461299996,25.089711927035182,20.492951672863214
530,-0.8084276103359871,0.42837439416411427,0.5017803196444778,30.591482645990794,31.563245868715125,22.66198301729749
540,-0.7107950981998488,0.3457345737928181,0.11306021556821672,37.50973498422198,40.89939523937569,7.986497319706334
550,-0.7130228312304827,-0.0033214672323224666,0.1066764951416581,31.97145609604213,29.740161488453847,-10.311917948275875
560,-0.688939914920224,-0.21504789769285645,0.23703035424041194,10.692370340190937,24.37589771198862,-40.14454317006098
570,-0.5645660599315621,-0.21102049802500863,-0.0671871882958495,5.565579204233844,13.385364166397482,-50.10947740295054
580,-0.6999050827174346,0.46718630308930675,-0.1860856105336573,35.30421965965775,13.379955473308154,-29.96238141518084
590,-1.0763745732312493,1.1687727739627203,0.3945487905204593,55.5175890666163,19.66257752871422,-4.951534536089495
600,-0.800769321238119,0.8269117152801184,0.4052303749966821,40.22063333325758,12.542684623170452,-13.29054731998126
610,-0.771559379888281,0.7013627187241308,0.39873749277409054,43.782675002179346,2.073092271752659,0.6169624963505562
620,-0.7879520991724637,0.8536268864897041,0.24385109783077633,45.563905510921046,5.101008936862353,-4.5046547561433705
630,-0.7583682919930855,0.5283847998796182,-0.053585612814240846,12.018286171126372,-4.078901248225611,-21.77627504868446
640,-0.5775022052536735,-0.10916820333560139,0.39601612195856156,-20.253250305167974,-0.3997375337032145,-42.98700218402142
650,-0.6413787181312165,0.5769463762451772,0.24280258893245776,5.685216553605854,-3.8857984028981347,-12.7376172954573
660,-0.8057945975405532,0.20353363534060326,0.40335967618386703,16.200377704936578,-10.91076406935213,-27.760114685254567
670,-0.8346685109716513,0.44917883999228664,-0.1663074999502187,51.147617823681095,-25.400992586193777,-32.12666603835466
680,-0.7642738964959565,0.4798447790067224,0.3668614157382908,5.166515211795656,-13.325979944356014,-23.342311888283238
690,-0.5559748992499735,0.04657372141665213,0.7479123389819993,-40.75231766884505,-9.747607858815165,-66.13116323004738
700,-0.7287947457459527,0.4842889745610073,0.35877813592306823,-6.111940073190026,-8.473431653954515,-20.43576368749869
710,-0.722528508985306,0.183543921081652,0.502406558318823,-14.317790163555925,-15.204568888573188,-29.09331609152754
720,-0.7709223636750968,0.27459162581487917,0.0646796262978937,-0.3228118232959316,-0.4156669778485689,-13.914508150992425
730,-0.7693053014105509,0.45964760549056466,-0.11310327408891958,12.008564784067627,-9.926324033188173,-15.610732029658962
740,-0.7693366424808773,0.28364015485909183,0.22363589049032592,-4.848148566655851,-5.744386085572028,-10.0631762250245
750,-0.7246118058572245,0.336369053545805,0.12531722066603318,-6.258366074549791,-6.485008675207478,-14.312236158339386
760,-0.7152544387336645,0.3092110861109521,0.15891680492133303,-3.1525853607316705,0.9096676890222468,-8.178996240153232
770,-0.7268592741206055,0.2802321703177275,0.17855337911127234,1.2401234371832934,1.141517797962803,-3.704416335701327
780,-0.6929559270369072,0.30947741274533075,0.21637877084282545,1.4863036988323959,-0.28412879144394787,-3.338323029814772
790,-0.7299071171094415,0.4016405120388779,0.06658649129518772,4.784890071083483,3.140528599129008,-2.410975298477912
800,-0.7091103077088531,0.3157680951135946,0.19099866661823606,1.422628922681994,3.6058834734602474,1.3096927909524976
810,-0.7114835624782346,0.29828818654466555,0.1754160124653112,0.11370689231326292,-0.8882178711203255,-6.276704110471526
820,-0.7182301163639581,0.2822519712482643,0.17254747428912262,4.911282971443357,3.2563742125734945,-0.2018523964275496
830,-0.7333946008367155,0.2748638418317411,0.1619147870528659,2.6834143297420328,0.5355881131415481,0.7330223410286713
840,-0.7049035459515702,0.3019175976778854,0.18748420967269716,-0.6423820347469595,-2.121318224861708,0.2998548345312684
850,-0.6920224855542069,0.3261719581681043,0.1932050361435348,-0.7837344285144858,-0.052272757929402114,2.666367690371297
860,-0.7204630978668959,0.30023875405518463,0.17045481223360787,-1.1250243458352602,0.344356825625316,2.473318715294621
870,-0.7004399279199612,0.3135573293690799,0.19354786929506923,-1.0753521636167502,-1.2244887365810644,-4.810198293696285
880,-0.7399800167994844,0.2692921608006069,0.15851718776628645,-0.6926037981492159,1.0961789397368251,-4.728278866130296
890,-0.7260297776418256,0.27612765900767133,0.16450689965886162,1.1529043960457155,3.114473699820663,-2.013262107185475
900,-0.7374322464754312,0.264078246241847,0.1479932561132949,-0.9508196947341262,-0.5925129559461808,-1.4830584014524624
910,-0.7274014468958307,0.2812324086275746,0.1596615534008795,-3.9540565518870916,-0.974300373379055,-0.9157724883902565
920,-0.7320390959590833,0.2756228181269629,0.15316118461924458,-1.7053871399950276,3.4237656932582174,2.1762227773052976
930,-0.7006682864431846,0.31725800416553823,0.1898719819631426,0.4385053889210433,1.3833244117746157,-2.4388619695629363
940,-0.7230451478117254,0.29175477988516096,0.16083087768499882,-1.7327127467442374,-0.13333195290103927,-5.5035695239607785
950,-0.7030874631383198,0.3023008729730172,0.1844482965903334,-2.560333288420941,-0.9373850325860233,-5.4563943097760665
960,-0.7238228977025932,0.27839900157545067,0.1653714045825506,2.642600984441881,2.643271844067628,1.386380232015045
970,-0.6984075242421196,0.30769678973824466,0.19270591235641313,1.059854512976357,0.8361432442178025,1.5774108917702059
980,-0.6990757054073403,0.3111854697068425,0.18868816021243878,0.061759190727176616,-0.9341631526010206,0.6998217069117079
990,-0.7357281322418006,0.27429372271607616,0.152281780142128,-0.05616338026202128,1.6861771522782338,-3.889847807991011
1000,-0.7305213908869788,0.27014071314886434,0.1517898357973834,-1.4557009523027467,1.057000376924143,-4.968596443001948
1010,-0.7179947931555811,0.278325473530086,0.1670097172928611,3.6257741030201704,3.0777219616004103,1.1690494143997758
1020,-0.7189251487949856,0.28551203312726164,0.17087408064943302,2.52423841437251,-0.3689289871070744,1.9185406525929698
1030,-0.7018361898536201,0.30247963864687394,0.18521505313916672,3.4977373834658705,0.2504157971182496,3.609431110034282
1040,-0.7091071813100442,0.29828624223953043,0.17749641454323734,2.2531248604549488,-0.6318036116425514,3.05082849408987
1050,-0.710204661010547,0.3057014694012473,0.17990220921380973,1.770317802145646,1.2479507068720266,1.5001687169967437
1060,-0.7030381854116604,0.3183931113630718,0.18811902157104707,-0.6909162969116998,1.9801532742867756,-2.834890159279728
1070,-0.6886327039595678,0.32409764179192396,0.20169974688454398,-2.2884463676439655,1.9945086978476545,-5.748409494236654
1080,-0.6983352579050459,0.3068414375949727,0.18996995716386025,-1.5852231622607202,2.388195802606832,-4.216733386789133
1090,-0.7115717984386996,0.2896294220302988,0.1716890952921405,0.18910275774547647,3.152242100891578,-0.2120554454881871
1100,-0.7248751098409439,0.27062733000170697,0.15263492446047489,-3.456089266179096,-1.7540784304233563,-1.8673647138751495
1110,-0.7213054739753585,0.28000988559994305,0.16083683027268353,1.7238818351255902,1.4961061512735907,1.3258795378369792
1120,-0.7256059557162293,0.27759399363871023,0.16350665438753775,2.5276006706339897,1.726974909386392,1.7819933180794632
1130,-0.7195359425186,0.28284344895508434,0.16965830958366776,0.2227770313261288,-0.10591762950704087,0.9314927153896762
1140,-0.6896595014590307,0.311774118744424,0.19724190663024624,0.36583401151106176,0.1649932436919499,2.095653473744954
1150,-0.7012590215522907,0.3031127185847288,0.18415354643008466,3.0898288284002047,2.2062333516220503,5.311122404211577
1160,-0.6562441361478469,0.3483736457381478,0.22351212667158998,2.6635290748786646,2.8962943757476203,5.018100009591568
1170,-0.7059572017519177,0.29780577758334587,0.17410851132253094,2.6025748127122426,2.941114904026219,1.9430276309340047
1180,-0.7240835372331897,0.27976282479207215,0.159209467723173,-0.7867848531449122,-0.7155883636160214,-2.7664097798416405
1190,-0.712855274816348,0.2910899343936428,0.17018465229086585,-1.0703001569891821,-0.08349116297406023,-1.9817693289766016
1200,-0.6906440255232216,0.31253585264410455,0.1928817430188126,1.3524349159925049,2.339249536707953,1.185337755362704
1210,-0.697847358761021,0.30755864860130355,0.1822115171215052,-1.2162682943917744,-0.4673570169002663,-0.6084384481705116
1220,-0.7229714221686421,0.2846610518616397,0.1576103312377301,1.8522927897195738,2.186652818028029,2.42892245478295
1230,-0.6973715862114996,0.30898583804535906,0.18651067126081597,1.317392874111916,1.4988983349816012,-0.6526578069066389
1240,-0.7007397794818601,0.30368227248543966,0.18694262160093397,1.7908845907359383,2.2289021394427553,-1.5814296259022917
1250,-0.6842006214792561,0.3169295095989254,0.20186480706132112,0.05285280954444457,0.9631293805782407,-1.8092982943985703
1260,-0.7137791587295018,0.28410616249299353,0.16482210567214284,3.586781094708159,2.7492981814025352,3.928725768233378
1270,-0.7112483195274346,0.29123224718481394,0.1686975464613329,2.62967070430045,-0.06908360962362292,3.8349831632795754
1280,-0.699319230608173,0.3087135279022327,0.18442764102859166,1.0844796065403584,-0.18195323812285016,1.4817826747199287
1290,-0.6938201383023457,0.3109821151953494,0.18859565589305322,-0.1347422174855305,1.0213638986511575,-0.2810211986541118
1300,-0.7087935453551814,0.2850752319166488,0.16885628915501769,-2.2810270585584176,-1.5856626399748395,-1.885220467211873
1310,-0.7309032701081903,0.2643177637310499,0.1502881483564392,1.077992557671895,-1.7894329175747776,2.023160337683028
1320,-0.7278989417819723,0.2782165248674676,0.16061585826863517,6.948697686941406,2.8827295982197136,7.456786350703013
1330,-0.7086713529525966,0.3001112684923883,0.1784182739211752,0.9252587627983302,-0.49372699748757326,0.2759120235932681
1340,-0.7154489696037005,0.2953795524358217,0.17172987135293002,-2.8590642048517747,-1.3263808492087337,-3.934199033522029
1350,-0.7226908924981112,0.28176840911691825,0.162300941764569,-0.9128866120463117,1.9633526081251278,-1.2980743291576369
1360,-0.7045076178605288,0.29009246961179996,0.1773185411849346,-2.7667550165713752,-1.1456051034981405,-2.50985287464757
1370,-0.7183367245538775,0.27662408041268266,0.16571506914247391,0.7806429387836914,-0.07497845253231128,0.8587710691668557
1380,-0.7036463977594173,0.2965884304598616,0.18002996202873867,1.1881361244511832,-0.8062649763522693,1.1685115455381783
1390,-0.703618725838511,0.30140587949659836,0.1755828864559148,0.20104447738122433,-1.0362680736001058,0.07452679809262264
1400,-0.6867492533651955,0.31862984121935606,0.19537577504559153,0.9156604758116025,0.7670457210578447,-0.22463916046771504
1410,-0.7059748765328996,0.29753092421468536,0.17558162095179994,-0.3812871949076765,-0.4561326081509442,-1.987694162065948
1420,-0.7274941111960932,0.270489574378184,0.15189476032111804,-1.0031646096053082,-2.7703689565586878,-2.5686902925566693
1430,-0.7135748660759998,0.28545669803525175,0.1706980196126761,1.454709090700971,0.340328776223066,0.33601754193072614
1440,-0.7047597310318079,0.295483251942171,0.18058083195697003,-0.5516242364096192,-1.4626408496096281,-1.452548023328138
1450,-0.7075390396687543,0.2922746848450903,0.17512232317611834,2.1998419534594134,2.641374501073438,1.830753301110867
1460,-0.7267507786537781,0.2688242721755354,0.15414980843355053,-1.4643731176239922,-0.13997527917825142,-1.7905470010170803
1470,-0.7196659080859588,0.2761909783423987,0.1645595333774441,-0.2802769079778182,-0.04850030689758675,-1.170261006927454
1480,-0.7175654675128319,0.27903681074149506,0.16450223350490129,3.1244462713284364,2.0607396953188686,1.2842978677404888
1490,-0.6985175756742473,0.29782358133577785,0.18372640803025336,0.9458153726627694,0.3195699581261195,-0.46815266423668433
1500,-0.6990360812564844,0.295736905350594,0.18241914925031544,-1.7813874824626588,-2.098741621643238,-2.1188513812422114
1510,-0.6920421372440057,0.3021590131464968,0.19030555415449402,-1.0509915143832793,-0.7983452873183081,-0.1724973522608102
1520,-0.7018256344651642,0.2934905844380038,0.18097016842053332,0.8145171216381072,0.8750563304304126,1.1968873329799092
1530,-0.6774243970449645,0.3245117811795802,0.20524473741703808,1.092363013271466,1.3306779737318226,0.00103227592170263
1540,-0.7146370149286321,0.28182938851414935,0.16567072915818432,0.6520375153898152,1.0617247508320102,-1.51836805343161
1550,-0.7280947790526553,0.2660799518801486,0.15624487936138268,0.09772310835827336,0.06918177951522853,-0.20905388414496984
1560,-0.6878706887907777,0.3060025006525046,0.18749832999919347,-1.0665136688013308,-1.6861949850954576,0.25466291507147765
1570,-0.7003361409961284,0.2964380008676184,0.1749562934001958,-1.118765160154217,-2.2766621150584267,0.6521328596811018
1580,-0.7204040980300463,0.27638432982220396,0.1575366030311846,1.110093858042852,-0.053409957312603895,1.5484641285343237
1590,-0.6967089183321508,0.2979018987334398,0.1861889057871329,1.036098338543924,-1.2610375491152261,-0.5346057066222998
1600,-0.7180256767083736,0.27632156560863663,0.16403769462495782,1.1700365857734054,0.6962209717018905,-0.5520348505493098
1610,-0.7291971889372081,0.2646694229514738,0.15234481062894478,-1.081930762403871,-1.096221384625871,-0.9803210019885387
1620,-0.7190227896809197,0.28127082290697725,0.16210109407604087,3.594240901182886,3.8570688196057885,4.727441954355407
1630,-0.7151984643021946,0.2870862323531173,0.16730792818391468,0.2499443128765918,-0.43908383998566164,0.7729157346011037
1640,-0.6699344023012647,0.3320844420675989,0.21270800299744277,0.4152357030597177,0.19859331595236773,0.6062549097903305
1650,-0.7070884385790132,0.29374797675733605,0.1740104428878237,0.4181296225725707,-0.2083916058463362,-1.2603353190182698
1660,-0.7116247691387564,0.2854242321829233,0.17136753819161032,1.261798211166309,1.1397400993886282,0.5078872049102836
1670,-0.7172033241552078,0.2800125483088258,0.16814924643079363,1.2360827734180353,1.1917354468813186,1.6423575790073877
1680,-0.7123861747390923,0.2916379051439493,0.17320486315404832,-0.6254965230812904,-0.6631963857722902,0.02555381974294857
1690,-0.7046110333205807,0.297550518255521,0.1810328687417973,-1.450202314190935,-0.6533524054289379,-1.0984428459339113
1700,-0.7088998841727013,0.287601210245684,0.1697246014661532,-0.958439674855772,0.6504004828338339,-1.211629156606172
1710,-0.6942807185453073,0.29686369389906414,0.17875693810006515,0.11591338047174982,1.086493852891817,-0.4699754462937016
1720,-0.7148990229164367,0.28424174755057047,0.1694506293789044,-1.4093235328987523,-2.955620476075951,-1.138425689089324
