time_ms,ax,ay,az,gx,gy,gz
0,-0.5416791486053046,0.5390440647209449,0.6562037055350445,2.503697112515182,2.5668335545928804,3.289752725888816
10,-0.5418759463312088,0.5382546162288524,0.6545251139174678,-0.024544736417591084,-0.19798147693779328,0.3211782394575664
20,-0.5296502156717023,0.5534301794950954,0.6720186665751212,-1.343914052140918,-0.7562722389366459,-0.6071878419713217
30,-0.5280765451325208,0.5514928071763611,0.6707370134996179,-2.0242094942507243,-1.7410981265872656,-1.5445158183740357
40,-0.534756431893287,0.5427167610987268,0.661336827198136,0.19837147064698318,-0.22972930725111906,0.21129111879398182
50,-0.529730431694962,0.5494655314857103,0.6679800964467325,-0.9302306965232541,-1.5509606537159448,-1.0580930088717386
60,-0.5481557109210177,0.5304825015696565,0.6497156709934647,-1.5841118315268319,-1.7590180082646982,-1.525800206043068
70,-0.5281146833015143,0.5468753936687684,0.6649041241277245,0.18390280105568124,0.5761453289893288,0.6181008419086949
80,-0.5491543091656145,0.5280071388180984,0.6482599622164991,-0.08421333215361981,0.5890132496353296,1.1238370677302272
90,-0.5269368000934842,0.5531777432157391,0.6716735865187712,-1.7722879042876558,-0.9730268508675235,-0.4854737348342154
100,-0.5141856902355619,0.5656293773760497,0.6793960131085626,3.0286689471976658,3.8439768361933084,4.430760324702481
110,-0.5059650279661813,0.5731278810399031,0.6882509485283025,-0.441770452643538,0.28613635944874605,0.5990171896048642
120,-0.518323354298256,0.5601119894454941,0.6800831985345053,-1.8975900937641823,-1.173734758944628,-1.3495283694830564
130,-0.5476472099673575,0.5297079322297202,0.649772918710739,-0.43069074001436347,0.5877678287795686,0.18030676477149654
140,-0.5396008777766222,0.5402175916312005,0.6595237417851232,-1.6468480695555812,-0.12661026094851055,-1.0031328619232267
150,-0.5371688686096706,0.5405478917175506,0.659983786283555,-0.6404686093416183,0.9692877415192278,0.7164171302172012
160,-0.4995709113252101,0.5726170451730985,0.694107785358007,-2.2056906689885007,-0.9489537398822517,-1.1809134477036238
170,-0.5265270805179253,0.548315275918236,0.6676252737659625,0.44414152659623385,0.7298172918608277,0.5452371019875708
180,-0.5307251906506235,0.5466140580031763,0.6644295140664204,-2.028669167139972,-1.4632554775571087,-1.8930558702482405
190,-0.5506135749779151,0.52605156707742,0.646177039876127,0.18988166921360605,1.595215807600972,0.9648847474699414
200,-0.5243333169151335,0.5507669404743922,0.674041743255907,-2.216713192547892,-0.9351133549743329,-1.4281269288409946
210,-0.5216110980266349,0.5514860139014236,0.6715104054516173,-0.9481477108642336,0.0410561971348149,-0.6929062708347086
220,-0.4992209247422755,0.5782819327387748,0.6996919982392739,3.1146429231408206,3.480034786103834,3.373069934042003
230,-0.532591666202123,0.5467421262798734,0.672470305425632,-3.6523510503261574,-2.3453754241233593,-2.2430979033185956
240,-0.511021273075592,0.5898119163965638,0.7006299061434866,-6.856867977840129,3.45112852808274,7.311978659920545
250,-0.586340567255997,0.6517128256777887,0.7988527247023154,-1.718813501789168,2.573562259387856,20.86605343161155
260,-0.6836036725564515,0.6338697107639696,0.8979347244672892,12.338513004405488,-17.192508933650572,30.35862488686032
270,-0.7540830017613614,0.4619210811584918,0.8314056161779325,34.46389966382765,-43.816007689689776,38.74605336725132
280,-0.6355461136618421,0.49480798778305457,0.7830010805762643,57.03905129164373,-51.0989748223307,49.35842562230733
290,-0.4647232485081959,0.4999986466010218,0.744549646069101,72.00595654919167,-50.981308814381094,53.72943716086563
300,-0.3932858309791938,0.5109080266889909,0.7029208828881233,67.94539718463597,-50.933555447575806,42.88312778689051
310,-0.3124426395501272,0.5976826925521649,0.7040831378755628,56.58589431549115,-32.69322816722402,24.724274247264404
320,-0.31507881731951837,0.6292597072713803,0.7016654868560788,34.115144584968256,-26.619198907120936,3.3312546727852905
330,-0.35787801212741777,0.6283876530530954,0.6917173136585377,24.24086141857355,-16.4400392627181,-2.655897233959384
340,-0.37678368291364167,0.6504162167454477,0.6945260889744038,12.183472273676426,-12.599399999094077,-12.93706047236731
350,-0.409758755247919,0.6481697545707865,0.6999848363661955,2.888773441267837,-7.626650695539978,-18.39152021969388
360,-0.437683765989761,0.6134430692901399,0.6984854523024052,-3.4396237963072456,-5.6998871822794035,-23.276805804824367
370,-0.45930946924495414,0.6488901921233825,0.7527036487537633,0.12616168662338012,-0.4153240162200831,-21.3469550861356
380,-0.5235549982904959,0.6459190595609854,0.724962624410697,-0.8919634406536561,-6.078221682509991,-17.56796593660881
390,-0.5682787045425916,0.6038319913859472,0.6616331729210344,6.471102945750289,-4.901342847362168,-10.986500804963214
400,-0.5123958566341256,0.6379523424992766,0.6757348960293726,9.091379484542548,-3.963441321944781,-10.76055793162548
410,-0.4995044282661278,0.6438615981158353,0.652119665243364,9.168366225825876,-2.043518230811456,-11.420839822454997
420,-0.4785000232378882,0.660355448512779,0.6459167988030035,13.935610252980572,2.364384921007118,-9.26925470477501
430,-0.46767495128597614,0.6437315457250133,0.6598293039502556,5.385929643363105,2.8445664142031872,-10.989904186473801
440,-0.49409893292962526,0.5925111047093559,0.632121793600126,-2.065335451037856,1.7978880422422199,-17.390768478653726
450,-0.5094950799884311,0.6162736696495587,0.6265996718070408,-6.142707598866409,5.43053870904735,-23.48571821614249
460,-0.4934868482991219,0.659197547592956,0.6460282197344648,-7.876810401837267,9.79362755064071,-25.679648263551147
470,-0.4913980522223007,0.6609444196122609,0.6573367118723181,-16.88745427092776,7.292815930996831,-31.29029110612971
480,-0.5213599187226148,0.6174826831019928,0.6442954035504851,-20.076354537255835,10.377142991132667,-30.39033279380194
490,-0.5123424254587651,0.6146904173401185,0.6631324547139076,-18.25392347021851,14.925494642006804,-28.515165796484126
500,-0.5049170451584701,0.6154778917709541,0.6805183220721898,-25.210854841152546,11.08909502033398,-33.755980738084844
510,-0.5158849435011594,0.6042573168309379,0.7045236595734221,-25.118670620505274,11.099878608697097,-31.230098610086667
520,-0.5605805012401205,0.6307848018627464,0.7241648480260228,-28.212322480167025,10.637166349757926,-18.74760588340382
530,-0.5564643921539326,0.6297890606409545,0.7398079655153299,-23.173777544664382,8.332199103765882,-12.587026843244379
540,-0.5527937629382518,0.645321133565155,0.6980212148257018,-12.216196083748738,6.419265342524777,-6.034719346504976
550,-0.5301221145612226,0.6398328467187849,0.7287145903959317,-9.414849791252308,0.7569608211112512,-1.0795627762732602
560,-0.46540446720605555,0.5770016289523381,0.8915001180039482,-13.593522455082766,-2.8286616955931763,3.030669101060445
570,-0.6213712771300152,0.6533567042710922,0.569530154713729,-4.82550484232112,6.370753825743137,14.22274418087381
580,-0.5345177260138032,0.8030953707326869,0.6044206858154508,-1.3257210098648178,0.571269896448761,17.42850875561414
590,-0.48021445809835545,0.7532266628933754,0.4894153215254116,-23.165020557823233,7.5655994320880575,24.592759630567368
600,-0.6763544092650344,0.4841315594836768,0.7619039069256849,-55.77566118796078,10.35233569404795,21.253227456102888
610,-0.7136896584223751,0.39314983466471054,0.8649951118228445,-54.60099895314278,10.370679369434146,11.634300270173826
620,-0.607167990349561,0.3144343741730674,0.7928183178436718,-46.02014433610393,7.20448541343728,4.763358918513301
630,-0.5835138846956345,0.12735905411787363,0.8546741038649747,-64.47523580529739,6.324699562214508,11.280783214585796
640,-0.5466672340248787,0.6405562361080563,0.43151642958454184,-40.60078820693609,22.7162870140549,31.423702087778437
650,-0.7050800417630166,0.49766409731985456,0.745854670643942,-44.0880437034273,15.848593081441885,28.58575334098788
660,-0.585969452893211,0.4827041705713592,0.6647600574153298,-0.2247529037223135,24.52430794611265,29.33957562723289
670,-0.5047182435452885,0.7481464840634522,0.10798593978042016,21.80718238413035,29.43985184160574,22.68477781798187
680,-0.5920046723376022,0.5083962684849438,0.10011039686514053,9.83888298640278,21.659862486649043,4.259481773686589
690,-0.5968326316751371,0.2296832221800616,0.607653055626803,-9.225287515341929,12.802655428900877,-0.5578883058835133
700,-0.496892100994107,0.474570780067886,0.7567367632604017,-7.632528881387974,12.717082764653476,14.359304243081372
710,-0.6754440863382866,0.5412229173478326,0.33936555669212637,16.777386152096632,19.190684452760824,6.259720580192663
720,-0.6748650369450117,0.4285664581447431,0.3553652691139188,-7.0904855065709596,12.567642698529395,4.482338440569716
730,-0.5994097858694794,0.7379714046201113,0.5749188079080274,20.401388760517833,7.908217638599624,3.610602436680394
740,-0.6614200703057913,0.5374246386343493,0.6001735208294495,15.386395184081199,8.928427728933208,7.80889847378946
750,-0.5597840049404925,0.5530879806905425,0.7333684669016365,11.983607744500471,7.203124022131783,10.801269590475915
760,-0.4817280270927691,0.5983524019516779,0.7031927758050267,10.082540322636863,6.301282211504046,4.551258187740817
770,-0.5258963181694983,0.5075833077155661,0.641552525532246,9.457345108600839,12.426168849154907,-2.0278669697282394
780,-0.43656988579465034,0.794516578094463,1.276655005711285,28.498722942593552,9.125041526012117,3.0208179535671476
790,-0.6742905415712236,0.15229861479077644,-0.10757154837734542,-17.89464459747487,12.217307978742387,-16.71114920965514
800,-0.47750645501685446,0.6711047043051903,0.20932032177438856,-5.24674871626954,6.881636492314679,-17.929998668308112
810,-0.5294817436393973,0.4604129648367472,0.6943810339795543,9.41177621848805,0.32187325345628703,-7.614393543724351
820,-0.5537058854861286,0.29241859256370095,0.6446948992980268,-4.210041957401157,-0.9043567283822155,-16.226028524099686
830,-0.4561229053931198,0.5192270468541831,0.5698877361068502,-5.775227131229188,2.766234771011861,-23.96964463565116
840,-0.38936024353826976,0.7802409312682193,0.7369682886376288,14.674600867774075,-0.28000883640220964,-19.041356492830285
850,-0.3869170267265659,0.6924380190359267,0.6196356983800874,13.88720502693217,-3.713616988586168,-10.736355746157665
860,-0.6338162029440129,0.8144002042231138,0.28527930227368364,16.82723909399063,5.485735606774037,4.390193061817987
870,-0.5385283249645547,0.8569632290794601,0.6307153959520251,19.301742415119605,-2.4487508309879886,-8.32251405522806
880,-0.5411564622390848,0.6762883480215155,0.6634938171540067,15.992642643873804,1.6181778534671885,2.593066272741016
890,-0.5429681581334622,0.5855978656439812,0.6556361027214733,4.236189230327938,-1.1004429487026384,-0.7982476703321743
900,-0.5150078383403037,0.609127998396126,0.6860664451585016,0.5444211927032181,-1.2413157346581427,-7.6724601520616655
910,-0.5649048985650347,0.5597981819853887,0.6318929327082303,2.1465830374084294,1.3888947527593967,-9.57609217922367
920,-0.5514453553797416,0.5491736827065513,0.6356831973225757,-2.2682613114144026,0.48406271040652715,-10.236257726760385
930,-0.536327538601359,0.5654334030019578,0.651714945500247,2.84824654445122,2.149602193440579,-5.213727683486499
940,-0.5494251520454597,0.5516701949806924,0.6437779932210927,4.740405574771836,-0.8437819933399178,3.3612473856035754
950,-0.5222377341699781,0.5851812326632378,0.673923251057198,5.014912785355334,-1.2011696071275997,5.788790573620624
960,-0.5440936838614845,0.5663295319597654,0.6481219678070683,2.755721451461094,-2.9015046780367526,3.7653041594722985
970,-0.5444090418637003,0.5646346678905955,0.643492820295165,2.097739925712462,-2.8292417257590357,2.7166181649267522
980,-0.5124070063143367,0.5947888901971641,0.6762060826360075,-1.1315839407718464,-5.466565235485577,-1.1616833741227002
990,-0.5337289831570633,0.5744884787780036,0.6587772062192496,0.23901210375043336,-3.529850063278133,-0.2854741764194411
1000,-0.5206665647138562,0.5888497360313218,0.6725766579921917,-2.309789076334136,-3.519773261388888,-1.720688169407587
1010,-0.5507170859147253,0.5455693393248556,0.6392981455390477,0.9190289036387037,-0.1708995837908771,1.101345800797001
1020,-0.550714430033581,0.5468980687350308,0.64338964508886,2.4345574118299123,0.4770666157038973,2.0198981017988054
1030,-0.5497444137496517,0.5508002330740969,0.6405577696508487,2.157093866019159,-0.8485139460519945,0.9345480137634607
1040,-0.5298512333194254,0.5748689283441563,0.6581004907172197,3.999755447202698,0.6455538265768381,2.366173411905614
1050,-0.5349432699841754,0.5746051073975543,0.6548542398446884,1.9892272559421103,-0.6961529829234349,0.752263808646726
1060,-0.5764315573595232,0.5349494063806344,0.6144153468283282,1.511002817227962,0.12072101489415044,1.2360132531620986
1070,-0.5428714069283429,0.5660800341041088,0.6572266915925989,-0.9353975391805868,-1.196840522745284,-0.6222780920311062
1080,-0.5479338011668013,0.5533090004284875,0.6442476162028887,-2.3409824325805286,-1.7768864770698245,-1.424008316586487
1090,-0.5385983585062669,0.5599135656113533,0.6477474019210112,-1.0221505251831287,-0.9698821303975416,-0.27625566894959475
1100,-0.5447345975511405,0.5507823563669215,0.6414966447038896,0.17137168556939297,-0.3336494328790669,1.0075282559880088
1110,-0.5218609805626344,0.5736672144979612,0.6671453241051457,0.1310365528734655,-0.9386705786277236,0.7743581088411213
1120,-0.5373994628592178,0.5615911138318386,0.6532332274380573,-0.5231703726410709,-1.8592491093425212,-0.0913779503420002
1130,-0.5734201192508687,0.5289501533859611,0.6169923501504542,-1.0448406044117087,-1.933494307087622,-0.33878114556654376
1140,-0.529068410713219,0.5733539642828441,0.6640853554513019,-3.022044904095131,-3.104145012894546,-2.5836731287919728
1150,-0.5467813538627894,0.5505165734308466,0.6394575873426559,-3.636144208671705,-2.5617006043036814,-3.4114135782601265
1160,-0.5317682560800633,0.5658176867748622,0.6591674224048045,-3.681863585577589,-2.658995055378459,-3.3992035736934842
1170,-0.5243700503162995,0.5721337132327483,0.6721018124690649,-2.50551268112461,-1.6314912932026613,-2.351805214296165
1180,-0.5289197106634701,0.565221201328902,0.6635737380784488,0.14017091383312513,0.45691848614422503,-0.06420421375591528
1190,-0.549730963341126,0.5442677642461649,0.6383940364073393,0.07380226449590233,-0.20658797545391966,-0.4419883589527848
1200,-0.5325582628943888,0.5659632121302892,0.6600505883942565,1.122524907044766,0.7052657477607664,0.48692102004660665
1210,-0.5345101991869614,0.5700626922533888,0.6570244143392872,0.11340334626450466,-0.2463577413003636,-0.683472932958014
1220,-0.5494986764879468,0.5509726419833183,0.6437948733214045,-1.875490535483993,0.5103078504393906,-1.0605648199321964
1230,-0.5183950974269104,0.5780614855198264,0.6713414398910058,-0.6172191396691096,1.7802422436056013,0.741695991695208
1240,-0.5320227524192062,0.5637802849976765,0.6610843084961756,-0.856390066614904,0.9938648681954754,0.518444454618429
1250,-0.5512766634810033,0.5423901339862602,0.6420039567266543,-1.6585147460636587,-0.760966942938903,-0.7566440257996315
1260,-0.5514259869954681,0.5397370405335772,0.6406856831399751,-2.3792201227633543,-2.495493590975353,-2.193240795146116
1270,-0.5290449432692146,0.5628911612076305,0.664396452684531,1.3868291076119015,0.5489294081291691,0.9703345121070739
1280,-0.5452976267285422,0.550499421260857,0.6462902671769014,0.7410512721419604,-0.5066665724631255,0.15765581261184314
1290,-0.5301905484329696,0.5668917648487993,0.6682860634962816,2.083067081726007,1.5568126582541775,2.5784362730676387
1300,-0.5415674769423294,0.5581055289675878,0.6510661450888062,2.413845471604032,2.604197583124208,2.936114584015456
1310,-0.5636382504061962,0.5364755928864131,0.6311659967189182,0.26206652491194665,0.34747238044709433,0.1242833965279495
1320,-0.5157921451752863,0.5833594207732928,0.6769550916360562,-1.4749209885258565,-1.82896416624878,-2.214501262569496
1330,-0.5392996731718207,0.5605632473056512,0.6536743070003989,0.7303486601453925,0.13303045874998257,-0.07279005408542394
1340,-0.5147826503974157,0.5863636968504451,0.682497531274676,-0.3758627782836362,-0.8146372858965285,-0.7501844101003434
1350,-0.49776598840859715,0.5994452675475669,0.6931757753529029,0.4433220820631171,0.3703410240509857,0.678689429112596
1360,-0.547209675305371,0.5483872339513848,0.6456599858798273,1.1445592116545347,1.37751804913139,3.113092379081867
1370,-0.5463484091959783,0.5456007174489482,0.6446860694120642,0.24790104669868657,0.0009006429419777806,1.541575226581733
1380,-0.5378216095580981,0.5569206235706398,0.6562882818905258,0.7554357676867477,0.47981231336672103,1.269818046342825
1390,-0.5213614417387892,0.5758285602372164,0.6707223980697852,-2.388480127759719,-2.555578339767218,-2.363362277060236
1400,-0.5296486900004137,0.5669830030814756,0.6595785343798294,1.8409233335796609,1.9781340936872012,1.8257329907336257
1410,-0.5138575651936018,0.5797789728562032,0.6757227421093316,-0.9650345618323022,-0.48570900045166365,-0.7656836996129013
1420,-0.5212879812458531,0.5698277133442732,0.6684553162709744,-0.979523942441625,-0.7828759469801869,-0.8159164026175043
1430,-0.5361034034742841,0.5610371994523037,0.655913021586124,2.150914310289793,0.805051814138257,1.6767616132458505
1440,-0.5220127774075746,0.5737258712063861,0.6676157300663373,-0.7681754006347674,-1.395980944933317,-0.8612210785951899
1450,-0.5413344914381361,0.5546267326906283,0.6492485598407834,0.6302385550959358,0.5318801125895878,0.8376183780288354
1460,-0.5600102837254881,0.5350698825946671,0.6284541222498887,-2.396262441462436,-1.8885556908814851,-1.639614174696338
1470,-0.5253943616438913,0.5713103264837236,0.6641941639674496,-0.5241968725008892,0.5619762258871733,0.7944435024172194
1480,-0.5394354592905285,0.5592515664307998,0.6517227754965911,0.74081000264212,2.349119036049767,2.228375613752907
1490,-0.5251112898265301,0.5701768794155855,0.6597316224339056,1.151221470816587,2.9735359319414183,2.283254927909209
1500,-0.5331010440118654,0.5643249161039495,0.6594116868469349,0.8861290839417608,0.8404729246201392,1.6636064251270017
