time_ms,ax,ay,az,gx,gy,gz
0,-0.7503009552428282,0.7551372401662203,0.5261580832577932,-0.8151319096490193,-0.70021086613771,-0.20394835240094777
10,-0.7267292449793537,0.7800523904501152,0.55062068860843,-2.313443423293253,-1.307939862672241,-0.8004257055750892
20,-0.7436597065434407,0.7569802798411458,0.530426198612501,-2.6609129269905987,-0.22386040988011674,-1.007861979682394
30,-0.713972683984717,0.7864885402830828,0.5613566473885107,-2.2391100712351646,0.19364682611380385,-0.5948701223136403
40,-0.7476649453386206,0.7603447545665294,0.5304290480339771,-2.798259999792903,-1.937012944445725,-1.6635259962092412
50,-0.7561324247018613,0.7601900165039677,0.5235804579219744,3.559537428377103,3.115253929774936,3.848898001188218
60,-0.7463910769054808,0.7677399241545666,0.5387190912442564,-0.6429912988866959,0.9778269545394369,-0.05030617180099817
70,-0.7399957682879903,0.7677029964331954,0.5386940297573077,-1.7418725668290076,0.1794650952242705,-1.0601500493497518
80,-0.7541078856708213,0.744355665081477,0.5181591248693015,-2.7840001491440036,-1.6118760850058016,-1.7024126205687709
90,-0.7497919502477112,0.7521869870400878,0.520006740410697,0.02865409135218311,0.4356570528966023,1.8938442455120188
100,-0.7291107858557808,0.782268553027076,0.5428439917444309,-0.6788135688888477,-0.48219943208794025,1.591811415335557
110,-0.7549879598300638,0.761108934337767,0.5224869784627671,-1.287811609860701,-0.7270517829316014,1.0758627182356415
120,-0.7360168966495343,0.7768017052663386,0.5486808932141997,-3.280729938941824,-2.499198181155923,-0.1661923881253089
130,-0.7645660109190365,0.7611528816570057,0.5330254160969997,-1.5311333555351052,-3.1641932805612925,1.4826633444955668
140,-0.7635464018558678,0.786601152336476,0.5631865371396158,2.983818529146583,-4.259733510570019,6.173928367458241
150,-0.7869378120164242,0.7925885059753536,0.5614801158845106,11.358220827218117,-3.2603341305981646,14.80303611741526
160,-0.8505852254129987,0.7385866199023593,0.607051085585873,16.054151516163063,-12.017314065700422,15.405944211102334
170,-0.8756230120843593,0.6843666492595437,0.6714134770423121,19.781853370759727,-22.108514875085696,11.15154281564539
180,-0.7752372493832107,0.7138280271309065,0.6562026817517329,23.738681349893707,-22.80262410218465,6.679471562111728
190,-0.7303369273611511,0.6718075321814787,0.6324864182397247,26.461748899523332,-27.576678814290485,-3.67824461554175
200,-0.6474015294850382,0.762685716834641,0.5909322162150689,29.011299965060893,-27.21325750821011,-6.679161033225091
210,-0.61809553283714,0.7767007304994871,0.6080107053905172,33.870440062000014,-21.42560617003706,-1.2933860029843935
220,-0.6424395148000911,0.7179017184015657,0.5438065587427564,28.43439343478961,-19.515305489636972,-3.163574932237133
230,-0.5697922694360574,0.798057718312313,0.5110609044348798,15.398893289055543,-8.52036125022761,-5.746274235022662
240,-0.5226951925594224,0.9164169870499735,0.4482622721755364,1.5779503449801275,16.54159871554991,-2.402307949452013
250,-0.47849455801524926,0.9478777416734072,0.47954431003375303,1.0185872618167577,28.71068217964944,-0.0013165595475578828
260,-0.5566605445861583,0.8692080045210866,0.5048835416804425,-5.412918985676881,36.41053469078267,-7.0169740854737475
270,-0.7005122989964283,0.8165152419706659,0.5147264815497068,-5.581023418505873,37.98503248784874,-14.922584038807658
280,-0.9208759034236554,0.8461170631246507,0.5850572973946023,-9.062957318938171,27.099019162740078,-20.096084929741945
290,-1.0202163881246207,0.8191862091656619,0.5964617369390415,-6.952331431373547,16.742951374808413,-18.59831623473917
300,-0.8395001331362362,0.7545517918295608,0.478212591398497,-3.8284227519809857,7.56472115216915,-18.56361776050044
310,-0.6096428099881841,0.8979016450683245,0.26705981608938983,-7.325538435571079,-1.6154351216091554,-15.583054277635938
320,-0.787915494692301,0.8164760025180288,0.5329244240258907,-22.601502978945238,-8.439967324570226,-22.905362883000887
330,-0.8230236612412448,0.8961925088246995,0.7165024866097791,-38.18580588753493,-8.17441706419849,-19.778568902892886
340,-0.8399026345177174,0.8379981159002152,0.7814026276076902,-60.772582101337946,-8.351837457121677,-22.41712146081019
350,-0.8361958183939712,0.8274878287296515,0.7256310189537043,-60.23732122417979,-10.72825826104572,-15.548159202145747
360,-0.764402917410906,0.9326435401284391,0.5968146397979438,-38.38381699465894,-13.987611224551383,0.16028781779095236
370,-0.7264891438243936,0.8085142390954415,0.3426092847487737,-28.96369776551636,-5.484802844406233,9.407470592194507
380,-0.7388767480375505,0.7252502233734243,0.1055968569445099,18.575751948473755,25.547127794041277,46.437248327670396
390,-0.6867290360128564,0.43350062278399953,0.20109081748475865,25.627294419093207,43.39070363103039,50.498335858393354
400,-0.7350974731295952,0.3016182096335606,0.6158369086113006,34.54415596834077,42.91059699696665,38.7374164513977
410,-0.8012178730023986,0.312739948827645,0.835875412942856,47.123649226222746,36.45699857143506,28.117169780323238
420,-0.7957335391840885,0.47331139022096075,0.8739023672841052,56.46795663533158,30.49825373340107,22.432802034705716
430,-0.8725957295403814,0.611997129636313,0.9351938716256409,55.23115276672706,19.762914083363473,12.117458211031973
440,-0.9099703786763054,0.6059748214029007,0.773366375507137,61.00160473262081,5.2981866395283745,4.328768687037935
450,-0.9877993571995962,1.1826655511679665,0.6737260410487576,59.24074773711798,-8.39942937048311,2.738082248755549
460,-0.7630212693932069,1.5739044446452257,0.5445130623816552,59.652285502373076,-3.5169374897206045,20.24926808184638
470,-0.65412783253046,1.4075515466932558,0.45716188827053994,46.07932298716935,3.958458478557555,25.05196970871234
480,-0.7012591992957646,1.003362225197235,0.45719279947770197,18.977343422189847,4.221070176952841,9.624661595696828
490,-0.7782079950053098,0.8101520403264624,0.45938384247197656,-3.114364267739337,2.6229992105216833,-7.8267647024660825
500,-0.7337882493462454,0.8386846620234454,0.4921809168992308,-15.01539835545307,-0.14324373661242917,-19.989933058215176
510,-0.7482486763196441,0.8045089553157297,0.4800946742604319,-22.027721778424823,-0.7036108167472845,-23.48050193925044
520,-0.7367732974583523,0.7830205935713646,0.5018838187694342,-24.14288304419902,-0.8654629470300672,-14.425175709614328
530,-0.7365998508241846,0.7682766846875269,0.5095330551822288,-19.71859556114353,1.06178753897865,-3.021089588674347
540,-0.7500510422316237,0.7536276730652244,0.4938506170773014,-16.001846778158296,1.700974812560095,3.5078253735166807
550,-0.7334429265797728,0.771546529464076,0.5027159568931501,-15.804364939391727,1.196987642592596,6.000154319867403
560,-0.7511599366615052,0.7649250844331456,0.4902750775100846,-13.228109484101305,3.5313055372468605,9.819132514525817
570,-0.7776789675128604,0.7444641081671097,0.4684552461462722,-14.164435597540384,0.6182575471500245,8.19263286770257
580,-0.7315379972587792,0.8014427259881932,0.5140242931240931,-13.538135671255716,0.4273181404862232,7.181089969943242
590,-0.7342385153149797,0.786179995392676,0.500868655004915,-6.006641283116595,4.390050079126228,8.242092191837337
600,-0.7474209999618874,0.7634754865496252,0.48514805907099473,-4.343783016695081,1.4027752676159093,5.262499076878831
610,-0.7568418751666116,0.7620786925614379,0.48621246310062055,-5.580176653166282,-3.2759027726866274,4.622340495605129
620,-0.7384788963616904,0.7853785345292309,0.5091694737110122,0.2678486147157575,0.8325334806417265,11.327092817385743
630,-0.7102328551965432,0.8220885054647026,0.5310492278996163,3.672592115745417,3.010139962551011,13.00516862190273
640,-0.7557979103439499,0.7816751175337217,0.48532904291551615,-0.283936132740232,-1.2870093540193088,6.015465928487822
650,-0.7292512577529721,0.80755786146192,0.5169000847154589,1.0916202020786672,0.16207204520101587,4.00219783899681
660,-0.7601256500733223,0.7767748833820657,0.4843061896301596,3.007060621954598,-0.1745162998705315,2.313230417543907
670,-0.7461254708965727,0.7910225102185275,0.4898443315473098,4.20122715726428,-1.1076406281446283,1.8928558103481277
680,-0.7391524711232672,0.7939676929535239,0.4936556015272134,0.5348846004531225,-1.6577017421762044,1.0627480327164012
690,-0.7565252630503626,0.786040487735829,0.48466862024280755,-1.4842392053579787,-2.0415066541192326,0.8961680594707735
700,-0.7506127863988884,0.7874233197229658,0.49477189289045764,2.372883637440765,1.078122235151894,5.491158702804149
710,-0.7369638007332178,0.7996720562137303,0.507899330353321,3.977510419066806,-0.4593372234546085,5.876213430200131
720,-0.7417932342888957,0.7917839588230572,0.501155303694739,6.540135449741793,0.47015820819904697,7.807779608671462
730,-0.7685773917004717,0.7656211948310083,0.47544724729734533,3.648834343513652,-0.26323860815932343,4.540765851577554
740,-0.7386153993626081,0.803335743325853,0.5094803317504291,-2.989932895123372,-2.440219818753849,-3.4950010960768085
750,-0.7061953318218817,0.8253168766237737,0.5358336515483343,-1.4580102868337808,-1.899682567674047,-1.9331605765108228
760,-0.7667936795258771,0.7625291718658728,0.4751168765640756,2.6598948195314334,1.3645111181363991,2.954785716494322
770,-0.7479906697837944,0.7856449355710322,0.4908230570408688,1.42198380740962,0.6934753132856132,2.6888636190564505
780,-0.7591546239904852,0.7773819629343846,0.4783250023573265,0.12567117254463578,0.1300525730400045,1.775014571746097
790,-0.7567535810524479,0.7777538775508285,0.47861671108306003,-0.4953587115584912,0.6983246372941926,1.3019023497908595
800,-0.7338834600029496,0.795791483074322,0.4989014032514908,-2.916593186679261,-0.8432133576561831,-0.6042952699168017
810,-0.758451013242899,0.7712555399683217,0.4830695305728771,0.059006065858244305,-1.2056134395927598,3.172404401238289
820,-0.7576016689073225,0.7739341649661233,0.488793699392333,2.8110929671435145,-0.6064678703842146,5.9140577248409345
830,-0.7443314624096744,0.7900205315945105,0.49591510487660334,2.9423446872261505,-1.8769435625290167,5.3597822703000535
840,-0.7465794426549985,0.7959652015322366,0.4963185209805518,5.557951113181142,1.1314728964361498,7.2457939645145615
850,-0.7461950018612757,0.8036532866616196,0.49734812180898297,0.8059817354073502,-1.8955506915955167,2.052738728271358
860,-0.7409215396207463,0.810970648051833,0.498051775212773,-1.5455483430959043,-2.0887991620367314,-0.4909831644510856
870,-0.7334968644559883,0.8176214730769535,0.5125740584910132,1.322673756232173,2.4066140197476593,2.0646703080339543
880,-0.7429061486277451,0.7984344968735481,0.49939881774897377,-0.12632956117662353,-1.4360277129027028,0.16980264233001563
890,-0.7057786808670444,0.8347781918638021,0.5340392839852718,-0.43004252288839484,-1.578917643330374,0.35435347689873464
900,-0.7414460398402056,0.7984095550691311,0.49550955476908926,-1.5698614869247525,-1.7450183101092414,-0.9922299807493249
910,-0.745726868551454,0.7939367902120509,0.4935010624167698,-1.2660067411417104,-0.9316052135289558,-1.289015006619947
920,-0.7561142898191281,0.7840266394958267,0.4865506056597263,-1.74892528108615,-1.5320011384100647,-2.1874872323620256
930,-0.7388766912682645,0.8005521334321198,0.498922101433422,0.4631603489324961,0.707035365557392,0.10814466655468313
940,-0.734991773510215,0.8005917513711173,0.5062297511366697,1.691115437662026,2.248858028237468,1.614570024986953
950,-0.7456693600133659,0.7977048807765672,0.49615863186765347,1.3097423373789596,-0.1332882049463644,0.35009345620486265
960,-0.7279070884732627,0.8113850538265853,0.5119092550392419,2.1434799349513702,1.6788927345678415,1.3103008065959076
970,-0.7291393490330108,0.8101620299353124,0.516221667552308,-1.6639315138296829,-0.8320303195803016,-2.529119532362194
980,-0.7396679861800349,0.8035843511762856,0.5108302142408354,-0.5820585080811701,0.23983042561345094,-1.8526828662343786
990,-0.7541485824898849,0.7872086220919664,0.4884144857480701,-0.7555723918218249,-0.9950698011718349,-2.242132103986776
1000,-0.708156442382109,0.8316077828113473,0.5282990192209849,1.7017039133603993,0.8933403201606711,0.17852190139382618
1010,-0.7328466230694213,0.8001022315232267,0.5086765522284145,3.3935058132236673,2.8580235088577974,2.69250337350854
1020,-0.7157186944641937,0.8153677035226043,0.525306618783564,-1.3751276170177567,-0.32231546563697566,-0.42852437975072
1030,-0.7476904382554493,0.7926092611972453,0.5006925382152914,-3.223325863845556,-0.7416881473311108,-1.6306380608667952
1040,-0.7599953382052376,0.7880897922884088,0.4904244915330895,-0.9021146959110946,2.174240625461394,0.15943464748714664
1050,-0.7335129810356487,0.8107888746585477,0.5059367346134963,-1.3492423590460334,1.4270464485558607,-1.2875372362539779
1060,-0.7226357779137527,0.8196524323362961,0.5231347206979298,-0.28752575242579925,1.5126464161978657,-1.0929206365010755
1070,-0.73486664754824,0.8016541655737843,0.5051275823790747,-3.0133281260901064,-1.7315384841649721,-3.607193918992043
1080,-0.7382356858213315,0.8004358640576147,0.5064067224817849,-0.03754230205897091,0.18501945813639314,-0.5872836414624008
1090,-0.7280665839776063,0.811241210480861,0.5197276890672,-0.5947676770068763,-1.47234353166515,-1.4427838031604034
1100,-0.7300511508439242,0.8104591749252156,0.517432653325411,-0.676107324587776,-2.7641345851116275,-2.5914824254326643
1110,-0.7458111506761915,0.7965165811055362,0.4992504027536045,3.12864616717738,0.7108241984849814,0.03222127123330021
1120,-0.7306177557387505,0.8074979343325582,0.5117036481034176,1.5413574182988214,1.7443455253587417,-0.9711174296939666
1130,-0.7439191708506259,0.7985796860331621,0.5071734647126213,-0.6561582998532844,0.18897659653737933,-3.0605347279745327
1140,-0.7743485409969224,0.7617280789040624,0.48101805509858475,-2.132763969699267,-1.6681609671692503,-3.405635169867071
1150,-0.7411268801368982,0.7897175094147447,0.5065220457426187,2.691168367508147,3.1456840886217523,2.7115591160233534
1160,-0.7243258360556211,0.8093560769723716,0.5191137819093736,0.3577377909880988,-0.3190293534539911,0.8539382556493684
1170,-0.7260980260424285,0.814201577957592,0.5179746790020721,3.326340814467912,0.7697491981797042,3.234382561223307
1180,-0.7155605403949351,0.8234688771325571,0.5213996157967631,1.3549668854578214,-1.4251087373571332,0.20129974393702077
1190,-0.7069012902283285,0.8269495143070233,0.5371459246525903,1.325019964062362,-0.3705929132237036,-0.6736283752115362
1200,-0.7411432463906179,0.7987882455115966,0.5042158809420291,-0.08318348426770639,-0.5818218955849118,-1.5625524916788738
1210,-0.7166540187208833,0.8193876293098377,0.5226010926154117,0.11048149599819923,-0.2944509502577274,-0.9365540266003005
1220,-0.7381454156147308,0.7922477541041526,0.4995959349382701,0.7840700233011203,0.9802708518144864,0.9599564181834233
1230,-0.7526277491268002,0.781685398416166,0.4893328351738796,-0.6474313933864201,0.4327638302276394,0.025510958498869085
1240,-0.7372525776017158,0.8111688837709847,0.5074007394450242,-0.9963725880715566,0.07655486171674597,-2.363297771425756
1250,-0.7641226008911947,0.7768169442630123,0.4787460994818987,-3.1779562986911722,-1.8723406091608155,-5.519834505962921
1260,-0.7218657228229514,0.8168675540017502,0.515539210334797,-2.084657560537608,-0.4107973946001908,-4.001455496694693
1270,-0.7458205839470843,0.7816997471519884,0.49659439908222713,-1.1179494570569357,0.6787149200661902,-1.543151790144511
1280,-0.7304599082413434,0.7964033000580735,0.5174993191551325,-4.018362121881053,-2.6942787752977693,-2.9640825441801564
1290,-0.726245445267573,0.807411599665195,0.5221459595936829,0.7531181347074815,1.228447155177,2.6491494940839284
1300,-0.745420128030137,0.7918380710679684,0.49933549439989416,-0.33169882002142115,-0.5296542821481605,0.8624763780019128
1310,-0.7594192603366106,0.7802131219985815,0.4857039060101433,-0.49533998746658914,-0.6106673820372734,-3.4300175496679537
1320,-0.7352267421845924,0.7988899799988572,0.507340813954943,-3.9614248578639195,-1.2362865431669623,-5.298325006081519
1330,-0.7641497818191479,0.7744182569303408,0.4852618028406488,-5.179780510177816,-1.9259892090578248,-5.436398874658257
1340,-0.7141251766338979,0.820637863821112,0.5374113257858891,-1.3442819911204922,0.9799111282823509,-0.5585216008734544
1350,-0.7577130662190498,0.7696092861925335,0.4898804904471686,-1.3621502211664034,-0.6680486753410139,0.19683554921367596
1360,-0.721886881887689,0.8037645612844868,0.5215170755161487,1.6901411804818878,1.0096347883314398,3.521904932292804
1370,-0.7309181292227449,0.8008854884774862,0.5151636184067078,0.49061067827071914,-0.2522544834260542,2.092208732966913
1380,-0.7445282555128018,0.7900330023063906,0.496254911408079,-2.1458974331427645,-2.813815970545154,-3.7934651581244525
1390,-0.7496092343283245,0.7816808572523775,0.4905410098838632,0.7218414080981597,0.22469906731383618,-0.5588038942964071
1400,-0.7223776929623127,0.8078365777986095,0.5212490528307786,-0.591260159476001,-1.2087580520305934,-1.089320895262804
1410,-0.727348479338192,0.8023765508899913,0.5188588225798813,0.6771264497487235,-0.25592598652618626,0.7501413903191134
1420,-0.735552374979676,0.7947743088219793,0.5093031767706448,1.3862136801855636,0.6024435727210791,1.894113968329037
1430,-0.739180403209129,0.7963008993282372,0.5022554822374924,-1.81770057829319,-1.3507860559082325,-0.9251039403738505
1440,-0.7400617037141171,0.7982156738552834,0.5062831773020997,-1.8490737879117964,-1.2251743086721392,-1.4116163308866165
1450,-0.7588842135683483,0.7747148659897705,0.4849207687851404,-1.8454648329402599,-2.038196379740105,-1.5657953837353267
1460,-0.7655829095453764,0.7726395407348398,0.4827955822379321,-0.04852592884263107,0.20655616120054293,0.6543352885624295
1470,-0.7466773960619183,0.7958024881339606,0.501315820270842,-0.5113533050949826,-0.011613752934385185,0.5390880400054393
1480,-0.7151350355605016,0.8260628614337323,0.5284395753734583,-2.2350495994257096,-2.1622448121733977,-1.476208684424819
1490,-0.712791097063821,0.8237939289003122,0.531569963655331,1.0600662382465245,0.8657649472286103,0.9494567713035754
1500,-0.7319170756870079,0.8015603977267551,0.5108520788976921,-1.4059701194341898,-0.5410472126873697,-1.4445595146326378
1510,-0.75277018933675,0.776207521633797,0.4930754693257792,1.7034973677906327,1.0743254198763579,0.7789263250061265
1520,-0.7476770202053429,0.7866853819717208,0.4992807945508683,-0.9270816396913337,-1.3752852252960548,-1.0497556917757545
1530,-0.7186826905714315,0.8210631583326513,0.529737356769748,-0.7421238302084616,-0.38623919114224103,-0.13160011503422675
1540,-0.7290993550568415,0.8065827867033448,0.5173196112978309,-0.5934698780304226,0.7225664233902697,0.35639503226623004
1550,-0.7264537287946202,0.7989007794364391,0.5152056984418363,-1.5351787193562205,0.4438744508177094,-0.43416158634371027
1560,-0.7581640631186852,0.7780103072195291,0.4942477009351651,-0.6789189749574913,0.1831519969780182,-0.39565081847485195
1570,-0.74158082109634,0.7953521457600129,0.5049898906551277,2.355740687960245,3.0324839829605392,1.942388194601863
1580,-0.7320168894142629,0.80144451549576,0.5141326249941358,-0.6536269730076576,0.6554894829278954,-0.3739260615571469
1590,-0.7374500538097614,0.7955961997941333,0.5080574191830269,-1.8833288296987285,-0.6172491198608712,-1.110561117890406
1600,-0.739501999180903,0.793989410736481,0.5042141092196611,1.2108490020861349,1.8978442176709551,2.096214272448623
1610,-0.7377612187679713,0.7945314561584511,0.5053919990733717,-2.425533135174011,-2.4556260706330257,-1.5656036709833603
1620,-0.7400798357487111,0.7916177256788006,0.507057033944198,0.2167843123215082,-0.7316199943659922,0.97368333348208
1630,-0.7345126141720232,0.7866739188265742,0.5091224809141373,0.5590563554410516,1.331877618179936,2.275385041267658
1640,-0.751146628524973,0.7808660823235827,0.4999020215126158,1.6614693232181459,-0.16513826611648416,2.065819198045776
1650,-0.7320391917394975,0.8087954907786904,0.5170809755404282,1.450095317801222,-0.6231497132661836,1.4053605530208673
1660,-0.7503148395334676,0.790136850934597,0.49799537456406495,2.7075947514747125,0.9831764697395372,2.540999447580176
1670,-0.7474549768485804,0.785692848908343,0.5035537592156567,0.8862263132873834,-0.7742239482109156,0.6959654951181083
1680,-0.7297081702556447,0.7976163804901163,0.5156068963372371,1.7009056700492473,1.6992982730585786,2.365042234383856
1690,-0.7329181033532874,0.7984528778526537,0.5104472706829372,0.3276270578921655,1.1661116156900162,1.0108610269420601
1700,-0.7409668576669792,0.795728563099206,0.5060119657693757,-2.112234646876005,-1.4033449695001192,-1.698188982452233
1710,-0.7113193331642433,0.8272052087733914,0.5364343588919299,0.9602130494026859,0.852312807496717,0.5371949204665875
1720,-0.7638696210409,0.7735149595075473,0.48122664368950935,-1.3785901884223102,-1.8148227978608393,-2.1287030969609617
1730,-0.7414292459764942,0.7954453448985709,0.49944011428944496,-0.7335110572747665,-0.9524947893347718,-1.1356996017424477
1740,-0.7394719146259077,0.7992607612198436,0.4990842932600805,0.9006161554739816,0.6754689836561005,0.8175927866903551
1750,-0.7349271601334754,0.7960752555681279,0.508980525404509,-0.9764647992241872,-1.3215586689222423,-1.2005863075094805
1760,-0.7222443895357903,0.8089546646320804,0.5219008138895632,-0.7388484204490218,-1.5231212685545472,-1.2197420026410886
1770,-0.7515468293860672,0.7863039570152729,0.4977689601685758,0.09570113335067398,-0.24394574482932915,-0.23124657768526266
1780,-0.7284288175934096,0.8081313045930958,0.5199973449014674,1.1425087146957111,1.264582143744798,1.160474258195374
1790,-0.7481311065632394,0.7848410316358451,0.4964780732543407,1.3815279854019373,1.227878605477089,1.4109848439304187
1800,-0.7334654004291654,0.8024843547532254,0.5116185499484499,0.03597168222991276,-0.8174349509100658,-0.42043315855904706
1810,-0.7502436974108123,0.7818541835863332,0.4942609351647466,0.8119084300673454,1.1839899205226356,0.3693420301582552
