time_ms,ax,ay,az,gx,gy,gz
0,-0.8765281420950537,0.6061704953705381,0.48712078736574715,4.826017314173425,1.3094064918377266,1.3153298908678694
10,-0.8903888456636823,0.6176730825535386,0.47371387301172896,-0.8676651000664772,-0.5446063996226851,-2.3344949893209517
20,-0.8834437154661655,0.6133323656444889,0.48091004822960426,-5.309170968757846,-5.144066212007899,-9.636321533100917
30,-0.8789905769969831,0.6163134422848164,0.48463499672438437,-5.317720191379113,-2.6569818078218574,-10.01955138729462
40,-0.8825947722265155,0.6014297993240523,0.487793511835376,-7.745515923291078,-3.15973855120283,-10.786460852051821
50,-0.870552104953144,0.6032881194962926,0.5001356652868011,-3.002610973922391,0.39711716612903475,-5.533439702175137
60,-0.882223178996151,0.5995474310771255,0.48524857021985635,-1.778085488343842,1.8405662381777752,-3.2773415588448067
70,-0.9143828781907143,0.5650885679609733,0.45411244346333657,-4.556834125867674,1.4906999000113985,-5.042773208786106
80,-0.8916766195683627,0.5871980941153762,0.4742197085434474,-2.3904194552239746,2.096595969559399,-1.7511667190047346
90,-0.8838617517587296,0.5890138895497322,0.478566769227924,-1.0873384752776762,0.45363635594007035,0.47031505338381435
100,-0.8767243267660849,0.5994296207566515,0.49128392579451363,-0.04882758203009685,-1.5996881940651901,1.9255799751491927
110,-0.8942670946897663,0.5807835330860288,0.47356746268493966,1.7197892724621058,-0.7612905808075088,2.819066224085268
120,-0.8831553458283895,0.5956144490332944,0.48476844974788175,-2.8709755447134384,-3.848778043544689,-2.372553696744567
130,-0.8892192608779589,0.5868636085891936,0.4827371443118803,-3.3134706528406235,-1.3986987891956826,-0.7122475247900644
140,-0.9217456368972007,0.5485065260701566,0.4514401057204672,-4.559555348096745,-3.2278852032459007,1.7453824917508043
150,-0.8980831606625731,0.5684237021167011,0.4757753310147329,0.7636642195147378,-0.11064378232422989,11.977380595018674
160,-0.8998760775839006,0.5616019782751999,0.47482157791869023,2.072535775182804,-0.1729943985011706,18.422893602498682
170,-0.9116950866813877,0.5456086457846098,0.4514711123637838,8.365659261583348,2.1076621876839763,25.90952289491112
180,-0.8769252630217383,0.5024741967346286,0.5372311013646108,28.127328320391896,-39.155917123992964,-3.129267751865936
190,-0.7811562791669523,0.4756606631049319,0.6328593592512953,43.34228548360469,-72.48864540040992,-27.768564920120845
200,-0.731011367926232,0.44299787262381324,0.6119475652629404,50.11921275765175,-75.83610715687601,-32.5086080118477
210,-0.7344666463506105,0.4715959313633501,0.5402585844271096,57.77369922806537,-72.83180714325384,-40.80588624306817
220,-0.7220749595253716,0.5494408513720729,0.5029589087716584,67.28310738543338,-63.88311185067985,-46.03347656846968
230,-0.8550245722634234,0.7632021069517619,0.4017520735439296,55.16184516977034,-49.60813262599435,-66.12764732833067
240,-0.8823085368562185,0.7787146555252666,0.5340163161682122,25.18685500257127,-33.85897897898793,-56.541118745367314
250,-1.0278474769100892,0.7294966242180353,0.835122516336136,4.3859599630277994,-28.468541710585022,-35.160820541063
260,-1.2233159644377956,0.6820249168227737,0.6997043363210916,-12.543439152100246,-43.66921407510936,-18.600480489075835
270,-0.8479422741718338,0.8509208690914974,0.4897532678507706,-16.21005079432885,-37.613209725882015,-15.158333305544033
280,-1.0717564066736625,0.5179705370830536,0.259956262513767,-37.55088887487779,-18.658792065890445,-10.421157810522235
290,-0.871611249612684,0.7524712393418138,0.5501109998784259,-99.36063220607846,-11.455386553719368,-31.725517388387857
300,-1.1301399066343838,0.8877466039175756,0.9287665374952239,-112.75538689136958,16.35574985801859,54.83127203056595
310,-0.9195753716278658,0.5375758255030959,0.15880611402831948,-78.81456035763894,47.738409629735216,66.63054339795669
320,-1.4519365194413127,0.34412890748790254,1.0194508124505688,-36.58191940115758,58.41809090613094,85.59085981017242
330,-0.4619985617624544,0.03158978722477848,-0.10799652813830433,-26.284269361660694,82.49299144495929,94.84571915160534
340,-1.481036304888872,-0.12042310642301875,2.111250871402129,-22.486118421875275,97.75544356918596,90.4295820182107
350,-1.032506187338326,-0.25553457192180956,0.6337036896974464,-23.669517796859626,102.35348150784303,74.30619533208615
360,-0.9114610640702054,0.4928669985682327,1.1032547467429155,43.81173110933804,86.1581687710008,62.36897436896234
370,-0.5970284373442175,0.7566093435079071,0.1691432473609003,61.057786938868446,69.56851642344282,33.400881779596034
380,-0.7920105922977445,0.9547944021257291,-0.0004625646957416125,33.70224863636025,46.69745554049154,43.73514570015274
390,-0.9123557257765305,1.0041855096511891,1.119972686642216,37.22632338807645,26.0258130107256,31.09458305381509
400,-0.8477045605564514,0.9369008766100193,0.9073510625450142,39.27120594022742,14.758015932220717,10.082392050456274
410,-0.650814580671455,0.6464812285918793,0.5329629462377581,16.02972076205792,1.8685283952197087,-32.579474592676284
420,-0.6924705957048786,0.15815059632892858,0.7510086065345669,-17.75788459469706,-21.20339981621672,-55.767547534628804
430,-0.981298030580585,0.4163217253763627,0.8888902608217548,0.10794828058460114,-9.301908214237528,-37.70819251916174
440,-1.0289338440122893,0.870660934932921,0.08633797419136675,12.638983395914178,-9.829989114895474,-37.9851010292659
450,-1.1763833023818988,1.2699650280245296,-0.32674958250968533,41.35382408230417,-7.566939031233822,-8.416460710011592
460,-0.890971867666655,0.6240271429282016,0.4454786408812237,-2.017207768062688,-2.293504713127415,-16.982157242636468
470,-0.8281103718785697,0.4747849469914757,0.5517364868836931,-4.137933577984276,-1.4131984446732924,-17.7782150331438
480,-0.880451343521035,0.5652434749944332,0.4387004031746703,-1.4907897873471085,2.8219568226687604,-3.0759501236442315
490,-0.9062444523023195,0.5405738827344309,0.4090090496084864,1.3145476256533846,1.24825779043744,1.9268998146891745
500,-0.902453852600403,0.5572640537242028,0.41555649057681543,4.167209084309046,2.0457524566210235,5.597135843640109
510,-0.9018173454664694,0.5633642133677306,0.41490992050002806,1.7623026319942878,1.1097950335292133,2.906265698496973
520,-0.8877525559419601,0.5770831642208769,0.4324768185652996,-2.6046733792466323,-0.9459814029647017,-1.980045815253135
530,-0.9034139185611639,0.5576529711151722,0.41888471135195104,-1.2797246585564945,1.2802254227725252,-3.4749552603497658
540,-0.9102586159084728,0.5426790712484029,0.4130283137891965,-2.1794611453476413,0.5845901990142046,-5.366675751439857
550,-0.9252053027673466,0.5234109627543723,0.39570672517568223,-2.4700284782427557,-0.833602341492927,-5.293844518343894
560,-0.9091146770384853,0.5304760033152544,0.41038024651860683,1.106523059457891,1.1274246940249277,-0.34771634665294515
570,-0.9053689289105314,0.5391596034031846,0.41722751239980205,2.9074119949665773,0.6523810774642018,2.139157041513608
580,-0.9018526142414925,0.5424173250651205,0.425053913135727,4.434594485524907,0.14395590805129066,3.4303652127870436
590,-0.8799287283776513,0.5782532311857546,0.440841691750735,5.755037772771373,3.2563694875858102,2.8708391734125707
600,-0.8844904278555612,0.5762788975944136,0.4375711236125375,3.4869964344035473,3.321612670094803,0.03763806432273831
610,-0.9180436970075956,0.5334265771706745,0.403057941552921,0.09510392546584401,0.7879330551146878,-2.757642284257415
620,-0.8896648622716585,0.5726632549505,0.43201365787847384,0.6763252428440986,0.4716155995782761,-0.9643637037383515
630,-0.8833262150427468,0.5686909186449305,0.4358784580969132,0.02208509326218855,0.2453945211769541,-0.32997801365876933
640,-0.8891413222786279,0.5629120844681738,0.43619427356885687,0.09971852405836379,0.922506759626127,0.2505008723087856
650,-0.9062444448497432,0.5433740193365417,0.41717048130803686,0.5095768081740542,0.35049370669403324,0.2112249004350384
660,-0.8882446901333355,0.5686578756705576,0.4356952762849045,3.1266916775585694,2.706831914484911,2.5760122971752852
670,-0.8813063293559926,0.5703701284421738,0.43817601536293016,-0.49534326504126136,0.0959129764613148,-0.6235898119658092
680,-0.9045833049605606,0.5461622693207956,0.4125798200551075,-4.571448453488272,-4.227067015676065,-5.455411929188574
690,-0.8933732195765224,0.5547922317232304,0.4237820091054635,3.455143604333605,3.883838842334269,2.0935749212916366
700,-0.9041212510074982,0.5496956357262599,0.41462680944388225,-1.3538957215160152,-0.690944218126453,-2.722091935831984
710,-0.894658560145742,0.5561831465438969,0.42878069947347774,2.877198944235162,2.275013935083154,2.2479780183524865
720,-0.9040692538603372,0.544180978574753,0.41748699373784975,3.656279906986583,2.012545679180933,3.541535223984047
730,-0.8964509813165359,0.5570462092893095,0.4217627044010129,0.6825530080602396,-0.6435917127867095,0.33441454552704397
740,-0.9047818571874787,0.5558467682182645,0.42060333520193066,-2.1117081485747,-1.559954032460645,-2.833810280778701
750,-0.8996591520981897,0.5563233352943774,0.4192024997794731,-2.7220542203430855,-0.5030081173118279,-3.6557394466104665
760,-0.9144406180109462,0.5316369761412548,0.40097142429102156,0.14535399159129592,1.6779009595849255,-0.8086125887272744
770,-0.9243732288130156,0.5189799724279395,0.3946657112483887,1.1710103770148192,-0.1527731429585174,-0.30092908957912085
780,-0.8737633075023148,0.5795553914184457,0.44738632068552914,1.3498871404730646,-0.4012583425840267,-0.6026185695474571
790,-0.9171248326798653,0.534642407017145,0.3978970997012306,-2.211748505688696,-2.649186795271534,-4.944818652358748
800,-0.8798832752915001,0.5693512306904747,0.438428277154841,-1.3986420175187557,-1.3292600258010574,-4.612587133600083
810,-0.8874125487880135,0.5583195410370019,0.4317612777982213,1.1214441558448291,1.6669401350938489,-1.1407115360435565
820,-0.8890955890299458,0.5551184077194736,0.4334982786233825,0.49061166753091456,0.9951303226811313,0.1666304910388634
830,-0.8957872331938169,0.5468061144696698,0.42594813746381266,-1.2702341639476316,-0.8467361967069221,-0.1458903918389607
840,-0.9010862304937742,0.54509057359337,0.4199138277717903,-0.24142134103998603,0.07108497360304489,0.6440254058910465
850,-0.8920981350424028,0.5566180756257976,0.428638443984425,3.6921664744738205,3.6079713905340443,3.3225977097981474
860,-0.9178135874658484,0.5282043717777198,0.39586018331353107,1.6233966401443283,1.4885226401747067,0.3355333468109514
870,-0.9029855224565779,0.5458125533405642,0.41675719297239644,2.301672482311729,2.687924464907545,1.1125664950391139
880,-0.9029713161175019,0.5497730105789281,0.4148751025061254,1.0302172058976806,-1.7885060112036761,-0.541796982522368
890,-0.8942882339714291,0.5559109541388155,0.42890601793029604,2.2467891335044454,-0.36373314732263595,-0.9563434572300429
900,-0.8987770653971835,0.5414514795129106,0.4220996942841954,2.4334675796933256,0.03551335614687534,-2.1105645505614006
910,-0.8867855404685612,0.556851264087942,0.43457633066633816,3.2023420962045077,0.9293689052869457,-1.5502759097204413
920,-0.8970651162074876,0.5516468436055211,0.42471488562848303,2.864735272149504,1.5284918802347378,-0.7570804411054545
930,-0.8952861190374731,0.5525424252751368,0.42022964534572443,0.9095294340417748,0.9911108913017075,-1.4201653640179184
940,-0.9161244090511187,0.5232014870939357,0.39907536175683694,0.5275248540638058,-0.04997186589421529,-0.4184728808513116
950,-0.896453227386624,0.5416530524531373,0.4202448777868822,-1.101967502220643,-1.3835973434388582,-1.5549394070827762
960,-0.9206870890321281,0.5282529571190637,0.3992803693362346,0.019244716962815434,0.29793019039987517,0.04137929001662337
