time_ms,ax,ay,az,gx,gy,gz
0,-0.771854726758682,0.978672330773025,0.5514153176984588,-0.8318223761821915,-1.7615972485843576,-0.6074945883587577
10,-0.7579437686129902,0.989819537572969,0.5589856480190517,0.9606982476841841,0.5223148041047228,1.0378982392311917
20,-0.8077532324267557,0.9525223044299044,0.519448333321858,0.14607633686262278,-0.2358086735151774,0.007940655181756157
30,-0.7480078451160324,1.0043049546813911,0.5715453669665214,-1.3327772591781892,-1.1844435491790493,-2.0151277918307544
40,-0.781602385139354,0.9638717110731542,0.5397892525444375,-0.2460072328321922,0.16963406562046265,-0.6799352076714057
50,-0.7724550984851684,0.9739606521692385,0.5496210232212844,0.4536279469007318,0.1415606923178216,0.6880404344706844
60,-0.7894176701567299,0.9625349496252583,0.5352983823294711,3.001919650354453,2.2074871591321497,3.644193494057186
70,-0.7756534439607998,0.980102522149013,0.5537459175963599,-0.03356777278122147,-0.0417410373638567,0.4653231185636907
80,-0.7688150142290808,0.9839537206742855,0.5552253747574716,-2.9173338488672855,-2.0473089508147497,-2.7054329153575623
90,-0.771865571917997,0.9759091933523828,0.5424472540735624,1.7998622111556266,2.0637477478903006,2.0142057646272113
100,-0.7773899023002192,0.9746765339831056,0.5474281350434858,2.4523621824170823,1.351516009322535,2.211890597357033
110,-0.8136358218041393,0.934650078265449,0.5197109109738172,4.190189942492003,0.041623892444465016,2.7480801592997497
120,-0.8068071283959846,0.9824033662705758,0.5492401535335776,7.586582159102031,-3.9251574149340005,-1.1495910968899075
130,-0.869971329321935,0.9696841858927339,0.7657160832301819,15.056788682296602,-9.614557971159272,2.748771268534182
140,-0.8222070074303635,0.8883482930763325,0.7765304549089669,-14.770246992637155,-48.299055306363876,-14.360169917716238
150,-0.8536750128976811,1.0076764568663887,0.64925906303913,-7.319287416580919,-59.188586182078524,-1.7056300796260104
160,-0.8351392395237003,1.088558723130452,0.6671747401578303,-5.319992055485191,-66.87638378198179,19.404039048008684
170,-0.7692256297175721,1.035894135260426,0.6738354335953662,-1.9898426342226645,-71.5847925149058,40.71370839801058
180,-0.556338039456029,0.9432834511023528,0.5743989509535552,9.035669229280344,-46.933261436215226,30.650636398788695
190,-0.3426950419422985,0.8558370910136179,0.40066502295790685,32.99110488008466,-2.641130301700791,4.604791177213933
200,-0.4319477385738576,0.9586220376280922,0.38192725385843246,26.404351152599062,11.306907652564957,-24.761980852816126
210,-0.8671496762171067,1.3473048019855207,0.5969628947191186,-52.13526099189235,3.906568801479689,-69.30276233765831
220,-1.040720328320074,1.610069002083349,0.6078673737167106,-132.46478890933008,-48.11645645868138,-80.43792356300837
230,-0.6870887454089252,1.232775394867195,0.12134092162287281,-155.6386891833588,-39.8510674722293,-76.19020253214319
240,-0.7371630187080789,1.4616651298239711,0.4196888710066815,-145.7488754039599,-6.447107756820225,-42.749660546189865
250,-0.6314553871996639,1.3697115181307307,0.11247956979167335,11.865580692058312,106.89398807048687,125.29444924566575
260,-0.6514699485467675,0.9633617930502515,0.3655155965895379,48.4619535158319,118.1315087332134,132.07331734484842
270,-0.9405200801688481,0.4187471341280666,0.9061196543042803,74.65270290872283,108.857711724205,112.45112085902294
280,-1.0833504934848874,0.18316799779173243,0.6683585091017689,108.7276958743437,92.14376514904929,84.12187164542654
290,-0.9535823043454928,0.28019548017236007,0.2748153306101978,73.63956807135182,80.85484442604644,39.843438394730704
300,-0.8732983410508223,0.24624831673660366,0.446879742499633,51.57828668731438,58.33507381196936,2.8556599570742103
310,-0.8476265880590458,0.3367870468623414,0.7818786305015618,74.22166272466562,-11.688271784861456,-48.36951422596554
320,-0.6587717665712628,1.0256524827460318,0.5180569550333277,44.411021511561465,-81.85081011298803,-114.59633202685838
330,-0.5164885041652046,1.4910724715631811,0.10229339433826427,40.44376711135797,-50.52077499706865,-78.11933714588822
340,-0.6414569306873164,1.4341744245857742,0.5465191514351524,54.46380835743429,-20.977133006551455,-10.745962010752319
350,-0.6988279578212981,1.168366206542347,0.4482048806079294,8.480784548275835,0.6548654841713676,1.6534685131986553
360,-0.7794896848243998,1.0119342168875367,0.5580600197249364,-4.8728855717922475,-1.8872371379967872,-11.200511652861998
370,-0.7570329056562639,0.9994817777490301,0.5657945126781273,-7.1221241486406,0.19000504622788728,-9.875233781546378
380,-0.7810277428963028,0.9795351526764177,0.5419702420606047,-9.191720142716722,2.4379920913814352,2.364392701404485
390,-0.7635674302418771,0.9922046037690124,0.5611221241648243,-3.107715672902025,7.819343777816243,11.252041389015174
400,-0.7780842610397467,0.9873710337860345,0.5451359562813589,-2.9683041497794664,4.286796438584657,5.190447555010071
410,-0.7698118245207329,1.0020511150304683,0.5499737000202726,-4.505197601705331,0.10282819222826078,-3.202051528741822
420,-0.7801365995328102,0.9817153982407127,0.5404684637285635,-6.312149764047225,-3.7884676164148274,-9.494077324436399
430,-0.7868323642803261,0.9663329877238644,0.5377817073360687,-2.708302580956948,-2.804743375884404,-7.408076070127367
440,-0.7979182107514936,0.9498822607216483,0.5244310068745864,-4.886082744233309,-5.867477184957965,-6.551635826299616
450,-0.7736569704963209,0.9682333913892878,0.5587094349568728,0.9031636711134456,0.062016509104564355,5.9802214099641295
460,-0.7843054316327303,0.9639523906675254,0.5418951160924523,2.9883957639658822,0.3598357800775931,5.274337997304486
470,-0.7510574158631846,0.9974984668731431,0.5794177739955267,7.506600244423079,4.69566557757288,8.488624242103695
480,-0.7846028358988549,0.9643838970525254,0.5390834170259302,9.792809941439492,6.832800977106798,9.642707593051618
490,-0.7900326597235724,0.9723025920025817,0.5296039823822231,7.197862129509819,4.705083808539444,6.3524273967314855
500,-0.8041822020984999,0.9609949354014784,0.5102502956797429,5.473426825447664,3.439147700635858,4.627112641115611
510,-0.7606804487060111,1.0004915733841204,0.5538968021919066,0.7272924327188546,0.07982893331514651,0.4477628989718687
520,-0.7982773823707664,0.9607925980068777,0.5162991262591818,-2.328695274718261,-2.1552298069429114,-2.128921829942774
530,-0.7903842707766284,0.9666597909686284,0.525269988190868,-0.191960254185628,-0.1522974200170878,0.47255627934166833
540,-0.7811773838347978,0.9757186663128566,0.5353603284396025,1.3071457056408764,1.1209412174875086,2.230022842297177
550,-0.7602006908650276,1.001644360425639,0.5538340896316017,0.6632738760982216,0.6545137081105176,1.3382554269125162
560,-0.7876531801091405,0.9742932293414235,0.5287702497315967,0.414959511025632,0.9908718886276355,0.8762185730436411
570,-0.7548542445792692,1.0062574684843155,0.5595262741956171,0.3879233308783104,1.1445356688189692,-0.13229059328784276
580,-0.7522110436728999,1.0094464703631842,0.5607331873490475,0.16509146431003352,2.087836454807015,1.7391489023829685
590,-0.7954958693876488,0.9644934153745273,0.5175686309951462,0.3814509055286144,2.130403229453442,3.1860519456673977
600,-0.7387319767105425,1.01886504707221,0.5768210278085728,-4.0890627896376825,-3.17487675190175,-0.9784398290345568
610,-0.7807000915467678,0.9759526164710475,0.529661821125321,-1.4258419062929895,-0.3244390511191284,2.060718592906391
620,-0.7447733417048403,1.0114620361714997,0.5719744362233361,-0.9532822647702786,-0.2175484344802172,2.172672851086594
630,-0.7603090180500991,1.0022597254715082,0.5547585938969464,-1.1468098366656088,-0.5693701020029923,0.7186280601253059
640,-0.7728829992396073,0.9938015731544178,0.5402539972543444,2.5692170634428058,2.5788174314625123,3.4075736180710856
650,-0.7519555399403164,1.0097791670707397,0.5637530405790644,-0.6862917922346861,-0.9994887347316942,0.07597689831983634
660,-0.7575969248660132,1.000058513352897,0.5573914255755671,-0.2129884527452066,-0.18621693376298665,0.9574888924404203
670,-0.7591516452213033,1.0034871783977717,0.5550153159311687,-0.5405683270183883,-0.9174198734295794,0.6059496472101311
680,-0.7639671999024352,0.9972346545409682,0.5523976026318642,1.985433925827967,1.1891079905897786,2.527978055161812
690,-0.7591315389687113,0.9915382368247575,0.5440359862918058,-0.57381786940805,-0.9049645360281082,0.6067114674244671
700,-0.7840050667675731,0.9859628246816409,0.5395400904667106,0.31959562120717466,0.6201600269068778,1.6490174797839585
710,-0.7775793788505604,0.9859329284401548,0.5391441450994239,0.6316035123542594,0.7465462116682187,0.4526720780259255
720,-0.7776902772845052,0.9804681411499677,0.5356133913200617,1.8144845442602553,1.9687476264308266,2.4997751743640517
730,-0.7767137739334277,0.9841534653115596,0.5355660094315385,-1.8238084703924042,-1.9426583057714835,-0.8488238141846345
740,-0.7956183575663656,0.9702154123426743,0.5155940114369766,-1.1490774258956913,-1.4351062572819946,0.013098748944248007
750,-0.7371572497794275,1.0313833662196037,0.576158471965789,1.9203867602452238,1.6185432833125803,3.0032701748582227
760,-0.7608591448411725,1.0056261513383373,0.5514567121856091,-0.35189619110939563,-0.6205862893548241,0.23345428169920335
770,-0.7700738611655619,0.9918485866707185,0.5396846956637994,-0.13849081425869494,-0.4408521705616477,0.3369768012316361
780,-0.7672325046684836,0.9938414878592565,0.5453314828966133,-2.9284150780977694,-3.2155905436447876,-1.7767004439021117
790,-0.7440518365849489,1.0214102144392763,0.5699600714640181,-2.4938476453591942,-2.522861020833311,-0.7848444173084157
800,-0.7587488009469726,1.0072687540199459,0.5516739114585449,-0.9620444039846879,-1.066054204402239,1.0987391901780978
810,-0.7590922999686083,1.000650989840583,0.550138001410619,1.834642345164407,1.3982898553784242,3.29247177128109
820,-0.7499170359010764,1.0017323739573452,0.5649263433441037,3.251705368341964,1.604010535220866,3.8581794290615457
830,-0.7705339327642995,0.9881129113863051,0.5384405339847028,3.04912585909161,0.47251662454791177,0.8936991254854858
840,-0.7657464707648498,0.9988144112408258,0.5390777803366451,0.5651393032121805,-0.8316474081535055,-1.6626237665499901
850,-0.802657692958474,0.968653919831154,0.5029040983457758,0.7034584618936097,0.6647833285614788,-0.6600068967119955
860,-0.7671639964762026,0.997884169662201,0.5407505167578123,2.098182751254263,2.2486995918865382,1.32420797458737
870,-0.7917885518869182,0.9749793479337738,0.5157249423639314,1.574122711771891,1.8937334204957161,1.1511374165710668
880,-0.7781209142798121,0.9919542252635889,0.5270551589728006,1.1382334024936578,1.5428136049167647,0.5975094837058026
890,-0.7483302718536953,1.017266488834836,0.556739577748051,-0.8722112813603845,-0.9077647803763709,-1.4007461798612024
900,-0.7544035763398458,1.0119194111935863,0.5542081444961966,-1.1786867400373549,-1.4261990672744553,-0.769669129979879
910,-0.7783823007649491,0.9880533130838238,0.533513027072019,0.9761548388239663,0.8698999729608252,1.72019251764597
920,-0.8056170921299869,0.9625695910218958,0.5042072720614138,0.32315962110031227,0.23661682789705618,0.27123829856588455
930,-0.7789863716703969,0.9919052778398906,0.531792655334301,1.5209045249030777,1.3635011190714217,1.0973750728761014
