time_ms,ax,ay,az,gx,gy,gz
0,-0.8083833582948465,0.4683928800101843,0.6792642396212348,-0.9359303212852585,0.1865662028555465,0.35454828604188393
10,-0.8334297345643734,0.4497040399143667,0.6541429622928764,2.430801113445025,2.171285121616628,3.658626900529656
20,-0.8347342976764361,0.4500184954466822,0.6498491882370612,1.629427858617725,1.3300943047197575,2.332569921302352
30,-0.8402504889733584,0.4450352148519172,0.6457084258010004,-1.135842666704848,-1.2861244527227642,-1.0257126214868297
40,-0.821975607037796,0.4626861503364048,0.6699107617144494,0.7431823007578395,0.47199514640275825,-1.7018815577926707
50,-0.8318139442105855,0.45122075059509476,0.6547828262303009,-1.5946997198265536,-1.6100466861619704,-4.65320793431658
60,-0.8547340758135755,0.43071549827041233,0.633244124422558,-0.7866809917249049,-0.23525385815374228,-2.50538879518701
70,-0.8025949710183271,0.4791814218832825,0.6869123780670398,-1.0364521918405232,-0.9126624687190139,-1.777451957123664
80,-0.8263382836436245,0.4453626154400006,0.6574310282314124,0.1517680275474975,-1.233219721459002,-0.304925718862884
90,-0.8197365654015459,0.4544477947361084,0.6654469424350936,0.4956372316652839,-1.467181100720551,0.32239605532479215
100,-0.8408220498602949,0.44506841577161305,0.6480933250143446,2.184876197057208,2.185910851482032,1.735868827230814
110,-0.8393839576921911,0.4379223467179703,0.6469290870741935,-1.861444698322909,1.5222049602622296,-2.5467261712193534
120,-0.8034418976152602,0.4713035310928051,0.6822089292943638,-1.710816893114963,0.9056845306184826,-2.1843134418994614
130,-0.8423362055902863,0.43164406535865724,0.6373046327003705,-1.8231857240396874,-1.2348500314765554,-2.0152261354423016
140,-0.802603175725268,0.4688654894801874,0.6823849149244684,2.0840935734071415,1.5701336948258695,2.385118139232259
150,-0.8116027148699683,0.464374891966533,0.6687022676355715,2.643701880258995,0.9520003603807509,2.384272470355841
160,-0.8150857636531779,0.4595517671230076,0.6663703871236786,2.8195318481947895,0.8506145924058932,2.2340728142339286
170,-0.8099309726268592,0.4626504965460542,0.6767306473380204,5.129741380741466,-1.545732824262898,5.257972984129116
180,-0.8446108610306695,0.43212525352394426,0.6519784929034806,9.96804800843049,-0.9873097137273334,12.17073649664751
190,-0.8374154167712382,0.43913084567265975,0.6649301958173551,13.817217653703358,-1.6239632341699402,16.511905725210188
200,-0.8703659796814266,0.4757729131822669,0.6462413701908908,21.65897141202351,-0.27281020437419246,22.53246496297622
210,-0.9130299237764745,0.5375697307795337,0.7723994816632784,23.119054823046458,0.3147278284559668,28.18002509932096
220,-1.0343803169839505,0.41789916368316715,0.9724115524179554,14.157950121676173,-18.296386717935,23.86716943116992
230,-1.024611271270259,0.3371464080262358,0.8806933686469756,20.118389372350435,-66.90739709917854,5.31918579618056
240,-0.5617715513458397,0.2766797802882477,0.5534186992109689,16.303677612085078,-82.7249443940127,-18.72410127832629
250,-0.5306029481112574,0.2695802415860122,0.5226905906474644,12.38364830780535,-60.047560667676166,-36.90437344340527
260,-0.5876463504254653,0.4570808576211641,0.5541172121743718,37.36161267685829,-32.29532344830288,-41.64177933884606
270,-0.6711006893783713,0.5714772533968556,0.6037382236718697,44.98737738268369,-12.205374036053533,-41.852886883721105
280,-0.6744387402921537,0.6770927904859512,0.6994270146379516,27.807342199515045,4.005584963599615,-45.66934918781609
290,-0.7076931004034542,0.6610948238600125,0.7859970233554011,14.141755726162232,15.225025211631976,-44.554870673103295
300,-0.7194669321270996,0.5602919967135923,0.762990166758406,6.0842999385596785,24.437666920355518,-34.48903282035208
310,-0.7369236225273791,0.5321082836967183,0.7530567826507134,2.530309720395094,31.11372020991947,-22.677366122672286
320,-1.055036466428894,0.45087593607085075,1.0750459667015153,-19.41131715146293,-17.090589505323724,-26.79733158883676
330,-1.1326917667923946,0.3960604962597884,1.119093893005706,-17.94257404029871,-49.8471773705679,-20.127330138069688
340,-0.666859631898016,0.5903956094399542,0.6218311082184528,12.158050553473753,-13.661822628550674,-0.03839488092772614
350,-0.7688306408635244,0.6677647664425493,0.6542411304788501,-0.8157190103862932,-11.012808280052198,3.2105815074640183
360,-0.8975920602890213,0.4528805090287363,0.7348020163135079,-33.575404787751324,-8.226627479755443,4.474866422902557
370,-1.1788851877740274,0.2795075587044414,0.8900533580797492,-98.83606691055809,15.011901433479803,49.470793121797314
380,-0.686799417056967,0.12326024815555589,0.11357135604512769,-47.080410609719465,34.92309275174292,62.9380865213058
390,-0.8365699422090054,0.5942998783222273,0.4040155374740911,-85.68924691303565,53.9719712386982,77.39984036039807
400,-0.7223102806145552,0.6898200200351109,-0.38042387463300636,-29.93482194191172,67.82631921855845,83.97032826586103
410,-0.6877980357886895,0.30898315801229737,0.2493237894435391,28.363075388454885,81.28693728548981,74.60295548813498
420,-0.6724945063794852,0.2396682056525632,0.9943958229591273,48.122757511229885,80.38114070760052,68.3521246774744
430,-0.8049762853642183,0.5387279869073094,0.555102964561407,50.14896534922274,43.49029769314228,29.51650313131851
440,-0.740593855080727,0.3770538955508293,0.056460988506057276,34.030684059547674,23.037074665719928,5.7220719429450755
450,-0.6638745950610169,0.4174434650318897,0.3223967260174124,36.44215686759931,15.050183714668982,-10.161816499668149
460,-0.8399699924384681,0.8124368565461562,0.7443904905760594,60.647642126600864,6.534595117333841,-35.111264723907055
470,-0.8855387783369568,0.47850589315881387,0.8431930954393431,31.723627307634978,8.513348461999769,-46.51005281156104
480,-0.8838864117472718,0.36975258932838106,0.753478854135603,-3.119296076057064,0.7918871954007833,-46.83776939889193
490,-0.9863112562707256,1.0560944181240541,0.7766490332243684,11.83800333459441,-4.057810293141676,-21.778117057651727
500,-0.8364972429810189,0.46673242639744583,0.6437467444937247,-12.77967803827859,-3.054759233945977,-17.17361636814632
510,-0.8715304057569744,0.5182758139678477,0.6070815680185421,-14.626101182054942,-5.364901406569083,-10.322954674546606
520,-0.8276123410127694,0.5005666268903781,0.6523297192760451,-8.399468101846267,-2.231885004904611,-3.079726439046939
530,-0.8538488331861361,0.4583800276343114,0.6305798474918962,-2.4460711681696754,0.7992882804755848,3.2476198029671304
540,-0.8411038243433278,0.47330243664705074,0.6403033003337445,-7.1379241086615375,-3.7783824903529766,-0.7767176820937756
550,-0.8326319229165924,0.48242737405014985,0.6518816639486079,-8.748651585165264,-3.0841476736855418,-2.2384603412868795
560,-0.8230305537483251,0.48960005648675636,0.6605640800254902,-4.994946231067907,0.4384067402757036,-0.8240493685176266
570,-0.8317709843504258,0.4776355605100284,0.6518040375361486,-0.4471625640698787,2.2418785048330623,0.543064428050507
580,-0.8292765241937503,0.4802855565918695,0.6559881484945822,1.1208279957231775,1.643764376137041,0.27678666254293527
590,-0.8334011311385966,0.4783707253777995,0.6473118363077635,4.4655890163400755,4.229492030283032,2.6261565662577273
600,-0.8414719114166065,0.47148489312958286,0.6360167167020998,1.3461639040451554,1.060666818808211,-1.1706817617097283
610,-0.8517911735769595,0.4706752657125381,0.6248160452434075,-2.941703998335748,-1.7006166367034043,-4.655678242010638
620,-0.805307156369502,0.5021109651462137,0.6661711805610363,-2.187165057893681,1.2286781778914606,-4.158899218837473
630,-0.8487409243056208,0.44138402940930416,0.6342812204668741,-0.12103978419301353,0.06350868196052528,-1.18303285700676
640,-0.8405651845853864,0.4552470475469659,0.6375136416275372,-1.8046396682475958,-5.786318565416027,-3.18689505563421
650,-0.8455614568783728,0.46046978995749016,0.6382089246376697,0.9914937573011551,-1.317144686645083,0.1321051101854711
660,-0.8172095588198232,0.49033284745289163,0.6642010288311685,-0.35623375797062556,-0.06347131031447668,-0.9042787163574966
670,-0.8580449251567048,0.4551149897021224,0.6245870840174521,-3.5392366637738624,-1.779509804696334,-4.042987679508752
680,-0.8191830381108174,0.49238809525234883,0.6617486850661444,-0.9844444155782042,1.9284740582104667,-1.7977897628093022
690,-0.8514185674679502,0.45340799618082434,0.631098610706412,-1.9564810400772559,0.07621584548911685,-2.786800178525023
700,-0.8229282981146537,0.47566354571061714,0.6598194557158032,0.30311741598850206,0.22947050663506277,-0.6466785499598064
710,-0.8304869034388336,0.4675536576311623,0.6472372562490233,-0.5400840183484923,-1.6339134512855011,-2.1594786849723606
720,-0.8155005399976785,0.4878385714911952,0.6621486219812336,1.3888963214887307,0.6434896906791252,-0.959324420424675
730,-0.8385399121357235,0.462344790221749,0.6415710829505542,1.0221134979669535,1.5880167806210672,-1.902508024200079
740,-0.8167099442400704,0.47726613291288245,0.6583533604879038,-1.4529662492182833,0.024547492534966242,-4.104623410241902
750,-0.8216402803734211,0.4750855237059013,0.6571610508094455,0.6282313553170642,3.2578048715534176,-0.6789849280516367
760,-0.8203330187478142,0.4662857624791083,0.6585218385210261,1.7097806000544922,0.9633684413260946,2.5795505214251158
770,-0.831792130038667,0.4619504441570319,0.6506980094093556,0.967396109529378,0.36262598725980555,1.6874040014628533
780,-0.8383054388579564,0.4593722030646727,0.6356974074540928,0.9623796595400886,1.6680879176702565,0.703009748261868
790,-0.8274970110984738,0.4648387724803545,0.6513541325448013,0.45227778594879664,2.0801893244075575,-1.0114578235178981
800,-0.8120907745045637,0.4804085353039202,0.6685601817584862,-2.032221148709925,0.12624260780516194,-3.461578622138722
810,-0.841330563776229,0.447285295074736,0.6386113112214188,-1.9073656816645608,-0.03555395020661911,-2.8037258141995887
820,-0.8388759560870003,0.4525151469272,0.6409829979781383,3.000811606148414,2.861733793435509,3.0337904871907053
830,-0.8307361546854031,0.47047567422531783,0.649496120252862,1.266860274051828,-0.13112206706004437,1.5918023675860757
840,-0.8493307612423096,0.4524062966012728,0.6299471429338154,-1.2872197379828332,-1.4242702993693077,-2.1719192836461274
850,-0.816927933338094,0.4772916310606487,0.6597472717441988,0.24955448035198893,1.0787891415894175,-1.7756877030406242
860,-0.8309914883240048,0.4575136293611914,0.647643902978809,1.934271296206426,2.799089129689978,-0.12133594054820485
870,-0.8265325057808413,0.46148650849902995,0.6522273083698195,-2.867741681379662,-2.6831049046905004,-3.9009761156883522
880,-0.8174438143713055,0.4663825683456231,0.6655665947129634,-0.14962738358727168,-2.191292180500936,-0.9227162978421072
890,-0.8293531487353073,0.4730234134087675,0.65361242442953,2.0403354640080655,0.708251353285996,1.1461836434462391
900,-0.8174433965391129,0.4817592381688164,0.6636048527359475,0.23662590331497113,2.20614707163378,-1.0760232141679706
910,-0.8437872659865189,0.4583707261276816,0.6381306087410199,-1.8622180087041973,2.065101149163549,-2.763935022743389
920,-0.834406483929399,0.46134966934296784,0.6409061392119482,-1.5059318603343095,2.9688839802155775,-2.2896395131931437
930,-0.8429056727167242,0.4483188260709673,0.6366750780447226,-3.9695298244520973,-0.4660620507153308,-4.127158509757374
940,-0.8262699093894557,0.4590195181322479,0.6568874654547616,-2.5563392951141464,-1.7977170694762659,-2.2561321946445907
950,-0.8157737607133435,0.4734690905970578,0.6653222665539342,-2.813319370140481,-3.2550561457367166,-2.4705944234384045
960,-0.8122190798925458,0.48802828103676005,0.6678696902767228,0.02507806299879356,1.1276614219195813,0.12582777134347756
970,-0.830107405785448,0.46870761464951066,0.6505411923744381,0.34666325567138845,2.500068134510179,-0.04331389699601784
980,-0.8208577361378868,0.47257457154089505,0.6589392987070645,-1.0579356773865316,0.39607949609485826,-1.4346311853385438
990,-0.8123450679731684,0.4737423029553265,0.6593237622419059,0.732392407723698,0.7094619072290719,0.8727629078644422
1000,-0.8063471663273352,0.4806008568144608,0.6723269038730172,0.5715469532463888,-0.8480626716867622,1.1233093500315778
1010,-0.8489162746209462,0.4488073810174252,0.6296104257071383,1.0806955174038144,-1.520307814711923,1.292253200161973
1020,-0.8554060766460646,0.4439257089575024,0.623830913035241,-2.8901430678846443,-2.1328203706132296,-2.702880813294337
1030,-0.8453153464132165,0.45041180105275214,0.6307450217742028,-0.5602783138654444,0.9070570837758262,-0.8599557447439798
1040,-0.8329726877745052,0.45875849831313886,0.6477177798183666,-3.543306553023311,-2.048680507461075,-3.610363417129731
1050,-0.824686263035947,0.4629543287816386,0.658359499594692,-1.9518606983945075,-1.2098542608899716,-1.7348415064097824
1060,-0.8446363223776757,0.4406319282435232,0.6345882671426157,-0.7782885512124476,-1.197968895760046,-0.6492969476603676
1070,-0.8087379622100644,0.4747774605859708,0.6656310889461079,0.670741434276626,-0.6787185478987717,0.21404686803248663
1080,-0.806729962737165,0.48051285329000537,0.6697376711678813,2.3321492913448414,1.8373409126249014,1.9449156598881632
1090,-0.8183858780706995,0.47456714645945886,0.6630847491578826,-1.6361965797209255,-0.3839982459005401,-1.1484440996935692
1100,-0.8427277796835121,0.4456730122359049,0.6359231709231218,-1.2133099862986907,-0.13208154136690176,-0.6065223935903419
1110,-0.8267819120237716,0.45799130300302876,0.6481068105062199,-0.9527850333457933,-0.5826986897258094,-0.6359919281485081
1120,-0.8205831323915521,0.47048332661064846,0.6541921579256751,-0.7552189154949831,-1.9821291982283724,-1.0734995784730124
1130,-0.8225384856396852,0.4676733456102943,0.6526286305841859,-0.5648775959356064,-2.2678896249384053,-1.345635968564196
1140,-0.826548644511281,0.46283934573237984,0.6466421951662605,2.0314153183148296,1.0158117778856082,1.2606515986980011
1150,-0.8151781820374411,0.4705792452628447,0.6583807007421506,-0.06987847603749828,0.3202139057474584,-1.372188273578537
1160,-0.8422998347776872,0.44649371329622833,0.6367315272873381,0.4389897873091921,1.189274878945402,-0.9928170920045424
1170,-0.8311580894493824,0.4577425668400182,0.6466274803523268,0.43061725852856353,0.5478817661850428,-1.160348390108109
1180,-0.8414298427929401,0.44695362285315227,0.6366443833586043,-0.8517486932295035,-0.7159405243033792,-1.9981880393980662
1190,-0.8520394663792601,0.43527791111025793,0.6278039888495316,-0.611645811815368,0.05640065589740906,-1.372174924036146
1200,-0.8106069305449705,0.4779357934878873,0.6704855500261596,-2.5088588690518243,-2.0645875846746424,-3.242373729881497
1210,-0.821249324941869,0.46551505457933495,0.6599644831238447,-2.147796703130476,-2.509795348733114,-3.0904877717205936
1220,-0.817369160983283,0.46342608887075026,0.6616606571521209,0.8717302621217449,0.43038084558659917,-0.35403949356716485
1230,-0.7995769212266064,0.48457294377349114,0.6746950572362009,0.927099419204571,1.2872272433904168,-0.2762130951691689
1240,-0.8288661770298713,0.45644980260958035,0.6402636923836736,0.6947507203149705,1.8555632227310854,-0.4808179217945916
1250,-0.8404575699397896,0.4417281839565058,0.6350765816805285,0.9920733548438941,1.6062795063264614,-0.13538744337573105
1260,-0.8382881527447,0.45023935754590294,0.6350676102483489,1.0972641538989236,1.0853135993670746,0.3510842358644154
1270,-0.8345124184460885,0.45476429579127303,0.6437769034019921,-0.33317567421266653,0.22075453082252366,-0.7112429840717736
1280,-0.8293174992926975,0.45998339846943503,0.6555070653864526,1.0700047148554128,0.49187282773778207,-0.7404057485480655
1290,-0.849859877591066,0.4348693213466755,0.6321710117681743,-0.5289103018865045,-1.3714295363569706,-2.987445391443267
1300,-0.803753382627988,0.48063133148331566,0.6687412375119121,1.0228950884054493,0.08653392625502698,-1.4109547317002193
1310,-0.8344151748618297,0.4531559241790716,0.638964297952486,0.8804628350006853,0.9330764000620041,-0.983558114775904
1320,-0.8316401682211302,0.4494936604022265,0.6447928204930107,-2.4076725509042323,-0.6406809181394598,-4.160639568374424
1330,-0.8225875864932127,0.4512038899550053,0.6548807628704649,-4.589526926586337,-2.0109260240153155,-6.479144929942686
1340,-0.8161754751226546,0.46031186401997365,0.6649844683112605,-1.857269462909665,-0.5001695911789367,-2.9074435386921444
1350,-0.8185999892678933,0.46261130723082966,0.6626256447752245,-0.6531145218618055,-1.1983687672984153,-0.25599879479937404
1360,-0.8205940708995368,0.46599849454955755,0.6533046592614394,-2.2790670434436997,-2.2748254925662548,-1.5764747165132922
1370,-0.8004457797627337,0.4839110766123586,0.6742604688413603,-0.49418265833006325,1.1417642209192935,-0.13592512899614606
1380,-0.8421366704029546,0.43242861070036404,0.6322981312118466,0.040345250325280635,0.9945513820458964,-0.4210373623387178
1390,-0.8427049583560953,0.4392421537731207,0.6395449313334811,-3.0162386101845167,-1.902633939497148,-3.1566260036069975
1400,-0.8197997203700362,0.45879076837953525,0.6524380675761028,-0.6904967315698476,0.25890365630122636,-0.5903425462674026
1410,-0.7984721738057313,0.4792268833972574,0.676256035929826,-0.6917068482198,-0.4088064891485519,-1.2826474299527153
1420,-0.8210014169505383,0.45628408964467737,0.6508264926602365,1.2516803887774142,1.4807644309745847,1.3702860308336997
1430,-0.8055754058173502,0.4736748632923514,0.6681441069575215,0.5523068481314488,-0.243717874391781,1.1063446666796517
1440,-0.8367475849945338,0.44421512007735103,0.6373051050675583,0.11996034281687531,0.08731729354126874,1.178653131035749
1450,-0.8381402108433083,0.4424179416295437,0.6335928234027668,-3.7222497178139937,-3.106301964106539,-2.734552981583928
1460,-0.8379279382015599,0.4421618468868479,0.6370553527459637,2.363352237968023,2.180379952230712,2.5859699596643355
1470,-0.8424964344794267,0.4359158645897452,0.6379983154433173,-0.9415057056396158,-1.5138666887662038,-1.4058169974194183
1480,-0.8250494443530435,0.44894571344550843,0.6502986739233603,3.9465572219348912,3.1063475007117436,2.7651727861461617
1490,-0.8389383445547075,0.4392827291289048,0.628263557635737,-0.6082609016274112,-1.5128050144123977,-1.6765184318224802
1500,-0.8073995506246041,0.47761900706809696,0.6643189648580058,0.25304707646134705,0.860604702705648,-0.15083234865962547
1510,-0.8337465584593448,0.4515037755156749,0.6372331989958673,-3.1458193198670603,-1.5665497169055604,-3.310242524353484
1520,-0.7925440120644945,0.48312423670381055,0.6825519681286255,0.25073393104901665,0.659565486268165,0.03648131840289914
1530,-0.8183504839214628,0.4620042496667921,0.6565727396097327,-0.2787543155115315,-0.005637992124442381,0.04052131956719662
1540,-0.8259639708998546,0.45410651675252073,0.652485526561756,-0.4491361132796621,-0.6707752051657576,-0.6579163594541174
1550,-0.8296409171518124,0.4510282421587733,0.6439880734280138,0.02447639216404243,0.11949325865728706,-0.5243905254564661
1560,-0.843972293404949,0.43882902705146737,0.6283186938761376,-1.1317519414572101,-0.46847275118448134,-1.5478786524052912
1570,-0.821020946509826,0.45754930599709515,0.6514774236442945,-0.7664218350361043,-0.31274872561879885,-1.164266196283188
1580,-0.8364730708687502,0.43876941125884056,0.6361605381130265,-2.5596500009770007,-2.48717571763212,-2.696355117370945
1590,-0.8237067606697416,0.4555969901848633,0.6505313768866833,-1.0381754271140307,-1.2195481710634009,-0.9180352611972935
1600,-0.8399771918720036,0.44134771525579697,0.634668682780626,-0.70071492425712,-1.0386075726697759,-1.1089481064721611
1610,-0.8149477510317916,0.4648510170346254,0.6607491079045955,-1.216960509454717,-0.6161914049349378,-1.8590079286730135
1620,-0.8183193882348326,0.46682030405504144,0.6618151402663064,-1.9953806337074125,-1.9879623534830666,-2.5201435815476865
1630,-0.8283318228390232,0.44780993648178746,0.6445107864437749,-3.2740891142530995,-3.38701034575597,-3.8483335019878218
1640,-0.8182821721352327,0.45225672388688193,0.6534336191686746,2.0517264931199217,1.3385519076995775,1.116024053694809
1650,-0.8324826109038561,0.4449389655688564,0.6422823509590859,-0.19202782816280517,-1.989035484750889,-1.4194958462896605
1660,-0.8309793441618519,0.44418850848332064,0.6403054529323888,-1.9157897156321373,-2.835635706344878,-2.6505081737369154
1670,-0.8325388912165326,0.43823670990033997,0.6385637602737733,-1.854172276887746,-0.7153172712850764,-2.072735666057838
1680,-0.83787637560821,0.43391859687542805,0.6308003579888564,-0.45783598976192286,0.45813777226134733,-0.9484208449831013
1690,-0.8312195568936283,0.4419070998747048,0.64066986615107,0.46428917427005867,-0.13497939642469636,-0.061014291921862474
1700,-0.8290820353672156,0.4441944448038952,0.644944981920816,3.2482606804310805,1.2790179349391155,2.4940008237169815
1710,-0.8053991499203355,0.47411769715318164,0.6675461983073154,1.0839986269316875,-1.370872919417875,-0.09983613583299578
1720,-0.8377644734788199,0.4479406211268026,0.634709747280129,0.6810191782653282,-0.7518156694871535,-0.3405576013321703
1730,-0.8130484840089802,0.4658018551340215,0.6567002813468019,0.3637046622893482,0.8016812883840125,-0.044134147046859584
1740,-0.8178981803097263,0.45894345756621774,0.6541958554606512,-0.3985623494025259,0.5270210162258734,0.021260370239706394
1750,-0.8026670498798738,0.4729328294242286,0.6701142350972756,-1.475943830685036,-1.3746816278935001,-1.2455260870812095
1760,-0.8261833300642352,0.4493961559332088,0.650899989958781,-1.6284207214865767,-2.0829026044948864,-1.400290493397305
