time_ms,ax,ay,az,gx,gy,gz
0,-0.7835540698539333,0.6611152052894734,0.5231933760951597,1.708666590498669,3.7477781629510165,3.136120490871324
10,-0.78215266025721,0.6605441618720701,0.5214624189630949,-0.9229119133828145,0.43228137632196934,-0.3318930254366061
20,-0.7975247114975487,0.6385277109196366,0.5030164270047345,-0.6151618464156705,0.6716693176695752,0.07456375931146744
30,-0.8010703090469172,0.638235900394337,0.4994472171996829,0.3719414825746145,1.6910594279612625,0.9493641139843103
40,-0.7839568217032342,0.6611187160931004,0.5243156100709118,-1.5403514388040769,-1.0803137523664392,-0.8070400131858132
50,-0.7932006817159449,0.6532196929169074,0.5080520058061864,-0.7302642962498489,0.31044343278983044,-0.2670809523957086
60,-0.8095524809775941,0.6358979402979268,0.49102573922727855,-2.4955431221970104,-1.2735895380876017,-2.4439285857000907
70,-0.8174787609912904,0.6241242321166882,0.4912163805414178,-1.1059066292582127,0.6203077258631133,-0.671854691076078
80,-0.786666247454409,0.6505452617130004,0.5151751791764662,1.2318571303619477,2.935699762361708,2.1837088989737
90,-0.778247607103117,0.6572596488454431,0.5197117552686644,-1.009578052878847,0.3907796069121189,0.5215769798124157
100,-0.7782782719223605,0.6631105397812529,0.522290447332126,-0.7387475106742231,-0.4095869862434073,-0.2842777508866523
110,-0.7977257826796778,0.648543128021097,0.507184983869317,2.2340036052260706,1.8921662223838454,1.3497511028580753
120,-0.8081431999662921,0.6348688617972468,0.4952347676190211,0.7051593890230399,0.22210360755968928,-0.7815239633742909
130,-0.8104809530424999,0.6292854048413362,0.489632747964875,0.9697991934398733,0.32573375619690687,-0.7686170219098418
140,-0.7624873234574537,0.6791255478871564,0.5413899530332319,-0.9959511878353686,-1.4482418078605717,-3.016464341368188
150,-0.807081514986323,0.6352973595675246,0.502788535969646,-0.4255931603096928,-0.5271830174482064,-2.6095208815645523
160,-0.8028823697241834,0.6318122594936123,0.5682098076359955,2.5748541870087447,-1.3786502868807573,2.47009882167083
170,-0.7636108488106498,0.6611882435256836,0.6683891645411434,11.168531907120148,-5.313220876209635,9.259317157491271
180,-0.7551115118067451,0.6367223791836096,0.6378453888023232,17.043690057851137,-11.14761184203072,9.608230764975946
190,-0.8078558094148814,0.5973492345028485,0.6053407430065907,16.775261852518895,-22.08467611592214,4.878201855974544
200,-0.8654680126788815,0.5968953490972608,0.6266229588991844,28.499700597568975,-27.539134649010713,10.206039172986786
210,-0.8312039144091248,0.5708270260119106,0.6029485049458638,31.965055153436374,-32.119281889977266,10.424120410375206
220,-0.7858990323818916,0.5684423373817633,0.61667999869771,30.730161726137844,-32.544344794876565,5.816851260924696
230,-0.7079264901078329,0.5985729859281164,0.6344396719169687,26.94308718815782,-30.9255448377403,0.6707851743478135
240,-0.7015243387533865,0.6061169621149913,0.6709325287898148,26.924922145734637,-28.450483388783685,-1.6603628863547093
250,-0.7515596819789143,0.5509892945343011,0.608857127615385,23.154526360429898,-28.03023243871292,-10.905295819007733
260,-0.7487286150662813,0.5976795939172836,0.5631588155288418,27.435885882640026,-21.872423081298894,-11.974040632857676
270,-0.6833400844534618,0.671173481482835,0.5967120960883175,19.241456488049135,-18.827915032433594,-16.656002593175884
280,-0.6918036851851653,0.6642029405723964,0.5752317165443654,17.020742111237293,-11.69646847202754,-17.215724700312528
290,-0.7745999838871095,0.6751850993515537,0.5526791817463405,16.500413900915056,-2.567354099179754,-17.706531698803783
300,-0.7587741474187732,0.7035387207914218,0.5414806138500412,12.093699719630791,2.167078915567374,-18.590310579577586
310,-0.7585712307932927,0.7392037774906982,0.5334249731408924,5.849056851415704,1.626632368292679,-22.267884265671185
320,-0.7779216661479466,0.7183667954421419,0.5007218508738374,3.3338433387860573,6.738464623149357,-20.07876968748657
330,-0.8313605934414131,0.6462170622851598,0.48240061238570026,0.5284997913234528,7.305130126306558,-21.616506003221296
340,-0.8336916039955178,0.6657837431478089,0.5061191384723662,-0.5379408461554056,6.8080863041665385,-21.733791632138
350,-0.8331713288280926,0.7707340408432611,0.44681845089033034,-7.248293407279089,7.403404279550653,-19.20841127496498
360,-0.7025303238025992,0.7013584124021686,0.5316966653562027,-12.257151448214312,-5.557031723051202,-17.52308183666819
370,-1.0054267634367575,0.747922210856266,0.23865926898182405,-2.199014647733227,-1.9659163974339777,-11.830785168065795
380,-0.852339803157357,0.6760276958147867,0.4985772722654938,3.1511592233943135,4.646775160425115,-0.44705392363271823
390,-0.7904900894590816,0.683899588598265,0.5611544219591761,-10.887572366504621,5.639295957931235,6.824503556876531
400,-0.7173683912561953,0.9088440788741649,0.6927173173895063,0.9966794726728692,1.7823389079118135,14.434102639261065
410,-0.7555177199231854,0.7349881279989627,0.6359179213682027,16.301288677049453,0.4026823635813378,10.606627378590005
420,-0.7815963883550013,0.5722305496514566,0.59092747681805,12.09608956510607,4.250117903915864,13.525236992111648
430,-0.8505936934403197,0.48932133547972173,0.3995981905186043,0.2450712065306373,0.8203616921743779,10.379860413120529
440,-0.7823558970281773,0.4741892568815671,0.5612013039170521,-9.258819782849809,7.328854901479804,7.123963759427117
450,-0.7161202508022578,0.6409733378554514,0.5485408079468613,-10.684520164164404,7.573849010718779,8.540071404828867
460,-0.7898664508012716,0.7144066206835324,0.41442142699611995,2.9878789946793756,2.9775518596091715,12.266135379425211
470,-0.7887806975233347,0.8576964399527556,0.3609571696042466,17.734518594592565,-2.131888438076343,13.555846577149994
480,-0.7790719323408747,0.7620251478031963,0.3883004435699018,8.076871715489446,-0.6705742275430335,7.910063406619285
490,-0.9169831301131764,0.4768735678257511,0.5741830316870518,-25.380612230478174,1.9658069778964578,-5.150466202851847
500,-0.9350678442548255,0.5429187297099811,0.6714453915504363,-31.351415612983715,4.995419733613761,-2.2492695523767785
510,-0.83975341127202,0.5088562023288854,0.5836327625300932,-20.222274462951724,0.898952621517934,-2.7267901381819986
520,-0.8082142915926795,0.4711215925076753,0.5793715559377484,-19.25866646540333,-0.40787805585722386,-5.881791682795222
530,-0.8313607911847657,0.34711420735175813,0.7035975174253597,-25.843829109480808,-1.2192789738529939,-7.149097228487624
540,-0.7833043239565703,0.5426192258736787,0.5344811532430466,-12.150369531126241,-6.099179947005784,-5.581458993736138
550,-0.71436425040319,0.7611496609453423,0.5336075934166884,-7.90211124684361,1.1525863690949387,7.940153075502221
560,-0.7437175221830843,0.6258838372670329,0.5280359885576177,-16.764440853805723,-0.7632431630956584,-4.246948027792824
570,-0.7576431373141087,0.6494079103156967,0.2765969544845968,-2.0801351338835796,-4.612195178170738,-0.42057273945639007
580,-0.7382168374007566,0.8766296776283384,0.2150568832125676,10.931619164122354,-2.3551942045513163,6.1293233788841
590,-0.710023603703064,0.5461716773175043,0.5922846931527176,3.2576979251545155,-1.599581233463029,-3.589486095617785
600,-0.8803202828072585,0.5069077120297405,0.6500463253056601,-14.425560526753692,5.316928451487066,3.202170137524369
610,-0.8220755171684357,0.7575954290949036,0.47019939742246714,-0.907918613275674,4.848741362142343,9.111225244916325
620,-0.7274291602694994,0.8320312554956877,0.6453654426131625,7.023245410872736,3.924147500631656,10.453914207098048
630,-0.7992794324803012,0.5124063253706513,0.7638586360891851,-6.588334029088109,0.4236713769068343,-2.172219725344374
640,-0.7132180221421882,0.8519584928345931,0.38225423521650764,6.622114951080158,6.043993624150501,15.271541418367377
650,-0.779858378725844,0.7467652649776996,0.24463269915624522,5.2132584750635695,0.661664258623138,11.446513159046539
660,-0.8191552610682061,0.6421271308289268,0.37797895527532854,-9.029791681898502,0.8140945028895438,3.204721793589253
670,-0.8298993652195372,0.6276483736674248,0.5664430260672786,-10.420277603046307,3.4861043272992407,3.0346149692342568
680,-0.787900994409601,0.5511884044622612,0.6482184422571103,-7.6493631290567645,6.132043603997395,-2.830279734687119
690,-0.6797482966960334,0.692827114259975,0.565487807193423,5.836167344676154,11.022987660160544,11.129597507995431
700,-0.7810097212642646,0.6995990132856831,0.6186568301688757,-1.4754881792773182,1.3131581787390902,3.613844691346328
710,-0.7975805890754636,0.6243312166023512,0.6627678099498496,-7.331271433708477,3.23672994810999,-1.4906736303952621
720,-0.7888361925438724,0.6842784002810035,0.47582881629713514,-12.148016156093053,5.2035208881457296,0.2141474236539342
730,-0.8053021565300512,0.6031451388652906,0.38218172758685653,-14.078304282049196,7.034822900250926,2.7335489501128665
740,-0.8132673717995227,0.6357239232912761,0.46236334289975367,-3.054685685958343,6.320321976712265,3.9706265109931684
750,-0.7583369838601697,0.8244528906221175,0.4535839874021533,8.099468383247073,2.252529343255619,9.743135625432885
760,-0.8382531378066861,0.5918023310380476,0.2471909225861828,-0.9611100975419321,3.621301870039419,6.890565956370788
770,-0.8540627659990576,0.5544600876373112,0.538875321750463,-7.863833274415825,4.4868796677911424,2.293584480859888
780,-0.7983619155109939,0.648292457590887,0.7364134745967572,-9.277589538003372,4.5022082023487,-1.2266591989346363
790,-0.835295067556438,0.5586787748682992,0.38522460765093225,-9.000008654569708,5.981370993257643,-1.465547575846534
800,-0.817719255394559,0.5886576761412865,0.5165430740049347,-7.383820784664106,1.124896697660514,-0.08403082863763076
810,-0.7794285063293106,0.6072641275270841,0.7735490288232773,-4.177323865136347,3.5589468115205225,2.7676881281070873
820,-0.7667696174750933,0.6367789416499838,0.4556910940027742,-5.527039017290624,1.2916554729849175,-0.17364624509694532
830,-0.799857181607434,0.6260812558364632,0.11532573244678362,0.8379367999103031,4.01757272999236,3.93847024687025
840,-0.7716753246468333,0.6473797988965146,-0.06908755995275646,-0.2778023640035574,11.816266750194515,3.6743600227258755
850,-0.7552233399346158,0.6344755998511413,0.29467828756602193,-8.231164905787574,11.104930205590648,-1.4041753224544844
860,-0.79946428468676,0.735026567642539,0.9374917150974544,-5.3741153852313435,5.7658047751287835,1.4322128880828005
870,-0.81112380180189,0.7158323548863881,0.7404223286517237,-5.334331162820433,7.036533245746889,4.164126135433201
880,-0.7864436876389336,0.7185082477141818,0.350977356484497,-3.2404302576622133,7.718438209155907,3.432304823505143
890,-0.846543976306645,0.657501642917929,0.6408090477363106,-3.0103903201982014,-1.2759118237321285,2.5477500042646235
900,-0.8066885589901418,0.6427073133800124,0.5823292254099922,-3.0795421954327393,-3.0283289701722054,-0.5126177941719811
910,-0.772183860015245,0.6930067791112274,0.5680943588241422,-4.969906419149875,0.008086136164299429,-2.840451275876876
920,-0.8151063492753533,0.739737631521722,0.8486829269327253,3.6009559162393985,11.004832891040818,9.490548773559372
930,-0.8811441149399818,0.7718005575260997,0.6752767856308307,5.429622889598513,-1.11079936916112,5.058204572737837
940,-0.8275531481228225,0.6379133819043884,0.5089169473425424,-2.6408729583231487,9.355417433983767,1.3335382290628779
950,-0.7870374574068192,0.8267870840996414,0.7727998217168053,-1.8556579470801098,8.825398422140854,3.8779414304644253
960,-0.7639175529314196,0.797412834692066,0.490327816066741,4.657953270844533,12.994424005192437,-3.1151600983737504
970,-0.7335047216895878,0.6816771444289328,0.6138957930311097,-4.288075167270503,4.699573970629277,-2.6466628875558227
980,-0.7886745290021164,0.7085049943796881,0.4780993989685348,-1.1045985109088696,-1.5508084182753212,-0.7697389727363521
990,-0.7493483704277106,0.7540216462992336,0.44479607701941865,8.635607902078828,6.149954429372929,3.550026229549853
1000,-0.8254608624395928,0.6064057003565333,0.42837847675139945,0.9634836309542103,4.7826663699168,-1.1050246427917927
1010,-0.8072280421665722,0.6395288648152233,0.4333800620028388,2.5960202364457032,4.517956232320219,-0.784749464648776
1020,-0.8763861254826181,0.7216427240323041,0.8518822566758633,12.330722234125826,3.0346831719771243,-6.703424664500739
1030,-0.8223206806350717,0.6785551131657134,0.661806489223143,0.2587830654617549,0.5061392928360526,-3.451900713235708
1040,-0.7589759369572914,0.5144681435764121,0.469128890434383,-11.431512519541554,6.475675735728786,-9.678333892373567
1050,-0.7960725501826319,0.738871795091908,0.5548722604127391,-0.7888695845164075,3.6021678695395396,-1.025788596527322
1060,-0.7788171363433087,0.7232442455719119,0.5318800691369253,2.269347895499718,-0.3173140228967588,-3.157705644583137
1070,-0.7914638093449768,0.7036435722055637,0.5734823171174617,5.852267665332205,0.44840625830721337,-2.8432649881514895
1080,-0.8159713943819655,0.6185035342756513,0.5660825718044045,-5.187518973932863,-3.422196192222695,-6.839416221757642
1090,-0.7979182224159478,0.5086447616394667,0.4483893333011091,-8.107113323535794,-1.1462917947695157,-11.695985088521688
1100,-0.8321793409425992,0.6288534358945004,0.48437267435185427,-1.783185813323276,-3.886317659091788,-12.540964302854107
1110,-0.8105217365387902,0.7141768949581748,0.5109086735592792,1.9467658749006642,0.06691813770285004,-4.323106845288797
1120,-0.7991398469164899,0.6363493791129323,0.41193855518232153,2.3304289433972145,5.725606017106721,0.963027883311057
1130,-0.8263089762599773,0.6614105146338878,0.5066351249224582,1.0932482914284063,0.5047487913103614,-0.9637911033470793
1140,-0.7999750517240221,0.7282593654052428,0.5531139618847947,1.0665076101092859,-2.3288803390062314,1.22223870943548
1150,-0.8029505964343531,0.7068756651155255,0.4887735109852553,-1.0451422900593461,-2.1442178987816516,3.112815725987462
1160,-0.8017981349840986,0.6278896268288077,0.4959646392628612,-0.016684016971289073,2.405885668083095,-1.3257079062348311
1170,-0.806095739303514,0.6201257521312024,0.5077505195969506,1.8130772933557766,3.329387600508226,0.12791676019437648
1180,-0.7812852121887172,0.702465376994037,0.5326456606523342,3.5737661025912826,3.6638966000233237,3.0489035829534306
1190,-0.81357880226502,0.6539576246718303,0.49541831646911166,0.5088406090445261,1.6554544893446201,4.546586456299292
1200,-0.8036416119110888,0.6502600097430269,0.5034809555638701,0.038249028213332315,1.071819489118901,2.1823265426381147
1210,-0.8077652887850859,0.6457828255286586,0.4992119144895966,0.9397721477370888,1.5950606692427307,1.0899788516341942
1220,-0.7810875085712956,0.6649661410834795,0.5181749633379387,0.7309514832206832,1.7970911418103523,1.7607652798200986
1230,-0.7806927103024985,0.6667829121742437,0.5172447407987347,-2.120394477008555,-1.7048329320839493,-1.2629380980922338
1240,-0.8002444505098872,0.6454718300866449,0.5000791907274278,-2.9528213131206758,-2.5786167542775815,-2.014664063049232
1250,-0.7997802509088656,0.6471801374625014,0.502221916212093,-3.5881644224037887,-3.7343076255261494,-3.683353912785454
1260,-0.816479669428686,0.6307518910068646,0.4826020475612275,-1.152453811852699,-0.49200886430225654,-0.6110697945786356
1270,-0.811238478010537,0.6354288862622214,0.4928207312743853,-2.5856009663701176,-2.3360331316803276,-2.2752562687356175
1280,-0.7963810117497182,0.6441494413471358,0.5012620231498536,-0.1680442680017946,0.17396001366828207,-0.010587917478965501
1290,-0.8151370015003581,0.6302816060642691,0.48555536853286,0.3035231669423095,0.38833733072425597,0.28331188098922533
1300,-0.8056396273740574,0.6409124432521731,0.4917614021337209,0.6457882058938316,0.12045999141753383,0.1150389444591277
1310,-0.8090810912601508,0.6408894303737217,0.4898699226882303,0.1661038700179484,-0.6174403701234813,-0.7220154805487762
1320,-0.7954571073264026,0.650084756546807,0.5015592773231029,1.1424681576327367,0.8940096875909891,0.42196821161561604
1330,-0.8002161045920838,0.6463467051143232,0.49771620879129364,-1.5656549433762266,-1.0464061471785602,-2.2657410603163046
1340,-0.7894725664050863,0.6506491305856922,0.5157244577839564,-1.8429775892182894,-1.2906185621000092,-1.3206792505094271
1350,-0.8203914388562746,0.622542640559941,0.48307164359606036,-0.7497094529624323,-0.22481102367156347,0.7111281881531479
1360,-0.8030245186017172,0.6456510002588998,0.500711211706514,1.3848507234094232,1.8791027381874228,2.786823040935366
1370,-0.8287798343127248,0.6204882295497042,0.4739167498772639,-0.4646641489705895,-0.05560538914561319,0.5151800403883418
1380,-0.809757072167386,0.6395582230510835,0.490264544249856,2.1563626130619746,3.007269047090084,2.9573704408519625
1390,-0.7977724499162432,0.6522391754031914,0.5035473330269986,1.8167755938833827,2.6171084891847363,2.4188542759786724
1400,-0.7959516802982799,0.6504605411198192,0.5034781740255035,1.3292124328169563,1.6134479940931143,1.4751440519818217
1410,-0.8003158666113475,0.6464879714707991,0.4981210572351101,-0.1072426660834278,0.028168830886092455,0.06409815373075234
1420,-0.8025150628970423,0.6486978963091722,0.4990958618880406,1.0150666998130968,1.401700987262597,1.6059050497729415
1430,-0.8095663821425322,0.6419980823006239,0.4909076921328307,-1.1623724274867608,-0.35840401039936054,-0.33301040541108784
1440,-0.8138943875197278,0.6356203930627604,0.4835943485070876,-0.10978577030568692,0.8845723884252713,0.7095438538907926
1450,-0.7824509881544611,0.6639312610869607,0.5170866906015429,-1.8593260470140411,-0.9161096693121695,-1.3571752676558695
1460,-0.8250960192126199,0.6217749855607173,0.47879626104483375,-1.6721771941833747,-0.44712385734387333,-0.9382501983292483
1470,-0.7977673009474404,0.6472484035798476,0.5040430757064182,-2.1495592479467884,-0.14341886289367278,-0.809403453876335
1480,-0.8110689589343031,0.6339532086288862,0.4925117228560021,-0.034967936969749536,1.9231399531424196,1.452360679400641
1490,-0.7974795563240616,0.6513528704626307,0.50893897989429,-0.5727047161939851,0.9888106555059416,1.1537170812746123
1500,-0.7987410729617156,0.6476909076772884,0.5022092655892523,1.9264069894584086,3.0945327362136914,3.6784753561946006
1510,-0.7934783068862481,0.6626332343134915,0.5082557941771803,0.23767925216661823,1.413268744233011,2.042237614295015
1520,-0.8012653835799164,0.6496407779222669,0.49485311214163463,-1.332033530940325,-0.28319399914613835,-0.49640701783021474
1530,-0.8277210867990209,0.6161772522237358,0.4627423289869404,0.27543728423285974,0.8659159952709659,-0.13482741353384065
1540,-0.8041762819799279,0.641869159052231,0.49661830919838074,0.2080950281911359,0.4762330612611335,0.30958688524805467
1550,-0.8428624164107997,0.5997979975323563,0.447810824731909,-1.734576253963125,-0.7809629200564078,-1.3973747118152033
1560,-0.8284394414209341,0.6249704736736476,0.4754561838313676,0.22721680187709248,0.8806110906085487,0.8636331451320363
