time_ms,ax,ay,az,gx,gy,gz
0,-0.858728669623102,0.6403045127548079,0.40250277045324,-2.486368682385372,-2.736979159083093,-2.6515650747229236
10,-0.8324811232027856,0.6624613709625028,0.4327795916674053,-3.0486839764073297,-2.424807017314199,-3.574719642222788
20,-0.8592950432601807,0.6377086498636249,0.40289643879285314,0.4511470738059119,0.6736835920771965,0.14389285395259577
30,-0.8463767328346985,0.6473087034319391,0.4152989091038814,-0.5509894032667881,-1.105030557653932,-0.733906308761372
40,-0.8617210480319394,0.635092974515696,0.39615884588823697,-1.757257597653728,-2.139522807037499,-1.5523296549127417
50,-0.8870672192390919,0.6116773053429845,0.36947588140639676,0.14511629900129902,-0.4962109730371078,-0.47240609994435223
60,-0.8537710535048197,0.6375198658593239,0.40491318630164064,-1.6489950970856877,-0.27938782673478046,-2.83603698356141
70,-0.8748116114307934,0.6207717681179625,0.3884950465649494,-0.8971997595909735,-0.549217328028994,-1.6360485569992573
80,-0.8543582772929202,0.6410454637115376,0.4066005628753195,1.0671404952195382,1.516964682964729,0.7185838470787169
90,-0.8663946377704378,0.6316982524934904,0.3960620967836403,0.7508985826084256,0.6162545641154058,0.2893040173086494
100,-0.8587730661875873,0.6424874575714172,0.4020404267824646,-0.24347128517686545,-0.6494920672106225,-1.338368417637727
110,-0.8617724473079861,0.64241323250379,0.4005282610066411,-3.531573626346671,-2.113571970807687,-2.7606264747670077
120,-0.8610879627245653,0.6478760583491066,0.4100361503797724,-7.30597216587345,-3.2343437898033884,-2.840554582668327
130,-0.8792141016264238,0.6256240512678746,0.4035468866207618,-7.952260591297531,0.16696963302204537,-0.2114684801446125
140,-0.8689658893310479,0.684325911614617,0.4837343878319028,-11.868488975298408,-4.297653344970485,-0.6880591183115954
150,-0.6503909264894779,0.8818763724017645,0.9044723666439385,-12.536024143100231,-64.98041663012275,18.32158146341426
160,-0.7290211243840106,0.42686201198391766,0.47902633278379486,16.149711948077634,-109.09142609116097,-3.1953759853988246
170,-0.6890182855447399,0.47155226818453577,0.4333289316087297,24.63178726786561,-103.3622432194465,-10.18728221467537
180,-0.6678415336858313,0.5431385858691494,0.34226419031094674,35.206138027034896,-82.6836010404597,-14.449859236227923
190,-0.6625382678184183,0.6414231341555596,0.37111192096883877,35.912351079439006,-49.648135235694745,-8.829059646948151
200,-0.6349576269422752,0.6047851447176172,0.44596787167042345,34.169249484602005,-22.813151409982826,-11.774773695976112
210,-0.808272798994648,0.7512454319859926,0.49449474101603563,11.31441045615738,12.793711021802123,-30.637291564719163
220,-0.9055229004069565,0.8997772000278307,0.5754898734104635,-11.06786560551624,17.08390028226868,-28.03866454466731
230,-1.0020983623245494,0.7377602674923063,0.5275545578722871,-32.89777240815819,-12.225238287685013,-22.527551001550403
240,-0.8134275710360248,0.5788550676662308,0.6177787103144557,-27.526083883392733,-25.07721892130425,-23.233636740718076
250,-0.6118433964349318,0.6718836882656527,0.7060176018487865,-37.415356968468046,-22.08039476442651,-2.9520282768590094
260,-0.856734309248239,0.5763514924768713,0.8479923231440656,-53.41525735808521,-28.62921731110915,18.678093450088426
270,-0.5772751196570066,0.7109257682018286,0.6450473591189346,-28.238845283830965,-11.878745389747511,36.059942545790534
280,-0.5110405477000584,0.7685221895770782,0.06550414965485285,-27.465937702032036,7.743257124811199,39.48864007625277
290,-0.9391529209568485,0.6373499760914076,0.2910160925032208,-67.59846456104937,35.406242511798546,42.23809364829208
300,-0.5289717358141555,0.9741401865444246,0.7902143081735692,-66.3417609223943,41.10852073394197,47.12532731219895
310,-0.6667658588299933,0.7179181521120408,-0.2678462217197478,-18.058532808569023,87.23870464096721,36.2665061404319
320,-0.7904249685579077,0.05555392341477684,0.9214022420990485,-6.893250463134464,83.76550042157831,29.279144345103354
330,-0.7693110615725852,0.416217530962668,0.8337499358666736,2.6331133203716126,89.32951401440675,25.887231787250517
340,-0.9790612634921652,0.6067355484122975,1.3624889555982285,17.097980103480996,81.93957798640886,30.73302899975009
350,-0.8363094504869056,0.18941468835483263,0.7906613555043928,14.517295540596356,55.3359749281827,2.65647846200635
360,-0.9771872483481685,0.5335334063899856,0.6829902863871343,42.08111295455425,6.3764663737285385,9.349147587929155
370,-0.8873786690669453,0.5741940997785057,0.44241821912461504,46.4085204637221,13.631943276627387,-9.73584782004262
380,-0.6436500571445012,0.7146336484891387,0.526369556848897,48.437815246787046,10.527773251887117,-27.58773411992767
390,-0.7568517162346177,0.8335752344597632,0.395266954594013,34.69351060922063,7.988596980902714,-33.579732482628394
400,-0.9819955751578735,0.7295063231610665,0.8960886915766604,4.037066972789012,6.422635032905798,-36.956245339098956
410,-1.0611770655573904,1.3665185957639712,-0.028706111342015075,53.39524936570751,-5.979128155911702,-6.681828343666492
420,-0.8011281519354436,0.5032709868561954,0.45478136584694934,5.225474959558273,-1.5990967519606731,-10.863182282714625
430,-0.895975069792755,0.4730828272220819,0.3534193509320602,1.1638106545339888,0.3226278102213825,-10.541453065370428
440,-0.883786726038798,0.6703012634428515,0.31567281266563313,-0.5758978405594459,-0.12402566364982226,-6.1608510918332
450,-0.8623549265614074,0.6495894258155263,0.3771364310424624,-6.084464900290619,2.023492602881437,-9.333086612555597
460,-0.8781458606758833,0.5703663198345208,0.35376406781859665,-4.911406049884528,1.917947284927595,-4.354161425841845
470,-0.8549256114303933,0.6048728692216493,0.38200705840109245,-3.938757609316182,1.529402498412423,0.1934041513002217
480,-0.8468284965932746,0.6171788860939694,0.392470545312567,-6.589026060422761,-0.4956741088418415,0.07089918660933359
490,-0.8581049959069179,0.6166940613287015,0.37746479022380164,-5.003207923234612,1.466901560865201,1.5022921029842236
500,-0.8608053865305952,0.6168394233639315,0.37070854578996737,-6.489123762422407,1.0098626051918302,-2.7600510638979405
510,-0.8603483665634022,0.595316996382245,0.37354281532124306,-4.498168167518365,-0.055928385118248714,-6.018940176766845
520,-0.8799449682229545,0.5744100518406594,0.3512245734834051,-2.9509619774860605,1.609117388553358,-2.833746488457852
530,-0.8507309311027776,0.607547145661906,0.3818690192017262,-3.316011827486152,0.894857617934703,-1.410569934942686
540,-0.882293606320778,0.5814595565567688,0.3483833628148245,-0.826462836972812,2.134360384078519,1.791093438391866
550,-0.865136349631771,0.5980007840552236,0.3648686702353262,-1.45198751624616,2.007827561111192,1.1236914063080619
560,-0.8423275127108306,0.6114970615991994,0.39002907626063166,-1.5146754377425187,0.7876969721037327,-2.0925580803013446
570,-0.8732849383515029,0.578621118929723,0.3599200958232398,-0.43772395085297267,1.0275579583814243,-0.6726589988480347
580,-0.8678263262105231,0.5906779105129869,0.36410319836810884,-3.3231049831653534,-2.366335224820099,-2.5736660158949674
590,-0.853488390355418,0.6081278678921032,0.38237839146073016,-0.3933693572870685,0.48871612021115435,0.3766818564721174
600,-0.8561763591714575,0.6031361988231558,0.37238568584769943,0.46643828734788717,1.7450692957262224,1.3929323247105092
610,-0.8754990518264606,0.5895229229008757,0.3577800477894296,-0.8372220296951591,-1.0619590185558274,-0.7974924121515337
620,-0.8467398496343504,0.6142278047507855,0.38606233743075424,4.087286363155479,3.6003978067524525,4.327725436711121
630,-0.8527222174666691,0.6129133168655156,0.37296393700153496,0.61335983556519,-0.1596270907013532,0.4200321568599025
640,-0.869875387436823,0.5977898110439498,0.3576661459811315,1.1850829554366409,1.771598644020115,0.8003370036591062
650,-0.8621630828359662,0.593296651224108,0.36985523152993577,0.5537213196833171,0.7567699575630995,0.06858112575100928
660,-0.8666813227802269,0.5887867514077042,0.3641383339948105,3.595237083615931,1.7711575290990844,2.5009885647917343
670,-0.8696379006180597,0.5897888537318615,0.3618843034105451,1.8006879008109933,0.842943861893698,0.5809364161252129
680,-0.8743932872491744,0.5841968096551116,0.3561251061379054,-1.3762954263697187,-1.6685776490907713,-2.272545079925786
690,-0.8620112415771704,0.5988523452324795,0.3654350349452866,-0.9878701333654,-0.6564417948153654,-1.499272444646495
700,-0.8515993096078964,0.6047850412073661,0.3841134462256788,0.01869735821110885,0.8387161152719446,0.2214106693188621
710,-0.86294631226133,0.603033958868239,0.3691699323286126,-0.12779183468882993,0.005011210726052401,-0.8875162029860708
720,-0.8733009588338584,0.5915277739453857,0.3577009415234633,0.16586833780532828,0.661005045153142,-0.5252115237355588
730,-0.8509760704591843,0.60518113910737,0.38386094119096426,-1.8357952254507677,-1.7737101284635646,-2.374162315282631
740,-0.8607355402924217,0.593640794599988,0.3726461895676548,2.924615841106451,2.2995027281113174,2.419344852195482
750,-0.8632455849075471,0.5934356449734552,0.37204648204674173,1.370165701993988,0.13169059429383034,1.4223959299680806
760,-0.8701470833098235,0.5878705400310797,0.3580605077580885,-2.8334660364507744,-2.8463652456348374,-3.83478492830396
770,-0.8693959201960689,0.5861912681188158,0.3587650754283692,-2.081710290018535,-1.859464852744937,-2.768617937856688
780,-0.8858014102367191,0.5674251361944941,0.3471429636071325,-3.187568963973401,-2.91795286538846,-2.9117151827883903
790,-0.8749869652533733,0.5861517333271035,0.36379061880592434,1.7910537155974615,1.8195546179313422,2.387155489658764
800,-0.860117123365572,0.6059905446656627,0.37233608151691505,0.8814305902830625,1.0081845878475841,0.8746183809330416
810,-0.8696271073231657,0.5887940649032908,0.36339419894498826,1.788579276186347,2.378521344044158,0.3508131230329332
820,-0.8483812624500316,0.6053937480027386,0.3830319437019507,-0.9788232108125724,-0.5024031191568945,-1.7459684412493832
830,-0.8583366385607726,0.6008001425687656,0.3709780141867796,-1.8461767512647511,-1.891101303493547,-2.19902098308906
840,-0.8693281142088994,0.5896242633243071,0.3602844344772413,-0.701236897156108,-0.37895585572262414,-0.4047559910669317
850,-0.8787270550161868,0.5818352983172442,0.35419318904566105,0.37959822524601483,1.3249584053334638,1.09709219601094
860,-0.9037804690216428,0.554055080158482,0.32424398928783393,-4.300340229395817,-3.567684220737436,-5.861709613518787
