time_ms,ax,ay,az,gx,gy,gz
0,-0.735181256546926,0.5425081655662259,0.5832622023090367,-1.57444396875458,-3.010924433999363,-1.3709131861608173
10,-0.7754590488485976,0.5108181684208061,0.5483684067441988,0.29597594243962955,-1.0653340689638162,0.7135500588493642
20,-0.7484791370018687,0.5392808420407121,0.5741127352277645,2.28767663673779,1.2988311058445154,2.6662023569688853
30,-0.7630992630816262,0.5258811574990517,0.5558467228952604,1.9701339878657476,1.9946222364219688,2.915185465695291
40,-0.7456252810220406,0.5437680803337646,0.573610005966444,-2.407377014327281,-1.8988067462488019,-2.213407556057825
50,-0.7208336886961437,0.5662432782677554,0.5977149988002562,2.0823616403305496,3.208729968000288,2.366954791361747
60,-0.7516436196830883,0.5308928843542821,0.5679097562537425,-0.6862473811055481,-0.3368555380306538,0.041034228796580585
70,-0.7208495224162065,0.56074376837504,0.5992104966543345,1.0184147284692426,-0.04593821967794365,1.4378964165124248
80,-0.7249849416720398,0.5575783196201999,0.5941757337019955,2.60822551578388,1.4015636148556698,2.496641415224909
90,-0.7664545312048097,0.5153992170197879,0.5522392985717636,-0.3980384298303219,-0.9783982695970782,-0.7663434151026159
100,-0.7484054485145725,0.5357932891049952,0.5691978459802907,0.20493468299667839,0.8192910145619816,-0.18466915284039154
110,-0.7375685288227657,0.5483155753637061,0.5826250183404095,-1.8591669059815095,2.5369642261154848,-0.8493517918319413
120,-0.749619529348736,0.5380896044384179,0.5664733601519054,-3.996953292336807,-1.4857402664907795,-2.7400637450643797
130,-0.7278407158182818,0.5474586526610593,0.5984836627519173,-1.1047128503730397,-1.5631171631469118,-0.611303655100125
140,-0.748846941037939,0.5266122678629548,0.5679167498743272,1.161234159815517,-4.330574097758504,-0.37632615833722416
150,-0.7435820276504733,0.5308055719550869,0.5749788786215045,5.2432089097001295,-2.7331891603915803,2.034450403066535
160,-0.7422598728586708,0.5590294777162884,0.5840946999672705,5.1702697162886535,-2.601012290710366,4.2015097234721335
170,-0.8629002418259145,0.7491798782088557,0.25139925284947207,-3.5403519966526065,13.319038913279705,26.838543909585525
180,-1.060596556697782,0.8355761312593207,0.5447646620233206,-12.167112809463069,15.581236606844794,54.27509915334565
190,-1.1583039186060138,0.9084197752899046,0.9065404310651116,-18.12263307750253,-25.802259598910076,78.43347022491392
200,-1.0000394044208842,0.8967376113108129,0.791710614117194,-29.193631951009074,-66.7882497491104,101.8223669744401
210,-0.7030354864238476,0.7942877068999874,0.5115185007895727,-45.71163822268618,-73.55419990125165,113.59593090231147
220,-0.5599966933031996,0.7550859097363396,0.38323390491684606,-67.83267682679873,-70.25298250157476,100.55056396685578
230,-0.5752310437636093,0.6738206367978291,0.371305280006825,-76.1681071114527,-36.06579653080538,83.0381528684899
240,-0.4871386727242292,0.4381335666362965,0.5366362741413266,-72.58651078458983,30.039630142018186,34.16735817512251
250,-0.49635217627647843,0.535999291223959,0.6224697656339692,-64.96563782479463,43.21858741340712,20.908500868303765
260,-0.5082136105245678,0.5601343833726433,0.585379874338693,-64.21057845997584,51.57440076777671,17.032871826157717
270,-0.5823340040884065,0.4854328033197572,0.6280344932309745,-65.88335083643558,58.22612035529117,13.763465206690418
280,-0.6529023752179814,0.41482097333362594,0.6609167954062937,-58.73651427965474,59.46212941450576,4.593472299319498
290,-0.7767406611453562,0.41904087684957586,0.6240487731554423,-53.57196795324316,61.41827987559357,-11.235628762307961
300,-0.7648106849418179,0.7637230639951343,0.3977734638881729,-42.41686337200954,25.295356369923446,17.907463403873308
310,-0.7035985881690031,0.9932819696940893,0.45429747768525147,-44.029681573441486,13.21468728153488,27.061857041134115
320,-0.6126640417962288,0.8077578829913306,0.4241744633817304,-55.347000546648104,20.267002725130894,29.931827238741437
330,-0.7683178582126591,0.24017865693853754,0.5201485053697581,-74.36511792073932,29.167184200818077,34.66779106972114
340,-1.0424641129006178,-0.06373940161654008,0.6392507790642394,-81.45761457285879,36.870093652031485,29.805206822679324
350,-1.0802890223372017,0.22860817735927724,0.8058299127085929,-60.668635479993476,39.428697901073974,16.023453652918118
360,-1.0026025564124925,0.4232194104750531,1.667825692103171,-37.04184529994415,50.5212909059162,13.101322295173253
370,-0.9028873149177994,0.15166174114965913,1.402231488429647,-57.08843408949265,46.75526976682921,14.241581608110723
380,-0.5705086697071182,0.004866595798376049,-0.16723060672927956,-2.046983570027167,48.80344276476233,4.645051228522556
390,-0.8303394957160002,0.29363702624184385,0.6004598937518749,29.59602274076141,19.645492886988198,6.665475112007032
400,-0.7345308548407847,0.3478251442327597,0.36089012659975434,20.54992734970114,-1.4458469879046785,20.061673934868278
410,-0.6841758596085771,0.7682379734290055,1.0314551361373796,38.00117035708801,11.507373914989449,17.82014935213283
420,-0.5135826697562921,0.23846491383849072,0.33389252952595255,31.10653647603945,30.913179784389463,-4.897878242872955
430,-0.38475005529943546,0.5957436806175176,0.2306975193788734,36.929806642514045,5.173513209785589,-18.801199243522877
440,-0.3335700304972683,0.7113003250780368,0.777235019428507,55.28195433772036,-16.15091234115492,-25.941004908117197
450,-0.7069309658554176,0.7880825656086977,1.0839188599355658,76.81996814851314,-12.447752592825449,-35.30716020657462
460,-0.8465096791782896,0.8331766033729276,0.8770774476597911,55.655348430330875,3.284400720941595,-28.11292808860534
470,-0.7278567862194444,0.952664640118016,0.5155814038519904,8.640756384756255,11.104031870288734,-3.913418743453252
480,-0.7937537240355622,1.1884907846843864,0.4065765583432024,-1.3421556511644772,12.218487055769629,6.041507409226371
490,-0.7666252677281519,0.7097115748858459,0.4041231107502813,4.775815026201294,13.559083053769623,-10.930863287435491
500,-0.7933462009216489,0.6050024555388451,0.4394925632278167,6.5972309295491645,8.224599417614687,-10.702698698018185
510,-0.7626832058371525,0.6256998441094737,0.4677774737447972,4.07074499355736,0.7857028323062774,-7.528148214413724
520,-0.7855875543392105,0.613237132749089,0.4451579904155015,6.167024911327328,1.1829214035365332,5.1727563004999295
530,-0.8112596266388626,0.5927824284846124,0.4144315522209491,2.645764865675228,-2.9451777894778184,7.607194755555781
540,-0.8156606522958272,0.6008552373585224,0.42320522829723106,2.3762673923160214,-2.953447528345559,9.467616269680363
550,-0.7902343395372528,0.6256650789643796,0.44053494181602587,-0.9114775139839641,-5.429993930659332,4.860861543726978
560,-0.7898405238681562,0.6238488506750092,0.4426419835772096,2.4710920042854445,-2.113151928118775,-2.674625878178234
570,-0.8024680810206234,0.6110439840600079,0.43099046493668164,3.9675587983889815,0.4222682675354307,-5.461245412794769
580,-0.7748008282894178,0.6365828751704771,0.4580122716418614,-3.108158841780945,-4.269583123605567,-10.902594287593622
590,-0.8054495065091031,0.594611911873369,0.4301974986625324,0.4156647424492358,0.7432054241086525,-4.783962907766957
600,-0.7870727109418432,0.6024570509145126,0.45133986810889726,-0.032609440140517365,-0.17031883691077188,-2.445281845082979
610,-0.771002533547288,0.6203476462500103,0.46737565419549665,-2.094875082236495,-3.773418574573302,-2.533650477581718
620,-0.8022116438814434,0.5961869844346267,0.43855986356498466,2.6152536794703396,-0.6474566993611127,1.8164109322536088
630,-0.8077053435541293,0.6027284829439425,0.43481407921362325,0.5890616838907343,-2.614236170242042,-2.1608798873140054
640,-0.805035228782776,0.5992241964992393,0.43075795260696376,2.4964741591909245,1.4885613780422045,-0.22851986586205875
650,-0.7889400206515536,0.6182265981259982,0.44623971615237384,2.166445582513653,2.9789536492860478,1.1189039559265832
660,-0.7909260501779773,0.6099793284495592,0.44363997918291703,3.6007743267775845,4.723916208238881,4.757068701433837
670,-0.7833757097059559,0.6226250822078696,0.4561835895061189,-0.6790100143155137,-0.7439409445514473,0.7953230063146906
680,-0.7777200548640968,0.6303193667604563,0.45840038940460254,1.8144410740151387,2.116231753697085,3.6815609486318923
690,-0.791814074569747,0.6165293033308028,0.442712339072693,-0.4698033102903562,0.9409174424153678,0.39054371926769804
700,-0.7956462448691469,0.6177309926088886,0.4390160429241328,-1.1745606564917865,0.32882399283223673,-1.3672957664050076
710,-0.8113240531835324,0.5984201526956132,0.42301049857135875,-2.950664013066622,-0.36864032146689163,-2.7701197300731777
720,-0.7967662995065572,0.608769390447933,0.4361246978365879,-1.6578907680097221,2.1750150858846067,-0.3258680630545945
730,-0.786898281379147,0.6130780071660398,0.44420025843500255,-2.859807466381796,0.09920616440325303,-0.6474980165038634
740,-0.7820046205888114,0.6112840531537224,0.44900467706280034,1.3196132976497363,1.8972000195702803,4.142231451472061
750,-0.8136987174034369,0.5944822098684776,0.41983776319562494,0.2641705449951979,-0.2962094165540836,3.052013704340759
760,-0.7908009072700345,0.6277368597989598,0.444807262009333,1.9648368280357345,2.692506899808193,2.4821102481242576
770,-0.7967908844432292,0.6200261254879764,0.43988056992870433,0.7253860888713227,0.767819635013207,-2.459376533587852
780,-0.7927559629422172,0.6227539389390432,0.44430247909746234,1.1793573701468896,2.110516183165797,-1.9928944282428596
790,-0.7747715806286462,0.633023572167368,0.4561661370941882,1.2750669143556064,0.21494621897169774,-3.2461748096415133
800,-0.7896889182018471,0.6154409777077446,0.4421621034632368,-1.2765461753272858,-1.6471247898690262,-4.566325216031533
810,-0.7614975733503465,0.6408214145645269,0.47187538862290046,-0.09452282320170768,-0.6920113138521526,-2.351633735556698
820,-0.8116110429323555,0.6007066188601855,0.42409976139714534,0.027311567092246553,0.4510316017650079,-1.8342937934636712
830,-0.7962277829806254,0.6149155155550047,0.43568268087708534,1.159848241753942,1.0144822627878805,-1.2862420614650054
840,-0.7940710119105373,0.6118876830460744,0.4363522380981386,-2.5849837480079216,-2.966428969926675,-4.906361478841733
850,-0.8194619448830733,0.584369213129245,0.4110765444916689,1.491883730345278,1.0215921540396489,-0.7109601360178865
860,-0.7789326951333323,0.6246686971695319,0.4515763863915004,1.3195548971541904,0.18103034422148212,-1.361775686893354
870,-0.8029110211837158,0.605439303141585,0.43070652652114055,0.11442600907300737,-1.063935092180686,-2.2917768462727177
880,-0.7763251554370472,0.6359314658520462,0.4580524226826792,0.8526364443979328,0.2768352168699907,-0.4256696136185311
890,-0.8069204161569354,0.5920945774539783,0.4219706046356053,-0.7925920386519107,-0.6810516545004746,-1.3549634016541015
900,-0.7772420609812243,0.6217761419458004,0.45230639898559005,2.46225678195341,2.182590714037382,1.896480671295901
910,-0.8242646311743925,0.5773368106482004,0.4082824180251343,0.6864702532712361,0.11408619853862123,-0.635483174987787
920,-0.7702907209244303,0.6377092611155547,0.46570407238709643,0.1917106785956657,-0.6406800800353649,-1.3219432939169902
930,-0.7762359184271855,0.6304023413502661,0.4517850788996857,1.3150527984075038,0.14531094042390322,-1.1067364212999293
940,-0.7981878185621402,0.6063436547597763,0.4318490396213526,0.029819664577544203,0.0645718235672772,-2.19211172071474
950,-0.8316555093492896,0.5721404317286921,0.4065298482823204,-2.5151093285649804,-2.5966864722717093,-3.3327763118773164
960,-0.7877619272508426,0.6143372931022149,0.4494154189130291,-0.36221653033298895,-0.5685116602261993,-0.16543226128662356
970,-0.780399319198793,0.6191681677391657,0.4524261813258572,0.4287814878848238,0.7209380868838524,1.2258335723249076
980,-0.790705253556675,0.6092047819065277,0.44295451003658587,0.12260102314009175,0.4739208020767869,1.318991485206942
990,-0.7935091912736915,0.608069031964515,0.4394292178839423,1.936373837179728,1.5601818341090277,3.6213321309395594
1000,-0.8132557091256316,0.5873733047661136,0.4165041982504515,-1.1509360790825556,-2.1463272368223896,1.039836053901831
1010,-0.7791915984669843,0.620130211000055,0.45406932231853936,0.16045844419021624,-0.5861622466829368,1.7982102832405298
1020,-0.7918266778303971,0.6066609016267289,0.43739704055381,-3.2977100396125825,-2.817584761398307,-2.893409566970588
1030,-0.7770112873231454,0.6187034398264962,0.46201372428024445,-0.37790322706648993,0.19613692591027543,1.1363092481132013
1040,-0.7786884893642095,0.6150102234019678,0.4586106392761474,2.7099683038182603,1.4546418969539217,3.166030500823738
1050,-0.8115416712127166,0.5856555317013538,0.4223716176699609,1.9485659126782136,-0.64177980596174,1.3573215898363178
1060,-0.776314033806372,0.6282893048256504,0.4565997691416049,5.306289003388089,2.550601629197248,4.040263701903865
1070,-0.7838199138172286,0.6191225621949695,0.4461280877440818,3.3235138692619595,1.8605346486380387,1.6239127481563893
1080,-0.7840429662956362,0.6197147968216916,0.44781046714195827,-2.405195812385245,-0.7622838048118933,-1.593713351845428
1090,-0.7708117454392595,0.6254638142568292,0.4646387123080625,-0.7715582463478436,0.6813997892198798,0.54422866526444
1100,-0.7852639527766663,0.6104159667812735,0.4518590156920521,-2.6573554169966664,-3.407977418666449,-2.4287807601365388
1110,-0.7932592628774658,0.6056562722976988,0.44382873160002595,4.179732974775811,1.3418233731283562,2.8132796536242224
1120,-0.7985551203566701,0.6033044057507588,0.4373360105464383,2.832188370543875,-0.9807478696588181,-0.08227510647750141
1130,-0.7726938388306579,0.6356843510768646,0.46342954950463994,0.6491787676021046,-2.098121972395718,-2.6887270087549737
1140,-0.8040275479695622,0.5996120425407953,0.43580293876568993,-1.2860373770857283,-1.7029185516378584,-3.4102289252140414
1150,-0.789317788874901,0.5954017733925119,0.449332410026784,-2.8657321428125755,-2.557669797665378,-2.289767032642571
1160,-0.7871200748989299,0.6044375547561783,0.45107639311054554,1.9016078385611956,-1.0734646833818131,1.5832549455091895
1170,-0.7913940344806961,0.6099427460796365,0.4546822667500714,1.1763634176912547,-1.287145205428165,-0.37975055773619726
